imu_index,t_imu,ax,ay,az,mag,vx,vy,vz,velocity
0,1791353677.573073,-0.05987548828125,0.02145937499999995,0.022848486328124914,0.06758426000035245,0.0,0.0,0.0,0.0
1,1791353677.593073,-0.01676513671875,0.026249414062499952,0.027638525390624915,0.04164120115451964,-0.00019130200261861316,9.892379237757973e-05,0.00010486223764196584,0.00023953801741588847
2,1791353677.6176379,-0.03113525390625,0.007089257812499952,0.008478369140624914,0.033038528348330654,-0.00047927413993947995,0.00026362377795557197,0.0002808805596433998,0.0006148943700375589
3,1791353677.6376379,-0.03592529296875,-0.045601171875000054,-0.005891748046875088,0.05835071761608139,-0.0007791535010161716,0.00031983516804933327,0.00040657245089171,0.0009352410762423742
4,1791353677.6625617,-0.03113525390625,-0.045601171875000054,-0.0011017089843750872,0.055227571690833956,-0.0012221597654274619,0.00020889460675456106,0.0005266404016503638,0.0013470937464079133
5,1791353677.6825616,-0.026345214843750003,-0.02644101562500005,0.008478369140624914,0.03827636863300309,-0.0016105453404282768,2.516128051932855e-05,0.0006196011235479891,0.0017258026932168511
6,1791353677.6930351,-0.01676513671875,0.011879296874999952,-0.0011017089843750872,0.020576716602242834,-0.0018172886668137026,-6.806118561733854e-05,0.0006667746007891767,0.0019369457379531127
7,1791353677.713035,-0.00239501953125,-0.002490820312500049,0.022848486328124914,0.023108302228219687,-0.002181603097540781,-0.00020529198610901782,0.0007759640899965023,0.0023245767665801475
8,1791353677.7522466,0.00718505859375,-0.002490820312500049,0.05158872070312492,0.052146192158294864,-0.00277464290617901,-0.0004486361815468076,0.0011768370283882445,0.003047107328531123
9,1791353677.7722466,0.01676513671875,-0.007280859375000049,0.046798681640624916,0.05024139056333402,-0.0029958275296912908,-0.0005687945261943213,0.0014982147455659105,0.003397522218399163
10,1791353677.7974586,0.01676513671875,-0.01207089843750005,0.018058447265624913,0.027438730217198035,-0.003169427238338487,-0.0007341380802252365,0.0019652137733442714,0.0038008279249264563
11,1791353677.8174586,0.04071533203125,-0.01207089843750005,-0.010681787109375087,0.04378978679273725,-0.003200261450065392,-0.0008818386126909105,0.0022911669141805445,0.004033454910649538
12,1791353677.812486,0.07424560546875,-0.02165097656250005,-0.029841943359375088,0.08289581594384217,-0.003200261450065392,-0.0008818386126909105,0.0022911669141805445,0.004033454910649538
13,1791353677.832486,0.02155517578125,-0.02644101562500005,-0.010681787109375087,0.03574707660903329,-0.002932263077679697,-0.0011036855165038639,0.0024142148136278435,0.003955340900909065
14,1791353677.857287,-0.045505371093750004,-0.02165097656250005,0.027638525390624915,0.05747513958450247,-0.0026943301413074497,-0.0014269767236496753,0.002575453560899797,0.003991069847114584
15,1791353677.877287,-0.00718505859375,-0.007280859375000049,0.022848486328124914,0.025033763355130165,-0.0026102733563173335,-0.0016919760557357988,0.002761705934296652,0.0041597271106904084
16,1791353677.902741,0.01676513671875,0.016669335937499953,-0.0011017089843750872,0.023667495272670064,-0.0025010520214663566,-0.001960728678581705,0.003004709121338653,0.004373556341119822
17,1791353677.922741,0.00718505859375,0.02145937499999995,-0.025051904296875087,0.03375985413603015,-0.0023921811476426517,-0.0020830273879498254,0.003127773193279668,0.004454716477025769
18,1791353677.9331484,0.00239501953125,-0.04081113281250005,-0.015471826171875088,0.04371112083997968,-0.0023365479021216677,-0.0021522273612680077,0.003150575372963675,0.004474110402552111
19,1791353677.9531484,0.02155517578125,-0.06955136718750005,-0.005891748046875088,0.0730529326971813,-0.0022097488491156954,-0.002430805238592115,0.003155776127100327,0.004555296592814935
20,1791353677.9772365,-0.00239501953125,-0.007280859375000049,0.003688330078124913,0.008505927965765757,-0.002045323739509643,-0.002854804467220165,0.003157119665364012,0.004722357708485253
21,1791353677.9972365,-0.01676513671875,0.02145937499999995,0.003688330078124913,0.027480508789944253,-0.0019580224547577543,-0.0031327702258760752,0.003169132834678777,0.004867391924358502
22,1791353678.022631,0.011975097656250001,0.002299218749999951,-0.0011017089843750872,0.012243493513835356,-0.0018729242852875943,-0.003387518648340272,0.0031870246589562196,0.005014005798567464
23,1791353678.042631,0.05987548828125,-0.03602109375000005,0.003688330078124913,0.06997283094622941,-0.001708180624911505,-0.0036086394950872883,0.0032028820404759392,0.005118458109433954
24,1791353678.052778,0.03592529296875,-0.02644101562500005,0.008478369140624914,0.045405249976811224,-0.0015642271320739898,-0.0037515339591404845,0.003218979815685658,0.005184847598637049
25,1791353678.072778,-0.011975097656250001,-0.01207089843750005,0.018058447265624913,0.0248035697150737,-0.001287128699138294,-0.004048700700420495,0.0032857544871918035,0.005370741122027007
26,1791353678.0973423,-0.011975097656250001,0.002299218749999951,0.008478369140624914,0.014851670411835043,-0.0010419667602104207,-0.004376940081819863,0.0034043553696375727,0.005642068299126203
27,1791353678.1173422,0.050295410156250005,-0.01207089843750005,0.013268408203124913,0.05339836634316269,-0.0008148191983835898,-0.0046187594376672575,0.003519054613358304,0.00586349848135848
28,1791353678.1426735,0.026345214843750003,-0.002490820312500049,0.03242856445312491,0.041855541132363644,-0.000424671521425045,-0.004906762204761377,0.0037293546085994515,0.006177762299721976
29,1791353678.1626735,-0.01676513671875,0.007089257812499952,0.008478369140624914,0.020080092848768702,-0.0001484706008370708,-0.005093145213389388,0.003931848738632648,0.006435961947329342
30,1791353678.1727881,0.01676513671875,-0.03602109375000005,-0.025051904296875087,0.04697006400937155,-2.973904042448007e-05,-0.005195214097353727,0.004006322987604598,0.006560621754748348
31,1791353678.1927881,0.00239501953125,-0.07913144531250005,-0.005891748046875088,0.07938661380137152,0.00019855633166650794,-0.005539492520595274,0.004085078325131325,0.006885729222459565
32,1791353678.2178607,-0.02155517578125,-0.05997128906250005,0.06595883789062491,0.09171558979072349,0.0004057949720460771,-0.0061679253713179455,0.004281951610318853,0.007519513450922054
33,1791353678.2378607,-0.00239501953125,-0.007280859375000049,0.09469907226562492,0.09500874338587816,0.000510383943752845,-0.00669490047574952,0.0046564244436064234,0.008170952989048906
34,1791353678.2624917,0.05987548828125,0.007089257812499952,0.08032895507812492,0.10043939813237437,0.0007260549259429528,-0.007246902238151098,0.005371763863014974,0.009049894739984491
35,1791353678.2824917,0.08382568359375,0.011879296874999952,-0.015471826171875088,0.08606532594080261,0.0010904595380111677,-0.007599433237965608,0.00596276660768637,0.009720857635007088
36,1791353678.3077135,0.04071533203125,0.04061953124999995,-0.1352228027343751,0.14694519713391238,0.0017166616269264547,-0.007878012570599027,0.006311219821583356,0.010239214073366408
37,1791353678.3277135,0.00718505859375,-0.01207089843750005,-0.1687530761718751,0.1693367425385133,0.0022105841200493075,-0.008022957367561182,0.006090120452469415,0.010312327293055855
38,1791353678.3379018,-0.00239501953125,-0.05518125000000005,-0.1256427246093751,0.13724722480758889,0.002428115176839445,-0.008137108263836351,0.005769427976072367,0.010266185921776323
39,1791353678.3579018,-0.02155517578125,-0.045601171875000054,-0.025051904296875087,0.0563177626351906,0.0027551562133932977,-0.008478750775767185,0.005008287666068556,0.010225607357211931
40,1791353678.4129581,-0.03592529296875,-0.002490820312500049,0.07074887695312491,0.0793866138013714,0.0032830485703033343,-0.009476741519114967,0.0034159912720772324,0.010595094813450045
41,1791353678.4329581,0.03592529296875,-0.002490820312500049,0.08511899414062492,0.09242334133881669,0.0034460481914497425,-0.009792367919358539,0.0031581325663415077,0.010850784253336857
42,1791353678.4274228,0.11735595703125,0.002299218749999951,0.03242856445312491,0.1217756907189256,0.0034460481914497425,-0.009792367919358539,0.0031581325663415077,0.010850784253336857
43,1791353678.4474227,0.08861572265625,-0.007280859375000049,-0.010681787109375087,0.0895536587246884,0.004068206049984422,-0.010028124739104938,0.003154322780630926,0.01127223750870188
44,1791353678.458119,0.02155517578125,-0.04081113281250005,0.008478369140624914,0.04692607918508434,0.004439411927732625,-0.010173876926067011,0.003150823288189124,0.011538797050136915
45,1791353678.478119,0.01676513671875,-0.05039121093750005,0.042008642578124915,0.06771314495873496,0.005086869156003473,-0.010542331845055123,0.00322099180813816,0.012140501915887003
46,1791353678.5030212,0.045505371093750004,-0.045601171875000054,0.018058447265624913,0.06690525534215194,0.005888407033451187,-0.011111568985091459,0.0034074405535906007,0.013028850825314475
47,1791353678.5230212,0.00239501953125,0.031039453124999953,-0.0011017089843750872,0.03115120433531248,0.006507440220036379,-0.011522010392720128,0.003560157858931964,0.013703219537313587
48,1791353678.548002,-0.03113525390625,0.016669335937499953,-0.015471826171875088,0.03855707719079083,0.0071108115235228786,-0.011868384375571354,0.003691243933855181,0.014319478691230162
49,1791353678.568002,-0.06945556640625,0.02145937499999995,0.013268408203124913,0.07389608336338523,0.0073705331503763774,-0.012046906632676463,0.003777145825991324,0.014619150075432736
50,1791353678.5780518,-0.09819580078125001,0.007089257812499952,0.018058447265624913,0.10009385787873493,0.007355099914526825,-0.012101638511896516,0.00383744824358576,0.014672189967673159
51,1791353678.5980518,-0.07424560546875,0.016669335937499953,0.027638525390624915,0.08095779627550842,0.00707033163792195,-0.012158583513894237,0.004007999456899698,0.014624800927911774
52,1791353678.622943,-0.026345214843750003,-0.002490820312500049,0.013268408203124913,0.02960279019344732,0.006581296074857794,-0.012192355218152364,0.004264787725381578,0.014496737499627672
53,1791353678.642943,0.026345214843750003,-0.02644101562500005,0.003688330078124913,0.03750735169550155,0.006247297821424208,-0.012258818104432918,0.0044656023507578324,0.014465440046615858
54,1791353678.6674368,0.01676513671875,-0.04081113281250005,0.003688330078124913,0.04427439609303665,0.005978803586802022,-0.012451550732639058,0.004688200253208219,0.0145865153340756
55,1791353678.6874368,-0.00718505859375,-0.002490820312500049,0.03242856445312491,0.03330827292603536,0.005806825598002158,-0.012650269443203906,0.004896869342903488,0.014755604693564395
56,1791353678.6979978,0.03592529296875,-0.002490820312500049,0.022848486328124914,0.04264837849445383,0.005752398969823006,-0.01274340867044951,0.005034312419900813,0.014860311571137265
57,1791353678.7179978,0.08861572265625,0.002299218749999951,-0.005891748046875088,0.088841124507728,0.005851599982077128,-0.012893621926641799,0.005280989092903516,0.015112099607162107
58,1791353678.7427783,0.055085449218750006,-0.01686093750000005,-0.029841943359375088,0.06487865220913998,0.006223149930279263,-0.013078885949303821,0.005474369807743389,0.015483978090967583
59,1791353678.7627783,-0.00718505859375,-0.01686093750000005,-0.02026186523437509,0.027321410343364536,0.006549891998457683,-0.013256563964863372,0.005531877649678159,0.01578731274400374
60,1791353678.8023057,-0.04071533203125,-0.01686093750000005,-0.02026186523437509,0.048503326262946324,0.006956788084556665,-0.013655018640928732,0.005508351161901648,0.01628491225215426
61,1791353678.8223057,-0.03592529296875,-0.01207089843750005,-0.010681787109375087,0.039375548755909054,0.0070168254611477415,-0.013869784069310834,0.0054518174363757,0.016472069179101025
62,1791353678.817438,-0.00718505859375,0.011879296874999952,-0.005891748046875088,0.015081626447033513,0.0070168254611477415,-0.013869784069310834,0.0054518174363757,0.016472069179101025
63,1791353678.8374379,0.011975097656250001,0.04540957031249995,-0.0011017089843750872,0.04697494866978413,0.007012421871653526,-0.013939263164247248,0.005379350406968665,0.016504984970279097
64,1791353678.8625138,0.00718505859375,0.031039453124999953,0.003688330078124913,0.03207298701493035,0.007043763226212421,-0.013869531755719696,0.005306984956939887,0.01643601535783676
65,1791353678.8825138,0.03592529296875,0.002299218749999951,0.013268408203124913,0.03836617961167911,0.007129676274397998,-0.01377225002976432,0.00528336055010774,0.01638356046048879
66,1791353678.9082394,0.055085449218750006,-0.03602109375000005,0.008478369140624914,0.06636119840586424,0.0073992063429643125,-0.013730951775717216,0.005299489732846241,0.016473368890466147
67,1791353678.9282393,0.026345214843750003,-0.01686093750000005,0.008478369140624914,0.032407472931824756,0.00769946298551058,-0.013782984049562505,0.0053355832967457,0.01666495810652561
68,1791353678.9383698,0.026345214843750003,0.016669335937499953,-0.005891748046875088,0.031727744968850675,0.007868769429541796,-0.01380553173728481,0.005353088379104661,0.016767999107793842
69,1791353678.9583697,0.06466552734375,-0.01686093750000005,0.013268408203124913,0.06813202107870381,0.008289401070654252,-0.013843656748966907,0.005393528897453365,0.017013264127175753
70,1791353678.9823484,0.08382568359375,-0.045601171875000054,0.027638525390624915,0.09934837790372324,0.008985112236781298,-0.013994841863074562,0.005508308837038706,0.017519398018317298
71,1791353679.0023484,0.026345214843750003,-0.03602109375000005,-0.010681787109375087,0.04588779920588533,0.009643600900930251,-0.014224459579194064,0.00561511848530258,0.018079376213258447
72,1791353679.0286887,-0.01676513671875,-0.01207089843750005,-0.04421206054687509,0.048800437457950825,0.010399679250359756,-0.014576514397841828,0.00562624396802491,0.018769196085303974
73,1791353679.0486887,-0.01676513671875,-0.04081113281250005,-0.010681787109375087,0.04539514232258679,0.01083735653597719,-0.014883053400527153,0.00555108365692308,0.01922935529280659
74,1791353679.0727599,-0.03592529296875,-0.01207089843750005,0.022848486328124914,0.04425366189893748,0.011189988308390988,-0.015292121397472214,0.005496157622096508,0.019729991479569473
75,1791353679.0927598,-0.06945556640625,0.007089257812499952,0.05158872070312492,0.08680857898232251,0.011280958775152176,-0.015588492806266218,0.005569022528099025,0.020031853403421535
76,1791353679.1028094,-0.03592529296875,0.002299218749999951,0.018058447265624913,0.04027431687063389,0.011240385439574261,-0.015707999024431197,0.00565263805179788,0.020125600987954566
77,1791353679.1228094,0.026345214843750003,0.016669335937499953,-0.029841943359375088,0.04315644435336076,0.011157381030759255,-0.015881704266186937,0.0057764077735742445,0.02025049551568494
78,1791353679.1474524,0.045505371093750004,-0.01207089843750005,-0.03463198242187509,0.05844501342233916,0.01120324409347817,-0.01605513137738078,0.005786872985364334,0.02041489213078898
79,1791353679.1674523,0.05987548828125,-0.05039121093750005,-0.0011017089843750872,0.07826596961229051,0.011392953956127988,-0.016268463487037938,0.00574049194638083,0.02067403085665691
80,1791353679.192023,0.03592529296875,-0.05997128906250005,0.05637875976562492,0.08980950250067364,0.01176760154290532,-0.0166946131200499,0.0057939229749198505,0.02123101732701554
81,1791353679.212023,0.07903564453125,-0.03602109375000005,0.05158872070312492,0.10102251434804735,0.012199254040073123,-0.017133446059484143,0.005992841913041481,0.021869863447269162
82,1791353679.222788,0.11735595703125,-0.002490820312500049,0.013268408203124913,0.11812990939129053,0.012555304814039039,-0.017365312992908763,0.006136214932941926,0.02228997326194846
83,1791353679.242788,0.09340576171875001,0.02145937499999995,-0.04421206054687509,0.1055454754854564,0.013433715073063533,-0.017703019630355202,0.00631621119197786,0.0231031627384361
84,1791353679.2674747,0.03592529296875,0.011879296874999952,-0.02026186523437509,0.04292187731112049,0.014594781489026439,-0.017995608505639818,0.006385686715379196,0.02403386292354301
85,1791353679.2874746,0.00718505859375,-0.06955136718750005,0.003688330078124913,0.07001872266337968,0.015458995304313971,-0.018283602808060087,0.006408669556531908,0.024785917633739586
86,1791353679.312584,0.00718505859375,-0.03602109375000005,0.018058447265624913,0.040929839721006354,0.01640829928320003,-0.01878974846764192,0.006474149063146095,0.02577210777053654
87,1791353679.332584,0.01676513671875,0.011879296874999952,-0.02026186523437509,0.028857073417426462,0.017086940905393932,-0.019168641771244034,0.006515176156748438,0.026492412068593704
88,1791353679.3430707,0.011975097656250001,0.02145937499999995,-0.04900209960937509,0.054818915580249,0.017412010058702944,-0.019311289871513083,0.006478984555324683,0.02679703811345784
89,1791353679.3630707,0.045505371093750004,-0.01207089843750005,-0.025051904296875087,0.053329572437514704,0.018025193015518443,-0.01952845081584921,0.006309234259572783,0.027314362732011585
90,1791353679.3880768,0.03113525390625,0.007089257812499952,0.018058447265624913,0.036684726110250615,0.01882059432634101,-0.019768583269407204,0.006115714800898096,0.027971657491148248
91,1791353679.4080768,0.04071533203125,0.002299218749999951,0.018058447265624913,0.04459968819308763,0.01946911149244837,-0.019917750936016155,0.006038328853137334,0.028499552978830885
92,1791353679.4473915,0.05987548828125,-0.03123105468750005,-0.010681787109375087,0.06837070607842029,0.020849307472848865,-0.020252300543866765,0.005930777214101295,0.02966518865235481
93,1791353679.4673915,0.050295410156250005,-0.04081113281250005,-0.025051904296875087,0.06944620042251932,0.021611370489003513,-0.020505025416825643,0.005830670613581906,0.030356286359858403
94,1791353679.4624128,0.08861572265625,-0.05039121093750005,-0.03463198242187509,0.10766333938767694,0.021611370489003513,-0.020505025416825643,0.005830670613581906,0.030356286359858403
95,1791353679.4824128,0.09340576171875001,-0.04081113281250005,-0.005891748046875088,0.10210238772304632,0.022612104509782988,-0.020940705400082586,0.00562146117397849,0.031327643364047406
96,1791353679.5375123,0.050295410156250005,-0.002490820312500049,0.022848486328124914,0.055298153640976934,0.025549393399440633,-0.02213989413682087,0.005201622129074545,0.034205310819267434
97,1791353679.5575123,0.03592529296875,-0.007280859375000049,0.018058447265624913,0.04086251467756727,0.026584973480210973,-0.022524540367858788,0.005133448471524169,0.03522027863229669
98,1791353679.5531256,0.07424560546875,-0.03123105468750005,0.008478369140624914,0.08099179866875164,0.026584973480210973,-0.022524540367858788,0.005133448471524169,0.03522027863229669
99,1791353679.5731256,0.055085449218750006,-0.04081113281250005,-0.02026186523437509,0.07148775041814494,0.027667644247136424,-0.022959613091578217,0.005100352185310755,0.03631330285054329
100,1791353679.5825164,0.01676513671875,-0.02644101562500005,-0.010681787109375087,0.0330801706816922,0.028150354985667883,-0.023180621786953428,0.005065349107712328,0.0368163207535992
101,1791353679.6025164,0.011975097656250001,-0.03123105468750005,-0.015471826171875088,0.03685321079448929,0.029067304334925475,-0.023667216260292497,0.004962753539301486,0.037811033171582076
102,1791353679.6282253,0.04071533203125,-0.01686093750000005,-0.010681787109375087,0.04534457025536632,0.03017078661975957,-0.024291613386778797,0.004800225981627704,0.03903077011362302
103,1791353679.6482253,0.07424560546875,-0.002490820312500049,-0.015471826171875088,0.07588143068197359,0.03107290400017868,-0.024733522734364452,0.004653524475809532,0.039986595252691895
104,1791353679.6724143,0.06945556640625,-0.01207089843750005,-0.005891748046875088,0.07074245535001808,0.03226100971615434,-0.025214237752915848,0.0044639531902973964,0.04118807365550783
105,1791353679.6924143,0.050295410156250005,-0.02644101562500005,-0.005891748046875088,0.05712677380278681,0.03327563463645512,-0.02560985124624865,0.004313047593907374,0.042210599626884546
106,1791353679.717819,0.055085449218750006,-0.04081113281250005,-0.0011017089843750872,0.06856507157261091,0.03457191321414744,-0.02616513431110788,0.0041367897606004395,0.04355392595769371
107,1791353679.737819,0.045505371093750004,-0.05039121093750005,-0.010681787109375087,0.0687321868848761,0.03559022627320406,-0.026673514852683416,0.004001168590713193,0.04465590611403487
108,1791353679.748103,0.05987548828125,-0.02165097656250005,-0.029841943359375088,0.07031628877075484,0.0361165783301144,-0.026951277655373265,0.003910637102798354,0.04523352385213974
109,1791353679.768103,0.07903564453125,-0.01686093750000005,-0.029841943359375088,0.08614793034840226,0.03719503648335446,-0.027468204114127506,0.003671457355781734,0.046383753355768484
110,1791353679.7931821,0.07903564453125,0.011879296874999952,0.022848486328124914,0.08312523159787889,0.03864185497186618,-0.028028550268233143,0.0034033687412845784,0.04785786773974332
111,1791353679.813182,0.07424560546875,0.007089257812499952,-0.005891748046875088,0.07481564143146291,0.03985250334466185,-0.02837992841552609,0.00324707980801888,0.04903249827396432
112,1791353679.8377285,0.045505371093750004,0.002299218749999951,-0.03463198242187509,0.05723110528121325,0.04133593780081984,-0.02872920996497826,0.003009432368719554,0.05042899902106871
113,1791353679.8577285,0.045505371093750004,-0.045601171875000054,-0.025051904296875087,0.06912165784797833,0.04249982958276186,-0.029036063247939562,0.002755320162662002,0.05154532251039777
114,1791353679.8674774,0.050295410156250005,-0.06476132812500006,0.008478369140624914,0.08243506927627367,0.04305211172797445,-0.0292438955872005,0.0026379157364263732,0.05211188302859114
115,1791353679.8874774,0.07903564453125,-0.02644101562500005,-0.029841943359375088,0.08852288967953857,0.04420916581705551,-0.029743112522605444,0.0024011430996106232,0.05333730938992972
116,1791353679.912597,0.07424560546875,-0.05039121093750005,-0.03463198242187509,0.09618242187446711,0.04573319209357081,-0.03042081661852592,0.0020269023227446766,0.054964163559826675
117,1791353679.932597,0.07424560546875,0.002299218749999951,0.008478369140624914,0.0747634876230793,0.04698733368428974,-0.03095159976928531,0.001734399533161459,0.056292265869988235
118,1791353679.9576015,0.09340576171875001,0.002299218749999951,0.003688330078124913,0.0935068259962098,0.04863451140131979,-0.03150703807868408,0.0014463743053755762,0.05796637944850449
119,1791353679.9776015,0.10298583984375001,-0.04081113281250005,-0.010681787109375087,0.11129120515841338,0.050048971111328465,-0.031942433718888656,0.0012400633910690402,0.05938649963082566
120,1791353679.9884129,0.12693603515625002,-0.10787167968750005,-0.05379213867187509,0.17505042268639512,0.05088532184458079,-0.03226304955078306,0.001092988595661648,0.06026122276898387
121,1791353680.0084128,0.07903564453125,-0.09350156250000005,-0.05379213867187509,0.13372647261969398,0.05250937632100346,-0.033069252881194285,0.0007003485209850869,0.062058847683404354
122,1791353680.0328422,0.03592529296875,-0.07913144531250005,-0.005891748046875088,0.08710410442214282,0.05440617757020882,-0.034222589228201816,0.00018333832113273684,0.06427481142892078
123,1791353680.0528421,0.09340576171875001,-0.08871152343750005,0.013268408203124913,0.12950066165509264,0.05592012838197339,-0.035276942222498095,-0.00016537603613379519,0.06611770383232604
124,1791353680.0924327,0.11256591796875001,-0.05997128906250005,-0.02026186523437509,0.129144045866394,0.05907909565564173,-0.03749248176215396,-0.0007728891408979443,0.06997587505560776
125,1791353680.1124327,0.12214599609375,-0.03123105468750005,-0.04421206054687509,0.13360287959631917,0.06078760629363073,-0.038580625590840925,-0.0011304627096754547,0.07200608096423573
126,1791353680.1383953,0.09340576171875001,-0.06476132812500006,-0.03942202148437509,0.12030279182416491,0.06309251719006204,-0.039968211477966566,-0.0016878651930727745,0.07470590701568196
127,1791353680.1583953,0.07424560546875,-0.06955136718750005,-0.02026186523437509,0.10373208660702683,0.0648532211660772,-0.041078254416391256,-0.0021423711941104236,0.07679813172107278
128,1791353680.1524265,0.07424560546875,-0.06476132812500006,-0.029841943359375088,0.1029416394633355,0.0648532211660772,-0.041078254416391256,-0.0021423711941104236,0.07679813172107278
129,1791353680.1724265,0.10777587890625001,-0.05997128906250005,-0.03463198242187509,0.12810764923415646,0.06658768786831652,-0.04223860770996087,-0.0026313448713353787,0.07889831514523118
130,1791353680.1974967,0.09819580078125001,-0.08871152343750005,-0.04900209960937509,0.14111468898665433,0.06882301577027923,-0.04375450868725838,-0.0033095927315470418,0.08162118557230214
131,1791353680.2174966,0.06945556640625,-0.03602109375000005,-0.03463198242187509,0.08556266186969852,0.07059025841475462,-0.044969533094361136,-0.0038949605696456903,0.08378791206150069
132,1791353680.2274108,0.09340576171875001,-0.03602109375000005,-0.0011017089843750872,0.10011677821370626,0.07145598746937364,-0.04553505412374939,-0.004168176805953413,0.08483379631468674
133,1791353680.2474108,0.16046630859375,-0.05518125000000005,0.003688330078124913,0.16972922648746241,0.07332127601763958,-0.04664156634450403,-0.004632785554132385,0.08702245646908754
134,1791353680.2726517,0.15088623046875002,-0.06476132812500006,-0.010681787109375087,0.1645441726146286,0.07591165547999255,-0.04805562475169332,-0.0051444286532637,0.08999104207729325
135,1791353680.2926517,0.08382568359375,-0.05039121093750005,-0.029841943359375088,0.10225732713684269,0.07800836810017067,-0.049180735116322295,-0.005549810660767727,0.09238425514449934
136,1791353680.3173802,0.07424560546875,-0.08392148437500005,-0.03942202148437509,0.11878266392466195,0.08050510255415103,-0.05061228711978113,-0.0061043122158368456,0.09528870747563926
137,1791353680.3373802,0.12214599609375,-0.11745175781250006,-0.05379213867187509,0.17778682166537205,0.08251610524498335,-0.051898487456648046,-0.0066253332941042745,0.09770494187269643
138,1791353680.3631475,0.15567626953125,-0.08392148437500005,-0.07774233398437509,0.1931884751433374,0.08525528453126882,-0.053696185166838405,-0.007450106821403839,0.10103092562987498
139,1791353680.3831475,0.10298583984375001,-0.05518125000000005,-0.04900209960937509,0.12669751112793082,0.08745044982029668,-0.055090869451731535,-0.008184367312232698,0.10368012798517127
140,1791353680.392778,0.06466552734375,-0.05039121093750005,-0.010681787109375087,0.08267408990876716,0.08847000990918652,-0.055737958793140724,-0.008528004508079385,0.10491134144908851
141,1791353680.412778,0.08382568359375,-0.07434140625000005,-0.02026186523437509,0.1138592688188494,0.09049250872380796,-0.05706732169565191,-0.009181020029948304,0.10737720647061831
142,1791353680.4384036,0.13172607421875002,-0.08392148437500005,-0.029841943359375088,0.1590129420904197,0.09310947404414721,-0.058819292103660346,-0.009988510919995815,0.1105841472850079
143,1791353680.4584036,0.15088623046875002,-0.07913144531250005,-0.025051904296875087,0.17220928572877167,0.09526947571957636,-0.06022612095511637,-0.010606537622538275,0.11320758494695299
144,1791353680.483195,0.12214599609375,-0.05518125000000005,-0.03463198242187509,0.13843405982548498,0.09805300289326999,-0.0619581462907858,-0.011368688464514344,0.11654377008481065
145,1791353680.503195,0.12214599609375,-0.06476132812500006,-0.04421206054687509,0.1451495100923488,0.10032815749946412,-0.063325742354779,-0.012009575591761783,0.11924813934781277
146,1791353680.513254,0.13651611328125002,-0.08871152343750005,-0.029841943359375088,0.1655201654164391,0.10149593129831877,-0.06402617587643261,-0.01233942415864528,0.12063596750571483
147,1791353680.533254,0.14130615234375002,-0.07434140625000005,-0.029841943359375088,0.16243341699566252,0.10388625737724047,-0.06545452089307907,-0.012986409617716828,0.12347184137264619
148,1791353680.557629,0.08861572265625,-0.045601171875000054,-0.025051904296875087,0.1027609414474318,0.1067828378877705,-0.06715348245454052,-0.0137570059025342,0.12689137041005003
149,1791353680.577629,0.09340576171875001,-0.06955136718750005,-0.03942202148437509,0.12294765055837746,0.10907603055702511,-0.06851111701420133,-0.014391153282168959,0.12960886886861386
150,1791353680.6032128,0.18920654296875,-0.10787167968750005,-0.04421206054687509,0.22223888381331608,0.11211171330802634,-0.07032772279963868,-0.01524114364150013,0.13321905762519395
151,1791353680.6232128,0.15567626953125,-0.05039121093750005,-0.02026186523437509,0.164878495316066,0.11464619908179241,-0.07177222204756502,-0.015902659272623684,0.13619066558868168
152,1791353680.6335096,0.08382568359375,0.007089257812499952,-0.005891748046875088,0.08433098778823497,0.11594028708918921,-0.07243779750644534,-0.01621234608896027,0.13766707973810086
153,1791353680.6535096,0.09819580078125001,-0.05039121093750005,-0.025051904296875087,0.1131781221779119,0.1183498497259295,-0.07360161101839771,-0.01677005239182992,0.14037492201913537
154,1791353680.6928663,0.13172607421875002,-0.12224179687500006,-0.06337221679687509,0.19055406947652037,0.12305890549673146,-0.07605784733736727,-0.01796391254574797,0.1457772016386617
155,1791353680.7128663,0.09819580078125001,-0.07913144531250005,-0.0825323730468751,0.15071759528689635,0.12543784709642544,-0.07742086905001784,-0.018698452672495296,0.1485876057448661
156,1791353680.7215705,0.03113525390625,-0.03602109375000005,-0.03463198242187509,0.05887527016687069,0.12640231387748369,-0.07800026244716296,-0.019046666326984193,0.1497476590587635
157,1791353680.7415705,0.050295410156250005,-0.03602109375000005,-0.015471826171875088,0.06376930988198341,0.1284081420003373,-0.07923992816003253,-0.019801911620534133,0.15218322131763853
158,1791353680.7528648,0.09819580078125001,-0.07913144531250005,0.008478369140624914,0.1263965334635441,0.1294967450421388,-0.07993252440785462,-0.020170361643600525,0.15351045216386602
159,1791353680.7728648,0.13651611328125002,-0.07434140625000005,-0.015471826171875088,0.15621354382299685,0.13148734950962587,-0.08120521129048867,-0.02073543319294427,0.1559268020947601
160,1791353680.7974691,0.08861572265625,0.02145937499999995,-0.010681787109375087,0.09180060813050236,0.13398433517389277,-0.08263362487275039,-0.021374581712374753,0.1588615459290871
161,1791353680.8174691,0.08382568359375,0.016669335937499953,-0.005891748046875088,0.08566985867622622,0.13596825158142245,-0.08356337265913345,-0.021841052010933858,0.1610814521949145
162,1791353680.8577018,0.13651611328125002,-0.05997128906250005,-0.010681787109375087,0.1494901510905887,0.14002539985605855,-0.08528380019250105,-0.022688674532154323,0.16551499971951047
163,1791353680.8777018,0.17962646484375,-0.13182187500000006,-0.04421206054687509,0.2271505665821222,0.14221392839853506,-0.08629844237747626,-0.023129171252993255,0.16794993643991812
164,1791353680.8722303,0.12693603515625002,-0.11266171875000006,-0.04900209960937509,0.1766539715348058,0.14221392839853506,-0.08629844237747626,-0.023129171252993255,0.16794993643991812
165,1791353680.8922303,0.07903564453125,-0.04081113281250005,-0.02026186523437509,0.09122896936108402,0.14449496431010073,-0.08757344669867508,-0.023670173922838995,0.1706111966173393
166,1791353680.9176428,0.08382568359375,-0.04081113281250005,-0.005891748046875088,0.09341844831962723,0.14726896673495837,-0.08910606304856684,-0.024304322907155104,0.17383537944610905
167,1791353680.9376428,0.13651611328125002,-0.09350156250000005,-0.029841943359375088,0.16813605490442748,0.14945517555650623,-0.09033279081089042,-0.024782143647243078,0.17638315463802878
168,1791353680.9771283,0.12693603515625002,-0.11266171875000006,-0.04900209960937509,0.1766539715348058,0.15390411522889347,-0.09300193748058189,-0.02581748006524814,0.1816655700358493
169,1791353680.9971282,0.050295410156250005,-0.05039121093750005,-0.05379213867187509,0.08923282246700079,0.15608539918581613,-0.09439568538305548,-0.026417422819251184,0.18431244528339222
170,1791353680.991894,0.00718505859375,-0.03602109375000005,-0.04421206054687509,0.057479131515207,0.15608539918581613,-0.09439568538305548,-0.026417422819251184,0.18431244528339222
171,1791353681.011894,0.026345214843750003,-0.06476132812500006,-0.02026186523437509,0.07279177940161408,0.1577849597346473,-0.09566401731463958,-0.02707254749029676,0.18649563146319087
172,1791353681.0370665,0.045505371093750004,-0.05518125000000005,-0.015471826171875088,0.07317845690526087,0.15973885169729996,-0.09724736207436481,-0.027840883125815518,0.18907317352078246
173,1791353681.0570664,0.05987548828125,-0.007280859375000049,-0.015471826171875088,0.06226927344404583,0.16121646474184914,-0.09841035161091108,-0.028406186547989456,0.19100329118170245
174,1791353681.0821648,0.050295410156250005,0.007089257812499952,-0.0011017089843750872,0.05080452363524099,0.16299998756504827,-0.09965124969940338,-0.029040381874235226,0.19324262286633387
175,1791353681.1021647,0.07424560546875,-0.045601171875000054,-0.010681787109375087,0.08778369657085869,0.16439484209656238,-0.10054952174731929,-0.029487620061211976,0.19494971189628033
176,1791353681.1277943,0.13172607421875002,-0.09350156250000005,-0.029841943359375088,0.164270637676029,0.1663101169377187,-0.10179535488437175,-0.030052672069477412,0.19729296077252326
177,1791353681.1477942,0.09340576171875001,-0.03123105468750005,-0.02026186523437509,0.10055127190607537,0.16791821040974364,-0.10280881100352908,-0.030502625007858112,0.19924002393982065
178,1791353681.1578016,0.07903564453125,-0.04081113281250005,-0.010681787109375087,0.08958952083675657,0.16873158178411296,-0.10329391972149334,-0.03071722121434642,0.2002087116534398
179,1791353681.1778016,0.10777587890625001,-0.05997128906250005,0.008478369140624914,0.12362879247617566,0.17039350891886249,-0.10426916895769049,-0.031085070455240404,0.2021689617177106
180,1791353681.2327724,0.10777587890625001,-0.06476132812500006,-0.02026186523437509,0.1273585995420198,0.17516487869272357,-0.10706185183378829,-0.03199304251999987,0.20777037713592167
181,1791353681.2527723,0.08382568359375,-0.02644101562500005,-0.05858217773437509,0.10563022335176092,0.1769278513463559,-0.10806230672734708,-0.03239210349140316,0.20983368434517666
182,1791353681.2473986,0.06466552734375,-0.05997128906250005,-0.07295229492187509,0.11445620679033296,0.1769278513463559,-0.10806230672734708,-0.03239210349140316,0.20983368434517666
183,1791353681.2673986,0.06466552734375,-0.10308164062500005,0.013268408203124913,0.12240713098848324,0.17858492159901668,-0.10913989013263031,-0.03293765708064106,0.21187019397416773
184,1791353681.2774527,0.04071533203125,-0.08871152343750005,0.10427915039062492,0.14283421809639182,0.17937245127708212,-0.10974496491738091,-0.033082134489286215,0.212868178045084
185,1791353681.2974527,0.03592529296875,0.007089257812499952,0.08511899414062492,0.09266135880038857,0.1808190058300611,-0.11089048826034567,-0.03304232701737307,0.2146718626898098
186,1791353681.3226466,0.10777587890625001,0.007089257812499952,-0.04421206054687509,0.11670734316291886,0.18263942382972836,-0.11209025845864605,-0.032922407963587065,0.21680698818142852
187,1791353681.3426466,0.12214599609375,-0.09829160156250005,-0.11127260742187509,0.19225627808193518,0.18421266079725918,-0.11303662486891536,-0.033074717554068475,0.21864473444618637
188,1791353681.3683643,0.04071533203125,-0.13661191406250006,-0.07774233398437509,0.16237125305783953,0.18624634818149857,-0.11452409687305823,-0.033605770383543454,0.2212076372519834
189,1791353681.3883643,-0.00718505859375,-0.11745175781250006,-0.005891748046875088,0.11781873015480028,0.18764095524806101,-0.11588844344564384,-0.034082258886536765,0.22316106242234093
190,1791353681.397413,0.03113525390625,-0.03602109375000005,0.018058447265624913,0.05092181014455696,0.18819353333071356,-0.11651728512386891,-0.03425724517135631,0.2239791118985558
191,1791353681.417413,0.08861572265625,-0.02165097656250005,-0.03463198242187509,0.09757502392758309,0.1894112996997451,-0.11778521124465942,-0.034610855867084726,0.2257164322457446
192,1791353681.4427629,0.09819580078125001,-0.03602109375000005,-0.05858217773437509,0.11988246758437676,0.1910784578934789,-0.11926088505931486,-0.03516904779219681,0.22797148439813897
193,1791353681.4627628,0.11256591796875001,-0.11745175781250006,-0.025051904296875087,0.16460133416923847,0.19251262083696433,-0.12048070255890804,-0.035668830464124834,0.22988904788459005
194,1791353681.4874213,0.06945556640625,-0.14140195312500006,0.027638525390624915,0.1599452285569843,0.19435222921222972,-0.12223777239707058,-0.03618781143675785,0.2324315376555932
195,1791353681.5074213,0.05987548828125,-0.05997128906250005,-0.015471826171875088,0.08614526692644676,0.1958144855071715,-0.12375118828243725,-0.03652735644705296,0.23450355456743843
196,1791353681.51697,0.12214599609375,-0.03123105468750005,-0.03942202148437509,0.132095113144062,0.1965382509765706,-0.12443067515573211,-0.03670446234989662,0.23549414976392888
197,1791353681.53697,0.09819580078125001,-0.06955136718750005,-0.02026186523437509,0.12202602653326615,0.19815732070102896,-0.12579157449893677,-0.03710929895354886,0.23762774255367544
198,1791353681.5772886,0.03592529296875,-0.08392148437500005,-0.010681787109375087,0.09191051512446173,0.201337243052164,-0.12858762749384464,-0.03789657637643967,0.2418834717077569
199,1791353681.5972886,0.055085449218750006,-0.08871152343750005,-0.03463198242187509,0.11001597753373223,0.20281454114262323,-0.13002550423320447,-0.03829649453116624,0.24394054878877258
200,1791353681.607292,0.11735595703125,-0.05518125000000005,-0.05858217773437509,0.14229990355016062,0.2035719764996233,-0.13074476132266585,-0.038536450367622696,0.24499142890358488
201,1791353681.627292,0.09340576171875001,-0.045601171875000054,-0.025051904296875087,0.1069191334959884,0.2051753292298993,-0.132118263866664,-0.03906969017867688,0.24714083446973473
202,1791353681.6374118,0.09819580078125001,-0.05997128906250005,0.013268408203124913,0.11582323367586328,0.2060103504699127,-0.13278913173782592,-0.039307978512419225,0.24823040745072864
203,1791353681.6574118,0.12693603515625002,-0.11745175781250006,0.018058447265624913,0.17387863569766202,0.20775076200860218,-0.13418222640169747,-0.039661277980707746,0.2504760786349352
204,1791353681.6823378,0.11735595703125,-0.11266171875000006,0.013268408203124913,0.1632211205042701,0.21005116422340142,-0.13608819120734686,-0.03997698323702654,0.2534554133697429
205,1791353681.7023377,0.11735595703125,-0.07434140625000005,0.05158872070312492,0.14819062533687202,0.21197215108843617,-0.13766860092479816,-0.040095014799653245,0.25591492088081647
206,1791353681.7276974,0.11735595703125,-0.05997128906250005,0.06116879882812492,0.14529486609173137,0.21448897810387207,-0.13962740235522939,-0.040007765807986484,0.2590404496241062
207,1791353681.7476974,0.12693603515625002,-0.045601171875000054,0.046798681640624916,0.14276673457378858,0.21654258615771374,-0.14109885543967954,-0.03978732684543332,0.2615006883428107
208,1791353681.7578187,0.16525634765625,-0.002490820312500049,0.06116879882812492,0.17623134391074746,0.21764776476373723,-0.14176831883461907,-0.039610545138388124,0.2627504538873446
209,1791353681.7778187,0.21794677734375,0.016669335937499953,0.15696958007812492,0.26910613814074597,0.22007884565476044,-0.14287149316654169,-0.0389864123253173,0.26526760490185886
210,1791353681.8027112,0.13172607421875002,-0.01207089843750005,0.14259946289062492,0.19450468383786235,0.22330359079810733,-0.14402999507619044,-0.03776684204799161,0.26839423895317494
211,1791353681.8227112,-0.04071533203125,-0.01686093750000005,0.15696958007812492,0.1630382732541556,0.22564239518552376,-0.14486457324130234,-0.036484602789103024,0.27061293636137085
212,1791353681.8478906,-0.11735595703125,-0.03123105468750005,0.08032895507812492,0.14560405369205084,0.22784669771843488,-0.14584849565614713,-0.034664319231559104,0.27274074938326404
213,1791353681.8678906,-0.21315673828125,-0.13661191406250006,0.15217954101562492,0.29539333581218025,0.22883917461682637,-0.14676455982502654,-0.033086583611692866,0.2738647948806814
214,1791353681.8920846,-0.24189697265625001,-0.14619199218750006,0.15217954101562492,0.321006007208175,0.22903396730458808,-0.14821966108214232,-0.03091200833642007,0.27455633004899954
215,1791353681.9120846,-0.17004638671875,-0.02165097656250005,-0.1064825683593751,0.20179959312798823,0.22855292448577347,-0.14949385629377904,-0.02931549149794332,0.2746711677667511
216,1791353681.9223416,-0.10298583984375001,-0.11745175781250006,-0.04421206054687509,0.16234440218057794,0.22813318979860933,-0.15015631580922267,-0.02873545851150122,0.2746222824917045
217,1791353681.9423416,0.10298583984375001,-0.12224179687500006,0.12822934570312491,0.2049192651045841,0.22743752060513794,-0.15161381765596535,-0.027648084756775715,0.27473440278557526
218,1791353681.967825,0.09819580078125001,-0.06476132812500006,0.26714047851562495,0.29189121290840864,0.2270685890461654,-0.15354976688570984,-0.025714759204859317,0.27531604363537565
219,1791353681.987825,0.055085449218750006,-0.03123105468750005,0.19528989257812493,0.2052996045678137,0.22705239605678487,-0.1549852291638734,-0.023731390726806474,0.27592823472768024
220,1791353682.0124383,-0.03592529296875,0.007089257812499952,0.26714047851562495,0.26963849783141075,0.22707082677791146,-0.15653138855202195,-0.020803001026931316,0.27657910410469344
221,1791353682.0324383,-0.07903564453125,0.15558046874999995,0.44437192382812496,0.4774079199695463,0.22691111527720823,-0.15735528645251304,-0.017713151554989794,0.2767003725131373
222,1791353682.0425003,-0.011975097656250001,0.29928164062499996,0.47790219726562494,0.5640065722404134,0.22677413600976346,-0.15736435265769877,-0.015695832501821726,0.2764713500677358
223,1791353682.0625002,0.00718505859375,0.3328119140625,0.42521176757812496,0.5400189279051743,0.22653552081313788,-0.15643153082661893,-0.010932848220023867,0.2755153229804853
224,1791353682.0871103,0.01676513671875,0.28970156249999995,0.36773129882812494,0.46843822779739,0.22633015269333429,-0.15430686029772653,-0.004487533319801172,0.27396365289655933
225,1791353682.1071103,-0.026345214843750003,0.39987246093749995,0.3246209472656249,0.5157235836812268,0.22617391958019079,-0.15180483255037724,0.0010032516480215107,0.2723974221570093
226,1791353682.1325383,-0.14130615234375002,0.53878359375,0.2623504394531249,0.6156971192604427,0.22568535084402072,-0.14731079261964958,0.008056522577682426,0.2696279932867929
227,1791353682.1525383,-0.12693603515625002,0.50046328125,0.2623504394531249,0.5791407479895997,0.22495635423293714,-0.14274742341796226,0.013559053089050558,0.26676963118562314
228,1791353682.1623259,-0.00718505859375,0.33760195312499997,0.27672055664062495,0.43657871030125556,0.22455465842694924,-0.14023399508207568,0.01624366413630643,0.2652437079790897
229,1791353682.1823258,-0.011975097656250001,0.26096132812499995,0.2527703613281249,0.36350663447396864,0.22382821393702643,-0.13497058461343775,0.021700792914824567,0.26227285882886264
230,1791353682.2072682,0.011975097656250001,0.3232318359375,0.16175961914062492,0.3616467850153291,0.22305814432774596,-0.1282982525461173,0.02826109114418683,0.2588707527512231
231,1791353682.2272682,0.08861572265625,0.30886171874999996,0.11864926757812493,0.34252876712463,0.22268417427034914,-0.1228024534808733,0.033153004836672426,0.25645234602375877
232,1791353682.2528694,0.10777587890625001,0.19869082031249996,0.06595883789062491,0.2354660282213775,0.22265436499746613,-0.11584820551545322,0.03883011427813125,0.2539754924169423
233,1791353682.2728693,0.14130615234375002,0.07414980468749996,-0.03942202148437509,0.16437675627443196,0.22300819337475003,-0.11082110127346216,0.042639702217601494,0.25265018306927584
234,1791353682.2831678,0.13651611328125002,-0.13661191406250006,-0.1016925292968751,0.21826780514779268,0.2233776454432939,-0.10866905170367941,0.04419811151804152,0.2523093504881024
235,1791353682.3031678,0.12693603515625002,-0.3713238281250001,-0.010681787109375087,0.3925662274450559,0.22438268734252456,-0.1058785108890175,0.046602056609792136,0.2524472244398643
236,1791353682.3271892,0.20357666015625,-0.38569394531250006,-0.0011017089843750872,0.43612439713203544,0.2260041975975397,-0.104393466347477,0.049035038819937,0.2537327889332049
237,1791353682.3471892,0.39996826171875,-0.40485410156250007,-0.06816225585937509,0.5731732260478821,0.22805706017381,-0.1045283182889568,0.05065296935735253,0.2559334197094142
238,1791353682.3726099,0.58198974609375,-0.26594296875000006,-0.2837140136718751,0.699950975954485,0.232147082428505,-0.10595291764620868,0.05173007838091907,0.26037336585585596
239,1791353682.3926098,0.50055908203125,-0.28510312500000007,-0.4034649902343751,0.703297365865647,0.23650609259941335,-0.10773218197527805,0.0514196238555661,0.26492514525285177
240,1791353682.4023685,0.33290771484375004,-0.43838437500000005,-0.3938849121093751,0.6768705421526618,0.2389239900304817,-0.10899964693900364,0.05070728116854748,0.2674636880184286
241,1791353682.4223685,0.40954833984375,-0.6443560546875001,-0.3411944824218751,0.8362644574034841,0.2442497270514767,-0.11283172019520131,0.04836373957775977,0.2733641848393356
242,1791353682.462778,0.35685791015625,-0.48628476562500006,-0.2358136230468751,0.6476330026601032,0.25571895194815875,-0.12283960681017791,0.04259017366231278,0.2868722263993672
243,1791353682.482778,0.42391845703125003,-0.3904839843750001,-0.23102358398437509,0.620931958125942,0.26171512741654934,-0.12836499727966594,0.03946102508736932,0.2941590606223362
244,1791353682.4920633,0.56282958984375,-0.36653378906250006,-0.4034649902343751,0.7835229186648094,0.2647685117074839,-0.1310726174506652,0.03778434258373632,0.2978423280557174
245,1791353682.5120633,0.47181884765625004,-0.5725054687500001,-0.4561554199218751,0.8708922458469999,0.271910822219514,-0.1374384663489312,0.03342513119216996,0.3064997009258773
246,1791353682.5380726,0.36643798828125,-0.6539361328125001,-0.4034649902343751,0.8512891773059268,0.2814410991498318,-0.14686767645046456,0.026929610348078756,0.318597568399577
247,1791353682.5580726,0.39038818359375,-0.4910748046875001,-0.2789239746093751,0.6865536987740909,0.2888054331164922,-0.1547482285984797,0.021660482668864788,0.32836682073775386
248,1791353682.5679135,0.39038818359375,-0.4814947265625001,-0.2501837402343751,0.6684549419929405,0.2924617721168401,-0.1587620286655222,0.01906619541247633,0.33332085098778524
249,1791353682.5879135,0.49097900390625004,-0.5150250000000001,-0.3555645996093751,0.7954478722060603,0.30010004184698735,-0.1671905307265366,0.013676017327943239,0.3438018937282614
250,1791353682.6121256,0.5053491210937501,-0.7353667968750001,-0.4561554199218751,1.0021076924465382,0.3097691862262363,-0.1781341934939365,0.006655427139351563,0.35739758580243247
251,1791353682.6321256,0.44307861328125003,-0.6922564453125001,-0.4322052246093751,0.928622097412922,0.3179807934989984,-0.18795946707469002,0.00039354173938586316,0.3693788044438321
252,1791353682.6570816,0.43349853515625003,-0.658726171875,-0.4513653808593751,0.9086098483584885,0.3283309632696998,-0.20090908483251788,-0.007901783196564115,0.3850040519105407
253,1791353682.6770816,0.5053491210937501,-0.9269683593750001,-0.6764972167968751,1.2539125000599218,0.33678975446401027,-0.21210888571734043,-0.01524433912871177,0.3983088098293223
254,1791353682.6870306,0.41912841796875,-1.14731015625,-0.7722979980468752,1.445141315986294,0.34105621838815725,-0.21839228516302298,-0.019430055050497434,0.4054529089292897
255,1791353682.7070305,0.39996826171875,-1.3341216796875,-0.6908673339843752,1.5547195694919367,0.34957504661205097,-0.23285098809173135,-0.02877700975373152,0.42101117818827516
256,1791353682.7326498,0.47660888671875,-1.4347125,-0.8249884277343751,1.7222548866097527,0.3605348115938496,-0.25391407518943715,-0.041866794143178565,0.4429565852339787
257,1791353682.7526498,0.38080810546875005,-1.5927837890625,-0.9303692871093752,1.8834972849163867,0.3690934240457464,-0.2724319883705344,-0.05318571723048117,0.46182016465141157
258,1791353682.778098,0.31853759765625,-1.741275,-0.7339776855468751,1.9163058392715822,0.3796848199308066,-0.2988235901398234,-0.06860436488611708,0.4880191178543825
259,1791353682.798098,0.34727783203125,-1.7652251953125,-0.4896856933593751,1.864514403555851,0.3877588045405023,-0.3217134485921029,-0.08073982050098748,0.5102698816491473
260,1791353682.806923,0.50055908203125,-1.8514458984375,-0.5663263183593751,1.9997841904344311,0.39134814727713746,-0.33269215114004796,-0.08599022316647872,0.5207991535012911
261,1791353682.826923,0.38559814453125,-2.038257421875,-0.4992657714843751,2.133646071275729,0.39959182676434357,-0.35967587453491856,-0.0977028904895462,0.5464304324882866
262,1791353682.852306,0.28021728515625,-2.095737890625,-0.3507745605468751,2.1432876207892675,0.4097524589132607,-0.39665531978455104,-0.11195650507607124,0.5811770636627844
263,1791353682.8723059,0.21315673828125,-1.9424566406250001,-0.3268243652343751,1.9812591353716744,0.41729749153540957,-0.42747918495430537,-0.12251910502609259,0.6098250413908379
264,1791353682.8974164,0.17962646484375,-1.7843853515625,-0.4226251464843751,1.8425278191072256,0.42608924753884736,-0.4673930178311155,-0.1352029032290958,0.6467519656151614
265,1791353682.9174163,0.08382568359375,-1.789175390625,-0.4944757324218751,1.8581392772346832,0.4324365095605205,-0.4997753154259669,-0.145165578915582,0.6766459532221463
266,1791353682.927975,-0.045505371093750004,-1.7843853515625,-0.4896856933593751,1.8509170429681767,0.4353151328900326,-0.5171364711223242,-0.15041559434293528,0.6924985528573007
267,1791353682.947975,-0.05987548828125,-1.83707578125,-0.43699526367187513,1.8892848807482339,0.43979181691422,-0.5505211532543538,-0.16025845225753568,0.7226154952152599
268,1791353682.9724302,-0.09340576171875001,-1.817915625,-0.4848956542968751,1.883790235535102,0.44416352518327434,-0.5919233725072164,-0.1721795271158626,0.7598028070370575
269,1791353682.9924302,-0.17483642578125,-1.8801861328125,-0.4609454589843751,1.9437433950906953,0.44680013308585326,-0.6262510622928872,-0.18188516207549765,0.7905080417881503
270,1791353683.017491,-0.21315673828125,-1.8706060546875,-0.3316144042968751,1.911693207616067,0.4488790958645504,-0.6698629695574233,-0.19371219572325032,0.8292968439951935
271,1791353683.037491,-0.27542724609375,-1.6694244140625,-0.29808413085937513,1.71804894902005,0.4495564789841208,-0.7047570215449852,-0.20267957674551257,0.8601526016023546
272,1791353683.0475593,-0.26584716796875,-1.6215240234375,-0.4226251464843751,1.696651670126453,0.44943760630982005,-0.7221731550681355,-0.207060918182496,0.8754441453942933
273,1791353683.0675592,-0.15088623046875002,-1.789175390625,-0.4034649902343751,1.840298679918022,0.44861179189242,-0.756696107127432,-0.21569788844670498,0.9057411978303213
274,1791353683.1224964,-0.15567626953125,-2.0095171875,-0.3938849121093751,2.0536649560579465,0.4454205309486182,-0.8529530250012589,-0.23914905409184625,0.9915243730349608
275,1791353683.1424963,-0.16525634765625,-1.95203671875,-0.5998565917968751,2.0488008547711787,0.4439516147506232,-0.8886815114745743,-0.24789649609800082,1.023865488164381
276,1791353683.1374323,-0.18920654296875,-1.9855669921875,-0.6525470214843752,2.09859310291796,0.4439516147506232,-0.8886815114745743,-0.24789649609800082,1.023865488164381
277,1791353683.1574323,-0.26105712890625,-2.0430474609375002,-0.5519562011718752,2.1323342609000187,0.4417629881793236,-0.9255586988118292,-0.2576200891424687,1.0574410399644725
278,1791353683.1679869,-0.08382568359375,-2.14363828125,-0.5088458496093751,2.2047983864142995,0.44050823211476603,-0.9454148022956975,-0.2628215122787969,1.0756076414181908
279,1791353683.1879869,-0.06466552734375,-2.25859921875,-0.6046466308593751,2.3390274922656102,0.43826448764643167,-0.9839999393299652,-0.2728695667061443,1.1112108000590002
280,1791353683.2133608,0.00718505859375,-2.29691953125,-0.5902765136718752,2.371564319325398,0.43573546072574576,-1.0342792504079787,-0.2859793139626895,1.1581809563159544
281,1791353683.2333608,0.15567626953125,-2.3400298828125,-0.6046466308593751,2.421894403470193,0.4342853595788229,-1.074920710270158,-0.29655494185022235,1.1966633363013996
282,1791353683.2728832,0.13651611328125002,-2.2538091796875,-0.6190167480468751,2.3412548349104565,0.43271572990164403,-1.1568033022149327,-0.3179460257284534,1.2753534640232893
283,1791353683.2928832,-0.050295410156250005,-2.1292681640625,-0.4896856933593751,2.185430076907913,0.43216990768713914,-1.1985985059298188,-0.3288101382735043,1.3158743536367539
284,1791353683.3029397,-0.11735595703125,-2.0047271484375,-0.4130450683593751,2.050197451181001,0.43181017357485957,-1.2195798505257065,-0.3341343490822425,1.3362188447435057
285,1791353683.3229396,-0.14130615234375002,-1.9664068359375,-0.4609454589843751,2.0246466331857125,0.43081406894152546,-1.2610044195022903,-0.34444563556033364,1.3763632165452633
286,1791353683.3329935,-0.21794677734375,-1.980776953125,-0.3843048339843751,2.029450255909083,0.4301175521287403,-1.2816810604613547,-0.3494888982261956,1.3963702730214227
287,1791353683.3529935,-0.35685791015625,-1.89455625,-0.12085268554687509,1.9316563680062353,0.4280776132736477,-1.3224559603394521,-0.3587742313590457,1.4355692804983948
288,1791353683.3777883,-0.37601806640625,-1.8514458984375,-0.05858217773437509,1.8901516798006024,0.4245651005978876,-1.3723898717679035,-0.3688926155455025,1.4831693249864693
289,1791353683.3977883,-0.19878662109375,-1.8897662109375,-0.1927032714843751,1.9099390051956442,0.42129462258711003,-1.4122376979264082,-0.3762069757808506,1.5209984099569172
290,1791353683.4229438,-0.09340576171875001,-1.7269048828125,-0.3795147949218751,1.7705808623636783,0.4172468470578938,-1.4616629228991405,-0.3851064278000181,1.568075378382909
291,1791353683.4429438,-0.26105712890625,-1.674214453125,-0.3507745605468751,1.7303721137178183,0.41397968793343365,-1.5001659026841212,-0.392216063397461,1.6049019776872757
292,1791353683.467374,-0.37122802734375004,-1.83707578125,-0.2549737792968751,1.891472786605655,0.40942891936186104,-1.546576706031873,-0.4007078053076491,1.649272049385635
293,1791353683.487374,-0.28500732421875,-1.923296484375,-0.2932940917968751,1.966296001610775,0.4052778820004458,-1.5845125527250317,-0.4074392464458891,1.6855079148216294
294,1791353683.5121713,-0.17483642578125,-1.8514458984375,-0.4082550292968751,1.9039673998173383,0.4000479653711661,-1.6315126892300331,-0.41583812556127014,1.7305471320904655
295,1791353683.5321712,-0.18920654296875,-1.9089263671875,-0.4753155761718751,1.9762904361954123,0.3959164767230762,-1.6693746834332677,-0.4229214207042504,1.7670382617021168
296,1791353683.5424266,-0.19399658203125,-2.1196880859375,-0.5375860839843751,2.1953840331930183,0.3938210174086321,-1.68897552780659,-0.426787764246405,1.78602383046609
297,1791353683.5624266,-0.22752685546875,-2.0238873046875,-0.5184259277343751,2.101583625407749,0.38971514878870633,-1.7276826543061345,-0.4347809098792259,1.8236775183077467
298,1791353683.5721872,-0.22273681640625,-1.9951470703125,-0.3986749511718751,2.046745034988785,0.38768231109896434,-1.746681522186922,-0.4387680402265572,1.8422028410065248
299,1791353683.5921872,-0.15567626953125,-2.0143072265625,-0.3124542480468751,2.0443327422412465,0.3835741162993366,-1.7857858607338264,-0.4467790832332906,1.8803648029854338
300,1791353683.6182146,-0.050295410156250005,-1.9472466796875,-0.3076642089843751,1.972043743258947,0.37862769687527903,-1.8367749845625718,-0.45685114427668483,1.9302368364485303
301,1791353683.6382146,0.011975097656250001,-1.8227056640625,-0.3076642089843751,1.8485282270658938,0.3753394320774622,-1.8757337686988529,-0.46435276487445976,1.9684715772791814
302,1791353683.6623383,0.09340576171875001,-1.6981646484375,-0.3507745605468751,1.7365283187590035,0.3721587788869427,-1.9220467539684665,-0.47323515002919075,2.0141294368452316
303,1791353683.6823382,-0.00239501953125,-1.731694921875,-0.2501837402343751,1.749675667786427,0.3700538840211762,-1.9598283653232338,-0.480396016133111,2.0514988254740145
304,1791353683.693183,-0.10777587890625001,-1.712534765625,-0.2070733886718751,1.7283721682104067,0.36899412907105966,-1.980043303944803,-0.4840683744426943,2.0714850576147428
305,1791353683.713183,-0.23231689453125,-1.7652251953125,-0.3172442871093751,1.8084897200023653,0.36682273609534655,-2.0169485417786572,-0.49061157824976676,2.1079231628814785
306,1791353683.737608,-0.24189697265625001,-1.846655859375,-0.4657354980468751,1.9197816444807594,0.36369998799277725,-2.061875091099508,-0.49883817034494105,2.152311801936615
307,1791353683.757608,-0.16525634765625,-1.91371640625,-0.4609454589843751,1.9753710689765138,0.36091580506574233,-2.0987848224065644,-0.5059539534794919,2.188868966418944
308,1791353683.7830205,-0.17483642578125,-1.827495703125,-0.3843048339843751,1.8756328335108818,0.3572605935012412,-2.1457791501668755,-0.5152502449619117,2.235505783462223
309,1791353683.8030205,-0.22752685546875,-1.817915625,-0.2837140136718751,1.8539361723458667,0.3542118591175666,-2.1826845837039914,-0.5224711186882665,2.272125459331407
310,1791353683.8122725,-0.25147705078125,-1.8706060546875,-0.2789239746093751,1.9079324680174246,0.3526806725035049,-2.199755779963907,-0.5257008805719854,2.2890326699451675
311,1791353683.8322725,-0.22752685546875,-1.8706060546875,-0.3459845214843751,1.9158916386110683,0.3491487273391143,-2.236734629163289,-0.532572686440406,2.325622562120326
312,1791353683.8573718,-0.17004638671875,-1.9280865234375,-0.3316144042968751,1.9637722700543918,0.3446327196104717,-2.2833315516135313,-0.5411785245930045,2.371760713373216
313,1791353683.8773718,-0.13172607421875002,-1.865816015625,-0.2789239746093751,1.8911424447681686,0.3411213255691163,-2.3205829469596044,-0.5479231488343707,2.4086694977738903
314,1791353683.9022746,-0.08382568359375,-1.76043515625,-0.2789239746093751,1.7843646679428544,0.3370023798460537,-2.3667815303685518,-0.5561033618115183,2.454480874957815
315,1791353683.9222746,-0.16046630859375,-1.7364849609375,-0.3364044433593751,1.7760341790820766,0.3338241317832416,-2.403564504514342,-0.5626106000295713,2.491002120751354
316,1791353683.9473732,-0.19399658203125,-1.817915625,-0.4082550292968751,1.8732656144832052,0.32976668846604124,-2.4494913078124796,-0.5709535465541935,2.536679263957815
317,1791353683.9673731,-0.25626708984375,-1.8418658203125,-0.3938849121093751,1.9008650255501662,0.3263430696224112,-2.4860885299905737,-0.5778076748535551,2.573129939812784
318,1791353683.9774768,-0.25626708984375,-1.827495703125,-0.3890948730468751,1.885950207855098,0.32448455413018024,-2.5045842217717924,-0.5813442153996159,2.5915619704332507
319,1791353683.9974768,-0.28021728515625,-1.789175390625,-0.3507745605468751,1.8446444366449906,0.32055278326471115,-2.5411291477430797,-0.5884044244619255,2.6279861489540988
320,1791353684.0228982,-0.27063720703125,-1.7939654296875,-0.3459845214843751,1.8469601375910374,0.315254598650182,-2.5874442701753524,-0.5973607863338154,2.6741528045874086
321,1791353684.0428982,-0.22273681640625,-1.8801861328125,-0.3651446777343751,1.9282225543440146,0.3109714950627656,-2.6239277014664744,-0.60441684714526,2.710538614072436
322,1791353684.067584,-0.17004638671875,-1.923296484375,-0.6190167480468751,2.0276012612956884,0.30575066244796545,-2.6692462126175878,-0.6136418289208041,2.755887353532792
323,1791353684.087584,-0.18441650390625,-1.999937109375,-1.0070099121093752,2.2467369341902863,0.3016236281707972,-2.7063397722159452,-0.6224336751424524,2.7933269510925696
324,1791353684.0980406,-0.45744873046875,-2.4262505859375,-0.6621270996093751,2.5562401183782906,0.29928617857453027,-2.7262955129658955,-0.6276498171055932,2.8135749027911814
325,1791353684.1180406,-0.60114990234375,-2.4023003906250002,-0.2741339355468751,2.491501111078088,0.2938981224810331,-2.765981813262823,-0.6375344638745161,2.8536786242193313
326,1791353684.1427727,-0.60114990234375,-2.06699765625,0.027638525390624915,2.152817782376544,0.2860044955030021,-2.815986849334777,-0.6483815986941037,2.903787045325372
327,1791353684.1627727,-0.46702880859375,-1.9328765625,0.23361020507812494,2.002174178695489,0.2789764276480276,-2.8563583564809565,-0.6554456646108935,2.9438444128518513
328,1791353684.1870306,-0.18441650390625,-1.9089263671875,0.30546079101562496,1.9419875429838787,0.27054555706791855,-2.9049693874617764,-0.6617476910445326,2.9916470458832554
329,1791353684.2070305,-0.00239501953125,-1.83707578125,0.30546079101562496,1.8622995078723896,0.26435696904345674,-2.9446550933028184,-0.6652477823057523,3.030417931153852
330,1791353684.2168841,-0.26584716796875,-1.8418658203125,0.34857114257812494,1.8933162066043439,0.2615670853026012,-2.963993423952394,-0.6662302023873736,3.049186291442334
331,1791353684.236884,-0.5053491210937501,-1.904136328125,0.43958188476562493,2.0185007118377944,0.2555970286616414,-3.0029759903551434,-0.6667428999899794,3.086703862439214
332,1791353684.2626922,-0.40475830078125,-1.8227056640625,0.36773129882812494,1.9029743897369358,0.24728719067620172,-3.0529475303759446,-0.6657426086483426,3.1344621227366916
333,1791353684.2826922,-0.46223876953125004,-1.6263140625,0.16175961914062492,1.6984487876670107,0.2405129445316294,-3.0910376782663547,-0.664289473719273,3.170747689401312
334,1791353684.3075666,-0.41912841796875,-1.3963921875,0.018058447265624913,1.4580486547360714,0.23170718383436856,-3.136944363936734,-0.6624178045678755,3.2144837080444844
335,1791353684.3275666,-0.46702880859375,-1.358071875,0.08032895507812492,1.4383768166744266,0.2243598143303519,-3.172450134734349,-0.6609910658028305,3.248335939020701
336,1791353684.337128,-0.5867797851562501,-1.3245416015625,0.16654965820312492,1.4582385810234708,0.22061848569464754,-3.188801800755288,-0.6602342664040017,3.2638993132853225
337,1791353684.357128,-0.6873706054687501,-1.3053814453124999,0.18570981445312493,1.4869388696960077,0.21205518278907598,-3.2218199298854766,-0.6583602890094382,3.295228266948977
338,1791353684.3828356,-0.70174072265625,-1.1664703125000002,0.13780942382812492,1.3682413782201603,0.200020779467115,-3.262660777262104,-0.6556890495684947,3.333900386848297
339,1791353684.4028356,-0.61072998046875,-0.9652886718750001,0.018058447265624913,1.1424094872729336,0.19009397368636582,-3.2928656189713226,-0.6536888126818224,3.362500374313828
340,1791353684.4272594,-0.44307861328125003,-0.7066265625000001,-0.1016925292968751,0.8402268306193261,0.177859455660258,-3.327281264238511,-0.6517657385022049,3.395177929830145
341,1791353684.4472594,-0.63468017578125,-0.6443560546875001,-0.025051904296875087,0.9047879578393265,0.16772709716615053,-3.3532624242574944,-0.6506173171735616,3.4199128875553475
342,1791353684.457359,-0.9029223632812501,-0.6060357421875001,0.042008642578124915,1.0882613844906048,0.16221323560398385,-3.365361599640986,-0.6501115296753472,3.431416155344622
343,1791353684.477359,-0.9843530273437501,-0.4814947265625001,-0.06816225585937509,1.0979226508603153,0.1501012548381425,-3.3873585299227225,-0.649299405827221,3.4522916903633436
344,1791353684.502853,-1.21906494140625,-0.28510312500000007,-0.1783331542968751,1.264597104682777,0.1327650214315791,-3.412657751361637,-0.6488907866482321,3.4763369704102844
345,1791353684.522853,-1.09931396484375,-0.02165097656250005,-0.2693438964843751,1.1320362594281075,0.11772719505440757,-3.4299880755323295,-0.6492898234519525,3.4928863659712177
346,1791353684.5470426,-0.76880126953125,0.26096132812499995,-0.2358136230468751,0.845437325662949,0.09887816438596579,-3.447370588792271,-0.6506165297635166,3.5096214520463356
347,1791353684.5670426,-0.7879614257812501,0.57710390625,-0.05379213867187509,0.9781746885455191,0.08329634836013562,-3.4583295309456394,-0.6519833173056622,3.5202363091567754
348,1791353684.5775836,-0.9460327148437501,0.6729046875,0.06116879882812492,1.1625490260475833,0.07494498250213702,-3.4622508199217434,-0.6525897944807526,3.5240134690876905
349,1791353684.5975835,-0.85023193359375,0.644164453125,0.07074887695312491,1.0690404983734365,0.05878188559952253,-3.466599294363595,-0.6533700169222609,3.528123914599628
350,1791353684.6226685,-0.46223876953125004,0.6585345703125,-0.03942202148437509,0.805534950286049,0.03908096164101847,-3.4687843939621845,-0.6541428841995753,3.5301409895792157
351,1791353684.6426685,-0.42870849609375,0.854926171875,0.09469907226562492,0.9610710942837564,0.024393305954346658,-3.467995038127278,-0.6545837377138365,3.5293150167603655
352,1791353684.6673436,-0.67300048828125,1.11358828125,0.13301938476562492,1.3079383296193883,0.006951587665284829,-3.463524243973751,-0.6546246344717926,3.5248520430256844
353,1791353684.6873436,-0.49097900390625004,1.1087982421875,0.11385922851562492,1.2179728437338153,-0.006810888757002668,-3.457110504242875,-0.654282492813263,3.5184861811799153
354,1791353684.7114675,-0.04071533203125,0.759125390625,0.013268408203124913,0.7603322613240993,-0.021883092928036522,-3.4471550871512333,-0.6537016951042528,3.508658286412471
355,1791353684.7314675,0.20357666015625,0.7447552734375,-0.029841943359375088,0.7726541370217356,-0.03226010001574143,-3.4378837409903373,-0.6533172704527535,3.4995583702076725
356,1791353684.7419114,0.17004638671875,0.8980365234375,-0.05858217773437509,0.9158696646422546,-0.036573456990867025,-3.4324817041803652,-0.6532158990536607,3.4942752149860334
357,1791353684.7619114,0.17962646484375,0.9555169921875,-0.12085268554687509,0.9797365772671762,-0.04306996690413672,-3.420908271413722,-0.6533200449280673,3.483000933761109
358,1791353684.7876863,0.48618896484375,0.931566796875,-0.2885040527343751,1.089693073768914,-0.04889937980864272,-3.4045823462453892,-0.6542254665234234,3.467215462407726
359,1791353684.8076863,0.9460327148437501,0.76870546875,-0.4657354980468751,1.3049120849244076,-0.05059586388699493,-3.391264105568827,-0.6559539995084631,3.454490964618833
360,1791353684.8475096,0.8646020507812501,0.7447552734375,-0.3747247558593751,1.2010894080716792,-0.04805924092970213,-3.3642027707823745,-0.6613897692227957,3.428936628229097
361,1791353684.8675096,0.77838134765625,0.6729046875,-0.3076642089843751,1.073934591271095,-0.04451192080440382,-3.3505241933741114,-0.6647338025773729,3.416118368816852
362,1791353684.8619173,0.96998291015625,0.625004296875,-0.3938849121093751,1.2192795172128543,-0.04451192080440382,-3.3505241933741114,-0.6647338025773729,3.416118368816852
363,1791353684.8819172,1.42024658203125,0.36634218749999997,-0.6094366699218751,1.5883072771851163,-0.036134478892031176,-3.337499570511306,-0.6695493218901953,3.4041893863549326
364,1791353684.9076638,1.53520751953125,0.20348085937499996,-0.6860772949218751,1.6938030117946419,-0.021260659883170406,-3.322147301454857,-0.6773202411616523,3.390557095421007
365,1791353684.9276638,1.32444580078125,0.2657513671875,-0.7052374511718751,1.5238570572414314,-0.00715028182592648,-3.3113066400759803,-0.6845382027239308,3.381330410079733
366,1791353684.9513996,1.45856689453125,0.21785097656249997,-0.8776788574218751,1.7161575133352815,0.012038125433291734,-3.2995099968320067,-0.6946373511283782,3.371858861998964
367,1791353684.9713995,1.85614013671875,-0.06476132812500006,-1.0070099121093752,2.112704238611109,0.030753267187360614,-3.290831392331856,-0.7046975751840865,3.3655780615920725
368,1791353684.9819608,2.23934326171875,-0.3809039062500001,-1.0070099121093752,2.484716280118962,0.0423976073844003,-3.2872889859598553,-0.7108084221651483,3.363527173570299
369,1791353685.0019608,2.42136474609375,-0.5150250000000001,-1.1219708496093752,2.7179176903695654,0.06813208899940475,-3.2829308089181635,-0.7238382749694064,3.3624720855356074
370,1791353685.0271282,2.3303540039062502,-0.4240142578125001,-1.2177716308593751,2.6633260444932536,0.10462731498145886,-3.280041715875698,-0.742191647925084,3.364590461731528
371,1791353685.0471282,2.37825439453125,-0.5533453125000001,-1.2896222167968752,2.761414576268658,0.13634181943870752,-3.2795562448323206,-0.7583499725784126,3.36885335621131
372,1791353685.0722036,2.69918701171875,-0.639566015625,-1.4812237792968752,3.14462702032024,0.17968911896181916,-3.281282332770367,-0.7807810255530989,3.377679815596494
373,1791353685.0922036,3.0296997070312504,-0.7353667968750001,-1.6967755371093751,3.5494917754608544,0.2176699019341994,-3.284514937686277,-0.8007552348194253,3.3877171529192105
374,1791353685.1026385,3.06802001953125,-0.6443560546875001,-1.6392950683593752,3.537687081498919,0.23928587070413368,-3.287028332235243,-0.8122243003229783,3.3943366507862756
375,1791353685.1226385,2.9195288085937503,-0.7497369140625001,-1.5530743652343753,3.3908397025611463,0.28348288631554647,-3.2932141717039363,-0.8356977020670971,3.4094006477364407
376,1791353685.1474342,2.9961694335937503,-1.0083990234375002,-1.586604638671875,3.5371194699538084,0.3410599631428477,-3.30300251599123,-0.8662732788450447,3.431701751717993
377,1791353685.1674342,3.08718017578125,-1.1329400390625002,-1.701565576171875,3.7026422970442088,0.3896598306995405,-3.3129254117204345,-0.8921681491360066,3.453009350351744
378,1791353685.1925416,3.13987060546875,-1.0946197265625002,-1.8117364746093751,3.7867359055387615,0.4532449114305238,-3.327708399561813,-0.9264153911048345,3.48386561438983
379,1791353685.2125416,3.23088134765625,-1.1904205078125,-1.7877862792968753,3.87967460600703,0.5058539167308944,-3.3411453848015538,-0.9550031697145553,3.511576814141698
380,1791353685.2221825,3.18777099609375,-1.3916021484375,-1.6824054199218752,3.863797155655937,0.5320510651367906,-3.348518038071301,-0.9692259174313586,3.526336663766341
381,1791353685.2421825,3.08718017578125,-1.4203423828125,-1.5770245605468751,3.7463395984238144,0.5876572631813499,-3.365736248428518,-0.9991942179819102,3.5597627221774135
382,1791353685.2676709,3.0823901367187503,-1.3053814453124999,-1.4333233886718753,3.6413686450593015,0.6596869935196318,-3.3895985666638606,-1.0374122566805508,3.605660766469816
383,1791353685.2876709,3.26441162109375,-1.1664703125000002,-1.500383935546875,3.7773255321619956,0.7172488598110145,-3.409221792314213,-1.0673031005928177,3.6436760372768293
384,1791353685.312142,3.17819091796875,-1.1616802734375,-1.620134912109375,3.751697709329541,0.7889386651683568,-3.4339032677576595,-1.1041173642589508,3.6923151306155457
385,1791353685.3321419,3.02490966796875,-1.195210546875,-1.385422998046875,3.53525156590719,0.8480460659727008,-3.4545847703151398,-1.1342004892877273,3.7335973022281874
386,1791353685.3582108,3.06802001953125,-1.1137798828125,-1.1794513183593751,3.4704982178329997,0.9254456624377871,-3.4820129033548377,-1.1725452620802064,3.7888950796876446
387,1791353685.3782108,2.97700927734375,-1.1664703125000002,-1.1938214355468753,3.412982104744443,0.984986772759712,-3.5033196209739317,-1.201110437284061,3.8322465463178683
388,1791353685.3870296,2.66565673828125,-1.4299224609375,-1.0357501464843752,3.1973711790438397,1.0110350498446785,-3.5130227165127863,-1.213291397070807,3.8517004677097284
389,1791353685.4070296,2.6896069335937502,-1.6885845703125,-0.8010382324218751,3.275204658969358,1.0692807822081238,-3.5364049737074854,-1.2395276171524807,3.8969154780346935
390,1791353685.4321442,2.9961694335937503,-1.60715390625,-0.8824688964843751,3.51265231789861,1.1421601330178166,-3.5675702865124763,-1.270702377726986,3.9556000873979924
391,1791353685.4521441,3.0488598632812502,-1.5257232421875,-1.112390771484375,3.5861945159405537,1.2005595679028656,-3.5933653411269,-1.2947968029265993,4.003762794143042
392,1791353685.4777217,2.9722192382812502,-1.463452734375,-1.423743310546875,3.605943166563474,1.2755928129413074,-3.6271399540491256,-1.325853674780953,4.0670836280579685
393,1791353685.4977217,2.88120849609375,-1.5065630859374999,-1.7207257324218752,3.678585567319473,1.334243406407175,-3.654043096225348,-1.351212163924744,4.11801053040802
394,1791353685.5076058,2.7997778320312503,-1.53051328125,-1.782996240234375,3.655174743498068,1.3630924472926107,-3.6675958578630286,-1.364461983283307,4.143794987726301
395,1791353685.5276058,2.75187744140625,-1.4011822265625,-1.701565576171875,3.525828483430296,1.4210382267008004,-3.6953031858285215,-1.392477570684439,4.1968570456710355
396,1791353685.552155,2.70876708984375,-1.30059140625,-1.4764337402343752,3.3479566518003785,1.491549707542898,-3.7291859465197588,-1.4275587755941523,4.262566411396736
397,1791353685.572155,2.6704467773437504,-1.3341216796875,-1.2944122558593751,3.2537162960154924,1.5484466614086254,-3.7566013149314017,-1.456008247786062,4.316213678699526
398,1791353685.5975776,2.82851806640625,-1.2431109375,-1.3710528808593752,3.380181246180665,1.620406403859615,-3.791136525830839,-1.49182899918158,4.384516716122438
399,1791353685.6175776,2.94347900390625,-1.195210546875,-1.3614728027343752,3.4563282671620703,1.6771836138655627,-3.8178875766999343,-1.519880992265001,4.438383563144052
400,1791353685.6276295,3.06802001953125,-1.0371392578125,-1.102810693359375,3.42119805122828,1.7059713998051482,-3.830998827836885,-1.5337228717731959,4.465332718089543
401,1791353685.6476295,3.2260913085937504,-0.7497369140625001,-1.270462060546875,3.54737148026269,1.7640987459681265,-3.8558530170780565,-1.5606923009729445,4.518341214776999
