imu_index,t_imu,ax,ay,az,mag
0,1790492014.3955405,-0.06495292968750001,-0.011543994140624984,0.006993457031250175,0.06634045008104818
1,1790492014.4155405,-0.05058281250000001,-0.016334033203124983,0.026153613281250175,0.05924046799913158
2,1790492014.4410908,-0.11764335937500002,0.02198627929687502,0.03573369140625018,0.12490097351050838
3,1790492014.4610908,-0.11285332031250002,0.04593647460937502,-0.021746777343749826,0.1237697617753711
4,1790492014.4851508,-0.060162890625000014,-0.016334033203124983,-0.016956738281249828,0.06460576616816263
5,1790492014.5051508,-0.09369316406250001,-0.011543994140624984,0.021363574218750174,0.09678881699949317
6,1790492014.5157542,-0.15596367187500002,0.017196240234375017,0.059683886718750176,0.16787657357948313
7,1790492014.5357542,-0.1415935546875,0.017196240234375017,0.03573369140625018,0.14704197396919533
8,1790492014.5603468,-0.08411308593750001,0.012406201171875016,-0.012166699218749827,0.08588919386818009
9,1790492014.5803468,-0.041002734375000016,0.05072651367187502,-0.036116894531249825,0.07455758503406046
10,1790492014.6059835,-0.07453300781250001,0.03635639648437502,0.0022034179687501743,0.08295668670850033
11,1790492014.6259835,-0.09848320312500002,-0.021124072265624984,0.021363574218750174,0.10296392586844873
12,1790492014.63589,-0.06495292968750001,-0.035494189453124984,-0.002586621093749826,0.07406356167918392
13,1790492014.65589,-0.026632617187500013,-0.025914111328124986,-0.007376660156249826,0.03788472751971671
14,1790492014.6807754,-0.07453300781250001,-0.011543994140624984,0.026153613281250175,0.07982759261033842
15,1790492014.7007754,-0.07932304687500001,0.017196240234375017,0.0022034179687501743,0.08119551400463451
16,1790492014.7264664,-0.06495292968750001,-0.001963916015624984,0.0022034179687501743,0.06501995918062975
17,1790492014.7464664,-0.07932304687500001,0.03635639648437502,0.021363574218750174,0.08983504680392042
18,1790492014.75645,-0.11285332031250002,0.06030659179687502,0.016573535156250176,0.12902495490131397
19,1790492014.77645,-0.1415935546875,0.03156635742187502,-0.026536816406249827,0.14747668383479007
20,1790492014.8012977,-0.11764335937500002,0.03635639648437502,-0.06964716796874983,0.14146545718454287
21,1790492014.8212976,-0.11285332031250002,0.017196240234375017,-0.06485712890624983,0.131293677508538
22,1790492014.8458972,-0.15117363281250001,-0.011543994140624984,-0.002586621093749826,0.15163581920882016
23,1790492014.8658972,-0.1415935546875,-0.006753955078124984,0.06447392578125018,0.15572808912937172
24,1790492014.890466,-0.10806328125000002,0.03156635742187502,0.09321416015625018,0.14616082693060145
25,1790492014.910466,-0.06495292968750001,0.02198627929687502,0.08842412109375018,0.11189774235216594
26,1790492014.9202797,-0.05537285156250001,-0.030704150390624987,0.050103808593750174,0.08074211526193706
27,1790492014.9402797,-0.07453300781250001,-0.030704150390624987,0.006993457031250175,0.08091243752375926
28,1790492014.965604,-0.09369316406250001,-0.016334033203124983,0.016573535156250176,0.09653958618255412
29,1790492014.985604,-0.1320134765625,0.017196240234375017,0.030943652343750176,0.13667764371939894
30,1790492015.0107431,-0.1415935546875,0.007616162109375017,-0.002586621093749826,0.14182182928943263
31,1790492015.0307431,-0.14638359375,-0.011543994140624984,-0.04569697265624983,0.15378437381551438
32,1790492015.04138,-0.15596367187500002,-0.05465434570312499,-0.04090693359374983,0.17025023249620785
33,1790492015.06138,-0.16075371093750002,-0.035494189453124984,0.026153613281250175,0.1666901453379198
34,1790492015.0859523,-0.15596367187500002,0.02198627929687502,0.059683886718750176,0.16843464535513314
35,1790492015.1059523,-0.15596367187500002,0.06509663085937502,0.054893847656250175,0.17769516820803544
36,1790492015.1463604,-0.1272234375,0.04114643554687502,0.021363574218750174,0.1354076604588145
37,1790492015.1663604,-0.11285332031250002,0.0028261230468750163,-0.016956738281249828,0.11415511311444008
38,1790492015.160161,-0.1272234375,-0.025914111328124986,-0.016956738281249828,0.13093844045344996
39,1790492015.180161,-0.1415935546875,-0.035494189453124984,-0.007376660156249826,0.1461608269306013
40,1790492015.205969,-0.1272234375,0.0028261230468750163,0.016573535156250176,0.12832954487711684
41,1790492015.225969,-0.10327324218750002,0.017196240234375017,0.04052373046875018,0.11226417933259158
42,1790492015.2512589,-0.09848320312500002,0.007616162109375017,0.026153613281250175,0.10218100954043016
43,1790492015.2712588,-0.10327324218750002,-0.040284228515624985,0.011783496093750175,0.11147660023165648
44,1790492015.2804737,-0.09848320312500002,-0.04507426757812499,-0.012166699218749827,0.10898926307368056
45,1790492015.3004737,-0.08890312500000001,-0.016334033203124983,-0.007376660156249826,0.09069168313857241
46,1790492015.3260708,-0.1272234375,0.017196240234375017,0.04052373046875018,0.13462424171975365
47,1790492015.3460708,-0.15596367187500002,0.06030659179687502,0.054893847656250175,0.17599683653235132
48,1790492015.3709455,-0.1320134765625,0.055516552734375016,0.04052373046875018,0.14883486941147325
49,1790492015.3909454,-0.1272234375,0.007616162109375017,0.016573535156250176,0.12852428191656293
50,1790492015.4010537,-0.14638359375,0.02198627929687502,-0.021746777343749826,0.14961442217020346
51,1790492015.4210536,-0.11764335937500002,-0.016334033203124983,-0.016956738281249828,0.11997621272091813
52,1790492015.4463735,-0.1320134765625,-0.04507426757812499,-0.016956738281249828,0.1405232314066288
53,1790492015.4663734,-0.17033378906250002,-0.021124072265624984,0.016573535156250176,0.17243696875393935
54,1790492015.4911437,-0.17512382812500002,-0.035494189453124984,0.04531376953125018,0.1843407995296216
55,1790492015.5111437,-0.1272234375,-0.021124072265624984,0.030943652343750176,0.13262555974913218
56,1790492015.5357223,-0.09369316406250001,-0.001963916015624984,0.03573369140625018,0.10029537706034158
57,1790492015.5557222,-0.11764335937500002,0.02198627929687502,0.030943652343750176,0.12361580037651528
58,1790492015.5653844,-0.1415935546875,0.012406201171875016,0.006993457031250175,0.1423079653350684
59,1790492015.5853844,-0.12243339843750002,-0.021124072265624984,-0.016956738281249828,0.12539415638369192
60,1790492015.6113682,-0.11285332031250002,0.012406201171875016,-0.026536816406249827,0.11659326034574971
61,1790492015.6313682,-0.1415935546875,0.04593647460937502,0.0022034179687501743,0.1488749457743808
62,1790492015.6559432,-0.1320134765625,0.012406201171875016,-0.016956738281249828,0.13367498941377767
63,1790492015.6759431,-0.16075371093750002,0.0028261230468750163,-0.04090693359374983,0.16590093359501282
64,1790492015.685998,-0.12243339843750002,-0.011543994140624984,0.030943652343750176,0.1268097412427188
65,1790492015.705998,-0.1320134765625,0.012406201171875016,0.13153447265625018,0.1867693479096412
66,1790492015.7308986,-0.19907402343750003,0.12257709960937502,0.10758427734375017,0.25735187756808364
67,1790492015.7508986,-0.21823417968750003,0.11299702148437502,0.030943652343750176,0.2476933460321194
68,1790492015.7766116,-0.16075371093750002,0.04114643554687502,0.13153447265625018,0.2117453712253193
69,1790492015.7966115,-0.09369316406250001,0.04593647460937502,0.23212529296875017,0.25450092402073593
70,1790492015.8055894,-0.09369316406250001,0.10820698242187503,0.10758427734375017,0.17905735608588516
71,1790492015.8255894,-0.15117363281250001,0.11778706054687502,0.030943652343750176,0.19412565134564946
72,1790492015.851629,-0.18949394531250002,0.11778706054687502,0.09321416015625018,0.24180700278528952
73,1790492015.871629,-0.20865410156250003,0.07467670898437502,0.1746448242187502,0.282159457736205
74,1790492015.8960228,-0.10806328125000002,-0.136085009765625,0.22254521484375017,0.2823529268261227
75,1790492015.9160228,-0.07932304687500001,-0.169615283203125,0.13153447265625018,0.22882921045742297
76,1790492015.9263022,-0.17512382812500002,-0.030704150390624987,0.14111455078125018,0.22698990389565504
77,1790492015.9463022,-0.22781425781250003,-0.07381450195312499,0.15069462890625018,0.2829430825138522
78,1790492015.9708457,-0.27571464843750004,-0.155245166015625,0.11716435546875018,0.33741238140684887
79,1790492015.9908457,-0.18949394531250002,-0.24146586914062498,0.06926396484375018,0.3146604806705323
80,1790492016.0157263,-0.136803515625,-0.160035205078125,0.09800419921875018,0.23223111724371825
81,1790492016.0357263,-0.22781425781250003,0.012406201171875016,0.11716435546875018,0.25647755473449313
82,1790492016.045274,-0.30445488281250005,0.13215717773437502,0.09321416015625018,0.3447421862040145
83,1790492016.065274,-0.3427751953125,0.20400776367187504,0.050103808593750174,0.4020253646171113
84,1790492016.0908482,-0.43378593750000005,0.23753803710937502,0.07884404296875018,0.500810285196088
85,1790492016.1108482,-0.49605644531250004,0.31896870117187504,0.021363574218750174,0.5901435686057641
86,1790492016.1355577,-0.48168632812500006,0.33812885742187504,-0.002586621093749826,0.5885231801149812
87,1790492016.1555576,-0.47210625000000006,0.342918896484375,0.06447392578125018,0.5870558473950926
88,1790492016.1656106,-0.46731621093750003,0.41476948242187506,0.07884404296875018,0.6297892883061368
89,1790492016.1856105,-0.45773613281250003,0.42913959960937503,0.021363574218750174,0.6278053564110754
90,1790492016.2106907,-0.42420585937500005,0.23753803710937502,0.04052373046875018,0.4878699651884312
91,1790492016.2306907,-0.4002556640625,0.09862690429687503,0.10758427734375017,0.42603549100617755
92,1790492016.2559972,-0.37630546875000004,0.08425678710937502,0.12674443359375018,0.4059176806104316
93,1790492016.2759972,-0.328405078125,0.07467670898437502,0.1746448242187502,0.37937754391822215
94,1790492016.301041,-0.16554375000000002,0.07467670898437502,0.23691533203125018,0.2985133474072425
95,1790492016.3210409,0.04042792968749999,0.11299702148437502,0.22254521484375017,0.25284207919768553
96,1790492016.33059,0.1266486328125,0.08904682617187502,0.13153447265625018,0.20315149751236736
97,1790492016.35059,0.0883283203125,-0.07860454101562499,0.10279423828125019,0.156675529235829
98,1790492016.3752062,0.09790839843749999,-0.169615283203125,0.15548466796875018,0.25006175388096646
99,1790492016.3952062,0.11706855468749999,-0.251045947265625,0.2704456054687502,0.3871303910215188
100,1790492016.435667,0.1553888671875,-0.24146586914062498,0.2081750976562502,0.3546665156028142
101,1790492016.455667,0.1553888671875,-0.08818461914062499,0.04052373046875018,0.18320589463741474
102,1790492016.450701,0.1362287109375,-0.016334033203124983,0.06447392578125018,0.15159798623339255
103,1790492016.470701,0.09311835937499999,0.12257709960937502,0.12195439453125018,0.19639004187285597
104,1790492016.4952743,0.16017890625,0.19921772460937504,0.08842412109375018,0.2704880940026479
105,1790492016.5152743,0.11706855468749999,0.09862690429687503,0.03573369140625018,0.15719163288585764
106,1790492016.5407956,0.02605781249999999,0.11299702148437502,-0.021746777343749826,0.11798414631408788
107,1790492016.5607955,0.02126777343749999,0.12736713867187502,0.016573535156250176,0.13018981629922108
108,1790492016.5708754,0.05000800781249999,0.23274799804687502,-0.09359736328124983,0.255798549357508
109,1790492016.5908754,0.09311835937499999,0.23753803710937502,-0.23250849609374985,0.34518914913746024
110,1790492016.6159346,0.11227851562499999,0.07467670898437502,-0.24208857421874982,0.2771100028922766
111,1790492016.6359346,0.1362287109375,-0.05465434570312499,-0.17502802734374984,0.22842979127901436
112,1790492016.6603913,0.19849921875,-0.06902446289062499,-0.16544794921874983,0.26746839107152387
113,1790492016.6803913,0.2416095703125,-0.040284228515624985,-0.16544794921874983,0.2955859053378222
114,1790492016.6909523,0.3086701171875,-0.035494189453124984,-0.22292841796874985,0.3824057508295723
115,1790492016.7109523,0.2895099609375,-0.265416064453125,-0.21334833984374985,0.44696668652809274
116,1790492016.7358584,0.217659375,-0.433067431640625,-0.20855830078124984,0.5276547817446179
117,1790492016.7558584,0.2128693359375,-0.332476611328125,-0.26603876953124983,0.4760574315735516
118,1790492016.7809298,0.31346015625,-0.413907275390625,-0.31393916015624984,0.6067407176522576
119,1790492016.8009298,0.39010078125000003,-0.485757861328125,-0.30435908203124984,0.6933785186958414
120,1790492016.8104756,0.303880078125,-0.552818408203125,-0.23250849609374985,0.6723180014585883
121,1790492016.8304756,0.2128693359375,-0.605508837890625,-0.12712763671874983,0.6543055425134513
122,1790492016.855865,0.2511896484375,-0.7204697753906251,-0.17023798828124984,0.7817633333609472
123,1790492016.875865,0.2895099609375,-0.902491259765625,-0.20855830078124984,0.9704653812785596
124,1790492016.9006336,0.2943,-1.022242236328125,-0.04569697265624983,1.064744050484938
125,1790492016.9206336,0.361360546875,-0.9599717285156251,-0.06006708984374983,1.027489766211505
126,1790492016.9458525,0.3757306640625,-0.8593809082031251,-0.16065791015624983,0.9515881679574673
127,1790492016.9658525,0.303880078125,-0.892911181640625,-0.11754755859374984,0.9505003465078087
128,1790492016.975908,0.3326203125,-0.9599717285156251,-0.06485712890624983,1.0180316493149104
129,1790492016.995908,0.4044708984375,-0.983921923828125,-0.10796748046874984,1.069278278424867
130,1790492017.0204613,0.40926093750000003,-0.955181689453125,-0.16065791015624983,1.0515120250979912
131,1790492017.0404613,0.2990900390625,-0.830640673828125,-0.021746777343749826,0.8831147732933065
132,1790492017.0654647,0.3086701171875,-0.7013096191406251,-0.007376660156249826,0.7662681242611977
133,1790492017.0854647,0.3469904296875,-0.710889697265625,-0.13191767578124983,0.8019780502960507
134,1790492017.0950954,0.2943,-0.830640673828125,0.006993457031250175,0.8812634835614657
135,1790492017.1150954,0.2943,-0.873751025390625,0.2177551757812502,0.9473492813902863
136,1790492017.140872,0.3278302734375,-0.715679736328125,0.14590458984375018,0.8005987275222671
137,1790492017.160872,0.27034980468750003,-0.677359423828125,0.09800419921875018,0.7358733783796282
138,1790492017.1852102,0.131438671875,-0.749210009765625,0.2129651367187502,0.7899024703435911
139,1790492017.2052102,0.10269843749999999,-0.7587900878906251,0.2129651367187502,0.7947726190575767
140,1790492017.2152088,0.0883283203125,-0.811480517578125,0.07884404296875018,0.8200725002643043
141,1790492017.2352087,0.04042792968749999,-0.888121142578125,0.030943652343750176,0.8895791651188008
142,1790492017.2604892,0.011687695312499989,-0.974341845703125,0.09800419921875018,0.979328064324922
143,1790492017.2804892,-0.02184257812500001,-0.8977012207031251,0.09321416015625018,0.9027920355899596
144,1790492017.3051596,-0.002682421875000011,-0.8785410644531251,-0.016956738281249828,0.878708784689606
145,1790492017.3251595,-0.041002734375000016,-0.902491259765625,-0.007376660156249826,0.9034523303941567
146,1790492017.3354824,-0.002682421875000011,-0.912071337890625,0.006993457031250175,0.9121020936441041
147,1790492017.3554823,-0.012262500000000011,-0.8593809082031251,-0.036116894531249825,0.860226914459702
148,1790492017.3809354,-0.07932304687500001,-0.873751025390625,-0.012166699218749827,0.8774286459345749
149,1790492017.4009354,-0.11285332031250002,-0.868960986328125,0.011783496093750175,0.876337787868408
150,1790492017.4256287,-0.036212695312500015,-0.864170947265625,0.04052373046875018,0.8658781427723347
151,1790492017.4456286,0.03563789062499999,-0.8785410644531251,0.030943652343750176,0.8798079169904078
152,1790492017.4552786,-0.06495292968750001,-0.883331103515625,0.03573369140625018,0.886436471618039
153,1790492017.4752786,-0.11764335937500002,-0.955181689453125,0.06926396484375018,0.9648883441608349
154,1790492017.501032,-0.026632617187500013,-0.983921923828125,0.13153447265625018,0.9930322079292556
155,1790492017.521032,0.01647773437499999,-0.969551806640625,0.13153447265625018,0.9785721940598919
156,1790492017.5454845,-0.002682421875000011,-0.9599717285156251,0.11237431640625017,0.9665303419573358
157,1790492017.5654845,-0.041002734375000016,-1.0318223144531251,0.15069462890625018,1.0435743308508614
158,1790492017.5903862,-0.05537285156250001,-1.012662158203125,0.1985950195312502,1.0334363943317417
159,1790492017.6103861,-0.002682421875000011,-1.017452197265625,0.1842249023437502,1.0339995085836975
160,1790492017.6204586,0.011687695312499989,-1.0701426269531251,0.1650647460937502,1.0828611243584505
161,1790492017.6404586,-0.026632617187500013,-1.0701426269531251,0.2033850585937502,1.0896237976382375
162,1790492017.6656566,0.00689765624999999,-0.9791318847656251,0.2560754882812502,1.012087684504119
163,1790492017.6856565,-0.002682421875000011,-0.9216514160156251,0.22254521484375017,0.9481428693401502
164,1790492017.7112045,-0.041002734375000016,-0.9216514160156251,0.15548466796875018,0.9355736415927857
165,1790492017.7312045,-0.031422656250000014,-0.950391650390625,0.14590458984375018,0.962039407610465
166,1790492017.7402673,0.01647773437499999,-0.993502001953125,0.10758427734375017,0.9994459066635758
167,1790492017.7602673,-0.05537285156250001,-1.012662158203125,0.059683886718750176,1.0159296066562045
168,1790492017.785678,-0.10327324218750002,-1.017452197265625,0.07405400390625018,1.0253576604127523
169,1790492017.805678,-0.08411308593750001,-1.017452197265625,0.10279423828125019,1.0260851038634173
170,1790492017.8313732,-0.012262500000000011,-0.974341845703125,0.050103808593750174,0.9757063045968399
171,1790492017.8513732,-0.10806328125000002,-0.9408115722656251,0.08363408203125018,0.950683305281335
172,1790492017.860521,-0.15596367187500002,-0.9216514160156251,0.12195439453125018,0.9426764418048343
173,1790492017.880521,-0.09369316406250001,-0.8977012207031251,0.09800419921875018,0.9078825440046923
174,1790492017.906088,-0.036212695312500015,-0.912071337890625,0.059683886718750176,0.9147391163808658
175,1790492017.926088,-0.05537285156250001,-0.945601611328125,0.09800419921875018,0.9522779967535833
176,1790492017.950477,-0.14638359375,-0.907281298828125,0.11237431640625017,0.9258593298715451
177,1790492017.9704769,-0.14638359375,-0.8785410644531251,0.08842412109375018,0.8950314986863855
178,1790492017.9808502,-0.06974296875000001,-0.8977012207031251,0.08842412109375018,0.9047377457214586
179,1790492018.0008502,-0.09369316406250001,-0.926441455078125,0.06447392578125018,0.9333965211982324
180,1790492018.026077,-0.16075371093750002,-0.974341845703125,0.054893847656250175,0.9890384837704027
181,1790492018.046077,-0.11285332031250002,-0.974341845703125,0.07405400390625018,0.9836472435219218
182,1790492018.07055,-0.036212695312500015,-0.926441455078125,0.08842412109375018,0.9313559760801837
183,1790492018.09055,-0.08890312500000001,-0.9168613769531251,0.10279423828125019,0.9268792831900864
184,1790492018.1005394,-0.16075371093750002,-0.9408115722656251,0.09321416015625018,0.9589875128189782
185,1790492018.1205394,-0.09848320312500002,-0.964761767578125,0.08842412109375018,0.9737982515230916
186,1790492018.1456764,-0.06974296875000001,-0.988711962890625,0.09800419921875018,0.9960021336912912
187,1790492018.1656764,-0.09369316406250001,-0.955181689453125,0.09800419921875018,0.9647565972425777
188,1790492018.1907527,-0.08411308593750001,-0.9216514160156251,0.08842412109375018,0.9296962778567731
189,1790492018.2107527,-0.136803515625,-0.931231494140625,0.09321416015625018,0.9458309453704588
190,1790492018.2208078,-0.1415935546875,-0.907281298828125,0.07405400390625018,0.9212448563909805
191,1790492018.2408078,-0.08411308593750001,-0.873751025390625,0.059683886718750176,0.8798170445785615
192,1790492018.2810893,-0.08890312500000001,-0.9216514160156251,0.07884404296875018,0.9292800876969389
193,1790492018.3010893,-0.12243339843750002,-0.9168613769531251,0.08842412109375018,0.9292166307124181
194,1790492018.3106077,-0.14638359375,-0.892911181640625,0.08363408203125018,0.9086876220655986
195,1790492018.3306077,-0.1320134765625,-0.907281298828125,0.11237431640625017,0.9236963246571566
196,1790492018.3556914,-0.10806328125000002,-0.926441455078125,0.10758427734375017,0.9389067148409191
197,1790492018.3756914,-0.1320134765625,-0.9216514160156251,0.08842412109375018,0.9352474088865078
198,1790492018.3860674,-0.11764335937500002,-0.936021533203125,0.06447392578125018,0.9455861450606234
199,1790492018.4060674,-0.136803515625,-0.926441455078125,0.07405400390625018,0.9394109681439642
200,1790492018.4307637,-0.15117363281250001,-0.883331103515625,0.07884404296875018,0.8996353087821302
201,1790492018.4507637,-0.1320134765625,-0.864170947265625,0.09800419921875018,0.8796725567826894
202,1790492018.4756117,-0.16075371093750002,-0.883331103515625,0.12195439453125018,0.9060841397816171
203,1790492018.4956117,-0.19428398437500002,-0.868960986328125,0.12674443359375018,0.8993906902964771
204,1790492018.5054185,-0.11285332031250002,-0.902491259765625,0.10279423828125019,0.915310330588879
205,1790492018.5254185,-0.06974296875000001,-0.8977012207031251,0.10758427734375017,0.9068108623486605
206,1790492018.5505772,-0.12243339843750002,-0.892911181640625,0.13632451171875018,0.911517793489062
207,1790492018.5705771,-0.16075371093750002,-0.926441455078125,0.11237431640625017,0.9469759829347432
208,1790492018.596153,-0.17033378906250002,-1.022242236328125,0.13153447265625018,1.0446502318606319
209,1790492018.616153,-0.18949394531250002,-1.0701426269531251,0.1985950195312502,1.1047864857586056
210,1790492018.6258717,-0.251764453125,-1.055772509765625,0.1842249023437502,1.1008995171575384
211,1790492018.6458716,-0.27571464843750004,-1.074932666015625,0.059683886718750176,1.1113329699798933
212,1790492018.670228,-0.27571464843750004,-1.079722705078125,0.030943652343750176,1.1147991733243299
213,1790492018.690228,-0.28529472656250005,-1.022242236328125,0.15548466796875018,1.0726358900907849
214,1790492018.7153695,-0.26613457031250004,-1.050982470703125,0.3901965820312502,1.1522348440615455
215,1790492018.7353694,-0.3427751953125,-0.8977012207031251,0.2177551757812502,0.9852814992442143
216,1790492018.7458704,-0.17991386718750002,-1.003082080078125,0.22733525390625017,1.0441379107420814
217,1790492018.7658703,-0.20865410156250003,-1.347964892578125,0.1890149414062502,1.3770521173132184
218,1790492018.7912095,-0.328405078125,-1.304854541015625,0.10279423828125019,1.349467274138653
219,1790492018.8112094,-0.43378593750000005,-1.3240146972656248,0.2608655273437502,1.4174752137178523
220,1790492018.8362954,-0.5152166015625,-1.4725059082031249,0.4907874023437502,1.6354186224077454
221,1790492018.8562953,-0.6110173828125001,-1.625787158203125,0.7542395507812503,1.8935161541006014
222,1790492018.8656383,-1.0038005859375,-1.381495166015625,0.7781897460937502,1.87662563953988
223,1790492018.8856382,-1.4780144531250001,-1.007872119140625,0.8213000976562502,1.968468130958074
224,1790492018.9112144,-2.02407890625,-0.969551806640625,0.7446594726562502,2.364623406528613
225,1790492018.9312143,-2.0144988281250003,-0.782740283203125,0.5482678710937502,2.229682833485422
226,1790492018.9558346,-1.727096484375,-0.6007187988281251,0.34229619140625017,1.8603472859273384
227,1790492018.9758346,-1.5211248046875,-0.404327197265625,0.12195439453125018,1.578662100713685
228,1790492018.9861543,-1.8707976562500002,-0.370796923828125,0.04531376953125018,1.907728378742641
229,1790492019.0061543,-2.263580859375,-0.198355517578125,-0.09359736328124983,2.2741819814376667
230,1790492019.0313463,-2.0480291015625003,0.333338818359375,-0.22771845703124985,2.087437104284778
231,1790492019.0513463,-1.33431328125,0.36686909179687505,-0.07443720703124983,1.385830350665845
232,1790492019.0759332,-0.8792595703125,0.582420849609375,-0.15586787109374983,1.066117362810083
233,1790492019.0959332,-1.1283416015625,0.500990185546875,-0.17502802734374984,1.2469084754651258
234,1790492019.1351044,-1.69835625,0.23753803710937502,-0.3666295898437498,1.7536406493739911
235,1790492019.1551044,-1.7318865234375,0.40518940429687506,-0.6061315429687498,1.8790968125140768
236,1790492019.1511605,-1.0996013671875,0.362079052734375,-0.39057978515624986,1.2217925256451456
237,1790492019.1711605,-0.91278984375,0.07467670898437502,-0.05527705078124983,0.9175061100946191
238,1790492019.1959395,-1.2049822265625,0.32854877929687504,-0.36183955078124985,1.3003285458754505
239,1790492019.2159395,-1.3917937500000002,0.563260693359375,-0.5534411132812499,1.6002029612185875
240,1790492019.2408922,-1.3391033203125,0.615951123046875,-0.5007506835937499,1.556709586138107
241,1790492019.2608922,-0.9654802734375001,0.754862255859375,-0.44327021484374984,1.3032488891557432
242,1790492019.2704387,-0.9175798828125,0.8650331542968751,-0.4672204101562499,1.3448160138255258
243,1790492019.2904387,-1.401373828125,0.9081435058593751,-0.4576403320312499,1.73147564432479
244,1790492019.3164263,-1.286412890625,1.023104443359375,-0.4768004882812498,1.711414483055786
245,1790492019.3364263,-0.6972380859375,0.8075526855468751,-0.36183955078124985,1.1265922727079818
246,1790492019.3614986,-0.4098357421875,1.1141151855468752,-0.5917614257812499,1.3264236002435967
247,1790492019.3814986,-0.39546562500000004,1.4350478027343752,-0.8552135742187499,1.7167252296792892
248,1790492019.390477,0.131438671875,1.3775673339843753,-0.6779821289062499,1.5409826901173596
249,1790492019.410477,0.3853107421875,1.209915966796875,-0.5055407226562498,1.3667232481445915
250,1790492019.435835,0.3182501953125,0.6542714355468751,-0.3187291992187498,0.7943189539622221
251,1790492019.4558349,0.830784375,0.615951123046875,-0.40973994140624986,1.112423158384634
252,1790492019.4804666,1.3049982421875002,0.37644916992187505,-0.4480602539062499,1.430207111147846
253,1790492019.5004666,1.415169140625,0.08425678710937502,-0.33309931640624985,1.4562822725493867
254,1790492019.5108252,1.7935822265625,-0.011543994140624984,-0.35225947265624985,1.8278832575735446
255,1790492019.5308251,1.96123359375,-0.207935595703125,-0.30914912109374987,1.9963084932662567
256,1790492019.5564039,1.80795234375,-0.389957080078125,-0.06964716796874983,1.850840060507726
257,1790492019.5764039,1.80795234375,-0.8210605957031251,0.1746448242187502,1.9933220998408379
258,1790492019.60155,1.9085431640625001,-1.213843798828125,0.050103808593750174,2.2624023003610105
259,1790492019.62155,1.8223224609375002,-1.6353672363281249,-0.07443720703124983,2.449658353134863
260,1790492019.6311839,1.7744220703125,-1.779068408203125,-0.10317744140624983,2.5148168261512884
261,1790492019.6511838,1.683411328125,-1.894029345703125,0.0022034179687501743,2.53401375629552
262,1790492019.6762617,1.6977814453125,-2.008990283203125,-0.031326855468749824,2.630491430498403
263,1790492019.6962616,1.721731640625,-2.262862353515625,-0.06964716796874983,2.844249743129741
264,1790492019.7206588,1.69299140625,-2.464043994140625,-0.09838740234374983,2.9912226242185302
265,1790492019.7406588,1.6355109375,-2.329922900390625,-0.27082880859374986,2.8595078233869375
266,1790492019.7662208,1.2523078125,-2.219752001953125,-0.09838740234374983,2.550539920950737
267,1790492019.7862208,1.1804572265625,-2.200591845703125,0.2081750976562502,2.505877212954159
268,1790492019.7953463,1.376848828125,-2.147901416015625,0.4093567382812502,2.583943909531973
269,1790492019.8153462,1.3097882812500001,-1.989830126953125,0.4476770507812502,2.4239191442014554
270,1790492019.8408105,1.051126171875,-1.506036181640625,0.4285168945312502,1.8859050714471213
271,1790492019.8608105,0.897844921875,-1.3240146972656248,0.5817981445312502,1.7022424925057282
272,1790492019.8865166,0.8212042968750001,-1.3527549316406249,0.6967590820312503,1.7291025477619961
273,1790492019.9065166,0.8259943359375,-1.266534228515625,0.6296985351562502,1.6379547735454811
274,1790492019.9155514,0.88826484375,-1.094092822265625,0.4476770507812502,1.478671119002319
275,1790492019.9355514,0.8738947265625,-0.806690478515625,0.1938049804687502,1.2049904114539698
276,1790492019.9606295,0.8403644531250001,-0.528868212890625,-0.07922724609374983,0.9960878260503958
277,1790492019.9806294,0.7972541015625,-0.993502001953125,0.026153613281250175,1.2741053103377136
278,1790492020.0057142,0.92658515625,-1.6353672363281249,0.2081750976562502,1.8911168448095732
279,1790492020.0257142,1.1804572265625,-1.822178759765625,-0.06964716796874983,2.172248932394878
