imu_index,t_imu,ax,ay,az,mag,vx,vy,vz,velocity
0,1790651544.2445583,-0.023087988281250242,-0.007280859374999913,0.0019160156250004358,0.024284506006689088,0.0,0.0,0.0,0.0
1,1790651544.2645583,0.14456337890624976,-0.045601171874999916,-0.03640429687499957,0.1558951898813056,0.0001527757551804524,-8.860605807672217e-05,-4.928945494699106e-05,0.00018336006999296344
2,1790651544.2744548,0.13498330078124976,-0.06955136718749992,-0.045984374999999564,0.15865827085781684,0.00042452398003334495,-0.00021134465347123847,-0.0001311727819229967,0.0004920299491815999
3,1790651544.2944548,-0.023087988281250242,-0.045601171874999916,-0.026824218749999566,0.057724005325308636,0.0010591689485247315,-0.0005949105215851046,-0.0003810426560550421,0.0012731656985424669
4,1790651544.3197014,-0.07098837890625025,-0.002490820312499913,-0.03640429687499957,0.07981746022349759,0.0015619985445514827,-0.0010975319594946843,-0.000768871602385272,0.0020580523307845424
5,1790651544.3397014,0.07271279296874976,-0.002490820312499913,-0.055564453124999566,0.09154650675053473,0.0019031688991401259,-0.0014434479845804957,-0.0011679718604234457,0.0026589005640649177
6,1790651544.3650737,0.11103310546874977,-0.07913144531249992,-0.045984374999999564,0.14389127454929385,0.0026207142696030652,-0.0019717776135440273,-0.0017915698917677393,0.0037370808015432548
7,1790651544.3850737,0.005652246093749761,-0.09350156249999991,-0.026824218749999566,0.09743730695885189,0.003276513508302163,-0.0025847194958583024,-0.002318607247054414,0.004774123501591658
8,1790651544.410017,-0.00871787109375024,-0.10308164062499992,-0.026824218749999566,0.10687078469767454,0.003965986970230808,-0.003602253475477117,-0.0029776789891975833,0.006129588478220724
9,1790651544.430017,0.08229287109374976,-0.06476132812499992,-0.06035449218749957,0.12086691433381332,0.004546255646793623,-0.004547511543424914,-0.0035576331126678075,0.007348813170025224
10,1790651544.4397728,0.13498330078124976,-0.03602109374999991,-0.055564453124999566,0.15035098648106004,0.004945827502371195,-0.0050131796004516905,-0.0038829126058022123,0.008041777769491892
11,1790651544.4597728,0.06313271484374976,-0.040811132812499915,-0.0028740234374995646,0.07522996913266032,0.00593927221616507,-0.0059398742498241175,-0.004537383605579849,0.009546984369193172
12,1790651544.4851713,0.0008622070312497604,-0.045601171874999916,0.040236328125000435,0.060820821914215534,0.00713353626409644,-0.007104788390421764,-0.00517267283411155,0.011319094573003907
13,1790651544.5051713,0.05834267578124976,-0.040811132812499915,0.021076171875000438,0.07425376353869273,0.008021700756914975,-0.008014119191415637,-0.005505922576112687,0.012605116931700954
14,1790651544.5302205,0.14935341796874976,-0.07434140624999992,-0.06993457031249957,0.18089757396651163,0.009357430670218155,-0.009198521878675614,-0.0059524875461498435,0.014408553761133777
15,1790651544.5502205,0.07271279296874976,-0.08871152343749991,-0.06993457031249957,0.1343418355416968,0.010597040782003884,-0.010246911890962563,-0.00646535839419794,0.0160965007315885
16,1790651544.5594206,-0.00871787109375024,-0.05039121093749992,-0.026824218749999566,0.057747849550461056,0.011125890819912016,-0.010752818949560566,-0.00673265744444688,0.01687415888756821
17,1790651544.5794206,0.039182519531249765,-0.026441015624999915,-0.0028740234374995646,0.04735670126621529,0.0121487995023304,-0.01180288478056053,-0.007271121291361514,0.018432868016798186
18,1790651544.6044776,0.13498330078124976,-0.05039121093749992,-0.03640429687499957,0.14861035785069646,0.013565428860843878,-0.01306551736008423,-0.00791836086913294,0.020431080316985057
19,1790651544.6244776,0.08708291015624976,-0.05039121093749992,-0.04119433593749957,0.10871835491011005,0.01485964059175331,-0.014073324407068006,-0.00847387864738034,0.022151162446092693
20,1790651544.6500895,-0.03745810546875024,-0.040811132812499915,-0.0076640624999995645,0.05592312652875752,0.01636372143642645,-0.015345517996346644,-0.009172414635761884,0.02423611957544978
21,1790651544.6700895,0.034392480468749764,-0.040811132812499915,-0.012454101562499565,0.054804159695792214,0.01735746254452996,-0.016312374746853483,-0.009666247846459301,0.025706252610906217
22,1790651544.6801636,0.15893349609374977,-0.08392148437499991,-0.03640429687499957,0.18337923696877037,0.017929003544213895,-0.016820578747950777,-0.009914598648860379,0.02650811769764937
23,1790651544.7001636,0.039182519531249765,-0.05997128906249992,-0.0028740234374995646,0.07169438861831509,0.01919064561989436,-0.017894005639755295,-0.01039260496646911,0.028222022520241943
24,1790651544.7250078,-0.10930869140625024,-0.026441015624999915,0.011496093750000436,0.11304723568374918,0.02039211901543523,-0.019188426857526922,-0.010881255810889733,0.030040572085570493
25,1790651544.7450078,0.0008622070312497604,-0.03602109374999991,-0.045984374999999564,0.058419391815146486,0.02105157505981403,-0.020167846444970258,-0.011267354618736593,0.03125482559271845
26,1790651544.7697792,0.15893349609374977,-0.10787167968749992,-0.10346484374999956,0.2181768304641819,0.02204272014850491,-0.021466299820657328,-0.011951490259808087,0.03300790297740747
27,1790651544.7897792,0.02002236328124976,-0.07434140624999992,-0.022034179687499565,0.08008148842956707,0.02299135000081591,-0.022630712952002068,-0.01260924257629165,0.034637325848334455
28,1790651544.8001418,-0.09972861328125024,-0.012070898437499913,0.05460644531250044,0.11433882440254799,0.023347190510513767,-0.02321069382763458,-0.01287360951805324,0.03534907968699792
29,1790651544.8201418,0.04876259765624976,0.011879296875000087,0.0019160156250004358,0.05022528984789363,0.02385450125644603,-0.024162445300505653,-0.013222522357096266,0.036437564278881535
30,1790651544.8438203,0.11103310546874977,-0.031231054687499916,-0.055564453124999566,0.12802787875306063,0.02464880751021707,-0.025154596492484724,-0.01366892069593341,0.03777772927754095
31,1790651544.8638203,0.029602441406249763,-0.10787167968749992,-0.026824218749999566,0.1150310502749621,0.025430031970468094,-0.026075564301888978,-0.014112994804676052,0.039061466972424234
32,1790651544.8897276,-0.04703818359375024,-0.09350156249999991,0.045026367187500436,0.11394080326136181,0.026256328815304104,-0.027480882900151327,-0.014566579597042705,0.04070354983273792
33,1790651544.9097276,0.05834267578124976,-0.012070898437499913,0.021076171875000438,0.06319635612366448,0.026815489659857174,-0.028561391321761873,-0.014765061709450765,0.041866819884206756
34,1790651544.91974,0.17330361328124977,-0.040811132812499915,-0.017244140624999564,0.17887719620921844,0.02722737758710045,-0.029060887383886277,-0.01484664360470958,0.04250044814039876
35,1790651544.93974,0.07750283203124976,-0.016860937499999912,-0.012454101562499565,0.08028751354956803,0.028302929343365205,-0.029995487267010738,-0.015029708416537725,0.043893931253500995
36,1790651544.9793687,-0.02787802734375024,-0.06476132812499992,0.05939648437500044,0.09219086931579756,0.030261891249520004,-0.03181215619330671,-0.015198510349710712,0.04646278145478789
37,1790651544.9993687,0.005652246093749761,-0.10308164062499992,0.06418652343750043,0.12156349086316473,0.031068910318976562,-0.032843237111312366,-0.015085548860317642,0.047660562279263186
38,1790651545.0094316,0.09187294921874976,-0.05997128906249992,0.006706054687500436,0.10991890410407412,0.03148765645986259,-0.03340726400639094,-0.014983734004054968,0.048291097341345464
39,1790651545.0294316,0.07271279296874976,-0.05039121093749992,-0.022034179687499565,0.0911697837858843,0.03244195062082357,-0.03452565584886504,-0.014834723542632789,0.049644436691985615
40,1790651545.0546174,-0.04224814453125024,-0.007280859374999913,0.006706054687500436,0.04339225505828984,0.03352097146978579,-0.035831719712039016,-0.014704176824448134,0.051222851169033495
41,1790651545.0746174,0.04397255859374976,-0.05997128906249992,-0.026824218749999566,0.07905491845955258,0.034251878009421845,-0.036814167764200795,-0.014646237324122093,0.052373527311968815
42,1790651545.0848641,0.10624306640624977,-0.09829160156249991,-0.055564453124999566,0.15503624269248886,0.03468562032080809,-0.037363637622911124,-0.014684321631112607,0.05305433983399884
43,1790651545.1048641,-0.01350791015625024,-0.13182187499999992,-0.017244140624999564,0.1336294531576018,0.03554432763663403,-0.03862041121937132,-0.014856718585059886,0.05454958732208147
44,1790651545.1296937,-0.07098837890625025,-0.15098203124999993,0.011496093750000436,0.16723362063778358,0.036293136372699236,-0.04047327791273052,-0.015049346353589977,0.056407098830189586
45,1790651545.1496937,0.05355263671874976,-0.11266171874999992,-0.012454101562499565,0.12536208524495562,0.03677966615423155,-0.04213733672062525,-0.015182668915941567,0.05795526226094725
46,1790651545.1749623,0.19246376953124977,-0.17014218749999993,-0.026824218749999566,0.25828318811144285,0.037768393515318716,-0.04446034721481084,-0.015400283940808552,0.060335253116623556
47,1790651545.1949623,0.12061318359374977,-0.15098203124999993,-0.0076640624999995645,0.19339558338028157,0.038903196883131985,-0.04650489020886556,-0.015598421675285254,0.06260570501021755
48,1790651545.20471,0.039182519531249765,-0.12224179687499992,-0.03161425781249957,0.13220358556817097,0.03949014621885668,-0.04755165114161451,-0.01570922170120952,0.06377625593540469
49,1790651545.22471,0.05834267578124976,-0.10787167968749992,-0.026824218749999566,0.12553766688713963,0.04066006863274283,-0.04972236338911985,-0.015990113656254336,0.06619092337291402
50,1790651545.2499714,0.13019326171874976,-0.10787167968749992,-0.0028740234374995646,0.1691001025614377,0.04227331091430923,-0.05246161158071682,-0.01634794868357572,0.06932899055564477
51,1790651545.2699714,0.15893349609374977,-0.12224179687499992,0.011496093750000436,0.2008359361651184,0.043792652672526675,-0.054650193586076486,-0.01657582525063876,0.0719666455368868
52,1790651545.2941797,0.08708291015624976,-0.08392148437499991,0.0019160156250004358,0.12095420578409032,0.04580250663524717,-0.057276239828640337,-0.016785925642421536,0.07523433101086692
53,1790651545.3141797,0.05834267578124976,-0.11266171874999992,-0.050774414062499565,0.13665493702172002,0.047432039845261405,-0.05941522278389832,-0.017006753566743454,0.07790504970297289
54,1790651545.3241627,0.06792275390624976,-0.12703183593749992,0.0019160156250004358,0.14406338520157058,0.048217957804503435,-0.06050221737873817,-0.017137028298911512,0.07924119825885179
55,1790651545.3441627,0.10624306640624977,-0.05997128906249992,0.025866210937500436,0.12471249151341653,0.0498175322993823,-0.06263374597467679,-0.017317197572732326,0.08188197598368878
56,1790651545.3844843,0.09187294921874976,-0.040811132812499915,0.006706054687500436,0.10075295791718587,0.053157800192878316,-0.06659125881466574,-0.017527445686508363,0.08699056744361007
57,1790651545.4044843,0.07271279296874976,-0.15577207031249993,-0.04119433593749957,0.17677404069628055,0.05481296882229348,-0.06855466021405013,-0.01766782076031689,0.08953409897126495
58,1790651545.4140508,0.06313271484374976,-0.3330035156249999,-0.026824218749999566,0.33999502910145557,0.05558339283549023,-0.0697036291898149,-0.017773696952018966,0.09090662123672759
59,1790651545.4340508,0.01044228515624976,-0.24678281249999992,0.0019160156250004358,0.2470110705627782,0.05706281742227447,-0.07261505364141772,-0.017999203786422092,0.09409082040485647
60,1790651545.4452286,-0.003927832031250239,-0.016860937499999912,-0.050774414062499565,0.053644759308200576,0.0577710882742493,-0.07421916473140876,-0.018147291793287022,0.0957878241388215
61,1790651545.4652286,-0.061408300781250244,0.026249414062500087,0.006706054687500436,0.06711916501966353,0.05875027435225948,-0.07664473165695478,-0.018438617355764672,0.09831577817026456
62,1790651545.4895368,-0.04224814453125024,-0.07434140624999992,0.06418652343750043,0.10691800685831049,0.05957289352250189,-0.0792382613277085,-0.018610340354685048,0.10086613142675192
63,1790651545.5095367,0.06313271484374976,-0.08871152343749991,-0.022034179687499565,0.11108995971124185,0.06017952044772341,-0.08129662982426,-0.018667206667340935,0.102855147206457
64,1790651545.5346513,0.12061318359374977,-0.07434140624999992,-0.06035449218749957,0.1540027579852324,0.0611731170845626,-0.08380079306100296,-0.018883090492510773,0.10545754727871778
65,1790651545.5546513,0.13019326171874976,-0.03602109374999991,0.05939648437500044,0.14756607654885598,0.062221890144307186,-0.08566140017897643,-0.019030658870214334,0.10757139522562419
66,1790651545.5647972,0.13019326171874976,0.07893984375000009,0.25578808593750046,0.2976731920005754,0.06287226164646491,-0.0864310376276911,-0.01885445314540588,0.10852988507021097
67,1790651545.5847971,0.07271279296874976,0.2753314453125001,0.32763867187500045,0.4340986689074279,0.06426635147467197,-0.08718919848955872,-0.017684072052272057,0.10974901671298788
68,1790651545.6098473,0.09187294921874976,0.3998724609375001,0.26536816406250047,0.4886296003234614,0.06605976292547885,-0.08672781392086427,-0.015323926917001683,0.11009281866416237
69,1790651545.6298473,0.13019326171874976,0.2609613281250001,0.18393750000000045,0.34479574254909384,0.06760993844625998,-0.08542345124583535,-0.01304828572909296,0.10972022402421863
70,1790651545.6543972,0.23557412109374978,0.07893984375000009,0.18393750000000045,0.30912727049973654,0.06990081993546512,-0.08343667065807149,-0.009996591333267486,0.10930569279062351
71,1790651545.6743972,0.22599404296874978,0.1172601562500001,0.24141796875000046,0.350864485715656,0.07217952630338134,-0.08176659532518646,-0.007245367802666306,0.10930761859563695
72,1790651545.699853,0.14935341796874976,0.2801214843750001,0.27973828125000044,0.4231169997342412,0.07536139303231668,-0.07920112036962393,-0.003273924471789945,0.1093749313555074
73,1790651545.719853,0.11582314453124977,0.3519720703125001,0.14561718750000044,0.3981252370606322,0.07788409040384532,-0.0765396904051936,1.6340708776534096e-05,0.10919824180075428
74,1790651545.729926,0.17330361328124977,0.2753314453125001,-0.0076640624999995645,0.32542323980965326,0.07918251636475448,-0.0749263827497246,0.0015291607175527857,0.10902372247503268
75,1790651545.749926,0.19246376953124977,0.1699505859375001,0.025866210937500436,0.25805922791278146,0.08192245203131991,-0.07153576597086801,0.004109570573762938,0.10883722952263829
76,1790651545.7741292,0.24515419921874979,0.10289003906250009,0.035446289062500434,0.2682226331635188,0.08553521223455997,-0.0675528036480892,0.006875156718325157,0.10921044635303916
77,1790651545.7941291,0.2595243164062498,0.1220501953125001,0.011496093750000436,0.2870213949402718,0.08882979518318393,-0.06441780153046381,0.008888089709452127,0.1100880729461094
78,1790651545.8194735,0.3217948242187498,0.1795306640625001,-0.026824218749999566,0.3694627274086605,0.09348349944426441,-0.06046772198499376,0.01102715784018464,0.11187988326965947
79,1790651545.8394735,0.3696952148437498,0.3136517578125001,-0.07472460937499957,0.4905463732446544,0.09764225089150527,-0.05707839479869955,0.012309635488616142,0.11376941345466483
80,1790651545.8502276,0.3696952148437498,0.2849115234375001,-0.11304492187499957,0.4802377353223799,0.10013936978781307,-0.055046526576597574,0.012744344911994873,0.11498013653185633
81,1790651545.8702276,0.2499442382812498,0.08372988281250009,-0.050774414062499565,0.2684415330182334,0.10501624790053178,-0.05128160864669091,0.013185800319397574,0.11760986794721494
82,1790651545.8947778,0.26431435546874976,0.13163027343750008,0.021076171875000438,0.29602839798403835,0.11105159313641959,-0.04695681662195048,0.013591725704711776,0.12133480116205937
83,1790651545.9147778,0.4511258789062498,0.2657513671875001,0.08813671875000044,0.530948612365621,0.11630397598270224,-0.04336600758775956,0.0140366311935895,0.12491698226722998
84,1790651545.9399009,0.4990262695312498,0.4429828125000001,-0.0076640624999995645,0.6673228062240115,0.12370243051679643,-0.03819655915970942,0.01466330103988611,0.13029305754640327
85,1790651545.9599009,0.3792752929687498,0.2992816406250001,-0.050774414062499565,0.48579552220570427,0.13002617104449998,-0.03358516879730975,0.01499969016322268,0.13512867728439448
86,1790651545.9842808,0.25473427734374976,0.1507904296875001,-0.07951464843749957,0.30651245497585,0.13773779762193294,-0.02798412253989877,0.015110006393104178,0.1413616790409207
87,1790651546.0042808,0.3792752929687498,0.2034808593750001,-0.15136523437499957,0.45625173113744794,0.14406607503294372,-0.02354714523387024,0.014840609644507922,0.14673017998586182
88,1790651546.0141282,0.34574501953124975,0.2322210937500001,-0.18010546874999958,0.453766718465301,0.1472500216239638,-0.021368413699025934,0.014483053652886132,0.1494956080136902
89,1790651546.0341282,0.24515419921874979,0.2897015625000001,-0.19447558593749958,0.42643678339850294,0.15363295005311609,-0.01682429489721244,0.013303918712398959,0.15512296572048173
90,1790651546.0599978,0.33616494140624975,0.2082708984375001,-0.2854863281249996,0.4877356645898736,0.1617786079891683,-0.010862044408226456,0.01107627574528413,0.16252072451236746
91,1790651546.0799978,0.3792752929687498,0.10768007812500009,-0.34775683593749956,0.5257181412342531,0.16820461430479858,-0.006470078278850664,0.008662536053722697,0.16855175382428553
92,1790651546.089374,0.3122147460937498,0.1124701171875001,-0.3333867187499996,0.4703980008221187,0.17125160095413497,-0.004565097925920492,0.007221683822531111,0.17146458428975975
93,1790651546.109374,0.2786844726562498,0.1603705078125001,-0.3525468749999996,0.4771509553044996,0.17766238745901264,-0.0007019506189129628,0.0035804002819884127,0.17769984782910475
94,1790651546.1344423,0.24515419921874979,0.1172601562500001,-0.3525468749999996,0.4451289978316693,0.1854773391435792,0.003935837598855633,-0.0016246960263450374,0.18552620782672427
95,1790651546.1544423,0.28347451171874977,0.0645697265625001,-0.4196074218749996,0.510487450262123,0.19156996837323712,0.007353684851376503,-0.0063127473990260575,0.19181496355378624
96,1790651546.1794665,0.3696952148437498,-0.045601171874999916,-0.4435576171874996,0.5792213553727038,0.19927553061894582,0.011024263175052333,-0.012918623061519478,0.1999979057485874
97,1790651546.1994665,0.3792752929687498,-0.12703183593749992,-0.3525468749999996,0.5331755191964914,0.20563370053483693,0.01325889343439545,-0.01860043015297847,0.20689850906333637
98,1790651546.209546,0.3792752929687498,-0.09350156249999991,-0.3333867187499996,0.5135552494964526,0.20893088380631378,0.014049457075072777,-0.02155297378332816,0.2105089834926209
99,1790651546.229546,0.3265848632812498,0.01666933593750009,-0.33817675781249956,0.47042433951657286,0.21555060186990133,0.015267549392660222,-0.027539988159052523,0.21783849746712539
100,1790651546.2552104,0.2978446289062498,-0.021650976562499914,-0.2806962890624996,0.4098421579680035,0.22397287767019528,0.01658657658672326,-0.03526145669051606,0.22733749093071434
101,1790651546.2752104,0.35532509765624976,-0.05039121093749992,-0.2759062499999996,0.4526803043575381,0.23053152446988778,0.01735223352224784,-0.04121103997160072,0.23482809371572635
102,1790651546.3002243,0.4654959960937498,-0.06955136718749992,-0.3956572265624996,0.6148727965913696,0.23904387116787235,0.01794118028692771,-0.0487958817492568,0.24463216544170524
103,1790651546.3202243,0.4367557617187498,-0.15098203124999993,-0.3956572265624996,0.6083550033377143,0.2461824157231538,0.018010640999396497,-0.05513766883358338,0.25292356063621035
104,1790651546.3291428,0.4271756835937498,-0.46712460937499994,-0.35733691406249957,0.726893482904644,0.24946606716540579,0.017623524314340895,-0.05804511444402917,0.25673554990895464
105,1790651546.3491428,0.3170047851562498,-0.05997128906249992,-0.5393583984374996,0.6284871289762762,0.2568414467874521,0.016094981370240548,-0.06493216391217732,0.2654105557876284
106,1790651546.3751132,0.4175956054687498,-0.1988824218749999,-0.6686894531249996,0.813071886218118,0.26641283249313913,0.013903667657047404,-0.07488673096886893,0.2770868668243567
107,1790651546.3951132,0.4367557617187498,-0.22762265624999992,-0.6926396484374996,0.849892552985643,0.2739596847035101,0.011829500206171724,-0.08344487545638762,0.2866302376894429
108,1790651546.4199295,0.39364541015624976,-0.3809039062499999,-0.6399492187499995,0.8423654179228428,0.28346485423881285,0.008509288809769047,-0.09495132963456486,0.29906602378747615
109,1790651546.4399295,0.4463358398437498,-0.43838437499999994,-0.5680986328124996,0.8450636655167452,0.29123618611863006,0.005005900949378752,-0.10464570826133751,0.309506541783461
110,1790651546.464315,0.5565067382812497,-0.44796445312499994,-0.6447392578124996,0.9623204308236569,0.3011243678482973,-0.00024600093333644255,-0.11691096469006751,0.32302340332127344
111,1790651546.484315,0.4750760742187498,-0.5054449218749999,-0.7213798828124997,1.0007800860683127,0.30956515094224246,-0.005337405039222411,-0.12751069684041427,0.3348403326649496
112,1790651546.5248113,0.3313749023437498,-0.47670468749999995,-0.5968388671874996,0.8326303611888412,0.326541927117084,-0.01708321329133017,-0.14975758714404916,0.35965094362298505
113,1790651546.5448112,0.39364541015624976,-0.4623345703124999,-0.4004472656249996,0.7273705908198826,0.3347561463485849,-0.02342254985896838,-0.1605925486986462,0.37202185427415163
114,1790651546.5399523,0.5900370117187498,-0.47670468749999995,-0.46750781249999956,0.8910412947955888,0.3347561463485849,-0.02342254985896838,-0.1605925486986462,0.37202185427415163
115,1790651546.5599523,0.5325565429687498,-0.57250546875,-0.5633085937499996,0.963688515548507,0.34362900236128957,-0.030773808174455287,-0.17107367322585548,0.3850897560366416
116,1790651546.5850468,0.38406533203124976,-0.7497369140625,-0.2088457031249996,0.8678871742859264,0.35481722314879705,-0.041102631719292314,-0.18370524005611055,0.4016619267510281
117,1790651546.6050467,0.5517166992187498,-0.773687109375,0.10729687500000044,0.9562926742345365,0.36380022510227683,-0.05038490713843778,-0.19241467141356638,0.4146235020196118
118,1790651546.6147032,0.5996170898437498,-0.47670468749999995,-0.07472460937499957,0.7696569240664353,0.3683206698526778,-0.05509991430962156,-0.1959654202816421,0.4208308001368407
119,1790651546.6347032,0.3888553710937498,-0.2851031249999999,-0.34775683593749956,0.5944973578195991,0.37776154522255995,-0.06454331694955012,-0.202850176401942,0.4336102153756128
120,1790651546.689349,0.4367557617187498,-0.37611386718749995,-0.3142265624999996,0.6564720626697131,0.40307119688654636,-0.08918507965305703,-0.22155275737743085,0.46851466625263494
121,1790651546.709349,0.5756668945312498,-0.5054449218749999,-0.2519560546874996,0.8064420599163762,0.41246351506782564,-0.09817332584396155,-0.22822029481827724,0.48150665222436173
122,1790651546.7048893,0.35532509765624976,-0.515025,-0.2950664062499996,0.6917881610339347,0.41246351506782564,-0.09817332584396155,-0.22822029481827724,0.48150665222436173
123,1790651546.7248893,0.21162392578124978,-0.4431744140624999,-0.31901660156249956,0.5856277309991345,0.4212869013359426,-0.10740572937683433,-0.2346561672251064,0.4940467192047601
124,1790651546.7344542,0.30263466796874977,-0.37611386718749995,-0.2663261718749996,0.5513429179493318,0.4252425867738207,-0.11174650130629164,-0.2376923033898938,0.49981613544490616
125,1790651546.7544541,0.3217948242187498,-0.3425835937499999,-0.18968554687499958,0.5068491237971204,0.43320980577928925,-0.12053954958448618,-0.24377254945401708,0.5114934747430034
126,1790651546.7793145,0.24515419921874979,-0.3042632812499999,-0.19926562499999959,0.4386154523249762,0.4426848011230639,-0.13103606092242281,-0.2509219488988863,0.5254541910068344
127,1790651546.7993145,0.28347451171874977,-0.21804257812499991,-0.2902763671874996,0.46060909024589647,0.44995691848022157,-0.13899722532441774,-0.2565451512394025,0.5362805905126081
128,1790651546.8242223,0.3601151367187498,-0.18930234374999994,-0.30943652343749956,0.5111450391819266,0.4588573446731146,-0.1481857397538581,-0.2636180973141721,0.5495485214777709
129,1790651546.8442223,0.33616494140624975,-0.26594296874999995,-0.22321582031249956,0.48327821479559047,0.46597644460400667,-0.15513991263190158,-0.2692444719651899,0.5600848374139751
130,1790651546.8701353,0.3505350585937498,-0.3042632812499999,-0.22321582031249956,0.5150497782332522,0.4751513189530493,-0.1639067495396409,-0.27630844710546976,0.5735682665466327
131,1790651546.8901353,0.4654959960937498,-0.2611529296874999,-0.18010546874999958,0.563316389729017,0.48239445573282586,-0.17050627522701559,-0.28154768394643326,0.5839913519472362
132,1790651546.9003613,0.5517166992187498,-0.25636289062499995,-0.24716601562499957,0.6566614707491034,0.4863225178032308,-0.1737713771825196,-0.2841523833823665,0.5894477583571445
133,1790651546.9203613,0.4271756835937498,-0.2755230468749999,-0.3238066406249996,0.6026962373583549,0.4943209662501805,-0.17999719467866182,-0.28933896079059856,0.6003909076577391
134,1790651546.945073,0.33616494140624975,-0.40964414062499993,-0.25674609374999957,0.588841019660609,0.5041360448974491,-0.18780569327735083,-0.2958621139695268,0.6139694786182343
135,1790651546.9650729,0.4511258789062498,-0.4431744140624999,-0.22800585937499956,0.6722386420073667,0.5120691173733131,-0.19445666036132203,-0.3010767474136326,0.6250403039481012
136,1790651547.0200844,0.5277665039062498,-0.41443417968749996,-0.2854863281249996,0.7292431799372356,0.5346553490911321,-0.21354494031090088,-0.3153871143509431,0.6564501624211555
137,1790651547.0400844,0.4415458007812498,-0.44796445312499994,-0.3142265624999996,0.7031167598853704,0.5430890476231793,-0.22073731065885283,-0.32070895740704036,0.6682251935734432
138,1790651547.0200844,0.48465615234374976,-0.44796445312499994,-0.2854863281249996,0.7190731401008684,0.5430890476231793,-0.22073731065885283,-0.32070895740704036,0.6682251935734432
139,1790651547.0400844,0.5996170898437498,-0.37611386718749995,-0.2950664062499996,0.7668549273628706,0.5519897094888326,-0.22831222280294103,-0.32618945049248094,0.6806016956159986
140,1790651547.0800345,0.5229764648437498,-0.3330035156249999,-0.29985644531249955,0.6887013953772153,0.5704655673219023,-0.24329823163764752,-0.3372772258960691,0.7059609905129705
141,1790651547.1000345,0.3505350585937498,-0.3138433593749999,-0.2950664062499996,0.5553707461006554,0.5796378669726509,-0.25064549884977483,-0.34288779148895454,0.7185925552595362
142,1790651547.1248045,0.4080155273437498,-0.30905332031249994,-0.3621269531249996,0.626998050658353,0.5907029922590425,-0.25953735210464796,-0.3500150869175905,0.7340301242259795
143,1790651547.1448045,0.5181864257812497,-0.31863339843749994,-0.32859667968749956,0.6913900435828002,0.5996864314361756,-0.2665814743548217,-0.35594272575367975,0.7465820266620439
144,1790651547.1398344,0.4511258789062498,-0.36653378906249995,-0.2854863281249996,0.6475832152625209,0.5996864314361756,-0.2665814743548217,-0.35594272575367975,0.7465820266620439
145,1790651547.1598344,0.3601151367187498,-0.29947324218749993,-0.3046464843749996,0.558727675099689,0.6086296986144583,-0.27354344960566046,-0.36189359827558853,0.7590936077523929
146,1790651547.1849349,0.39364541015624976,-0.3234234374999999,-0.31901660156249956,0.6011081607613433,0.6195890972373068,-0.2821429076686189,-0.3694158840814457,0.7745730212024685
147,1790651547.2049348,0.3888553710937498,-0.32821347656249994,-0.22800585937499956,0.5576013430176013,0.6281854016068567,-0.2889445817354694,-0.37533109206364584,0.7867523744965389
148,1790651547.23048,0.34574501953124975,-0.30905332031249994,-0.2088457031249996,0.5085962062782423,0.6389255488763932,-0.2975498752783497,-0.38259000482859257,0.8019581641706157
149,1790651547.25048,0.3265848632812498,-0.3042632812499999,-0.2902763671874996,0.53244172130762,0.6470814872506568,-0.30419657320777727,-0.38816941019820556,0.8135880390636894
150,1790651547.289958,0.41280556640624977,-0.3425835937499999,-0.3238066406249996,0.6265961178267044,0.6629549057637822,-0.3172637509454005,-0.3993488548252734,0.8364478480996097
151,1790651547.309958,0.4511258789062498,-0.40006406249999993,-0.2950664062499996,0.6712898009207573,0.6710861890700937,-0.3240046896005223,-0.40509123897810234,0.8481949209589541
152,1790651547.380034,0.37448525390624976,-0.3904839843749999,-0.2136357421874996,0.5816847752748969,0.6996422039007408,-0.3482356539640875,-0.4248669787557274,0.8895387758877638
153,1790651547.400034,0.3696952148437498,-0.32821347656249994,-0.2950664062499996,0.5757280800628877,0.7076859789185638,-0.3551919751042251,-0.4304274984218075,0.9012483649549782
154,1790651547.380034,0.4080155273437498,-0.3617437499999999,-0.35733691406249957,0.6519393233801524,0.7076859789185638,-0.3551919751042251,-0.4304274984218075,0.9012483649549782
155,1790651547.400034,0.42238564453124977,-0.4335943359374999,-0.31901660156249956,0.6842406542552463,0.7157347871894985,-0.36229061774406474,-0.43629131662657494,0.9131707892077598
156,1790651547.3945067,0.4367557617187498,-0.43838437499999994,-0.25674609374999957,0.6699664262442929,0.7157347871894985,-0.36229061774406474,-0.43629131662657494,0.9131707892077598
157,1790651547.4145067,0.5277665039062498,-0.38569394531249995,-0.24237597656249957,0.6971681404874814,0.7240922374322349,-0.3697672751491402,-0.4420107044074219,0.9254246964997127
158,1790651547.4249067,0.5612967773437498,-0.36653378906249995,-0.22800585937499956,0.7080873976355775,0.7286357281531161,-0.3736587197743371,-0.44490558987074397,0.9319183693343817
159,1790651547.4449067,0.4894461914062498,-0.45754453124999994,-0.22800585937499956,0.707736705469059,0.7376386532628821,-0.3812558104977877,-0.4503216007370676,0.9445932034035596
160,1790651547.4699113,0.33616494140624975,-0.4814947265624999,-0.2711162109374996,0.64679829883146,0.7487543473539794,-0.3910902448576723,-0.4570132094566799,0.9604403812430071
161,1790651547.4899113,0.48465615234374976,-0.4431744140624999,-0.3621269531249996,0.749954050235002,0.7575428444026631,-0.3991634192054535,-0.4625125211805794,0.9732011244271566
162,1790651547.5299695,0.4990262695312498,-0.5246050781249999,-0.2950664062499996,0.7818579728915621,0.7754603544088097,-0.4158153339250574,-0.4738493931980767,0.9993870124337364
163,1790651547.5499694,0.20683388671874978,-0.4623345703124999,-0.3238066406249996,0.6011524366698319,0.7841230266429146,-0.4243625281279394,-0.47958887533770045,1.0123921994654352
164,1790651547.5897715,0.3217948242187498,-0.48628476562499995,-0.31901660156249956,0.6646776468675804,0.8003547533796636,-0.44165265076643584,-0.49121665203800585,1.037746883602099
165,1790651547.6097715,0.5133963867187498,-0.44796445312499994,-0.25674609374999957,0.728125372319446,0.8085403206541273,-0.45043885956954993,-0.4970466699553756,1.05056556599173
166,1790651547.5907722,0.4463358398437498,-0.42401425781249996,-0.2902763671874996,0.6806351020222824,0.8085403206541273,-0.45043885956954993,-0.4970466699553756,1.05056556599173
167,1790651547.6107721,0.18288369140624977,-0.47670468749999995,-0.2854863281249996,0.5849754244522961,0.8166218788285919,-0.45924974435545596,-0.5028199540925605,1.0633012399624744
168,1790651547.619453,0.24036416015624978,-0.7209966796874999,-0.31901660156249956,0.8242467674674285,0.819879010680518,-0.4632801673769777,-0.5053434905603748,1.0687385784610983
169,1790651547.639453,0.4319657226562498,-0.9317583984375,-0.24716601562499957,1.0563423393430222,0.8272660708201124,-0.4736522296745345,-0.5111347019656568,1.0816534889507479
170,1790651547.6644707,0.4798661132812498,-1.0083990234375,-0.14178515624999957,1.1257189292528547,0.8368312964337283,-0.48832075197282415,-0.5180220367303244,1.098676752296367
171,1790651547.6844707,0.37448525390624976,-0.9988189453124999,0.016286132812500437,1.0668381925251782,0.8446125576952993,-0.5012990894183714,-0.5228903475974706,1.1126928890214438
172,1790651547.7101827,0.38406533203124976,-0.888648046875,0.12166699218750045,0.9757071217691196,0.8545784109441193,-0.5191211114987031,-0.5279442218511791,1.130714858061692
173,1790651547.7301826,0.28347451171874977,-0.8072173828125,0.29889843750000045,0.9062549187997754,0.8621688320910282,-0.5334482741416896,-0.5306548388431516,1.1443324316830341
174,1790651547.7399733,0.07271279296874976,-0.7688970703125,0.48091992187500043,0.9098207660043369,0.8655887802863741,-0.5405671951926788,-0.5312101156256547,1.1504959869635156
175,1790651547.7599733,-0.00871787109375024,-0.5485552734375,0.47612988281250046,0.7264217470585135,0.8716229902366589,-0.554904290844513,-0.5307386956043993,1.1616062035468844
176,1790651547.78495,0.06792275390624976,-0.2946832031249999,0.3324287109375004,0.44940019866238057,0.878139282653102,-0.5717028911741533,-0.5287236413228307,1.1736786120608418
177,1790651547.80495,0.13019326171874976,-0.13182187499999992,0.26057812500000044,0.31973153012175437,0.8828716592358097,-0.5837763278219648,-0.5264626197279938,1.182125229228254
178,1790651547.8451703,0.05834267578124976,-0.15577207031249993,0.35637890625000046,0.39328708410867635,0.8915297296202356,-0.6052817429248825,-0.5207366507909984,1.1968115585136785
179,1790651547.8651702,-0.00871787109375024,-0.18930234374999994,0.4138593750000005,0.455182338081171,0.8952636919283493,-0.614889093960965,-0.5171610869040242,1.202930283002746
180,1790651547.8905005,-0.09493857421875024,0.1220501953125001,0.24141796875000046,0.2866918531906423,0.8990865242490069,-0.6253595457824384,-0.512066974828171,1.2089845848053864
181,1790651547.9105005,-0.10451865234375024,0.46693300781250013,0.12166699218750045,0.49371392471808545,0.9013529646203673,-0.6315031293513513,-0.5081035251813163,1.2121891607798492
182,1790651547.9497564,-0.19073935546875026,0.47651308593750014,0.18872753906250045,0.5468677233069267,0.9042649428136803,-0.6389752499616557,-0.5005771425015835,1.2151386474227703
183,1790651547.9697564,-0.22426962890625024,0.3519720703125001,0.15998730468750044,0.44696436367006465,0.9049034794981543,-0.6409683699186155,-0.4967947257150223,1.2151114179128832
184,1790651547.9507565,-0.4254512695312503,0.2513812500000001,0.12645703125000043,0.510090870678822,0.9049034794981543,-0.6409683699186155,-0.4967947257150223,1.2151114179128832
185,1790651547.9707565,-0.46377158203125024,0.3088617187500001,0.06897656250000044,0.5614600678439111,0.9032025958918969,-0.6407987606860678,-0.49340356329565416,1.212371666278749
186,1790651547.9950497,-0.29133017578125026,0.5914740234375001,-0.10825488281249956,0.6681571008189815,0.9000707124030102,-0.6389832440570937,-0.4899738839400412,1.2076842635617469
187,1790651548.0150497,-0.04703818359375024,0.6537445312500001,-0.15615527343749958,0.6737796169946239,0.8973715181194101,-0.6358449483593066,-0.48797046375881953,1.2031997396055991
188,1790651548.025196,-0.14762900390625025,0.6154242187500001,-0.0076640624999995645,0.6329297193783868,0.8960594298704204,-0.6335258375781878,-0.48723120881153137,1.2006963561112332
189,1790651548.045196,-0.5691524414062503,0.5339935546875001,0.06418652343750043,0.7830731305551737,0.8927858904305548,-0.6279161053076121,-0.48590782357417517,1.1947600991274987
190,1790651548.0701194,-0.5931026367187503,0.7255951171875001,-0.012454101562499565,0.9372374920023232,0.8871458744264579,-0.6196195542682583,-0.48440933714926454,1.1855836539278322
191,1790651548.0901194,-0.13804892578125025,0.4813031250000001,-0.06035449218749957,0.5043340844830277,0.8822021420719426,-0.612150203040905,-0.4834964453267588,1.1776150912768384
192,1790651548.1146805,0.13019326171874976,0.08372988281250009,-0.09867480468749958,0.18356932138262663,0.8770271533511815,-0.6033124761632194,-0.48283646854674034,1.1688856346829486
193,1790651548.1346805,-0.43982138671875026,0.10768007812500009,-0.19447558593749958,0.49280686375693306,0.8729808490183432,-0.5969083388359467,-0.48281939153170883,1.1625444905738989
194,1790651548.1753066,-0.6170528320312503,0.6154242187500001,-0.08909472656249957,0.8760359791943941,0.862774217841257,-0.5836476341157808,-0.4836539318151384,1.1484533240583978
195,1790651548.1953065,-0.17636923828125026,1.1614886718750002,-0.022034179687499565,1.1750095949311907,0.8573131176464956,-0.5754333210035152,-0.4841698386758164,1.1404076995939894
196,1790651548.2802734,0.6235672851562498,0.7687054687500001,-0.026824218749999566,0.9901837180618761,0.8404423345724713,-0.5334704471476508,-0.4863441791816999,1.1079100578772005
197,1790651548.3002734,0.3888553710937498,0.44777285156250013,-0.16094531249999958,0.6145017655309,0.8385854991838511,-0.5232498950014496,-0.4870608703154075,1.1019275763192693
198,1790651548.339366,-0.14283896484375025,0.8166058593750001,-0.18010546874999958,0.8483431377201525,0.8362217941647228,-0.5025620331623687,-0.4892515463551219,1.0914222655889148
199,1790651548.359366,0.14456337890624976,1.0513177734375,-0.12741503906249957,1.0688321774000225,0.8351964878339004,-0.49076372014056246,-0.49066547535243105,1.085888949662494
200,1790651548.339366,0.9636600585937498,1.0273675781250002,-0.3956572265624996,1.4631026929243438,0.8351964878339004,-0.49076372014056246,-0.49066547535243105,1.085888949662494
201,1790651548.359366,1.1265213867187498,0.7447552734375001,-0.4914580078124996,1.4370949257062777,0.8390039567231066,-0.47693093594430935,-0.493684627138171,1.0840273373537672
202,1790651548.3405092,1.0307206054687499,0.5435736328125002,-0.4818779296874996,1.2609772400589774,0.8390039567231066,-0.47693093594430935,-0.493684627138171,1.0840273373537672
203,1790651548.3605092,1.0786209960937498,0.4046625000000001,-0.5920488281249996,1.295259358972059,0.8476693432974379,-0.46387177873081553,-0.4987178550406218,1.087400497335512
204,1790651548.3541672,1.3372831054687497,0.1986908203125001,-0.9656718749999996,1.6614229793808115,0.8476693432974379,-0.46387177873081553,-0.4987178550406218,1.087400497335512
205,1790651548.3741672,1.66779580078125,0.09330996093750009,-1.2387041015624995,2.079576262881813,0.861517973949878,-0.45322926214014153,-0.5076470150139988,1.0978777142065608
206,1790651548.4003756,1.81628701171875,-0.09829160156249991,-1.2147539062499997,2.18727840034724,0.8837918011693423,-0.44138480096692057,-0.5224154229127107,1.1175089997113334
207,1790651548.4203756,2.0078885742187498,-0.18451230468749993,-1.2003837890624995,2.3466108663566994,0.9039758960736295,-0.4341261397707189,-0.5356176000582782,1.136892316539494
208,1790651548.429937,2.13242958984375,-0.38569394531249995,-1.4638359374999996,2.615115949056257,0.9151468289555619,-0.43158543527527937,-0.5428928846857424,1.148256239143328
209,1790651548.4499369,2.06536904296875,-0.6443560546874999,-1.7751884765624997,2.7986136096621803,0.941305430092952,-0.42861313836294174,-0.5606868665728969,1.1764926253262877
210,1790651548.475191,2.10847939453125,-0.9125982421875,-1.9284697265624997,2.9995860372849155,0.9772871858953688,-0.42837193080833097,-0.5868002484586201,1.2177550190456392
211,1790651548.495191,2.1899100585937497,-1.0850396484375,-1.9140996093749996,3.1043186721116407,1.0079560049306102,-0.43120601510282136,-0.6101424085847336,1.254666367641259
212,1790651548.550189,2.3767215820312497,-1.30059140625,-2.0625908203125,3.4050880130389976,1.0984783714192066,-0.44767079916420355,-0.6811059254014469,1.3678337466655333
213,1790651548.570189,2.28571083984375,-1.616733984375,-2.0817509765624997,3.4888379079617904,1.1334526849243887,-0.45713608567359776,-0.7092574183218033,1.4130585533628088
214,1790651548.5506995,2.2473905273437498,-1.655054296875,-2.0146904296874997,3.442229863834375,1.1334526849243887,-0.45713608567359776,-0.7092574183218033,1.4130585533628088
215,1790651548.5706995,2.3431913085937497,-1.5640435546875,-1.9284697265624997,3.4140552479268464,1.1713871913501177,-0.4729749234293351,-0.7407345643623633,1.4644251176120966
216,1790651548.594499,2.28571083984375,-1.5161431640625,-1.7416582031249996,3.2490825526331695,1.2180199010685773,-0.4944937470052793,-0.779124354353862,1.5281136426240522
217,1790651548.614499,2.2138602539062497,-1.3820220703125,-1.7991386718749998,3.1698678501307955,1.2580787767759183,-0.5142117853106036,-0.8118571912632314,1.5831260429075544
218,1790651548.6400292,2.13242958984375,-1.3532818359375,-1.8757792968749996,3.1459776944066884,1.309865960901347,-0.5408438975604285,-0.8544098871400143,1.6547740668438626
219,1790651548.6600292,2.13242958984375,-1.5161431640625,-1.7656083984374997,3.156472566997481,1.3507472955344784,-0.5628818227857976,-0.8882069540826514,1.71180191497064
220,1790651548.715093,2.10847939453125,-1.49219296875,-1.6698076171874996,3.075806023072196,1.4639322433717308,-0.6268789717266234,-0.9814867158972272,1.8706659327253334
221,1790651548.7350929,2.07494912109375,-1.3437017578125,-1.3776152343749997,2.8299773856089754,1.5051512982315727,-0.6508908356464118,-1.014856377923933,1.928489766192592
222,1790651548.715604,2.1899100585937497,-1.118569921875,-0.8602910156249997,2.6051881633422598,1.5051512982315727,-0.6508908356464118,-1.014856377923933,1.928489766192592
223,1790651548.735604,2.44857216796875,-0.53418515625,-0.7165898437499996,2.6065994028762205,1.5473274723405612,-0.6738579309790012,-1.0441846055191464,1.9845977698783968
224,1790651548.850128,2.75992470703125,-0.07913144531249992,-0.9465117187499996,2.918789236627039,1.7973475919690292,-0.7909129371236553,-1.2012178681588739,2.301939618506659
225,1790651548.870128,2.6162235351562497,-0.17014218749999993,-1.1620634765624995,2.8677457128262387,1.8425249196178455,-0.8086625515153203,-1.2276908248430078,2.3571291782674364
226,1790651548.850128,2.10847939453125,-0.3904839843749999,-1.2818144531249995,2.498241659939323,1.8425249196178455,-0.8086625515153203,-1.2276908248430078,2.3571291782674364
227,1790651548.870128,1.97914833984375,-0.5629253906249999,-1.5165263671874996,2.5561231130153916,1.8873209650887004,-0.8236315582993909,-1.25413098466346,2.411056593235208
228,1790651548.8511298,2.18512001953125,-0.8024273437499999,-1.6219072265624996,2.837115118096125,1.8873209650887004,-0.8236315582993909,-1.25413098466346,2.411056593235208
229,1790651548.8711298,2.0078885742187498,-0.9125982421875,-1.7464482421874996,2.8132780773968515,1.9312850519285958,-0.8387600247025728,-1.2822880275342914,2.465287593040553
230,1790651548.9097507,1.7204862304687498,-0.792847265625,-2.1488115234375,2.8646239926209156,2.0142468504051014,-0.8685317110214411,-1.3397876664158155,2.5703246290102424
231,1790651548.9297507,1.58636513671875,-0.8790679687499999,-2.3931035156249996,3.002708656725737,2.055724848809734,-0.8841443394063591,-1.3719104474161135,2.624853165921399
232,1790651548.9107478,1.82107705078125,-0.9317583984375,-2.5463847656249996,3.2662778070072416,2.055724848809734,-0.8841443394063591,-1.3719104474161135,2.624853165921399
233,1790651548.9307477,1.9935184570312499,-1.2431109375,-2.3691533203124995,3.336514363314524,2.0957590751078126,-0.9009955657235104,-1.4087902983384997,2.6811731042666493
