imu_index,t_imu,ax,ay,az,mag,vx,vy,vz,velocity
0,1790597910.798663,0.08267607421874996,-0.05101391601562503,0.0008143066406253486,0.0971515103885599,0.0,0.0,0.0,0.0
1,1790597910.818663,0.06830595703124996,-0.04622387695312503,0.02476450195312535,0.08611405880295597,0.000331884724993666,-0.00021089923124367497,3.940641627650043e-05,0.0003951946635103405
2,1790597910.8435223,0.06830595703124996,-0.02227368164062503,0.01997446289062535,0.07457077059781435,0.0009372368604683838,-0.0005614306647264605,0.00016445422981931044,0.0011048359686493241
3,1790597910.8635223,0.08267607421874996,-0.05101391601562503,-0.003975732421874652,0.09722941593861316,0.0015776764294882927,-0.0009110709548641107,0.0002739655641719605,0.001842327422395919
4,1790597910.8735998,0.06351591796874996,-0.017483642578125028,-0.003975732421874652,0.06599815180369027,0.0019624657935898965,-0.0011125906897933382,0.00031485871708324424,0.002277776557467511
5,1790597910.8935997,0.06351591796874996,-0.017483642578125028,0.005604345703125349,0.06611624825996058,0.00280212556667167,-0.0015049909810495323,0.00038628546573784206,0.0032040789636767326
6,1790597910.9187605,0.05872587890624996,-0.017483642578125028,0.03434458007812535,0.07024212975027114,0.003930680300530167,-0.001990583516551981,0.0005380505459133876,0.0044387125105487596
7,1790597910.9387605,0.06351591796874996,-0.02227368164062503,-0.027925927734374655,0.07287143589271729,0.0048765551494035315,-0.0023783119024956795,0.0006502191729458121,0.005464425185103467
8,1790597910.9634554,0.08267607421874996,-0.02227368164062503,-0.07582631835937466,0.11437255220545446,0.006140048949574154,-0.0028677534628960034,0.0005757825792021897,0.00680115700492434
9,1790597910.9834554,0.07788603515624996,-0.08933422851562503,0.03434458007812535,0.12339525532849828,0.007250681074540858,-0.003372096761335211,0.0004623178765377765,0.008009815879998664
10,1790597910.9941928,0.06351591796874996,-0.05580395507812503,0.08224497070312535,0.11795163603669225,0.007871379672097714,-0.0037191298726322935,0.0005044296246892682,0.008720378099491052
11,1790597911.0141928,0.08267607421874996,-0.007903564453125027,0.02955454101562535,0.08815480970391369,0.00907338647983691,-0.004364130101520628,0.0007388020201426793,0.010095434719736075
12,1790597911.0390062,0.09704619140624997,-0.017483642578125028,-0.03750600585937466,0.1055004336473627,0.010675452321257215,-0.005091574437599673,0.000971166647454624,0.011867290220357079
13,1790597911.0590062,0.07788603515624996,-0.03664379882812503,-0.04708608398437465,0.09811269933041435,0.012035445999591304,-0.0056711468457466005,0.0010034745814067267,0.01334244461073867
14,1790597911.0996485,0.06830595703124996,-0.041433837890625026,-0.03750600585937466,0.08825625849663585,0.01483017802372139,-0.006910234848511487,0.0008014289656406089,0.016380714705525497
15,1790597911.1196485,0.07788603515624996,-0.04622387695312503,0.0008143066406253486,0.09057341976674622,0.016218455847748836,-0.007560011252146994,0.0006618791398884575,0.01790614878229786
16,1790597911.1288788,0.08746611328124997,-0.007903564453125027,0.04392465820312535,0.09819451564040907,0.01687753487221301,-0.007852384142618601,0.0006381067616578676,0.0186257429469347
17,1790597911.1488788,0.08267607421874996,0.006466552734374973,0.02955454101562535,0.08803760814069739,0.018346602426132876,-0.00839301553174525,0.0007045428320433466,0.020187543458798682
18,1790597911.173324,0.07309599609374996,0.011256591796874974,0.02955454101562535,0.07964424899804921,0.020158447035838488,-0.008922197998621099,0.0008819354182648253,0.022062330205698893
19,1790597911.193324,0.07309599609374996,-0.012693603515625028,0.015184423828125349,0.07572792709523705,0.02163774532293728,-0.00929236270506041,0.0010724078701014148,0.023573079687273516
20,1790597911.2036786,0.06351591796874996,-0.03664379882812503,0.0008143066406253486,0.07333282295994092,0.022394827679608157,-0.009493575031682893,0.0011686530373308148,0.024352043520066216
21,1790597911.2236786,0.07309599609374996,-0.03185375976562503,-0.04229604492187465,0.09025875066815904,0.023842718392024388,-0.009926670399986596,0.0012644451975952241,0.02585754874710806
22,1790597911.2491345,0.06830595703124996,-0.041433837890625026,-0.05187612304687465,0.0952554399007009,0.025679125013696485,-0.010535147590599116,0.0011882875602199081,0.027781627446039448
23,1790597911.2691345,0.04914580078124996,-0.04622387695312503,-0.018345849609374652,0.06991800006362986,0.027081690840418702,-0.011072987038967582,0.001032095137826964,0.02927617189993747
24,1790597911.2789865,0.044355761718749956,-0.02227368164062503,0.015184423828125349,0.051904886267774265,0.027738043547061695,-0.011348796966225717,0.0009643602326732399,0.029985400498537058
25,1790597911.2989864,0.044355761718749956,-0.0031135253906250273,0.04871469726562535,0.0659564202158525,0.029003678893617595,-0.011862801045820586,0.0009433289836995325,0.03135010857378788
26,1790597911.324128,0.07309599609374996,-0.0031135253906250273,0.015184423828125349,0.07472138524069075,0.030577496053124313,-0.0124237633008609,0.00104134567764582,0.03302147120064463
27,1790597911.344128,0.08746611328124997,-0.03664379882812503,-0.027925927734374655,0.09885821364413816,0.031882511373784776,-0.012862706659997416,0.0010885096643271802,0.034396636571182235
28,1790597911.3682358,0.07788603515624996,-0.02227368164062503,-0.027925927734374655,0.0856866897832682,0.033518586972020904,-0.01341897121674617,0.0010358478659120837,0.036119765252810083
29,1790597911.3882358,0.06830595703124996,-0.04622387695312503,-0.013555810546874653,0.0835829561939237,0.0348915721085504,-0.013913973749584228,0.0009364902503971518,0.03757522433332076
30,1790597911.3982809,0.04914580078124996,-0.04622387695312503,-0.003975732421874652,0.06758522755231573,0.03556620586648143,-0.014194945989123789,0.0008808650901290338,0.03830440463808422
31,1790597911.4182808,0.02519560546874996,-0.041433837890625026,0.005604345703125349,0.0488158800806012,0.036819450479050025,-0.014801942539789576,0.0007891694345436785,0.03969121092794811
32,1790597911.4432802,0.010825488281249957,0.006466552734374973,0.02955454101562535,0.03213220184547292,0.03821852900881604,-0.015512423032418586,0.0007576664013223735,0.041253669973835255
33,1790597911.4632802,0.0012454101562499565,0.006466552734374973,0.02476450195312535,0.025625142101266332,0.039188031422517484,-0.01597616164662873,0.000817722314726561,0.04232739322844522
34,1790597911.4890275,0.0012454101562499565,-0.012693603515625028,0.0008143066406253486,0.012780520802148289,0.04025373024684299,-0.016495637577080644,0.000932833067000675,0.0435125158476373
35,1790597911.5090275,0.015615527343749958,0.006466552734374973,-0.018345849609374652,0.02494456246117873,0.040982662915742284,-0.016847968775285885,0.0009825391249160197,0.044321530824762326
36,1790597911.5191379,0.02998564453124996,0.001676513671874973,-0.003975732421874652,0.030294488349150404,0.041330457459757594,-0.016993187780309005,0.000986971421971744,0.04469842566978689
37,1790597911.5391378,0.03477568359374996,-0.0031135253906250273,-0.003975732421874652,0.03514041345887982,0.042012394651275584,-0.017239520186768224,0.0009824968729763627,0.045422545731276735
38,1790597911.5631797,0.015615527343749958,-0.012693603515625028,0.0008143066406253486,0.020140391250923036,0.042800047853213334,-0.01751972054001151,0.0009722243632045697,0.046257214834551606
39,1790597911.5831797,0.02519560546874996,-0.02706372070312503,0.0008143066406253486,0.03698549186557653,0.04341821284759593,-0.017777485703268144,0.0009674036051205274,0.04692670960704839
40,1790597911.6092658,0.044355761718749956,-0.02227368164062503,0.02476450195312535,0.05546919008300725,0.04423962188214298,-0.0181597861219092,0.0010121028601795745,0.047832481939243485
41,1790597911.6292658,0.08746611328124997,0.06873706054687498,0.09661508789062535,0.1473417105685504,0.04497265662310584,-0.01833923157846636,0.0012233020234494536,0.048583574657171724
42,1790597911.653648,0.14494658203124997,0.14537768554687497,0.15888559570312535,0.25959355850915283,0.04615726063622336,-0.018133637523303634,0.0019093787415076543,0.04962829078706359
43,1790597911.6736479,0.14973662109374997,0.07352709960937498,0.09182504882812535,0.1904183018142631,0.04742522852363358,-0.017661933960157642,0.0027637988060324357,0.050682687335736894
44,1790597911.6982267,0.12578642578124996,-0.05580395507812503,-0.013555810546874653,0.1382753279249992,0.049257650439862403,-0.017136521189854318,0.003800608709520812,0.05229169257070274
45,1790597911.7182267,0.14494658203124997,-0.15160473632812504,-0.11893666992187465,0.24112121261259276,0.05093114791269594,-0.017084231118163047,0.004318981858607164,0.053893472562998763
46,1790597911.72835,0.07788603515624996,-0.16118481445312505,-0.14288686523437466,0.2290489797819569,0.0518203355381157,-0.017299217486724687,0.004343218087210377,0.05480395646565099
47,1790597911.74835,0.03956572265624996,-0.07017407226562503,-0.07103627929687466,0.10740577174433429,0.053489726246904734,-0.018007282205958736,0.004063033587684023,0.056585521720211224
48,1790597911.7588978,0.08746611328124997,0.06873706054687498,0.08224497070312535,0.13834500233514457,0.05433858305658067,-0.018325833927572803,0.003946298122747978,0.05748122360050713
49,1790597911.7788978,0.12578642578124996,0.09747729492187497,0.14451547851562535,0.21496225591184204,0.056026561783572175,-0.018589921579981912,0.00409829623919882,0.05917226412520091
50,1790597911.803472,0.10183623046874996,0.006466552734374973,0.05350473632812535,0.11521801486700343,0.058209024791961196,-0.018674160917420565,0.0046220095830146616,0.061305610067809865
51,1790597911.823472,0.08267607421874996,0.03999682617187497,0.11577524414062536,0.14778019660248407,0.05999557622524129,-0.018662740965020387,0.005238223483842688,0.06304923514359924
52,1790597911.8486903,0.08746611328124997,0.06394702148437498,0.18762583007812536,0.2166633209423255,0.06223216180201232,-0.018453905195035328,0.006472510382967553,0.06523252233477421
53,1790597911.8686903,0.07309599609374996,-0.007903564453125027,0.11098520507812536,0.13312853459058185,0.06398071922911445,-0.01822906089467735,0.007752477052596663,0.06697710052419162
54,1790597911.8936033,0.09704619140624997,-0.02706372070312503,-0.027925927734374655,0.10454791095273391,0.06615001071411462,-0.018056329955178304,0.00926290883875611,0.06919289305328152
55,1790597911.9136033,0.0012454101562499565,-0.11328442382812504,-0.04229604492187465,0.12092918235298208,0.0677777117991131,-0.018148985210253193,0.010188252376650726,0.07090137070167228
56,1790597911.9235845,-0.027494824218750043,-0.17076489257812505,0.04392465820312535,0.1784544465523343,0.06844853183887596,-0.018400925051476894,0.010582001809117812,0.07166431689436423
57,1790597911.9435844,-0.03228486328125005,-0.256985595703125,-0.032715966796874656,0.2610636766756977,0.06950140845604078,-0.019471656126820926,0.011269452016275192,0.07305197956552381
58,1790597911.969077,-0.03707490234375004,-0.37194653320312504,-0.15725698242187466,0.4055225400221988,0.07050952408607597,-0.02183421524637463,0.01165104387524674,0.07472665364950361
59,1790597911.989077,-0.03707490234375004,-0.38152661132812504,-0.13330678710937466,0.4058420912433122,0.07107056922418352,-0.024539914786870624,0.011469666132016686,0.07605778374878053
60,1790597912.0140724,-0.06102509765625005,-0.41026684570312505,-0.061456201171874655,0.4193087309961773,0.07148266570837433,-0.028898521158471205,0.010911875774779525,0.07787146495890535
61,1790597912.0340724,-0.12808564453125004,-0.41026684570312505,-0.056666162109374654,0.4335157101494518,0.07147927759718407,-0.033093724134751736,0.010355324406109827,0.07944629913644892
62,1790597912.0440722,-0.12808564453125004,-0.32883618164062506,-0.06624624023437466,0.35906507910984936,0.07128571398138998,-0.035430956416189395,0.010026613697849523,0.08023427367807573
63,1790597912.0640721,-0.11850556640625005,-0.31925610351562506,-0.061456201171874655,0.34604175118578334,0.07058676152533322,-0.040376483528345226,0.009276238691021281,0.08184619679008791
64,1790597912.0890348,-0.16640595703125005,-0.28093579101562505,-0.061456201171874655,0.3322540080594049,0.06931182163802663,-0.04674694268093324,0.008250038606396923,0.0840087400560389
65,1790597912.1090348,-0.17598603515625005,-0.21387524414062503,-0.03750600585937466,0.2795002774627465,0.06792997914409105,-0.0518275458001005,0.007402736331448398,0.08576349500440794
66,1790597912.133908,-0.15203583984375005,-0.16597485351562505,-0.003975732421874652,0.22511853554254024,0.06585729059937541,-0.0579069327788834,0.006429656936590892,0.0879302910109534
67,1790597912.153908,-0.11850556640625005,-0.08454418945312503,0.06787485351562535,0.1606184453271779,0.06403487018337273,-0.06243775515120329,0.005860440467303277,0.08962858154737147
68,1790597912.164233,-0.06102509765625005,-0.041433837890625026,0.07266489257812535,0.10354232023521565,0.06309614859645644,-0.06452348368136625,0.0057194920075362195,0.09042741013050147
69,1790597912.184233,-0.03707490234375004,-0.08454418945312503,0.03913461914062535,0.10026857318904213,0.06140339860784557,-0.0681465915378522,0.00565512022150593,0.09190383932970661
70,1790597912.208695,0.010825488281249957,-0.15160473632812504,-0.023135888671874653,0.15374152535435953,0.05959539744329001,-0.07234655285496008,0.005617549090367869,0.09389990396268744
71,1790597912.228695,0.02519560546874996,-0.13244458007812504,-0.003975732421874652,0.1348784333216327,0.05839294919460296,-0.07569141144277416,0.00555077144399809,0.0957587455299322
72,1790597912.2532482,0.05393583984374996,-0.06538403320312502,0.015184423828125349,0.08610872978130697,0.057283895319249455,-0.07954612644894316,0.005501728664496462,0.09817993641409493
73,1790597912.2732482,0.12099638671874996,-0.09412426757812503,0.015184423828125349,0.15404567528205362,0.056778417045729015,-0.08245428024301915,0.005513326110949621,0.10026411989051093
74,1790597912.2842333,0.16889677734374997,-0.02227368164062503,0.015184423828125349,0.1710345141131588,0.056781263735994236,-0.08390790484958331,0.005543761040205241,0.10146616034015557
75,1790597912.3042333,0.19763701171874998,-0.02706372070312503,0.05350473632812535,0.20653229817381175,0.05733546927432719,-0.08623145924246271,0.005693894081076575,0.10370940666014025
76,1790597912.3289948,0.16410673828124997,-0.05101391601562503,0.08224497070312535,0.1905194908205401,0.05859049136534715,-0.08882167849679891,0.006103990258728112,0.10658046231134569
77,1790597912.3489947,0.15452666015624997,-0.08933422851562503,0.05829477539062535,0.18776947015255313,0.05993007735003343,-0.09081051745356061,0.006596351510256615,0.10900310135317844
78,1790597912.3735723,0.12578642578124996,-0.07496411132812503,0.07745493164062535,0.16565358231409114,0.06184604863873032,-0.09319081331408031,0.007360877660137597,0.11208766184683967
79,1790597912.3935723,0.07788603515624996,0.09747729492187497,0.17325571289062536,0.2135078442279946,0.0634768067564445,-0.0948034599006801,0.008265754983921422,0.11439109978747944
80,1790597912.4040666,0.09704619140624997,0.231598388671875,0.21636606445312537,0.33146651527537646,0.06434181696344922,-0.09526370406680075,0.008975993664222949,0.11530659645026889
81,1790597912.4240665,0.14973662109374997,0.226808349609375,0.24031625976562537,0.3627878000385918,0.06611325194538309,-0.09532166067750586,0.010811557656054205,0.11650781457078942
82,1790597912.44913,0.19284697265624998,0.303448974609375,0.2690564941406254,0.44906862737604586,0.06864416135137053,-0.0943866376634882,0.013724301501130983,0.11751261510470078
83,1790597912.46913,0.17847685546874997,0.509420654296875,0.34090708007812537,0.6384207297775212,0.0709178020022942,-0.09253313059056201,0.016614890615863735,0.11776149407978705
84,1790597912.4937174,0.03956572265624996,0.638751708984375,0.35527719726562534,0.7319775126577928,0.07369575972779653,-0.08847898785039106,0.02091925734380515,0.11703508713502593
85,1790597912.5137174,-0.046654980468750044,0.600431396484375,0.32174692382812536,0.682799847744255,0.07560583524349522,-0.0838171377375835,0.02491087729944804,0.11559457906500523
86,1790597912.5377846,-0.027494824218750043,0.600431396484375,0.2690564941406254,0.658532629626081,0.07742572318246665,-0.07688113698372785,0.03006014959977854,0.1131771373917884
87,1790597912.5577846,0.07788603515624996,0.710602294921875,0.24510629882812537,0.7557108929649078,0.07878679857606477,-0.0700153030146994,0.03446861211119963,0.11089448817221673
88,1790597912.5684376,0.10183623046874996,0.863883544921875,0.27384653320312535,0.9119524772542921,0.0795466243997745,-0.06564879396433113,0.036879191065205826,0.10953311981311385
89,1790597912.5884376,0.08746611328124997,1.0267448730468751,0.4079676269531254,1.1082837813224269,0.08104310028661629,-0.055844821467991856,0.04174868972442602,0.10690921982020458
90,1790597912.614014,0.25990751953124996,1.1033854980468751,0.48460825195312535,1.2328246565793943,0.08333610495401547,-0.0411018696814494,0.048753978181488654,0.10493436266894941
91,1790597912.634014,0.38923857421874997,1.132125732421875,0.43191782226562536,1.272701200935354,0.08583392795372499,-0.02794932227202064,0.05478501192329374,0.10559368037371346
92,1790597912.6735935,0.34612822265625,1.156075927734375,0.3696473144531254,1.2621233831478118,0.09221852155510449,0.0009675126844959393,0.06730945400177202,0.11417422825060214
93,1790597912.6935935,0.40839873046874997,1.2375065917968753,0.45107797851562537,1.3790153844286681,0.09609257979458023,0.01697805287745313,0.07391995722028787,0.12241812874953019
94,1790597912.6884453,0.47066923828124996,1.271036865234375,0.4798182128906254,1.4378072757051386,0.09609257979458023,0.01697805287745313,0.07391995722028787,0.12241812874953019
95,1790597912.7084453,0.52335966796875,1.203976318359375,0.38401743164062535,1.3678207868834344,0.10150343940127365,0.03545657425921024,0.08117868953886959,0.13472229401155214
96,1790597912.7334743,0.56647001953125,1.141705810546875,0.19720590820312536,1.2896784913669186,0.10930493570024827,0.05951599878500896,0.08999108459009719,0.15358423872752902
97,1790597912.7534742,0.55209990234375,0.998004638671875,0.18283579101562536,1.1551002066725067,0.11628166657517036,0.0790670349584353,0.09654663974701772,0.17057044188562667
98,1790597912.7785861,0.6143704101562499,0.7968229980468751,0.13972543945312535,1.0158253243163107,0.12592455651016193,0.10331338875158765,0.1041506138999469,0.19333390960551503
99,1790597912.7985861,0.55209990234375,0.475890380859375,0.08703500976562535,0.7340715562445952,0.1342021965974797,0.12163648368903957,0.10963840802690093,0.21172209202276412
100,1790597912.808492,0.49461943359375,0.39445971679687497,-0.16683706054687467,0.6542793417463174,0.1384647083639049,0.1299970761985052,0.11188946805077762,0.22043359168499518
101,1790597912.828492,0.48982939453124996,0.13579760742187497,-0.45423940429687465,0.6816944053931616,0.14725654104149202,0.14514059283482594,0.11482103798098128,0.23650401969306845
102,1790597912.8538074,0.35570830078125,-0.21387524414062503,-0.6410509277343747,0.7636866551472525,0.15832116060036522,0.16128542210919594,0.11589555703057339,0.25398889231266597
103,1790597912.8738074,0.31738798828125,-0.5587580566406251,-0.6985313964843747,0.9491532083075089,0.16676096271404847,0.17096811514114751,0.11460775089356703,0.2649042310819419
104,1790597912.8989005,0.39402861328125,-0.9275910644531251,-0.5308800292968747,1.1390861848182854,0.17710052001257115,0.17849700887943462,0.11092063239019186,0.27482569577364513
105,1790597912.9189005,0.39881865234374997,-1.133562744140625,-0.6362608886718747,1.3597237700409717,0.18529460210592372,0.1805059335085422,0.1066719846758731,0.27981314107109506
106,1790597912.9284325,0.5137795898437499,-1.4497053222656249,-0.9236632324218746,1.7940927387605463,0.1892665158480166,0.17947299413213202,0.10383563110551879,0.28073868264113727
107,1790597912.9484324,0.60958037109375,-1.828118408203125,-0.9092931152343747,2.1308259226521895,0.1980353401440199,0.17271404762634102,0.09602764987487562,0.2797667738204867
108,1790597912.973582,0.68622099609375,-1.928709228515625,-0.6027306152343747,2.1340343807403954,0.20985213593268298,0.15840349247611493,0.08483001651830392,0.2762710934691423
109,1790597912.993582,0.60958037109375,-1.938289306640625,-0.28179799804687466,2.0513321956142097,0.21978345685122203,0.1429297106859732,0.07593413000674525,0.2729462624806031
110,1790597913.0183277,0.7532815429687499,-2.067620361328125,-0.5356700683593747,2.264824378112388,0.23275753439779132,0.11922135823548771,0.06506122351304386,0.2694861125985303
111,1790597913.0383277,0.95925322265625,-2.062830322265625,-0.6506310058593747,2.366169137957066,0.24423936074335117,0.09673835081964142,0.05581222480345175,0.26856317374713884
112,1790597913.0488853,1.12690458984375,-2.101150634765625,-0.5069298339843746,2.437565548076672,0.2510431328546581,0.0833530720178395,0.05074560907415685,0.26934272963753786
113,1790597913.0688853,1.12211455078125,-2.268802001953125,-0.2578478027343747,2.5442266169735075,0.2653721265573206,0.05524510579899413,0.04144015348213929,0.27421100194725945
114,1790597913.1090026,1.03589384765625,-2.196951416015625,-0.008765771484374652,2.428939774200844,0.29629585513203827,-0.006115100056922479,0.024772302609781208,0.2973924935060106
115,1790597913.1290026,1.05505400390625,-2.101150634765625,0.10619516601562536,2.35356120685647,0.3125364299524412,-0.0385640827555712,0.017855322914027333,0.31541246183776556
116,1790597913.138588,1.09816435546875,-2.077200439453125,-0.10935659179687465,2.352166125395011,0.32070045639441624,-0.054786950277318905,0.015035217453089647,0.32569379855339275
117,1790597913.158588,1.05505400390625,-2.034090087890625,-0.39196889648437466,2.3247152626987844,0.33840944695104636,-0.08972566272588658,0.009281681293610455,0.3502253530870499
118,1790597913.183626,0.80118193359375,-2.110730712890625,-0.4254991699218747,2.2974172839649722,0.36073960356128865,-0.13468786496243115,0.0016241677166239738,0.38506690388355314
119,1790597913.203626,0.65748076171875,-2.331072509765625,-0.41112905273437467,2.456665849442602,0.37808903975803965,-0.17187842466761963,-0.0048299740864579796,0.41535146984337845
120,1790597913.2131834,0.85387236328125,-2.211321533203125,-0.4159190917968747,2.406663588228414,0.3862196235731063,-0.19024102911155719,-0.008044442247043253,0.430606502321368
121,1790597913.2331834,1.00236357421875,-2.091570556640625,-0.4398692871093747,2.360695896990688,0.40346591587281033,-0.22935708735951535,-0.015045726422555004,0.4643444763068776
122,1790597913.2583883,1.01194365234375,-2.393343017578125,-0.5356700683593747,2.653123287268217,0.42574808228405847,-0.2797367003410296,-0.02438969369764394,0.5100087334986582
123,1790597913.2783883,0.93530302734375,-2.719065673828125,-0.6218907714843747,2.941914006766039,0.4436976349691682,-0.3213849175026961,-0.03242827261034319,0.5488236960444937
124,1790597913.3039906,0.90177275390625,-2.824446533203125,-0.7464317871093747,3.0574258341647655,0.46675606053537866,-0.37734688075798983,-0.04380247400892682,0.6018060694223625
125,1790597913.3239906,0.89219267578125,-2.929827392578125,-0.7033214355468747,3.142380843042192,0.48475782731594297,-0.42313709163782653,-0.05352958463186386,0.6456783765115972
126,1790597913.3335388,1.00236357421875,-2.886717041015625,-0.35364858398437465,3.076188442011436,0.49341963282742723,-0.4458839926047156,-0.058233741103190066,0.667582682162703
127,1790597913.3535388,1.13169462890625,-2.551414306640625,-0.07103627929687466,2.7920411619820475,0.5120425504933709,-0.49454069628786623,-0.06724624070536314,0.7150385518904889
128,1790597913.3788433,1.04547392578125,-2.283172119140625,0.07745493164062535,2.5123474921962936,0.5362023889381368,-0.5560435676850908,-0.07692650360930318,0.7762828981914268
129,1790597913.3988433,0.82992216796875,-2.225691650390625,0.24510629882812537,2.3880015128198133,0.5552464256695621,-0.604125417114812,-0.08294600941366402,0.8247097388176169
130,1790597913.4240773,0.70059111328125,-2.005349853515625,0.24510629882812537,2.138301438228255,0.5785666852374324,-0.6636980251128705,-0.08847384911443264,0.8849079611928452
131,1790597913.4440773,0.7724416992187499,-1.6077766113281249,0.14451547851562535,1.789552048462491,0.5964869514600363,-0.7092514186273009,-0.09161348948348096,0.931250390358182
132,1790597913.4842484,0.74370146484375,-1.2916340332031249,0.13972543945312535,1.496974797038908,0.6316496709198703,-0.7957590531869311,-0.09611734882855258,1.0205157138662644
133,1790597913.5042484,0.60000029296875,-1.032971923828125,0.15888559570312535,1.2051041363723305,0.6485456946708882,-0.8358550306575616,-0.09757541604483037,1.0624434630454553
134,1790597913.4982705,0.47545927734375,-0.884480712890625,0.05829477539062535,1.0058657647646592,0.6485456946708882,-0.8358550306575616,-0.09757541604483037,1.0624434630454553
135,1790597913.5182705,0.38444853515625,-0.903640869140625,-0.06624624023437466,0.9842540631921217,0.6634141419641003,-0.8699513039755298,-0.09836389208541467,1.0984575778394352
136,1790597913.54384,0.38444853515625,-0.999441650390625,-0.10935659179687465,1.0764028766631717,0.6810462362168858,-0.9106533553177077,-0.09955748566809675,1.1415012931964372
137,1790597913.56384,0.54251982421875,-1.0377619628906252,-0.17162709960937467,1.1835258816828946,0.6941594834289749,-0.9407701431939965,-0.10077252813989614,1.1734824042938778
138,1790597913.5889153,0.73891142578125,-1.009021728515625,-0.19557729492187467,1.2658457339090328,0.7105442966943374,-0.9767151152379808,-0.10275799320711186,1.2121900919687247
139,1790597913.6089153,0.83950224609375,-1.138352783203125,-0.17641713867187467,1.4253891002248906,0.7240200593405587,-1.0043051998921213,-0.104662037667766,1.2424927054058017
140,1790597913.619003,0.82034208984375,-1.3299543457031249,-0.07103627929687466,1.5642205276111747,0.731053312260093,-1.0180013366256668,-0.1056655747153375,1.257748337473765
141,1790597913.639003,0.83471220703125,-1.4497053222656249,0.09182504882812535,1.6753572244642476,0.7453884293597841,-1.0452517469019564,-0.10732556652062475,1.2882833159883778
142,1790597913.664322,0.90177275390625,-1.454495361328125,0.11577524414062536,1.7152710465021312,0.764111206261611,-1.0800894512578922,-0.10871758982806104,1.3275084453935393
143,1790597913.6843219,0.89219267578125,-1.435335205078125,-0.023135888671874653,1.690186436757498,0.7793732901581238,-1.1078154667384486,-0.10951328488559287,1.3589227326537954
144,1790597913.6944165,0.81076201171875,-1.478445556640625,-0.13809682617187466,1.6918058508574165,0.7872103748493764,-1.1219165755149434,-0.10997672514236657,1.374951583423472
145,1790597913.7144165,0.79639189453125,-1.425755126953125,-0.18599721679687467,1.643658327136263,0.8028192241808105,-1.1500199854987676,-0.11124332693764352,1.4069256382442605
146,1790597913.7839305,0.79160185546875,-1.325164306640625,-0.14767690429687466,1.5506458026379215,0.8572123072607944,-1.2473893401372884,-0.11672493875407722,1.5180309011791089
147,1790597913.8039305,0.70538115234375,-1.277263916015625,-0.08061635742187466,1.4613229206172527,0.8727598633733762,-1.2751051113946759,-0.11840793221583537,1.5497171556874412
148,1790597913.7839305,0.68622099609375,-1.186253173828125,-0.03750600585937466,1.370949506135336,0.8727598633733762,-1.2751051113946759,-0.11840793221583537,1.5497171556874412
149,1790597913.8039305,0.71017119140625,-1.143142822265625,-0.05187612304687465,1.346777548574064,0.8878618499955718,-1.301764828084126,-0.11990857392700736,1.5802747857305268
150,1790597913.8141127,0.68622099609375,-1.1623029785156251,-0.12372670898437466,1.3554171932885817,0.895463475507466,-1.3150621710547359,-0.12069206478625001,1.5955594392593069
151,1790597913.8341126,0.60958037109375,-1.133562744140625,-0.09498647460937466,1.2905716384940185,0.9100987593802655,-1.3407070522553102,-0.12232824128240893,1.6250351843599784
152,1790597913.8591917,0.60479033203125,-1.1191926269531252,-0.023135888671874653,1.27235952123971,0.927982050049826,-1.372278146185523,-0.12429435417572517,1.6612486515248144
153,1790597913.8791916,0.59521025390625,-1.143142822265625,0.02476450195312535,1.2890554832936971,0.9419043629801043,-1.3970723331494102,-0.12562465464616238,1.6896083827051345
154,1790597913.9035509,0.58084013671875,-1.1958332519531252,-0.04229604492187465,1.3301057801228728,0.9584662652761097,-1.4270141375766783,-0.12703390140080834,1.72370662893114
155,1790597913.9235508,0.64311064453125,-1.2485236816406249,-0.13330678710937466,1.4107350510341354,0.9718605236072814,-1.4515766612123833,-0.12828080018351218,1.7515831822720929
156,1790597913.964201,0.76765166015625,-1.243733642578125,-0.23389760742187465,1.4801589562540152,0.9993019500994234,-1.5016099602632254,-0.13155450055965034,1.8085196838441473
157,1790597913.984201,0.75807158203125,-1.282053955078125,-0.22910756835937465,1.506925726469082,1.0130666046474932,-1.526322686431295,-0.13361807718802227,1.8367957641279202
158,1790597913.9783068,0.70538115234375,-1.3730646972656249,-0.07582631835937466,1.5455157273592772,1.0130666046474932,-1.526322686431295,-0.13361807718802227,1.8367957641279202
159,1790597913.9983068,0.80118193359375,-1.349114501953125,-0.023135888671874653,1.5692474946425392,1.0271373104890893,-1.5516461690457324,-0.135646244805788,1.8657483196409341
160,1790597914.0243483,0.89698271484375,-1.2916340332031249,-0.08540639648437466,1.5748621269868297,1.0460269847054637,-1.5848309971681231,-0.13810294536706702,1.9039259874890018
161,1790597914.0443482,0.84429228515625,-1.282053955078125,-0.14288686523437466,1.5417225634861584,1.0609701375470033,-1.610354692829132,-0.1400491273184986,1.9335236299424914
162,1790597914.0691133,0.63832060546875,-1.262893798828125,-0.08061635742187466,1.4173400931210887,1.079451786750969,-1.641945668198465,-0.1425126408584874,1.9701552197834624
163,1790597914.0891132,0.52814970703125,-1.272473876953125,-0.03750600585937466,1.3782374907978796,1.0938882481118686,-1.6674343914920833,-0.14438090703146458,1.9994436215115083
164,1790597914.098658,0.56647001953125,-1.258103759765625,-0.04229604492187465,1.3803993294623733,1.1005280908331312,-1.6795856061026846,-0.14519590871416369,2.013268918661258
165,1790597914.118658,0.64311064453125,-1.2054133300781251,-0.06624624023437466,1.3678454451379458,1.1141684422525369,-1.704922964202799,-0.1468102918143151,2.0419811197364455
166,1790597914.144257,0.64790068359375,-1.128772705078125,-0.08540639648437466,1.3042995699190745,1.1314872258788382,-1.7369704249436018,-0.14885783560657567,2.0783378586450327
167,1790597914.164257,0.61916044921875,-1.143142822265625,-0.07103627929687466,1.3019912929626396,1.1448890075396059,-1.7616606205685552,-0.1504522481137306,2.106384309808988
168,1790597914.2039692,0.62395048828125,-1.171883056640625,-0.06624624023437466,1.329290289821217,1.1712106280929042,-1.8102270910857017,-0.15355213346949875,2.161535267894422
169,1790597914.2239692,0.62874052734375,-1.171883056640625,-0.04229604492187465,1.3305688650280016,1.1843574150080283,-1.8345330584225532,-0.15504194482385733,2.189121292570256
170,1790597914.2185023,0.6143704101562499,-1.210203369140625,-0.03750600585937466,1.3577370496640364,1.1843574150080283,-1.8345330584225532,-0.15504194482385733,2.189121292570256
171,1790597914.2385023,0.60000029296875,-1.1958332519531252,-0.027925927734374655,1.3382067760548808,1.1972624878054923,-1.8587403286096154,-0.1563182288518829,2.2164810990796577
172,1790597914.3091574,0.60958037109375,-1.191043212890625,-0.008765771484374652,1.3380018694102533,1.2424241491462453,-1.9440793832089018,-0.16034514607419745,2.3127414426323645
173,1790597914.3291574,0.56647001953125,-1.2485236816406249,0.005604345703125349,1.371032849838382,1.2550543520219055,-1.9682717473614124,-0.16131878529048455,2.3399313768736616
174,1790597914.3091574,0.52335966796875,-1.243733642578125,-0.027925927734374655,1.3496512783592793,1.2550543520219055,-1.9682717473614124,-0.16131878529048455,2.3399313768736616
175,1790597914.3291574,0.6143704101562499,-1.229363525390625,-0.11893666992187465,1.379467872003016,1.2672757986156222,-1.9926379977337172,-0.16227099330059597,2.3670500660180096
176,1790597914.3386054,0.65748076171875,-1.229363525390625,-0.16683706054687467,1.4040834143180578,1.2730844683344422,-2.0041643479979103,-0.16285584572004003,2.3799035324536724
177,1790597914.3586054,0.54730986328125,-1.258103759765625,-0.08061635742187466,1.3743624535999641,1.2853432564100884,-2.0286350352613787,-0.16427935693917914,2.407167443325282
178,1790597914.3839643,0.50898955078125,-1.2485236816406249,-0.013555810546874653,1.3483565946816671,1.300564221241213,-2.05977584056175,-0.16599266097507268,2.441658733408953
179,1790597914.4039643,0.60000029296875,-1.1191926269531252,-0.061456201171874655,1.2713651530741672,1.3124314592736082,-2.084203430125349,-0.1672537351408262,2.468674560438431
180,1790597914.428958,0.66227080078125,-1.1144025878906252,-0.08540639648437466,1.299149719634041,1.3274033710097577,-2.114338113389625,-0.16886858533547303,2.5021874362671697
181,1790597914.448958,0.57126005859375,-1.176673095703125,-0.023135888671874653,1.308217450594796,1.3394371391223376,-2.138271488280325,-0.17012977432612972,2.5288813628490066
182,1790597914.4737973,0.48503935546875,-1.210203369140625,0.0008143066406253486,1.3037852714799953,1.354108732383309,-2.16798401088075,-0.17150276482465127,2.5618700843122033
183,1790597914.4937973,0.54251982421875,-1.138352783203125,-0.003975732421874652,1.2610276068131636,1.3656912476127825,-2.19184196969855,-0.1724471759944984,2.588246864664701
184,1790597914.5036933,0.6143704101562499,-1.109612548828125,-0.10456655273437465,1.2726449518004452,1.371421293585064,-2.2035446467153594,-0.17292493883648583,2.6012128726880563
185,1790597914.5236933,0.59042021484375,-1.1958332519531252,-0.11893666992187465,1.3389395535366901,1.3830718786945169,-2.2271063404293856,-0.1740809217025547,2.6273931263739656
186,1790597914.5486364,0.53772978515625,-1.234153564453125,-0.056666162109374654,1.3474046891801834,1.3975329377206778,-2.256629556841151,-0.1756348659660957,2.660135875282728
187,1790597914.5686364,0.5329397460937499,-1.1670930175781251,-0.003975732421874652,1.2830224826924799,1.4089948781057706,-2.280352977223784,-0.1767849197391967,2.686359837234927
188,1790597914.5793996,0.58563017578125,-1.143142822265625,-0.05187612304687465,1.28546853210235,1.4151409235701686,-2.2930698114658346,-0.1773560804101192,2.700416296254603
189,1790597914.5993996,0.57126005859375,-1.1670930175781251,-0.03750600585937466,1.2999426397728755,1.4265836844852986,-2.316620881033938,-0.17839227837449229,2.726480720684772
190,1790597914.6244638,0.53772978515625,-1.1527229003906252,-0.04708608398437465,1.2728474010006643,1.4408575639633538,-2.3460690354346627,-0.17965508601954208,2.7590553435167675
191,1790597914.6444638,0.52335966796875,-1.1623029785156251,-0.056666162109374654,1.2759563510758745,1.452130552088644,-2.369514981178971,-0.18066722208121583,2.784946145166077
192,1790597914.6681676,0.56167998046875,-1.138352783203125,-0.06624624023437466,1.2711097607330637,1.4654160756033818,-2.3972248062223755,-0.18190537309483773,2.815532029824114
193,1790597914.6881676,0.55209990234375,-1.147932861328125,-0.06624624023437466,1.275520568485724,1.4766149019872683,-2.4205272605176216,-0.18299209309410294,2.841272583511616
194,1790597914.7143881,0.51856962890625,-1.128772705078125,-0.05187612304687465,1.2432752759931036,1.4912001092441844,-2.450972167028363,-0.18443539913672957,2.8748841273714496
195,1790597914.734388,0.5137795898437499,-1.1239826660156251,-0.027925927734374655,1.2361579016790005,1.5022048860083594,-2.474090116919569,-0.1854908631677673,2.900370370574282
196,1790597914.7429872,0.5137795898437499,-1.138352783203125,0.01039438476562535,1.2489694028281753,1.5068893900186235,-2.4839978392589837,-0.18588789929253396,2.911273812319513
197,1790597914.7629871,0.48982939453124996,-1.1575129394531252,0.005604345703125349,1.2569011295400387,1.5176558899762849,-2.507028828302004,-0.18664882667810992,2.9365474167493604
198,1790597914.788272,0.48982939453124996,-1.1144025878906252,-0.027925927734374655,1.2176230209239636,1.5310833932272117,-2.536086376833123,-0.18750885170816053,2.9683514005662506
199,1790597914.808272,0.53772978515625,-1.133562744140625,-0.05187612304687465,1.255710535469933,1.5416525905110716,-2.558994900733874,-0.18820678469620153,2.993421020440852
200,1790597914.8334818,0.48982939453124996,-1.095242431640625,-0.032715966796874656,1.2002329583444933,1.5549195103597395,-2.587753692911023,-0.18911450728810666,3.024898040552579
201,1790597914.8534818,0.47066923828124996,-1.109612548828125,-0.04708608398437465,1.2062282701404754,1.5653066386771994,-2.6104541046349876,-0.18984632164567272,3.0497044334385848
202,1790597914.863219,0.46587919921875,-1.147932861328125,-0.027925927734374655,1.2391824481574558,1.5702891376503156,-2.6214969708365734,-0.1902039518774658,3.0617367436208007
203,1790597914.883219,0.49940947265624996,-1.1623029785156251,-0.032715966796874656,1.2654755508221174,1.5804358676056671,-2.644241736415006,-0.19091929072958694,3.086461091247744
204,1790597914.9230263,0.50419951171875,-1.095242431640625,-0.018345849609374652,1.2058647112679701,1.6005985579618693,-2.689461632018835,-0.19228195763664646,3.135616680189658
205,1790597914.9430263,0.52814970703125,-1.071292236328125,-0.013555810546874653,1.1944843777353027,1.6107576929407035,-2.7120228917048745,-0.19291174615573278,3.1601935782960795
206,1790597914.9545088,0.45629912109375,-1.143142822265625,0.04392465820312535,1.2316305353500328,1.616563202524565,-2.724939956069615,-0.19319293335171134,3.174255481437843
207,1790597914.9745088,0.43234892578125,-1.1575129394531252,0.01997446289062535,1.2357834671953596,1.626491319404698,-2.7475148485513405,-0.19351338672268384,3.1987121292716876
208,1790597914.9981413,0.45150908203124995,-1.095242431640625,-0.09498647460937466,1.188460712679005,1.6380295393225917,-2.7741815667891645,-0.1939681989974847,3.227514182684329
209,1790597915.0181413,0.43234892578125,-1.1239826660156251,-0.056666162109374654,1.2056009626140811,1.6476553074010845,-2.7966930214380095,-0.19452284551988128,3.2517839727749718
210,1790597915.043718,0.43234892578125,-1.143142822265625,0.01997446289062535,1.222333868012086,1.659777391518443,-2.825512280979575,-0.19519613963606944,3.282755271458869
211,1790597915.063718,0.42276884765625,-1.143142822265625,0.01997446289062535,1.2189782564975393,1.6691171731013807,-2.8480968144004866,-0.1955837302888657,3.306941275150475
212,1790597915.0729723,0.45629912109375,-1.061712158203125,-0.04708608398437465,1.1565719580260667,1.673400683637352,-2.8585097308787772,-0.19575498873918867,3.3180819376776847
213,1790597915.0929723,0.48982939453124996,-1.071292236328125,-0.08061635742187466,1.1807196485397107,1.6826886778422812,-2.880837747235033,-0.1962611437491921,3.3420331759242856
214,1790597915.1182513,0.47066923828124996,-1.095242431640625,-0.04229604492187465,1.1928430204123066,1.6944883680170784,-2.908933679315994,-0.19703796978144364,3.3722410859159613
215,1790597915.1382513,0.44671904296875,-1.1191926269531252,-0.04708608398437465,1.2059714502765546,1.7037996595286125,-2.9311496496208003,-0.19769445300520316,3.396123473172167
216,1790597915.1489215,0.46108916015624996,-1.1191926269531252,-0.03750600585937466,1.2110334637471238,1.70874866083546,-2.9430155199918295,-0.198059853177274,3.408869320208735
217,1790597915.1689215,0.50419951171875,-1.100032470703125,-0.05187612304687465,1.211189380881876,1.7180814549346484,-2.9652493314859094,-0.1987760901836298,3.4327859557066303
218,1790597915.1935024,0.51856962890625,-1.090452392578125,-0.056666162109374654,1.2088059953654802,1.729716894789167,-2.992515123528978,-0.1997244424526969,3.4622185305930318
219,1790597915.2135024,0.46587919921875,-1.0760822753906252,-0.023135888671874653,1.1728306616981015,1.739240539770429,-3.0146217167733482,-0.20050001793339697,3.486129947034923
220,1790597915.238571,0.41797880859375,-1.143142822265625,-0.013555810546874653,1.21723685309411,1.7510489326634822,-3.042346824481677,-0.2013953117712623,3.516049862646875
221,1790597915.258571,0.43713896484375,-1.1670930175781251,-0.018345849609374652,1.2464081018920603,1.7603393594845917,-3.06461369785676,-0.20205029937255597,3.5399825001147174
222,1790597915.268637,0.49461943359375,-1.095242431640625,-0.056666162109374654,1.2030857916553073,1.7650173003856664,-3.0758475730227492,-0.20238713801332242,3.552053619635248
223,1790597915.288637,0.53772978515625,-1.061712158203125,-0.09019643554687466,1.1935331690849174,1.774466146940306,-3.0980552927823655,-0.20317630046538454,3.5760253512586853
224,1790597915.3132954,0.46587919921875,-1.1191926269531252,-0.05187612304687465,1.213394699441742,1.7862244516872894,-3.125361973243449,-0.20426607728336318,3.605580381288216
225,1790597915.3332953,0.39881865234374997,-1.104822509765625,-0.003975732421874652,1.174608403677749,1.7956278890981552,-3.1475237212426075,-0.20510116719774052,3.6294974281128622
226,1790597915.3589814,0.42276884765625,-1.056922119140625,0.01039438476562535,1.1383874154750477,1.8074759674114556,-3.1758812485513235,-0.20600043383174935,3.660003723551215
227,1790597915.3789814,0.48982939453124996,-0.999441650390625,0.015184423828125349,1.1131248874270037,1.8166863700621083,-3.197733875966675,-0.2065572343446535,3.6835468233394844
228,1790597915.3889403,0.49940947265624996,-1.018601806640625,-0.018345849609374652,1.1345906892215487,1.8213236248569895,-3.20849048140836,-0.206795265491405,3.695185407740715
229,1790597915.4089403,0.45150908203124995,-1.128772705078125,-0.032715966796874656,1.2161655337040036,1.8306657955966317,-3.2300730663655917,-0.20727817732757012,3.7185579882562143
230,1790597915.4338048,0.45150908203124995,-1.1623029785156251,-0.05187612304687465,1.2479983161708874,1.8422220142132806,-3.2571527091947368,-0.2079462394318082,3.7478083407720413
231,1790597915.4538047,0.47545927734375,-1.133562744140625,-0.056666162109374654,1.2305434056724986,1.8515135308468642,-3.2791110408368422,-0.20856581131759322,3.7714945672369287
232,1790597915.50838,0.50419951171875,-1.066502197265625,-0.03750600585937466,1.1802757240854171,1.8770746053364564,-3.339047433042462,-0.21038833624982045,3.8362625152792185
233,1790597915.52838,0.5137795898437499,-1.066502197265625,-0.003975732421874652,1.183812573915613,1.886563757065187,-3.3609169113195505,-0.21101826888503483,3.859975907187621
234,1790597915.5230875,0.43234892578125,-1.1239826660156251,0.0008143066406253486,1.204268778231462,1.886563757065187,-3.3609169113195505,-0.21101826888503483,3.859975907187621
235,1790597915.5430875,0.40360869140625,-1.1527229003906252,-0.03750600585937466,1.2219152021884188,1.8958799171261205,-3.3829255300046994,-0.21153246352434446,3.883721383524364
236,1790597915.5680614,0.42755888671875,-1.1527229003906252,-0.09498647460937466,1.2331257507066624,1.907324810810628,-3.4106034605435513,-0.2123263885503292,3.9134622004409687
237,1790597915.5880613,0.47545927734375,-1.104822509765625,-0.13330678710937466,1.2101508178679548,1.9164700000604322,-3.4328304430220857,-0.21320926149472785,3.937339241271695
