imu_index,t_imu,ax,ay,az,mag,vx,vy,vz,velocity
0,1791096796.3824584,0.052828603891226,-0.013402897761418323,0.007968045748196612,0.05508165584425041,0.0,0.0,0.0,0.0
1,1791096796.4024584,0.100728994516226,-0.027773014948918325,0.031918241060696614,0.10925403794831322,0.0002976925836704491,-7.885248851164854e-05,6.998862179587581e-05,0.00031581164718507955
2,1791096796.4129128,0.08635887732872599,0.03928753192608168,-0.01598214956430339,0.09621223915394855,0.0005766533898787281,-0.00010485936681438146,0.00011358067446236446,0.000597013558035885
3,1791096796.4329128,0.009718252328725993,0.005757258488581679,-0.02556222768930339,0.02794669816040748,0.0011743886477430378,-7.958217343416015e-05,0.0001221494445398368,0.001183402934370883
4,1791096796.4579678,-0.014231942983774008,-0.05172321026141832,-0.011192110501803389,0.05480056585770681,0.001802396669998034,-0.00013904165125600785,6.220796873863329e-05,0.0018088217624129212
5,1791096796.4779677,0.071988760141226,-0.06609332744891833,0.007968045748196612,0.09805202329878902,0.002315140586822553,-0.0003561100496851623,1.6701076098474522e-05,0.002342428062968571
6,1791096796.4736624,0.134259267953726,-0.022982975886418323,-0.006402071439303388,0.13636258552396263,0.002315140586822553,-0.0003561100496851623,1.6701076098474522e-05,0.002342428062968571
7,1791096796.4936624,0.067198721078726,0.03449749286358168,-0.04472238393930339,0.08778289556459017,0.0032507507471258995,-0.0006092423869977113,-9.086764842811403e-05,0.0033085969285461653
8,1791096796.5183892,-0.028602060171274007,0.015337336613581679,-0.020772188626803387,0.038533045049502536,0.004305554891099589,-0.0007828379150203524,-0.0003253715271742295,0.004388223416390817
9,1791096796.5383892,-0.03339209923377401,-0.03735309307391833,0.060658475435696614,0.07867487842767872,0.004937752777220521,-0.0009352102849378997,-0.0004267660578738,0.005043624692040015
10,1791096796.562475,0.105519033578726,-0.03735309307391833,0.031918241060696614,0.11639713966410793,0.00571519187911188,-0.0012261372644808627,-0.0003633245975156249,0.005856520773426395
11,1791096796.582475,0.162999502328726,0.02012737567608168,-0.020772188626803387,0.165545863226376,0.006666694025164752,-0.001457315149702103,-0.00030182788227412627,0.006830788881325257
12,1791096796.6080983,0.067198721078726,0.07281780536358168,-0.03514230581430339,0.10513364138338832,0.008145255676130529,-0.001530448744971469,-0.0003423120690299894,0.008294856294302206
13,1791096796.6280982,-0.03339209923377401,0.01054729755108168,0.022338162935696612,0.041536385256916546,0.009176928315998877,-0.0014539222391162614,-0.00038837780069347764,0.009299502164656468
14,1791096796.6374788,0.028878408578725995,-0.061303288386418325,0.05586843637319661,0.08782561034125595,0.009585054815403891,-0.0014591220789638977,-0.0003517213169832214,0.009701856571833953
15,1791096796.6574788,0.129469228891226,-0.04214313213641832,0.022338162935696612,0.1379757889605927,0.010562204577298756,-0.0016237149878855547,-0.0001679807019974727,0.010687601854992472
16,1791096796.6676219,0.115099111703726,0.04407757098858168,-0.03035226675180339,0.12693265094613315,0.011169483997692442,-0.001693196064289378,-9.487041070227107e-05,0.011297490255878045
17,1791096796.6876218,0.019298330453725993,0.015337336613581679,-0.01598214956430339,0.0293783688688682,0.012388895008519994,-0.0017205257573913802,-4.1837347188222385e-05,0.012507864676978184
18,1791096796.7277498,-0.02381202110877401,-0.061303288386418325,0.007968045748196612,0.06624647363685425,0.014454944523268938,-0.0019054740481327728,2.448818787960582e-05,0.014580015507201484
19,1791096796.7477498,0.03366844764122599,-0.04693317119891832,0.003178006685696613,0.05784796151854692,0.01534499865419396,-0.0021461808185622455,6.930566635388115e-05,0.015494511256524604
20,1791096796.7578242,0.105519033578726,0.02491741473858168,-0.04951242300180339,0.11919154347583683,0.015831252544258594,-0.0022658768018002096,5.3485503616089085e-05,0.015992673807094532
21,1791096796.7778242,0.067198721078726,0.005757258488581679,-0.03993234487680339,0.07837988458323172,0.01691085690807591,-0.0024218455401924365,-0.00010737721651579943,0.017083733404984855
22,1791096796.7874453,0.048038564828725996,-0.03735309307391833,0.027128201998196613,0.06662504496544429,0.017435459616797735,-0.0025084201025517647,-0.0001823931060613002,0.017615921511661237
23,1791096796.8074453,0.03366844764122599,0.02970745380108168,0.05107839731069661,0.06800808664962393,0.018484961570888837,-0.0026728606146900597,-0.00019763190086990881,0.01867825062769637
24,1791096796.8479972,0.115099111703726,0.05365764911358168,0.007968045748196612,0.12724165425059675,0.02074619406067596,-0.0027027208330145367,-4.431190211631603e-05,0.020921549451441365
25,1791096796.8679972,0.172579580453726,0.01054729755108168,-0.03514230581430339,0.17643678395720425,0.022125655306488457,-0.002618931370033703,-2.0799139488138408e-05,0.02228012246076513
26,1791096796.878059,0.043248525766225995,-0.008612858698918322,-0.011192110501803389,0.045495930075161936,0.022878417073050397,-0.0025816411649329097,-4.570987538757293e-05,0.02302366018394182
27,1791096796.898059,-0.03818213829627401,-0.008612858698918322,0.031918241060696614,0.05050575345692872,0.024157857970104873,-0.002544475422200069,-5.670906266275141e-05,0.02429155558616467
28,1791096796.952678,0.019298330453725993,-0.032563054011418326,0.031918241060696614,0.049513151356589034,0.027050484362133937,-0.002626876372239658,0.00017926009747474143,0.027178324412730638
29,1791096796.972678,0.134259267953726,-0.09004352276141833,-0.02556222768930339,0.1636667788746276,0.028181139756163296,-0.0028364330515227767,0.000262238632716944,0.028324737589475874
30,1791096797.028219,0.119889150766226,-0.061303288386418325,-0.0734626183143034,0.15338923667594237,0.03190872276320575,-0.003961537766053153,4.5613456510336625e-05,0.03215373151655038
31,1791096797.048219,-0.009441903921274008,-0.03735309307391833,0.007968045748196612,0.0393432696263634,0.03321533092250338,-0.0044538938980822704,-0.0001189328751824416,0.033512826263620066
32,1791096797.028219,-0.028602060171274007,-0.018192936823918322,0.06544851449819662,0.07370596208137382,0.03321533092250338,-0.0044538938980822704,-0.0001189328751824416,0.033512826263620066
33,1791096797.048219,0.08635887732872599,0.01054729755108168,0.022338162935696612,0.08982257345706995,0.03419748445275129,-0.004891910772024781,-1.2531684215079118e-05,0.03454560595706388
34,1791096797.0424838,0.134259267953726,0.005757258488581679,-0.03993234487680339,0.14019018947178405,0.03419748445275129,-0.004891910772024781,-1.2531684215079118e-05,0.03454560595706388
35,1791096797.0624838,0.071988760141226,-0.027773014948918325,-0.01598214956430339,0.07879816654414983,0.03549774999243551,-0.005220613277519663,-4.1961045998027856e-05,0.035879615636852234
36,1791096797.072926,-0.004651864858774007,-0.027773014948918325,0.04628835824819662,0.05418110662703863,0.03612753927052128,-0.0054099921909421395,-3.128679780583515e-05,0.03653037213214271
37,1791096797.092926,0.043248525766225995,0.02491741473858168,0.031918241060696614,0.059245984257290725,0.0372107305186992,-0.005722584267972121,0.000103400654615478,0.03764833499817315
38,1791096797.1333406,0.162999502328726,0.0009672194260816785,-0.03514230581430339,0.16674757848549576,0.0396963994162799,-0.00618104023413911,0.0003249702032457983,0.04017604996295518
39,1791096797.1533406,0.134259267953726,-0.022982975886418323,-0.03514230581430339,0.1406724915184632,0.04118785880831696,-0.0064069087359040645,0.00031274439207963406,0.04168436159783228
40,1791096797.1630678,0.009718252328725993,-0.013402897761418323,0.04628835824819662,0.04915988411338266,0.0419094779562957,-0.0065268296573667,0.000315821667191698,0.04241584127741645
41,1791096797.1830678,0.043248525766225995,0.02012737567608168,0.036708280123196615,0.0601917275226514,0.04325007862170818,-0.006726324887297471,0.00044569456075393196,0.04377226737233179
42,1791096797.193585,0.172579580453726,-0.032563054011418326,-0.011192110501803389,0.17598104276773455,0.044019539444524795,-0.006825303938923102,0.0005238716394090503,0.04454861466152826
43,1791096797.213585,0.167789541391226,-0.027773014948918325,-0.01598214956430339,0.1708218360290234,0.045773857194148344,-0.007075798734433731,0.000609476539022974,0.04632153270145667
44,1791096797.2379596,0.052828603891226,-0.018192936823918322,0.007968045748196612,0.05643876409366612,0.04799451482143107,-0.007419323541946004,0.0006835063257789873,0.048569403904742556
45,1791096797.2579596,0.043248525766225995,-0.027773014948918325,0.031918241060696614,0.060502474765198606,0.049687412819558685,-0.0077278614262256354,0.0007949672662846873,0.05029106091422863
46,1791096797.2828684,0.148629385141226,-0.018192936823918322,-0.0016120323768033873,0.1497473730191012,0.051838013981106976,-0.008140358785601013,0.0009695793194814468,0.05248223717335723
47,1791096797.3028684,0.158209463266226,-0.032563054011418326,-0.03993234487680339,0.1663886381965362,0.053766034721524844,-0.008498017853257793,0.0010264337217677046,0.054443147992154946
48,1791096797.313379,0.08635887732872599,-0.03735309307391833,-0.0016120323768033873,0.0941047708888907,0.05482008370120362,-0.008712900737233529,0.0010190813529480213,0.055517517443305964
49,1791096797.333379,0.057618642953726,-0.013402897761418323,0.027128201998196613,0.06508060408360504,0.056740869097497135,-0.00913658632978186,0.0010454638460476624,0.057481270256965054
50,1791096797.372597,0.148629385141226,-0.018192936823918322,-0.03514230581430339,0.15380721288575513,0.06054901269857944,-0.009935704687019242,0.001065864993260618,0.06136804734211647
51,1791096797.392597,0.158209463266226,-0.04214313213641832,-0.0782526573768034,0.18146557866379595,0.0626600039661131,-0.01037260619544231,0.0009046160893303358,0.06351917337771418
52,1791096797.433105,0.08635887732872599,-0.04214313213641832,-0.01598214956430339,0.09741318383279196,0.06703729540502865,-0.011380843072755106,0.00034071611379485117,0.0679973429755748
53,1791096797.453105,0.057618642953726,-0.022982975886418323,0.027128201998196613,0.06770572014298055,0.06909027700716332,-0.01190165836592265,0.00012078357914497182,0.07010799125248625
54,1791096797.434105,0.124679189828726,0.0009672194260816785,0.027128201998196613,0.1276000596920732,0.06909027700716332,-0.01190165836592265,0.00012078357914497182,0.07010799125248625
55,1791096797.454105,0.182159658578726,-0.027773014948918325,0.003178006685696613,0.18429210861934703,0.07126624356351566,-0.012346226132891665,7.65184416560487e-05,0.07232781364351301
56,1791096797.5075781,0.148629385141226,0.01054729755108168,-0.0016120323768033873,0.14901187288761192,0.0775380039716102,-0.013425640951136237,-1.779882863050611e-05,0.07869174169916794
57,1791096797.527578,0.08635887732872599,-0.003822819636418322,0.022338162935696612,0.08928305083716763,0.07988437749465134,-0.01375871722425569,-1.669460893716453e-05,0.0810605720808517
58,1791096797.523217,0.100728994516226,0.0009672194260816785,0.012758084810696613,0.10153834043209986,0.07988437749465134,-0.01375871722425569,-1.669460893716453e-05,0.0810605720808517
59,1791096797.543217,0.172579580453726,-0.008612858698918322,-0.02556222768930339,0.1746748991955954,0.0822281316456481,-0.014014474166352531,9.644666991741926e-06,0.08341385504287042
60,1791096797.5831814,0.162999502328726,-0.022982975886418323,-0.04472238393930339,0.17057885732183373,0.08721481732820704,-0.014543578061092086,-0.00015628470319573517,0.08841925383829054
61,1791096797.6031814,0.08635887732872599,-0.022982975886418323,-0.0016120323768033873,0.08937936855033991,0.08971007983758372,-0.014837595964339319,-0.000296368928894318,0.09092931602628845
62,1791096797.6578064,0.071988760141226,-0.018192936823918322,0.031918241060696614,0.0808216471581642,0.0961517277574487,-0.015688870656225432,-0.0004974229019287122,0.09742454948704492
63,1791096797.6778064,0.153419424203726,-0.003822819636418322,0.003178006685696613,0.15349994592660204,0.09849455991977557,-0.015986821433156728,-0.0005073490543603421,0.09978483951176581
64,1791096797.6588068,0.210899892953726,-0.018192936823918322,-0.04951242300180339,0.21739647612066226,0.09849455991977557,-0.015986821433156728,-0.0005073490543603421,0.09978483951176581
65,1791096797.6788068,0.143839346078726,-0.027773014948918325,-0.0638825401893034,0.1598188874343277,0.10118387119453409,-0.016299109794111227,-0.0007436893065294679,0.10249092566553004
66,1791096797.6879823,0.067198721078726,-0.018192936823918322,-0.006402071439303388,0.06991164125958882,0.10237782621862897,-0.01645252218576211,-0.0008842201753563843,0.10369516205129001
67,1791096797.7079823,0.129469228891226,-0.04214313213641832,0.022338162935696612,0.1379757889605927,0.1048849285372784,-0.01682726107629957,-0.0011206846874657213,0.10623210853489007
68,1791096797.7182097,0.206109853891226,-0.008612858698918322,-0.020772188626803387,0.20733291351441904,0.1062320910699671,-0.017029080385277815,-0.00122226674103561,0.10759526331513056
69,1791096797.7382097,0.158209463266226,0.02491741473858168,-0.020772188626803387,0.16150107010354237,0.10901781387226989,-0.01734008624955457,-0.0014534322421455915,0.11039780250491121
70,1791096797.763917,0.110309072641226,0.02970745380108168,0.003178006685696613,0.11428352481790632,0.11257909563116253,-0.017574559374399102,-0.0017399165248574795,0.11395589155391743
71,1791096797.783917,0.143839346078726,0.01054729755108168,0.003178006685696613,0.14426053754398982,0.11531536342712498,-0.017669232400927902,-0.0019198321490262352,0.11667699246830263
72,1791096797.808868,0.162999502328726,-0.008612858698918322,0.003178006685696613,0.16325782927894827,0.11879114503055493,-0.01776600539384579,-0.002098723705423612,0.12013064441064236
73,1791096797.828868,0.129469228891226,0.015337336613581679,0.003178006685696613,0.13041324645365332,0.12159802035021133,-0.01782185354107594,-0.0022110748236007696,0.12291698771368233
74,1791096797.8534386,0.124679189828726,-0.008612858698918322,-0.020772188626803387,0.12669082654897523,0.12499746185725132,-0.017867781411559768,-0.0023608207481499695,0.12629012850548205
75,1791096797.8734386,0.167789541391226,-0.056513249323918324,-0.006402071439303388,0.177166769085343,0.12778817087899316,-0.01799724706563949,-0.002505188342840569,0.12907359717298317
76,1791096797.8836014,0.196529775766226,-0.027773014948918325,-0.03514230581430339,0.20156952840154668,0.1292712245345649,-0.018117409987187794,-0.0025992093300321968,0.13056050676391798
77,1791096797.9036014,0.148629385141226,0.03928753192608168,-0.020772188626803387,0.15513119645206533,0.13226975673676766,-0.018301142047727568,-0.0028403556093545856,0.13356005378646113
78,1791096797.928348,0.105519033578726,-0.003822819636418322,0.017548123873196615,0.10703652203257513,0.13589511397616522,-0.018428556805706334,-0.0030999611880669956,0.13717398976447248
79,1791096797.948348,0.158209463266226,-0.008612858698918322,-0.0016120323768033873,0.1584519304090004,0.13878118478509754,-0.0185347392541134,-0.00325439593907019,0.1400512224241602
80,1791096797.957855,0.234850088266226,-0.013402897761418323,-0.006402071439303388,0.23531933228226515,0.1402275478788858,-0.018593339467953204,-0.003322508806165745,0.1414938745015586
81,1791096797.977855,0.19173973670372602,-0.03735309307391833,0.017548123873196615,0.19613086662958495,0.1434537686158218,-0.01877426026329049,-0.0034275868236801773,0.14471767317763706
82,1791096798.0024621,0.119889150766226,-0.003822819636418322,0.031918241060696614,0.12412411745437786,0.14740289345338822,-0.019039460092113644,-0.003446185980579316,0.1486673812133746
83,1791096798.0224621,0.196529775766226,0.01054729755108168,0.007968045748196612,0.19697382567589908,0.15060579232558605,-0.01921258789813074,-0.003399205919935103,0.15186435663659553
84,1791096798.078443,0.354601064828726,-0.032563054011418326,-0.03514230581430339,0.35782293012349403,0.1605400626807611,-0.01971692675965374,-0.0034015243710808097,0.1617820734643839
85,1791096798.098443,0.287540517953726,0.005757258488581679,-0.2602741417518034,0.38788571042903763,0.16452005972312622,-0.01991029031715655,-0.003845352674560067,0.16576506401834562
86,1791096798.078443,0.057618642953726,0.02012737567608168,-0.11178293081430339,0.12735950254641554,0.16452005972312622,-0.01991029031715655,-0.003845352674560067,0.16576506401834562
87,1791096798.098443,-0.06213233360877401,0.07281780536358168,0.022338162935696612,0.09829472610970633,0.16782891456717533,-0.01987757497176607,-0.004774557962814635,0.16906939094731102
88,1791096798.1384292,0.115099111703726,0.1398783522385817,-0.10220285268930339,0.20798841803763732,0.1736108684300622,-0.01918411083882316,-0.006593171868142119,0.1747919725302037
89,1791096798.1584291,0.172579580453726,-0.003822819636418322,-0.11178293081430339,0.20565444114093917,0.1765005662592631,-0.018685203555186183,-0.007687328440377932,0.17765326267842513
90,1791096798.1684165,0.134259267953726,0.005757258488581679,-0.03993234487680339,0.14019018947178405,0.1779569740794962,-0.018471986897529647,-0.008265399945110068,0.17910392446768336
91,1791096798.1884165,0.210899892953726,0.005757258488581679,0.05107839731069661,0.21707352105917202,0.18095373816732438,-0.018091788218923478,-0.009232645797874445,0.18209011479516393
92,1791096798.243044,0.340230947641226,-0.03735309307391833,0.08939870981069661,0.3537576580243213,0.19016924209015054,-0.017338543218779076,-0.010902726430623108,0.19126901254963588
93,1791096798.2630439,0.412081533578726,0.05844768817608168,0.11813894418569662,0.43264781601556057,0.1941655629408641,-0.017072492461686763,-0.011111147234366996,0.19523112821438282
94,1791096798.243559,0.383341299203726,0.1446683913010817,0.09897878793569662,0.4215166610918993,0.1941655629408641,-0.017072492461686763,-0.011111147234366996,0.19523112821438282
95,1791096798.2635589,0.292330557016226,0.09676800067608168,0.05107839731069661,0.31213811557080384,0.1990805747178936,-0.01625914379274187,-0.01075982085740711,0.20003301910375537
96,1791096798.3033478,0.287540517953726,0.03928753192608168,0.022338162935696612,0.29107052951695683,0.2091224543231449,-0.014477731656746692,-0.009946628894282198,0.20985885981397392
97,1791096798.3233478,0.330650869516226,0.06802776630108168,-0.01598214956430339,0.3379544401312796,0.21434017144442508,-0.01355564381097592,-0.009589655550919536,0.2149823854820224
98,1791096798.3335183,0.349811025766226,0.04886761005108168,-0.0782526573768034,0.3617724083540026,0.2171145491020248,-0.013067910015831035,-0.009507236473746742,0.21771514703696004
99,1791096798.3535182,0.311490713266226,0.005757258488581679,-0.08783273550180339,0.3236884302877326,0.2227438894737865,-0.0121707228598818,-0.009618600349164603,0.2232834169066736
100,1791096798.3778238,0.25880028357872603,-0.018192936823918322,-0.08783273550180339,0.27390355813029854,0.22959852587213514,-0.011266608324763274,-0.010053861784706145,0.23009454509524363
101,1791096798.3978238,0.306700674203726,-0.013402897761418323,-0.1740534386268034,0.3529016020411887,0.23524109524599174,-0.010681639786026334,-0.01075112433318913,0.23572877846262189
102,1791096798.4085455,0.325860830453726,-0.08525348369891833,-0.2267438683143034,0.4060372139655771,0.23832091534272903,-0.010494418199061667,-0.011391138982127796,0.23882367878927577
103,1791096798.4285455,0.354601064828726,-0.10441363994891832,-0.2075837120643034,0.4239517907727768,0.24422487873414028,-0.010482065610377192,-0.013057418001670613,0.24479820517527517
104,1791096798.4532735,0.177369619516226,-0.08046344463641833,-0.13094308706430338,0.2346922237740707,0.25141620615089205,-0.010811957606878359,-0.015436416496301432,0.25212157800721474
105,1791096798.4732735,0.316280752328726,-0.03735309307391833,-0.2123737511268034,0.3827941718776334,0.25710055652847974,-0.011215475557629254,-0.017586899111351573,0.25794530831087165
106,1791096798.4983807,0.335440908578726,-0.032563054011418326,-0.2411139855018034,0.4143873907821468,0.2643932845602286,-0.01177770589562451,-0.020735515366014454,0.26546654191103647
107,1791096798.5183806,0.301910635141226,-0.022982975886418323,-0.14052316518930338,0.33380384771118865,0.27028719843708293,-0.012241709582949884,-0.023439890548278493,0.2715777191917548
108,1791096798.528055,0.230060049203726,0.08239788348858168,-0.09262277456430339,0.2613350642585271,0.27309651551839864,-0.012389378817001355,-0.024720982120984718,0.27449286047689503
109,1791096798.548055,0.306700674203726,0.02491741473858168,-0.011192110501803389,0.30791467073161544,0.27883827058739286,-0.01248789475232085,-0.02712787615895686,0.2804329693962692
110,1791096798.5729249,0.301910635141226,-0.11399371807391832,0.2618401160606966,0.4155777252817739,0.2860423566694243,-0.01275817242495563,-0.029204377440736798,0.28781225900632523
111,1791096798.5929248,0.254010244516226,0.02012737567608168,0.2666301551231966,0.36880612141316055,0.2918006339103908,-0.013083721745985422,-0.029831077830062648,0.29361315864541143
112,1791096798.6184807,0.316280752328726,0.10155803973858168,0.06544851449819662,0.3385720865328223,0.2991479108976146,-0.013204075820746458,-0.02987526112607121,0.3009258238171629
113,1791096798.6384807,0.392921377328726,0.0009672194260816785,-0.0734626183143034,0.39973103527861614,0.305099188711718,-0.013130348706414878,-0.02991667340163775,0.3068434916323317
114,1791096798.6632924,0.345020986703726,-0.15710406963641832,-0.0830426964393034,0.3880943949534024,0.3127480349038926,-0.013343155527734858,-0.030251580396061822,0.31449090805958624
115,1791096798.6832924,0.239640127328726,-0.15231403057391832,-0.0016120323768033873,0.2839534348871033,0.3188656995761181,-0.01395308868948561,-0.030608026823293843,0.3206351109223058
116,1791096798.7378652,0.220479971078726,-0.15231403057391832,0.04628835824819662,0.2719441002593396,0.33493794120289555,-0.016614566334602475,-0.03125189132309431,0.3368028339889552
117,1791096798.7578652,0.335440908578726,-0.08525348369891833,-0.0016120323768033873,0.346108882115595,0.340778487018807,-0.017799994383089237,-0.031385447180709826,0.3426833280298275
118,1791096798.7378652,0.373761221078726,-0.07088336651141833,-0.04951242300180339,0.38363183139797186,0.340778487018807,-0.017799994383089237,-0.031385447180709826,0.3426833280298275
119,1791096798.7578652,0.287540517953726,-0.10920367901141832,-0.020772188626803387,0.3082798676447643,0.34689446488632164,-0.01912567075295455,-0.031652551723180725,0.3488602085092344
120,1791096798.7980926,0.206109853891226,-0.09004352276141833,-0.01598214956430339,0.2254873321653444,0.35884011933680615,-0.021993275448170667,-0.032220101358462656,0.36095438817410436
121,1791096798.8180926,0.210899892953726,-0.056513249323918324,-0.03514230581430339,0.22115038741767207,0.36451383099367135,-0.023424951513863985,-0.03253663273683445,0.36671200390628245
122,1791096798.8134317,0.225270010141226,-0.04693317119891832,-0.0016120323768033873,0.2301127955507883,0.36451383099367135,-0.023424951513863985,-0.03253663273683445,0.36671200390628245
123,1791096798.8334317,0.230060049203726,0.02012737567608168,-0.0016120323768033873,0.23094444383793003,0.36985219819951093,-0.024631440186648184,-0.032817024486729206,0.37212136925315287
124,1791096798.8429837,0.206109853891226,0.05365764911358168,-0.006402071439303388,0.21307604674897818,0.3723318364427597,-0.02506836729292898,-0.032936593758493796,0.3746254645322221
125,1791096798.8629837,0.220479971078726,0.015337336613581679,-0.03035226675180339,0.2230872287654468,0.377384806972284,-0.025742487162233894,-0.03320452622512282,0.37971635300661033
126,1791096798.8884108,0.234850088266226,-0.04693317119891832,-0.0638825401893034,0.24786743525215063,0.38371364360396304,-0.026531231051249566,-0.03367377708581442,0.3861010098046223
127,1791096798.9084108,0.215689932016226,-0.07567340557391833,-0.0016120323768033873,0.22858523515901633,0.38862076946947854,-0.027242476997269335,-0.03408574932237885,0.39106277414612656
128,1791096798.9775908,0.206109853891226,-0.03735309307391833,0.04628835824819662,0.21452071588209082,0.405236980353515,-0.0299200872027455,-0.035065207698426304,0.407850206148273
129,1791096798.9975908,0.244430166391226,0.02491741473858168,0.003178006685696613,0.24571748722016357,0.40999598239142193,-0.03059672454680155,-0.03523169590154294,0.4126428692297963
130,1791096798.9927273,0.277960439828726,-0.05172321026141832,-0.006402071439303388,0.2828043194653144,0.40999598239142193,-0.03059672454680155,-0.03523169590154294,0.4126428692297963
131,1791096799.0127273,0.234850088266226,-0.13794391338641832,-0.011192110501803389,0.2725955805520302,0.41486962381010833,-0.03140427279873032,-0.03538248555467828,0.41755832334463755
132,1791096799.0085423,0.19173973670372602,-0.09004352276141833,-0.01598214956430339,0.21243208732956517,0.41486962381010833,-0.03140427279873032,-0.03538248555467828,0.41755832334463755
133,1791096799.0285423,0.249220205453726,-0.04693317119891832,-0.01598214956430339,0.25410403867290293,0.4195961705256785,-0.03248387495961328,-0.03557402463057834,0.42235253009852214
134,1791096799.06773,0.321070791391226,-0.08046344463641833,-0.02556222768930339,0.3319853106566403,0.4291442561266532,-0.034656356362778314,-0.03601513071218357,0.4320450731614215
135,1791096799.08773,0.330650869516226,-0.11878375713641832,-0.01598214956430339,0.3517030104732908,0.43426388801525917,-0.03589766997193418,-0.03626880323145516,0.437251864754612
136,1791096799.1130457,0.26838036170372603,-0.11399371807391832,-0.0016120323768033873,0.2915907833881631,0.440909576813355,-0.03767519564787321,-0.03657514055345105,0.444025242750164
137,1791096799.1330457,0.215689932016226,-0.11878375713641832,0.003178006685696613,0.2462556140661612,0.4460983796924072,-0.03921800160816393,-0.03677850254998311,0.4493266899085209
138,1791096799.128333,0.25880028357872603,-0.10920367901141832,0.022338162935696612,0.28178364717172577,0.4460983796924072,-0.03921800160816393,-0.03677850254998311,0.4493266899085209
139,1791096799.148333,0.316280752328726,-0.07567340557391833,0.017548123873196615,0.3256806952465078,0.45131488495165795,-0.040900677980753836,-0.0368330691340807,0.4546588455315145
140,1791096799.2031932,0.277960439828726,-0.09004352276141833,0.007968045748196612,0.29228980798876686,0.46592247540778725,-0.04550577777810309,-0.03685530774129553,0.4695879498134677
141,1791096799.2231932,0.177369619516226,-0.04693317119891832,-0.0782526573768034,0.19946474092593194,0.4711320516927007,-0.04713826518441966,-0.036967625829964726,0.47492529047869686
142,1791096799.218365,0.182159658578726,-0.032563054011418326,-0.05909250112680339,0.19425348745772839,0.4711320516927007,-0.04713826518441966,-0.036967625829964726,0.47492529047869686
143,1791096799.238365,0.26838036170372603,-0.12836383526141834,-0.0638825401893034,0.3042799232487765,0.47603017933687863,-0.04866048502966582,-0.03740835294517452,0.47997079006215987
144,1791096799.2627852,0.316280752328726,-0.12357379619891833,-0.04951242300180339,0.34315517981249566,0.4821845786645799,-0.05070176802366296,-0.03807345201190815,0.48633550654950836
145,1791096799.2827852,0.234850088266226,-0.08525348369891833,-0.0016120323768033873,0.24985059353509595,0.4872956135694735,-0.05243603265674246,-0.0386131424027688,0.49162742731772513
146,1791096799.2935088,0.210899892953726,-0.027773014948918325,-0.03514230581430339,0.2156040047522122,0.48998348632609773,-0.0533173327900022,-0.03888866832854926,0.4944076085301327
147,1791096799.3135087,0.244430166391226,-0.09004352276141833,-0.04472238393930339,0.2642991370749117,0.49492753416659846,-0.054891172273772874,-0.03944525329283192,0.49952200439735805
148,1791096799.3382313,0.254010244516226,-0.09483356182391833,-0.03514230581430339,0.27340371326181706,0.5010465019117946,-0.056887619760901356,-0.04017814751779887,0.5058636989328932
149,1791096799.3582313,0.196529775766226,-0.06609332744891833,0.003178006685696613,0.20737015316213503,0.5059298967803133,-0.058501826949675,-0.0407300539397863,0.5109270608477555
150,1791096799.3831716,0.19173973670372602,-0.061303288386418325,0.036708280123196615,0.2046209120002294,0.511832373942112,-0.06045112258079158,-0.04124044557348478,0.5170372245666606
151,1791096799.4031715,0.254010244516226,-0.04214313213641832,0.012758084810696613,0.2577984030856232,0.5165242942250851,-0.06193498728776758,-0.041514143519549844,0.5218780636194819
152,1791096799.4131155,0.287540517953726,-0.056513249323918324,-0.011192110501803389,0.2932551110411018,0.5189110749272116,-0.06263567404681535,-0.0416286455157474,0.524332790766407
153,1791096799.4331155,0.273170400766226,-0.04693317119891832,-0.03035226675180339,0.2788297877030719,0.5238325294712949,-0.06398872254681068,-0.041886712172890396,0.5293860332518437
154,1791096799.4578676,0.201319814828726,-0.08046344463641833,-0.020772188626803387,0.21779696413352043,0.5298905856429452,-0.06564858527325841,-0.04225309774437654,0.5356109537438527
155,1791096799.4778676,0.18694969764122601,-0.09483356182391833,-0.011192110501803389,0.20992583746133145,0.5346337147122608,-0.06705153860371524,-0.04255268092557369,0.5404996284828606
156,1791096799.4876788,0.249220205453726,-0.11399371807391832,-0.04951242300180339,0.278490140935407,0.5369324301657225,-0.06779019770566273,-0.042722268224763604,0.5428785662290508
157,1791096799.5076787,0.25880028357872603,-0.09004352276141833,-0.0734626183143034,0.28369381216605355,0.5416774870212144,-0.06937614158424257,-0.043200577665639846,0.5478082135906505
158,1791096799.562187,0.196529775766226,-0.09004352276141833,-0.04472238393930339,0.22075298498372245,0.5545313329200136,-0.07378635759702251,-0.04479178380551756,0.5612091674714186
159,1791096799.582187,0.182159658578726,-0.09483356182391833,-0.020772188626803387,0.20641470267903997,0.5591082153799175,-0.07543912817577318,-0.04538628987587716,0.5659973267374451
160,1791096799.5777235,0.220479971078726,-0.11399371807391832,-0.011192110501803389,0.24845774035975696,0.5591082153799175,-0.07543912817577318,-0.04538628987587716,0.5659973267374451
161,1791096799.5977235,0.263590322641226,-0.11399371807391832,-0.0016120323768033873,0.287188134502116,0.5636544827435397,-0.07724149027495304,-0.04587578115023588,0.5707689646721581
162,1791096799.6233416,0.25880028357872603,-0.07567340557391833,-0.01598214956430339,0.270110126052837,0.56960801717896,-0.07956826477753803,-0.046442528895811436,0.5770106675655946
163,1791096799.6433415,0.273170400766226,-0.10920367901141832,0.012758084810696613,0.29446609328146145,0.5743566980024418,-0.08138961210863284,-0.04682345499463549,0.581981375507066
164,1791096799.652888,0.292330557016226,-0.13794391338641832,0.031918241060696614,0.32481448846716393,0.5766882603955651,-0.08230553758101346,-0.04694601940403942,0.5844206361281633
165,1791096799.672888,0.239640127328726,-0.12836383526141834,0.031918241060696614,0.2737214623327102,0.5816381505896183,-0.08433603514953682,-0.047068521617414004,0.5896023666618923
166,1791096799.6972396,0.225270010141226,-0.09962360088641832,0.007968045748196612,0.24644457607269385,0.5876101068331835,-0.08685387548492671,-0.04712245742188488,0.5958605200319399
167,1791096799.7172396,0.26838036170372603,-0.061303288386418325,-0.03514230581430339,0.2775267435278215,0.5925196372099556,-0.08885298378575697,-0.04720087165509187,0.6010010777794411
168,1791096799.7426612,0.335440908578726,-0.09962360088641832,-0.03993234487680339,0.3521932099985142,0.598975249899888,-0.0913196867472637,-0.04742873088942428,0.6077500470539128
169,1791096799.7626612,0.321070791391226,-0.13315387432391834,-0.02556222768930339,0.34852522837880445,0.6042770235933161,-0.0933183899625845,-0.04767934702642004,0.6132963095281692
170,1791096799.8025846,0.182159658578726,-0.09962360088641832,-0.011192110501803389,0.2079237033254722,0.6147795955755333,-0.09740668002332048,-0.04821463124029563,0.6243129528648429
171,1791096799.8225846,0.167789541391226,-0.056513249323918324,-0.011192110501803389,0.17740445565686866,0.6197766685802,-0.09938173914620066,-0.048476139435262376,0.6295631700525702
172,1791096799.8330889,0.26838036170372603,-0.08525348369891833,-0.03514230581430339,0.2837801203202412,0.6223511389205391,-0.10037515295495113,-0.048629387873578685,0.6322665014148551
173,1791096799.8530889,0.364181142953726,-0.09962360088641832,-0.0686725792518034,0.3837560291093207,0.6274664816146024,-0.10226020094586628,-0.04903312604799634,0.6376327953433196
174,1791096799.8775206,0.263590322641226,-0.10441363994891832,0.007968045748196612,0.28362925827659835,0.633928304455954,-0.10459141098167749,-0.04956358061113161,0.6444074851866132
175,1791096799.8975205,0.19173973670372602,-0.06609332744891833,0.007968045748196612,0.20296784059926704,0.6391075418453818,-0.10646926559626735,-0.04990877553410488,0.6498346254514056
176,1791096799.9075594,0.287540517953726,-0.09004352276141833,-0.0638825401893034,0.30800708497925994,0.6416781287946549,-0.1073880129719851,-0.050098152319256246,0.6525280309452495
177,1791096799.9275594,0.38813133826622603,-0.14273395244891832,-0.0686725792518034,0.41920739505299387,0.6470447163682047,-0.10929300310501688,-0.050617679053068514,0.6581595360856235
178,1791096799.9377933,0.316280752328726,-0.12357379619891833,-0.020772188626803387,0.3401991787482507,0.6499195265614173,-0.11032596213694104,-0.05091229467458181,0.661180210439098
179,1791096799.9577932,0.196529775766226,-0.06609332744891833,0.031918241060696614,0.209788118844709,0.6554642257008575,-0.11232635997792041,-0.05138497564734111,0.6670014827883007
180,1791096799.997756,0.254010244516226,-0.07567340557391833,0.017548123873196615,0.2656230511115643,0.6662318116310901,-0.11614877858087855,-0.05203952515934857,0.6782797931339875
181,1791096800.017756,0.38813133826622603,-0.14752399151141832,-0.02556222768930339,0.41600804235042427,0.6717755061929513,-0.11810961420955274,-0.052329988751284216,0.6840837956071134
182,1791096800.0128713,0.38813133826622603,-0.13315387432391834,-0.0734626183143034,0.416860463802211,0.6717755061929513,-0.11810961420955274,-0.052329988751284216,0.6840837956071134
183,1791096800.0328712,0.215689932016226,-0.07088336651141833,-0.01598214956430339,0.22760058770981242,0.6776762905242406,-0.1201902374582993,-0.05280027227857071,0.6902743778177404
184,1791096800.057667,0.18694969764122601,-0.08046344463641833,-0.011192110501803389,0.2038377264109575,0.684643444481231,-0.12266429952779448,-0.053346402560643845,0.6975879981163174
185,1791096800.077667,0.321070791391226,-0.14752399151141832,-0.03514230581430339,0.35508416300082324,0.6901821562056368,-0.12470249765328263,-0.05379033111584274,0.7034170323408305
186,1791096800.1036208,0.359391103891226,-0.18584430401141833,-0.05430246206430339,0.4082264424016254,0.6976160974388907,-0.12759961639503672,-0.05445410757850142,0.7112771129048083
187,1791096800.1236207,0.26838036170372603,-0.11399371807391832,-0.0016120323768033873,0.2915907833881631,0.7034270610492199,-0.1299470153163457,-0.05497275959159418,0.7174384024451749
188,1791096800.1330194,0.19173973670372602,-0.04693317119891832,0.022338162935696612,0.19866011857779328,0.7060725616412397,-0.13099811001895878,-0.055165322687182945,0.7202375857717662
189,1791096800.1530194,0.25880028357872603,-0.09483356182391833,-0.011192110501803389,0.2758554958055477,0.711533444801617,-0.1331119372244861,-0.05549690391267521,0.7260017474130512
190,1791096800.1928947,0.306700674203726,-0.13315387432391834,-0.0734626183143034,0.34233319163365233,0.7224792191831785,-0.13737607086858317,-0.05631200705242285,0.7375767411850088
191,1791096800.2128947,0.311490713266226,-0.10920367901141832,-0.11178293081430339,0.34849294337499354,0.7280730064969865,-0.13955753071175506,-0.05693737722284395,0.7435109091956484
192,1791096800.267918,0.26838036170372603,-0.12357379619891833,-0.05909250112680339,0.301314495742664,0.7435470546343519,-0.14561948653270007,-0.059104965616514106,0.7599741142131069
193,1791096800.287918,0.225270010141226,-0.10920367901141832,0.027128201998196613,0.2518093729834374,0.7490683757356744,-0.14784154814706738,-0.0598226079355625,0.7658585373983992
194,1791096800.267918,0.254010244516226,-0.10441363994891832,-0.020772188626803387,0.27541767617007223,0.7490683757356744,-0.14784154814706738,-0.0598226079355625,0.7658585373983992
195,1791096800.287918,0.321070791391226,-0.14752399151141832,-0.0638825401893034,0.35906929706824997,0.7545312327044958,-0.1500972555721683,-0.06045998257387954,0.7716877456262324
196,1791096800.2974615,0.340230947641226,-0.21937457744891833,-0.0830426964393034,0.4132534239369935,0.7572202749056295,-0.15127477078518198,-0.060823661660542525,0.7745747987264127
197,1791096800.3174615,0.225270010141226,-0.18105426494891833,-0.020772188626803387,0.2897562909508069,0.7628585986064876,-0.1539729573198958,-0.06162721651386733,0.7806784401204735
198,1791096800.3578506,0.244430166391226,-0.15710406963641832,0.027128201998196613,0.2918282616232053,0.7739597945059298,-0.1596288359264382,-0.06298729442702648,0.7927562853930127
199,1791096800.3778505,0.301910635141226,-0.11878375713641832,0.022338162935696612,0.32520548287838547,0.7794518609545058,-0.16242325850868533,-0.06348555942259498,0.7987220634896856
200,1791096800.387168,0.335440908578726,-0.13315387432391834,0.017548123873196615,0.36132878939694263,0.7820720475786256,-0.16370587657616822,-0.0636549945454984,0.8015536538248598
201,1791096800.407168,0.306700674203726,-0.14752399151141832,-0.03035226675180339,0.3416868328242306,0.7878158994865696,-0.16646708346285408,-0.06398334223361588,0.8077493729145481
202,1791096800.4178016,0.254010244516226,-0.14273395244891832,-0.0638825401893034,0.2982870504093682,0.7908589182722836,-0.16794645276665768,-0.06420688828273309,0.8110402974641033
203,1791096800.4378016,0.239640127328726,-0.18584430401141833,0.036708280123196615,0.30547175612357286,0.796464231866948,-0.17080437018255845,-0.06460503010289056,0.8171310882786577
204,1791096800.462832,0.287540517953726,-0.08046344463641833,0.031918241060696614,0.30028767790281324,0.8034167839193735,-0.17434453337325875,-0.06489973909435036,0.8246735845987814
205,1791096800.482832,0.263590322641226,-0.008612858698918322,-0.03035226675180339,0.26547184336958557,0.80896547314573,-0.17688253508953855,-0.06509754886912685,0.8306324450864925
206,1791096800.5072706,0.220479971078726,-0.09004352276141833,-0.04472238393930339,0.24232074872650994,0.8156158273526243,-0.17969943802414434,-0.06544060653564673,0.8377371537887361
207,1791096800.5272706,0.273170400766226,-0.14752399151141832,0.031918241060696614,0.3120964114478894,0.8209824192061567,-0.18201528196212488,-0.06569845038226947,0.8434796867121205
208,1791096800.538402,0.215689932016226,-0.16668414776141832,0.04628835824819662,0.2764929727812769,0.8239294336478692,-0.1833732063680256,-0.0657551418922041,0.8466458427998409
209,1791096800.558402,0.206109853891226,-0.04214313213641832,-0.0638825401893034,0.2198597152694602,0.8290627916673935,-0.18576025922984973,-0.0658681120001073,0.8521681727305541
210,1791096800.5981033,0.25880028357872603,-0.11399371807391832,-0.03035226675180339,0.28441767638056115,0.8391086377379204,-0.19025285392050967,-0.06633931965414203,0.8629602306499772
211,1791096800.6181033,0.277960439828726,-0.18105426494891833,0.022338162935696612,0.33247803910832013,0.8442153890842693,-0.1926191454598083,-0.0665531109656285,0.8684647804854116
212,1791096800.6574667,0.287540517953726,-0.15231403057391832,-0.020772188626803387,0.32605305886483726,0.8544282077525175,-0.19756200989033523,-0.06690614900865138,0.8795196090652306
213,1791096800.6774666,0.25880028357872603,-0.12357379619891833,-0.020772188626803387,0.2875405253312797,0.8596583590545668,-0.20011053104441456,-0.06712093312231135,0.8851903403169726
214,1791096800.6728277,0.306700674203726,-0.12357379619891833,0.012758084810696613,0.33090565935334015,0.8596583590545668,-0.20011053104441456,-0.06712093312231135,0.8851903403169726
215,1791096800.6928277,0.325860830453726,-0.13315387432391834,0.031918241060696614,0.35346005316565904,0.8651069977559575,-0.20265204159656117,-0.06721931819215449,0.8910647587396768
216,1791096800.7180316,0.254010244516226,-0.14752399151141832,0.04628835824819662,0.29736701985924285,0.8720395363239702,-0.20590499209665242,-0.06717687158881967,0.8985335557222714
217,1791096800.7380316,0.210899892953726,-0.13794391338641832,-0.006402071439303388,0.2520878311362266,0.8774128772423719,-0.20852729885721405,-0.06708841210960108,0.9043438762765031
218,1791096800.76254,0.210899892953726,-0.16189410869891832,-0.0686725792518034,0.27459859872258174,0.883785134761541,-0.2118098660171797,-0.06713426911931641,0.9112884251749692
219,1791096800.78254,0.263590322641226,-0.19542438213641833,-0.05909250112680339,0.33341036428540693,0.8889169024338659,-0.2146227529903656,-0.06735772467172477,0.9169368836548862
220,1791096800.807464,0.249220205453726,-0.22416461651141834,-0.03514230581430339,0.3370392673859452,0.8953113809330426,-0.21838667034256892,-0.06777057449573462,0.9240498132563134
221,1791096800.8274639,0.220479971078726,-0.16668414776141832,-0.0782526573768034,0.2872603368868692,0.9003774654689615,-0.2215402292310745,-0.06822226267919004,0.9297386356482861
222,1791096800.837309,0.249220205453726,-0.16189410869891832,-0.03993234487680339,0.29985830888133574,0.9028440000607829,-0.22310233583542413,-0.06849852020847261,0.9325202346178489
223,1791096800.8573089,0.282750478891226,-0.16668414776141832,-0.01598214956430339,0.32861355348321186,0.9079010685574657,-0.22629258592448218,-0.06905942231686259,0.9382227286433195
224,1791096800.8837662,0.249220205453726,-0.12836383526141834,-0.006402071439303388,0.28040857962646554,0.9146430106363693,-0.23046528351051995,-0.06973453822269465,0.9458059999971867
225,1791096800.9037662,0.234850088266226,-0.13794391338641832,0.05586843637319661,0.2780366331651276,0.9197011093490326,-0.23354588626147488,-0.07009413037392963,0.9514762207435226
226,1791096800.8980815,0.287540517953726,-0.12357379619891833,0.04149831918569662,0.3157089530997605,0.9197011093490326,-0.23354588626147488,-0.07009413037392963,0.9514762207435226
227,1791096800.9180815,0.335440908578726,-0.13315387432391834,0.003178006685696613,0.36091641292976046,0.924956104305286,-0.236490147649305,-0.07016277878335384,0.9572848062898539
228,1791096800.9431028,0.277960439828726,-0.12357379619891833,-0.03514230581430339,0.3062147463378219,0.9316954102347755,-0.24010287026814336,-0.07029576413350175,0.9647005857874559
229,1791096800.9631028,0.239640127328726,-0.09962360088641832,-0.0686725792518034,0.26845516501047173,0.9370506301743347,-0.24289222236494473,-0.07054183923092398,0.9705857336050128
230,1791096801.0030801,0.249220205453726,-0.11878375713641832,-0.04472238393930339,0.2796790721363604,0.9476150982083886,-0.24828628628829089,-0.07129992195818521,0.9821935314298137
231,1791096801.02308,0.273170400766226,-0.13315387432391834,-0.03035226675180339,0.30540674877812213,0.9528911261066396,-0.2509579683809307,-0.07173490152490207,0.9879915466255019
232,1791096801.0632806,0.316280752328726,-0.14752399151141832,-0.05909250112680339,0.3539615318851855,0.9636825502649562,-0.25636884886839206,-0.07274775268749831,0.9998506287822975
233,1791096801.0832806,0.354601064828726,-0.16189410869891832,-0.05430246206430339,0.39357384948104546,0.9692523516909365,-0.25912112982566776,-0.07334615967731133,1.005968955942454
234,1791096801.0632806,0.364181142953726,-0.15710406963641832,-0.020772188626803387,0.3971663094973619,0.9692523516909365,-0.25912112982566776,-0.07334615967731133,1.005968955942454
235,1791096801.0832806,0.254010244516226,-0.11878375713641832,0.012758084810696613,0.28070189526733424,0.9751202658590127,-0.2619302064522946,-0.07388624996005641,1.0123863609681103
236,1791096801.1235502,0.287540517953726,-0.10920367901141832,-0.0016120323768033873,0.30758347098488525,0.9867985703737463,-0.2674264017274633,-0.07477692943963869,1.0251243280739115
237,1791096801.1435502,0.36897118201622603,-0.10920367901141832,-0.01598214956430339,0.38512414332624695,0.9927133815346476,-0.27007425401867186,-0.07517932471336465,1.0315386039436694
238,1791096801.1521616,0.39771141639122604,-0.12357379619891833,-0.02556222768930339,0.41725086137642275,0.9953732911526634,-0.2711936736212709,-0.07535342775266138,1.0344042422700908
239,1791096801.1721616,0.354601064828726,-0.11878375713641832,-0.01598214956430339,0.3743085962702509,1.0017527292427864,-0.2737670738828278,-0.07575944387486218,1.0412475376316457
240,1791096801.197842,0.292330557016226,-0.16668414776141832,0.003178006685696613,0.3365276502857702,1.0099613419541669,-0.277125536492893,-0.07622723660231523,1.0500624109158279
241,1791096801.2178419,0.349811025766226,-0.17626422588641832,-0.020772188626803387,0.39226051916463,1.016358534461089,-0.27986321148338245,-0.07656329976494951,1.0569626420004554
242,1791096801.2273538,0.402501455453726,-0.19542438213641833,-0.0638825401893034,0.45197244353699995,1.0194813485016694,-0.28123510013051195,-0.07675954839172718,1.060343071726082
243,1791096801.2473538,0.345020986703726,-0.18584430401141833,-0.0782526573768034,0.39962615653386924,1.02618380018061,-0.2842588753182331,-0.07732349129605949,1.0676306581662578
244,1791096801.2724128,0.325860830453726,-0.17626422588641832,-0.0686725792518034,0.37678943893430117,1.034582835244585,-0.28815977509349416,-0.07820022972105128,1.0768068419605636
245,1791096801.2924128,0.359391103891226,-0.19063434307391833,-0.03514230581430339,0.4083361360121395,1.0413086070050035,-0.29135648793053,-0.07895073014657213,1.084179614211866
246,1791096801.3025417,0.392921377328726,-0.18105426494891833,-0.02556222768930339,0.43338352887775505,1.0447754412062584,-0.2930149766126611,-0.07931992255625855,1.0879821456170047
247,1791096801.3225417,0.38813133826622603,-0.09004352276141833,-0.05909250112680339,0.40279733790709055,1.0517655867580409,-0.29620515045445656,-0.0800665392922263,1.0956089591448523
248,1791096801.3488007,0.306700674203726,-0.09962360088641832,0.007968045748196612,0.3225734880048914,1.060935049552496,-0.3001389387887823,-0.081000453804791,1.1055440450125882
249,1791096801.3688006,0.292330557016226,-0.14752399151141832,0.027128201998196613,0.3285672259683442,1.0677698856745965,-0.3030563857765569,-0.08155242369355742,1.1129359817724394
250,1791096801.3929725,0.306700674203726,-0.11399371807391832,-0.0016120323768033873,0.3272040188715901,1.0758773143067104,-0.30652759203114044,-0.08207320647747347,1.1216983423976892
251,1791096801.4129725,0.330650869516226,-0.08046344463641833,-0.020772188626803387,0.34093378720059675,1.0825352739001919,-0.3092605677074327,-0.08247304793635046,1.1288607184293369
252,1791096801.422612,0.364181142953726,-0.07088336651141833,-0.020772188626803387,0.37159634060553093,1.085765239080707,-0.310489629103396,-0.0826668897000844,1.1323090474024462
253,1791096801.442612,0.349811025766226,-0.09962360088641832,0.003178006685696613,0.3637344021778665,1.0925325120897322,-0.3129129312368874,-0.0830351354323491,1.1394896341014387
254,1791096801.497548,0.321070791391226,-0.12836383526141834,-0.006402071439303388,0.3458391444101183,1.111096845739613,-0.3195101883069408,-0.08390819552553842,1.1591650211772293
255,1791096801.517548,0.325860830453726,-0.15710406963641832,-0.01598214956430339,0.3621082692027514,1.1178119704970852,-0.3219799092512406,-0.0842119400452248,1.1663045546486537
256,1791096801.5125964,0.316280752328726,-0.18584430401141833,-0.01598214956430339,0.3671880291237844,1.1178119704970852,-0.3219799092512406,-0.0842119400452248,1.1663045546486537
257,1791096801.5325963,0.349811025766226,-0.17626422588641832,0.003178006685696613,0.39172302817354493,1.1244815145858946,-0.32474470366974173,-0.0844913560992221,1.1734805445606764
258,1791096801.5434625,0.392921377328726,-0.17147418682391832,0.027128201998196613,0.429565530335573,1.1281668921192627,-0.32630491390780286,-0.08459569549424442,1.1774514278774177
259,1791096801.5634625,0.402501455453726,-0.16668414776141832,0.003178006685696613,0.43566171106009816,1.1351257537455717,-0.329253080946687,-0.08471347394436342,1.1849449104481862
260,1791096801.6175196,0.349811025766226,-0.15231403057391832,0.04149831918569662,0.38378304828708854,1.1541633386625865,-0.33731959713165216,-0.08480293115335845,1.2054331420920987
261,1791096801.6375196,0.297120596078726,-0.07088336651141833,0.13729910043569662,0.33489721295140845,1.1611207101937115,-0.3401911658830841,-0.08456286794874657,1.2128817797383873
262,1791096801.6328268,0.287540517953726,-0.07088336651141833,0.17561941293569663,0.3443053576594006,1.1611207101937115,-0.3401911658830841,-0.08456286794874657,1.2128817797383873
263,1791096801.6528268,0.215689932016226,0.1398783522385817,0.15166921762319663,0.298482246997334,1.167647698289509,-0.3423431343383261,-0.08349951908170626,1.2196606653640403
264,1791096801.6625288,0.167789541391226,0.5326615553635817,0.18040945199819663,0.5868809360789611,1.170618035301513,-0.3427410920899946,-0.0828194279609834,1.2225698746607496
265,1791096801.6825287,0.057618642953726,0.8056937819260818,0.30974050668569664,0.8651020516286466,1.1761608320171035,-0.341430870643077,-0.0808925342677048,1.2273845951043652
266,1791096801.707526,0.115099111703726,1.0068754225510816,0.4247014441856966,1.098825390471945,1.1823732176050301,-0.3366407217444096,-0.07746850793723067,1.2318014332546823
267,1791096801.727526,-0.11482276329627401,1.0020853834885817,0.6306731238731966,1.1895831084663342,1.1865985176814349,-0.3303696248820511,-0.07355685430714644,1.2339249337070908
268,1791096801.753039,-0.23936377892127403,1.466719172551082,0.5540324988731966,1.5860366198786462,1.1905022882530247,-0.31884588652631013,-0.06704854676558719,1.234282749338179
269,1791096801.7730389,-0.02381202110877401,1.318227961613582,0.5444524207481967,1.4264362620137483,1.1927087168239985,-0.30698987951886264,-0.06106415298133761,1.2330959817038911
270,1791096801.7980945,-0.320794442983774,1.2032670241135817,0.5492424598106966,1.3610392667470432,1.1944106922685123,-0.28962649405754415,-0.05263633300275582,1.2301508002750672
271,1791096801.8180945,-0.507605966421274,1.318227961613582,0.34806081918569665,1.4548316431046557,1.1943228646592705,-0.27406338708227135,-0.04557219521589257,1.2262115111854597
272,1791096801.8273704,-0.25852393517127403,1.1170463209885817,0.30974050668569664,1.1876726357765757,1.1937552490844654,-0.2662337904832561,-0.04232969546633213,1.2238152756973042
273,1791096801.8473704,-0.17709327110877401,0.7721635084885817,0.3145305457481966,0.852366103691401,1.192061553757557,-0.249050661902759,-0.035450754339056964,1.2183159426537484
274,1791096801.8737366,-0.11961280235877401,0.5039213209885817,0.16124929574819663,0.5424437810633335,1.189576929720994,-0.22727241580983484,-0.02680160756157789,1.2113894290773508
275,1791096801.8937366,-0.10524268517127401,0.3985404616135817,0.06544851449819662,0.4173655836017715,1.18763765205477,-0.21187690742155688,-0.020884907486655155,1.2065700128203982
276,1791096801.9183128,0.244430166391226,0.22130901630108168,0.28100027231069663,0.43322619955039715,1.185868650281683,-0.194653953784024,-0.014066400375878267,1.201820486205901
277,1791096801.9383128,0.431241689828726,0.3362699538010817,0.2522600379356966,0.602230855748056,1.1856584928549225,-0.18190402398531835,-0.008549973087289775,1.1995616856422395
278,1791096801.9470625,0.536622549203726,0.19256878192608168,0.17082937387319663,0.5951715475930519,1.1862154837885364,-0.17681574973203634,-0.0062209709226998255,1.1993371852036419
279,1791096801.9670625,0.536622549203726,0.0009672194260816785,0.06544851449819662,0.5405998556024078,1.18890753688793,-0.16663935298228,-0.0013414972265285612,1.200529718435194
280,1791096801.99339,0.752174307016226,-0.12836383526141834,0.1995696082481966,0.7887150885298817,1.1944645616131808,-0.15550428704232286,0.004641562437625456,1.2045533264825479
281,1791096802.01339,1.3844594632662262,-0.6313179368239183,-0.2554841026893034,1.542907148700133,1.201257732001025,-0.1494537924923025,0.008421008305690765,1.2105484245429685
282,1791096802.0385108,0.632423330453726,-0.6121577805739183,-0.14531320425180339,0.8920831488988539,1.2123102582635226,-0.14533686611849306,0.01170094242477538,1.221047042090411
283,1791096802.0585108,0.752174307016226,-0.5690474290114184,-0.4422956261268034,1.0417324922890454,1.221866741453857,-0.14432261995845067,0.013039163580459295,1.2304297510583917
284,1791096802.1579347,0.924615713266226,-0.9043501633864184,-0.4614557823768034,1.3732096978702273,1.2747513176520697,-0.15102372187644023,0.011954756978549436,1.2837219335352639
285,1791096802.1779346,0.9820961820162261,-1.2348628586989183,-0.6195270714393034,1.6950554512378269,1.2866538471094298,-0.15537832563752071,0.010147867082225927,1.2960414829648523
286,1791096802.1579347,1.2599184476412262,-1.3498237961989183,-0.6291071495643035,1.9506907958783368,1.2866538471094298,-0.15537832563752071,0.010147867082225927,1.2960414829648523
287,1791096802.1779346,1.2311782132662261,-1.2013325852614183,-0.5620466026893034,1.8096674160814432,1.301848631996861,-0.16564673011981781,0.005463653094189037,1.312356106907199
288,1791096802.158935,1.202437978891226,-1.1773823899489184,-0.5333063683143034,1.7653617384905664,1.301848631996861,-0.16564673011981781,0.005463653094189037,1.312356106907199
289,1791096802.178935,1.216808096078726,-1.3019234055739182,-0.7105378136268035,1.9184604455806435,1.319558587415608,-0.1798174662059173,-0.0011830297118977538,1.3317547020132088
290,1791096802.2482285,0.852765127328726,-1.7473970383864184,-0.5668366417518034,2.025316901273,1.3824695879741509,-0.237397307423786,-0.0273958853987484,1.4029719091208717
291,1791096802.2682285,0.6611635648287261,-1.8958882493239182,-0.48540597768930344,2.0657077422902907,1.400174624980118,-0.2569884668240717,-0.03540512702746636,1.4240033621935841
292,1791096802.2482285,0.8192348538912261,-1.8144575852614182,-0.5524665245643035,2.066064213742408,1.400174624980118,-0.2569884668240717,-0.03540512702746636,1.4240033621935841
293,1791096802.2682285,0.953355947641226,-1.8623579758864184,-0.5333063683143034,2.1590925120835487,1.4175129040673162,-0.2813889840003309,-0.04414374806871051,1.445846210358366
294,1791096802.2779963,0.910245596078726,-2.058749577448918,-0.3704450401893034,2.2812773605214405,1.4260757976464893,-0.2943909226216867,-0.04843349027646364,1.4569502390045717
295,1791096802.2979963,0.747384267953726,-1.8671480149489184,-0.5333063683143034,2.08068273319048,1.4434652364140053,-0.32290854441678074,-0.057255051745630545,1.4802499646152671
296,1791096802.337479,0.756964346078726,-2.0300093430739183,-0.6051569542518034,2.2494772489360977,1.4770997922743774,-0.3823020506696614,-0.07542905730190354,1.5276348375736561
297,1791096802.357479,0.627633291391226,-2.101859929011418,-0.2363239464393034,2.2062610265576272,1.4936585989131315,-0.4140727013068485,-0.08451639496263987,1.552293539602665
298,1791096802.4581463,0.6994838773287261,-2.077909733698918,0.18040945199819663,2.199894117091508,1.5745229546339572,-0.5815564764717761,-0.12381746924224908,1.6830511684690603
299,1791096802.4781463,0.824024892953726,-2.068329655573918,0.14687917856069663,2.2312727492237667,1.590464026182914,-0.6160593259474385,-0.12996342913690692,1.710554122084946
300,1791096802.4581463,0.8767153226412261,-2.3222017258864183,-0.02556222768930339,2.4823182793808307,1.590464026182914,-0.6160593259474385,-0.12996342913690692,1.710554122084946
301,1791096802.4781463,0.709063955453726,-2.255141179011418,-0.2267438683143034,2.374836038975076,1.6065285587325966,-0.653451564675772,-0.1346276649790283,1.7395567152520075
302,1791096802.473055,0.752174307016226,-2.2024507493239183,-0.1213630089393034,2.3305116329406363,1.6065285587325966,-0.653451564675772,-0.1346276649790283,1.7395567152520075
303,1791096802.4930549,0.867135244516226,-2.1737105149489184,-0.011192110501803389,2.340313269290928,1.6224272225184788,-0.6927151170817399,-0.13864024370972416,1.7695608051091338
304,1791096802.4873736,0.934195791391226,-2.2072407883864185,-0.2650641808143034,2.4114088609193867,1.6224272225184788,-0.6927151170817399,-0.13864024370972416,1.7695608051091338
305,1791096802.5073736,1.006046377328726,-2.341361882136418,-0.5045661339393034,2.5978244282430056,1.6391210624618011,-0.7334916387788093,-0.14304600264933573,1.8014410899161486
306,1791096802.5483654,0.733014150766226,-2.394052311823918,-0.4375055870643034,2.5416937966020727,1.6735508159381436,-0.8190890361308467,-0.15361779633486958,1.8695661555526104
307,1791096802.5683653,0.618053213266226,-2.384472233698918,-0.4518757042518034,2.5043740255406894,1.689856014469262,-0.8617555003788742,-0.15933616813222481,1.9035818623180467
308,1791096802.5781968,0.7617543851412261,-2.3701021165114184,-0.6147370323768034,2.5642845795561056,1.6976863261951023,-0.8830889092094808,-0.162511984881311,1.9205194685159215
309,1791096802.5981967,1.015626455453726,-2.5281734055739182,-0.6530573448768034,2.8017212140693553,1.7138921538623777,-0.9273249124200352,-0.16990512819945613,1.9560740172228452
310,1791096802.5929856,1.1832778226412262,-2.3030415696364184,-0.5524665245643035,2.6475207530427594,1.7138921538623777,-0.9273249124200352,-0.16990512819945613,1.9560740172228452
311,1791096802.6129856,1.207228017953726,-2.212030827448918,-0.5189362511268034,2.5728922833360843,1.7319902199740775,-0.9722178200953769,-0.17839081834539774,1.9941968046977712
312,1791096802.6389096,0.934195791391226,-1.9773189133864182,-0.2938044151893034,2.206543200636111,1.7560936852561506,-1.0298248063284965,-0.18932030401084748,2.0445650737104977
313,1791096802.6589096,0.8815053617037261,-1.6707564133864183,-0.03993234487680339,1.8894637566652674,1.774623399907198,-1.0730734557210657,-0.1969880631652886,2.0831656558951197
314,1791096802.6826208,0.8623452054537261,-1.4983150071364182,0.05586843637319661,1.7296555715407678,1.7963974563179126,-1.1222919816133132,-0.20468673247748959,2.1280225025857495
315,1791096802.7026207,0.986886221078726,-1.5510054368239183,0.007968045748196612,1.8383758506261572,1.8147824270004635,-1.1621536693110797,-0.21011061533742936,2.1652212078954824
316,1791096802.712374,1.006046377328726,-1.5845357102614184,-0.011192110501803389,1.8769677657773975,1.8238610424673811,-1.180970462633765,-0.21236124124523276,2.1831760425185203
317,1791096802.732374,0.972516103891226,-1.7090767258864183,-0.006402071439303388,1.9664108964845377,1.8426530113166912,-1.2187087570879929,-0.21631049853792284,2.2197773281334223
318,1791096802.7576203,0.847975088266226,-1.7952974290114183,-0.14531320425180339,1.9907964577688622,1.866263333550284,-1.265836357306892,-0.22083521164605707,2.265843927621
319,1791096802.7776203,0.618053213266226,-1.7761372727614182,-0.13573312612680338,1.88549114759238,1.8843606954554413,-1.302927494780157,-0.22430355592558385,2.3019008172447983
320,1791096802.8037515,0.531832510141226,-1.6611763352614182,0.04628835824819662,1.7448482019319005,1.9067127623426214,-1.3508565598460445,-0.22833070972259129,2.347871784480946
321,1791096802.8237514,0.565362783578726,-1.5174751633864183,0.08939870981069661,1.6218378704008423,1.9229000005892853,-1.3868054500420328,-0.23074710002684917,2.3820197297048904
322,1791096802.8482237,0.8000746976412261,-1.4264644211989184,0.036708280123196615,1.635930244411927,1.9422420266358682,-1.4295982089326347,-0.2330288586175111,2.4228820809033573
323,1791096802.8682237,0.934195791391226,-1.4791548508864183,0.036708280123196615,1.7498480926593327,1.9582796406500103,-1.4636832262415505,-0.23450378961816323,2.456057769090639
324,1791096802.9082088,0.713853994516226,-1.3833540696364182,0.14687917856069663,1.5635950564519823,1.9904758266449487,-1.5301906873767845,-0.2364596874008959,2.5217832460301297
325,1791096802.9282088,0.694693838266226,-1.3402437180739182,0.29058035043569663,1.5372994805245312,2.006277083977507,-1.5625522005609462,-0.23663506259457176,2.553960310972017
326,1791096802.9376884,0.733014150766226,-1.2109126633864185,0.2666301551231966,1.4403856647419608,2.0136581453712212,-1.5774037910654375,-0.23630956104707246,2.568825423248871
327,1791096802.9576883,0.7425942288912261,-1.2157027024489184,0.09418874887319661,1.4276732013799434,2.0291082902026227,-1.6076776252027685,-0.23518459906760827,2.5994652518518526
328,1791096802.9829588,0.6803237210787261,-1.4264644211989184,0.027128201998196613,1.580625524832629,2.048398513262579,-1.645199250500711,-0.2337464646280237,2.637660791821144
329,1791096803.0029588,0.756964346078726,-1.5462153977614184,-0.14052316518930338,1.7272880007293847,2.063531391603982,-1.6748998710108687,-0.23294909291558716,2.667904919958259
330,1791096803.0275958,0.867135244516226,-1.5366353196364182,-0.13094308706430338,1.7692703947916673,2.0823775857557028,-1.7116949940345576,-0.23261579489943843,2.705606451481333
331,1791096803.0475957,0.824024892953726,-1.5414253586989182,-0.1501032433143034,1.7542919210613042,2.097918553147557,-1.7417014098835852,-0.23280738207226903,2.7366010549545856
332,1791096803.0426676,0.8431850492037261,-1.7138667649489183,-0.2123737511268034,1.9218228132075106,2.097918553147557,-1.7417014098835852,-0.23280738207226903,2.7366010549545856
333,1791096803.0626676,1.001256338266226,-1.8958882493239182,-0.2554841026893034,2.1592078722461534,2.1140392521799143,-1.7729461661915493,-0.23410974764325132,2.768990328966916
334,1791096803.0880785,0.9581459867037261,-2.0012691086989185,-0.3225446495643034,2.2421322057879594,2.1351832867040064,-1.814116642369123,-0.23661787232101988,2.8117636595991615
335,1791096803.1080785,0.929405752328726,-2.2072407883864185,-0.5237262901893034,2.4515293547934265,2.1521600522451,-1.8479726085197234,-0.23956522260136281,2.8467854060674935
336,1791096803.11779,1.015626455453726,-2.3796821946364184,-0.33691476675180343,2.6091945125924445,2.160583719891809,-1.8652872407868029,-0.2414085688597812,2.864558709194577
337,1791096803.13779,1.001256338266226,-2.3126216477614183,0.017548123873196615,2.5201271946599237,2.1783546680005457,-1.902634946607769,-0.24511439524590578,2.902641877050919
338,1791096803.177559,1.020416494516226,-2.221610905573918,0.022338162935696612,2.4448525173451854,2.214420775535362,-1.9792834609594823,-0.25125894613582256,2.9806632563850055
339,1791096803.1975589,0.9964662992037261,-2.2455611008864182,-0.1980036339393034,2.464689672619286,2.232863237252906,-2.0187490710266514,-0.2541490486878293,3.0208637484989986
340,1791096803.2222617,0.9581459867037261,-2.2264009446364184,-0.1692633995643034,2.4297232345570676,2.2558467425635707,-2.06846805455665,-0.2578637180684884,3.071465174107001
341,1791096803.2422616,0.8192348538912261,-2.1162300461989183,-0.0830426964393034,2.2707865253469257,2.2743296181606754,-2.109197644274677,-0.26079854096653626,3.1127649756489815
342,1791096803.2377896,0.756964346078726,-2.034799382136418,-0.13094308706430338,2.174982675523433,2.2743296181606754,-2.109197644274677,-0.26079854096653626,3.1127649756489815
343,1791096803.2577896,0.7425942288912261,-1.9868989915114184,-0.12615304800180338,2.1248831456745547,2.2919424835603093,-2.149949872127084,-0.2635774259589704,3.15353101460617
344,1791096803.3130212,0.632423330453726,-1.6851265305739183,-0.020772188626803387,1.8000117157303785,2.33898176625127,-2.260820250683463,-0.2707090433880002,3.2642651998464207
345,1791096803.3330212,0.594103017953726,-1.3067134446364181,-0.08783273550180339,1.4381143945323085,2.35529999498679,-2.2994333190654968,-0.2730670245239162,3.3029376704830025
346,1791096803.327882,0.646793447641226,-0.9330903977614183,-0.3417048058143034,1.1856481892293245,2.35529999498679,-2.2994333190654968,-0.2730670245239162,3.3029376704830025
347,1791096803.347882,0.627633291391226,-0.9426704758864184,-0.4375055870643034,1.2140684961249062,2.370583695018454,-2.333000646774292,-0.27648714021215237,3.3375146758687526
348,1791096803.3728025,0.6228432523287261,-1.1055318040114184,-0.14531320425180339,1.2772040612142184,2.389108162405171,-2.3723806600497155,-0.28119876415700873,3.3786240620720687
349,1791096803.3928025,0.5605727445162261,-0.8947700852614183,0.036708280123196615,1.056504995351552,2.4035201140531703,-2.402244959708164,-0.2845757982228501,3.4100840414915896
350,1791096803.4177847,0.531832510141226,-0.5929976243239183,-0.1596833214393034,0.8123981563511922,2.4208687358262484,-2.436740813573033,-0.28839176177625714,3.446952427419612
351,1791096803.4377847,0.756964346078726,-0.4253462571364183,-0.1932135948768034,0.8895200688796013,2.434607379704014,-2.4617421864623927,-0.29151780678662703,3.474546059212854
352,1791096803.477633,0.9198256742037261,-0.22895465557391834,-0.12615304800180338,0.9562500179103036,2.462885832008598,-2.506038859803999,-0.29776640462779336,3.526287313887139
353,1791096803.497633,1.0252065335787262,-0.34870563213641836,-0.11657296987680339,1.0891433843539908,2.477867452976559,-2.525803074189896,-0.30079625290872236,3.5510543039879856
354,1791096803.4786339,0.8575551663912261,-0.6935884446364183,0.13250906137319662,1.1108665290139292,2.477867452976559,-2.525803074189896,-0.30079625290872236,3.5510543039879856
355,1791096803.4986339,0.618053213266226,-0.8085493821364184,0.17082937387319663,1.0319518170727737,2.493305603462669,-2.5436648473555636,-0.30250999257547245,3.574677046047483
356,1791096803.5224495,0.867135244516226,-0.7989693040114184,-0.020772188626803387,1.1792823940240322,2.5115843666006956,-2.564615220194003,-0.3039765524317746,3.602458744056906
357,1791096803.5424495,0.991676260141226,-0.7845991868239184,-0.2842243370643034,1.2960714342473896,2.5274202584026253,-2.581945286147339,-0.3054809009645078,3.62596376210471
358,1791096803.567487,0.766544424203726,-0.8660298508864184,-0.2459040245643034,1.1823987678448822,2.5475727785438105,-2.6034857137431575,-0.30807715483519243,3.655567870656144
359,1791096803.587487,0.637213369516226,-0.7558589524489183,-0.14052316518930338,0.9985541518827202,2.563361574287851,-2.620544067295339,-0.310419599898409,3.678917517038589
360,1791096803.59757,0.972516103891226,-0.6935884446364183,-0.3273346886268034,1.238547738780925,2.5713448000113845,-2.628950122986168,-0.3117772034196458,3.690582319128887
361,1791096803.61757,1.5616909085787263,-0.8803999680739184,-0.6291071495643035,1.8999364208717424,2.588605914951215,-2.6454838074639264,-0.31550079956163635,3.714701322178983
362,1791096803.642648,1.6670717679537261,-1.0432612961989183,-0.6626374230018034,2.075237520385915,2.6130759628265956,-2.6667238408091536,-0.32189906060754814,3.7474259213308123
363,1791096803.662648,1.2886586820162262,-1.1630122727614183,-0.6003669151893034,1.8367577897434917,2.634097378303986,-2.684431500814576,-0.32813083628002543,3.775223347918817
364,1791096803.7024863,1.2599184476412262,-1.0384712571364183,-0.5189362511268034,1.7132168220452164,2.677304192900946,-2.720990624947339,-0.34202637871793057,3.8325878680227534
365,1791096803.7224863,1.6191713773287262,-0.9330903977614183,-0.3608649620643034,1.9033121552706054,2.700060228943654,-2.739548637787021,-0.34927564737856975,3.862310895898425
366,1791096803.7628875,1.7580825101412263,-0.35349567119891834,-0.3560749230018034,1.8282786037176033,2.749366948683006,-2.7753122122509573,-0.3638954229823613,3.9234928791635797
367,1791096803.7828875,1.4706801663912261,-0.31517535869891833,-0.2985944542518034,1.533425676926485,2.774957318719883,-2.7913637777894524,-0.37102912020074863,3.95344943925036
368,1791096803.76388,1.3892495023287261,-0.5834175461989184,-0.2746442589393034,1.531606895355887,2.774957318719883,-2.7913637777894524,-0.37102912020074863,3.95344943925036
369,1791096803.78388,1.5425307523287262,-0.49240680401141834,-0.1548932823768034,1.6266092067371394,2.801490434109698,-2.8057204737384662,-0.377558400800847,3.9828339627931566
370,1791096803.8079524,1.6048012601412263,-0.12836383526141834,-0.1644733605018034,1.6183064743949598,2.8343181795582866,-2.8215292568005266,-0.3848149607133158,4.017769212379517
371,1791096803.8279524,1.4419399320162263,0.1302982741135817,-0.3273346886268034,1.484357236704946,2.8620713073462145,-2.8326905497784343,-0.39067726939838393,4.045765273463489
372,1791096803.8676717,1.207228017953726,-0.09004352276141833,-0.3656550011268034,1.264599107690975,2.916812373148064,-2.851411717938168,-0.40263766063144757,4.098836455764429
373,1791096803.8876717,1.092267080453726,-0.14273395244891832,-0.13573312612680338,1.1098846056022,2.9436909332479955,-2.8597735932355044,-0.4085088211418539,4.124378834685809
374,1791096803.897114,1.1066371976412261,0.2979496413010817,0.036708280123196615,1.146633059781669,2.956034491208035,-2.8630192888040855,-0.410935041120367,4.135684582907212
375,1791096803.917114,1.3269789945162263,0.7146830397385817,-0.1836335167518034,1.5183432970352617,2.9819082719680026,-2.8673438963188795,-0.41552359879214706,4.15765532762656
376,1791096803.9275749,1.2886586820162262,0.7769535475510817,-0.5237262901893034,1.5932944614299827,2.9954635460042325,-2.8680962749123053,-0.4181185795622692,4.168165213158095
377,1791096803.9475749,1.140167471078726,0.2883695631760817,-0.3896051964393034,1.238923353628032,3.021135523215622,-2.867720985864549,-0.4237056912972886,4.1869571308100335
378,1791096804.002812,0.972516103891226,0.12071819598858169,-0.1548932823768034,0.9921453442394252,3.090154849614229,-2.8651452056782483,-0.439077603612166,4.236850621181869
379,1791096804.022812,1.058736807016226,0.2500492506760817,-0.2698542198768034,1.1208343116981658,3.1144433985992896,-2.8637963223061234,-0.44444564738490766,4.254247171029459
380,1791096804.0038123,1.2551284085787262,0.1255082350510817,-0.3129645714393034,1.2996332028934896,3.1144433985992896,-2.8637963223061234,-0.44444564738490766,4.254247171029459
381,1791096804.0238123,1.0252065335787262,0.1446683913010817,-0.2794342980018034,1.0724089270581028,3.138362549728561,-2.861937654179077,-0.4499557497177002,4.271120088062476
382,1791096804.0478988,0.991676260141226,0.3458500319260817,-0.5189362511268034,1.171464417831161,3.1664914848057837,-2.859148865397626,-0.4570385551655294,4.290720778465999
383,1791096804.0678988,1.1832778226412262,0.3314799147385817,-0.5380964073768034,1.341481674515713,3.1896070226191546,-2.85616457333159,-0.46362307305600253,4.306531711547675
384,1791096804.0921576,1.3413491117037262,0.02012737567608168,-0.09741281362680339,1.3450322698651775,3.218032534145195,-2.8524480424739487,-0.47156797975442166,4.326033932525273
385,1791096804.1121576,1.154537588266226,0.3266898756760817,0.08460867074819661,1.2028474320355944,3.241696232966424,-2.8493233672075884,-0.4771547736103318,4.342224636718259
386,1791096804.1230605,1.101847158578726,0.7194730788010817,-0.09262277456430339,1.3191996249072804,3.2545064321550115,-2.847020013020164,-0.4797500958035841,4.350574126009029
387,1791096804.1430604,1.121007314828726,0.6907328444260817,-0.2027936730018034,1.3322516789548506,3.2778146208922525,-2.841313271777801,-0.4842398965858526,4.3648159267901745
388,1791096804.1675777,1.101847158578726,0.2787894850510817,0.07502859262319661,1.139043470440912,3.306188809560919,-2.8335841713821477,-0.4891531408964372,4.381706801695219
389,1791096804.1875777,1.020416494516226,0.28357952411358167,0.16603933481069663,1.0720243604889057,3.329046505118044,-2.8273813583340615,-0.4921983207374545,4.395326514109094
390,1791096804.2274501,0.915035635141226,0.5182914381760817,0.04628835824819662,1.0526437386762206,3.3735685101699993,-2.8144722624395153,-0.4967236671731094,4.4214197957649235
391,1791096804.24745,0.953355947641226,0.5087113600510818,-0.13573312612680338,1.0890813983702394,3.39535347902337,-2.807427842782175,-0.49878725908163707,4.433831872068093
392,1791096804.2429454,1.087477041391226,0.08718792255108168,-0.0830426964393034,1.094122542873374,3.39535347902337,-2.807427842782175,-0.49878725908163707,4.433831872068093
393,1791096804.2629454,0.910245596078726,-0.06609332744891833,0.05107839731069661,0.9140702247561806,3.4166917596978665,-2.801546836856526,-0.5006050895462706,4.446690085396973
394,1791096804.3025594,0.704273916391226,0.12071819598858169,-0.0830426964393034,0.7193543783029916,3.45741359592395,-2.791483311636347,-0.5037605472639349,4.472120586634898
395,1791096804.3225594,0.704273916391226,0.06802776630108168,-0.2890143761268034,0.7643028430569362,3.4770018338607525,-2.7868815195406667,-0.5056727692937724,4.484635470830774
396,1791096804.3325453,0.828814932016226,-0.32475543682391833,-0.4135553917518034,0.9815438590948155,3.4864633225742145,-2.785120783734109,-0.5070105060736277,4.491033726539133
397,1791096804.3525453,0.924615713266226,-0.7271187180739184,-0.2459040245643034,1.2017007267573703,3.505200654360759,-2.7837011261403615,-0.5102770502710614,4.50508670893686
398,1791096804.3930821,0.9006655179537261,-0.47324664776141834,-0.1788434776893034,1.033027470283476,3.543031027305735,-2.7849047430272713,-0.5171960602930903,4.536105714483472
399,1791096804.4130821,0.8431850492037261,-0.24332477276141834,-0.14052316518930338,0.8887714735492505,3.5615117542280337,-2.7864843609033834,-0.5205767405321045,4.551907425667466
400,1791096804.4078085,0.8431850492037261,-0.34870563213641836,-0.0830426964393034,0.91621653254908,3.5615117542280337,-2.7864843609033834,-0.5205767405321045,4.551907425667466
401,1791096804.4278085,0.8431850492037261,-0.7462788743239184,-0.020772188626803387,1.126199213853043,3.5795437519895876,-2.7900229480585512,-0.5234600503856179,4.568519666965519
402,1791096804.4530568,0.7809145413912261,-0.9235103196364184,-0.02556222768930339,1.2096909766199253,3.60196847708186,-2.7969819897436268,-0.5266417354243805,4.5907120012403775
403,1791096804.4730568,0.7425942288912261,-0.7798091477614184,-0.11657296987680339,1.083114838334718,3.619352581443819,-2.804222574919659,-0.5289972057110306,4.609036276939373
404,1791096804.4830518,0.670743642953726,-0.7941792649489183,-0.0016120323768033873,1.0395289019964877,3.6277965983267344,-2.8084781820406532,-0.5300863736527917,4.618381688574664
405,1791096804.5030518,0.709063955453726,-0.7366987961989183,0.09897878793569662,1.027274846234365,3.644228327220106,-2.818012653044458,-0.5317928366750103,4.637283583604843
406,1791096804.573143,0.824024892953726,-0.6265278977614184,0.10855886606069662,1.040835845982029,3.701235698202383,-2.8535809757245176,-0.5357851937325178,4.704161546172449
407,1791096804.593143,0.833604971078726,-0.48282672588641834,0.10855886606069662,0.9694348469277069,3.7175487511702174,-2.8638717737504984,-0.536427826721985,4.723312933428585
408,1791096804.5876641,0.704273916391226,-0.3774458665114183,0.16124929574819663,0.8151493524716071,3.7175487511702174,-2.8638717737504984,-0.536427826721985,4.723312933428585
409,1791096804.607664,0.6611635648287261,-0.3678657883864183,0.1851994910606966,0.7789488745812084,3.7333438799195977,-2.873521688249711,-0.5360284512940234,4.741551425342897
410,1791096804.617756,0.871925283578726,-0.42055621807391835,0.060658475435696614,0.9699488044977744,3.741278798291933,-2.87825729116413,-0.5356710728546001,4.750628966671824
411,1791096804.6377559,0.905455557016226,-0.45408649151141833,0.09897878793569662,1.0177627955304385,3.7573115339492724,-2.8875465543025705,-0.534829599832868,4.768789968877877
412,1791096804.6475995,0.790494619516226,-0.3774458665114183,0.2666301551231966,0.9156630194846127,3.765270942739347,-2.892046638961563,-0.5342076493857648,4.777716698050272
413,1791096804.6675994,0.7425942288912261,-0.20500446026141833,0.41991140512319663,0.8773816761604767,3.781316559744199,-2.900692008981433,-0.5321037228114559,4.795362700338136
414,1791096804.7077274,0.967726064828726,-0.056513249323918324,0.4534416785606966,1.0701854230711523,3.8138287968908315,-2.916223243735528,-0.5258871565537581,4.8297210479204
415,1791096804.7277274,1.053946767953726,-0.056513249323918324,0.5013420691856967,1.1684782442838413,3.8306349178288395,-2.9229724979229035,-0.5218213712282728,4.846630751436896
416,1791096804.7385604,0.886295400766226,-0.12836383526141834,0.6737834754356966,1.1207055739098435,3.8399489250352774,-2.92623008990794,-0.5189947050702199,4.855655032006819
417,1791096804.7585604,0.790494619516226,-0.04693317119891832,0.6737834754356966,1.0397445060268873,3.8570803364506547,-2.9316050893752927,-0.5125375430334435,4.871762705110356
418,1791096804.7677898,0.852765127328726,0.02012737567608168,0.6546233191856966,1.0752419093679724,3.8649376214362032,-2.933731992326499,-0.5090851841268067,4.878902944832001
419,1791096804.7877898,0.905455557016226,-0.003822819636418322,0.6163030066856966,1.0953053344759016,3.8820475488743065,-2.9376251499876234,-0.500819779836617,4.8939508728057755
420,1791096804.8125906,0.852765127328726,0.04886761005108168,0.5061321082481967,0.9928575510615041,3.903352387912768,-2.941644884773067,-0.4900199675487752,4.912184245417954
421,1791096804.8325906,0.704273916391226,0.03928753192608168,0.42949148324819664,0.8258378737116714,3.9202915960596734,-2.944268026543363,-0.481213675493556,4.926354332743807
422,1791096804.8728046,0.570152822641226,0.1398783522385817,0.2953703894981966,0.6571787135802973,3.953086124729862,-2.9482108620909315,-0.46397662530607403,4.953192052173338
423,1791096804.8928046,0.6036830960787261,0.1494584303635817,0.2953703894981966,0.6884873055403842,3.968710347357542,-2.949443640975511,-0.45580377096637814,4.965645646856093
424,1791096804.9031942,0.536622549203726,0.1494584303635817,0.3049504676231966,0.635056194697963,3.9764978782280385,-2.9497550618706443,-0.451727209465168,4.971684601053728
425,1791096804.9231942,0.694693838266226,0.22130901630108168,0.18040945199819663,0.7510824055930904,3.991087240207528,-2.949708475341179,-0.44432887465673976,4.982668521716114
426,1791096804.933002,0.7234340726412261,0.2979496413010817,-0.0686725792518034,0.7853959315853434,3.9982117234889065,-2.949307096683321,-0.44116281265368745,4.987858655140425
427,1791096804.953002,0.713853994516226,-0.07567340557391833,-0.05430246206430339,0.719904679234808,4.012716578925823,-2.9482779697231023,-0.4358595137637681,4.998420835151751
428,1791096805.0074105,0.5030922757662261,-0.31038531963641836,-0.02556222768930339,0.5916876811848307,4.051223028719851,-2.9474736191177278,-0.4239222470388192,5.027894075590638
429,1791096805.0274105,0.383341299203726,-0.35828571026141837,0.007968045748196612,0.5247691793596256,4.064584040882307,-2.948225304882496,-0.42021883222092105,5.038795465257322
430,1791096805.0084114,0.685113760141226,-0.15710406963641832,-0.0686725792518034,0.7062425052149363,4.064584040882307,-2.948225304882496,-0.42021883222092105,5.038795465257322
431,1791096805.0284114,1.092267080453726,-0.16668414776141832,0.003178006685696613,1.1049167750941022,4.078265719789504,-2.9499112010531445,-0.4177187549865524,5.050615441070179
432,1791096805.052504,1.274288564828726,-0.19542438213641833,-0.1213630089393034,1.2948864875059345,4.096551182129956,-2.9522917691725064,-0.41537238127941334,5.066585881366643
433,1791096805.072504,1.192857900766226,-0.48282672588641834,-0.0016120323768033873,1.2868699302178872,4.113154266879675,-2.9549888927829073,-0.41390122359780707,5.0814674654588305
434,1791096805.0975263,0.8192348538912261,-0.47324664776141834,-0.05909250112680339,0.947945177284541,4.134586808822203,-2.9596513762539005,-0.41245064714600216,5.101417438808485
435,1791096805.1175263,0.747384267953726,-0.5019868821364184,-0.13573312612680338,0.9104930287212111,4.15149787981119,-2.9642818893510574,-0.4117573720896261,5.117757897661987
436,1791096805.128129,1.1066371976412261,-0.8660298508864184,-0.2985944542518034,1.4365974515985718,4.160592598443707,-2.96745632295053,-0.41179035024251137,5.126977578593112
437,1791096805.148129,1.3173989163912263,-1.2252827805739184,-0.4518757042518034,1.8550065901157313,4.1788107730509525,-2.975683054289955,-0.4129689303153476,5.146619517116152
438,1791096805.1880744,1.5569008695162263,-1.2396528977614183,-0.6051569542518034,2.0801188821093812,4.218350517569038,-2.9970341146365866,-0.418136548221624,5.191486564205785
439,1791096805.2080743,1.7197621976412263,-1.6947066086989182,-0.6722175011268035,2.506289862490916,4.240092867368276,-3.010522253084053,-0.4222518475343266,5.217272120847039
440,1791096805.2181377,1.5760610257662262,-2.2072407883864185,-0.9212995323768034,2.864380052160276,4.251879510204106,-3.0192360840128583,-0.42521465793021895,5.23211939902154
441,1791096805.2381377,1.5281606351412262,-2.394052311823918,-1.0793708214393034,3.0383881859826993,4.27644685658713,-3.040858175296036,-0.43322069663249324,5.265215696575918
442,1791096805.2629814,1.5712709867037262,-2.4371626633864185,-0.8925592980018034,3.034026443838477,4.308161584103218,-3.072689923819332,-0.44534818820015737,5.310368594685003
443,1791096805.2829814,1.7580825101412263,-2.4850630540114182,-0.8446589073768034,3.159088660466497,4.334857288896688,-3.1018550095251753,-0.4562525844900569,5.349827907145334
444,1791096805.2932658,2.007164541391226,-2.6048140305739182,-0.9739899620643034,3.4296387676102293,4.349429927317371,-3.1185287150214256,-0.46242155162203036,5.371833553867963
445,1791096805.3132658,1.9161537992037263,-2.7197749680739185,-1.0841608605018034,3.499175050009412,4.379403231341603,-3.154076952418871,-0.47570597632830264,5.417902754791715
446,1791096805.33761,1.7101821195162261,-2.9209566086989183,-0.8973493370643034,3.5017061876383404,4.417035523067271,-3.2011551506795985,-0.4930683090613619,5.477290705098764
447,1791096805.35761,1.5664809476412263,-2.7820454758864184,-0.6770075401893034,3.2637369377289303,4.4482297990251904,-3.242585173069545,-0.5075542620678981,5.527994055576527
448,1791096805.3832889,1.5904311429537261,-2.8874263352614182,-0.4997760948768034,3.334138300528127,4.488353716090269,-3.298718881863604,-0.5256299382724491,5.594921998948072
449,1791096805.4032888,1.4658901273287261,-2.9640669602614182,-0.6195270714393034,3.364274156866434,4.519501117080096,-3.344657874278502,-0.5392753901717868,5.6483134287773336
450,1791096805.4282262,1.3413491117037262,-2.983227116511418,-0.7823883995643034,3.3631819867396704,4.557762774660978,-3.404469112398938,-0.5563593964240016,5.716042969166085
451,1791096805.4482262,1.2503383695162262,-3.0071773118239182,-0.8781891808143034,3.3730813302279445,4.587733526006867,-3.454228425208226,-0.5704965399372576,5.771001578690157
452,1791096805.4584844,1.082687002328726,-3.1652486008864185,-0.8494489464393035,3.4514595989279426,4.6025949366853425,-3.4806710304113015,-0.5779891484421481,5.799398454052187
453,1791096805.4784844,1.0252065335787262,-3.059867741511418,-0.7201178917518034,3.306419333668335,4.630385246333537,-3.5338296350579474,-0.5927603191540319,5.854894039608289
454,1791096805.517633,1.020416494516226,-2.7724653977614184,-0.4375055870643034,2.9865072145865716,4.682629442970841,-3.639400322253474,-0.6207357736888117,5.963016527440884
455,1791096805.537633,1.082687002328726,-2.623974186823918,-0.4231354698768034,2.869929494603947,4.708470760801893,-3.693338283428721,-0.6341748734102984,6.017692444054576
456,1791096805.5632637,1.3413491117037262,-2.7676753586989182,-0.4375055870643034,3.1065504131319104,4.741279604601149,-3.762457631909717,-0.6504685829413118,6.087604545165215
457,1791096805.5832636,1.2886586820162262,-2.700614811823918,-0.3273346886268034,3.0101676961519837,4.766985607760329,-3.8165045829068127,-0.6624229081106264,6.1423662480458265
458,1791096805.577697,1.140167471078726,-2.7197749680739185,-0.3081745323768034,2.9651524887386826,4.766985607760329,-3.8165045829068127,-0.6624229081106264,6.1423662480458265
459,1791096805.597697,1.053946767953726,-2.743725163386418,-0.3704450401893034,2.962441744521027,4.791946113654582,-3.870659737762335,-0.6728881099175741,6.1965742769833785
460,1791096805.6527693,1.159327627328726,-2.8395259446364185,-0.3321247276893034,3.0850048577747318,4.859509816960796,-4.020475145009476,-0.7002846132011901,6.345821821660585
461,1791096805.6727693,1.3748793851412262,-2.9640669602614182,-0.3273346886268034,3.2837683028767555,4.884167011525674,-4.075426263821691,-0.7097306852875859,6.400617491614543
462,1791096805.6824782,1.5856411038912261,-2.9640669602614182,-0.2650641808143034,3.3719741510298546,4.896497007425847,-4.102417292123963,-0.7140597624996328,6.427705027991641
463,1791096805.7024782,1.6479116117037262,-2.9688569993239184,-0.2602741417518034,3.4055054237641778,4.922936814970446,-4.158577216458493,-0.7224278641526195,6.484672186652394
464,1791096805.7283618,1.5569008695162263,-2.7628853196364185,-0.3177546105018034,3.1872313376123125,4.958243540430402,-4.231483238216092,-0.7327553679088727,6.559463379783656
465,1791096805.7483618,1.5616909085787263,-2.786835514948918,-0.2602741417518034,3.205163538757841,4.986110316604049,-4.287691321347979,-0.7404053496109374,6.617687892175076
466,1791096805.74325,1.5569008695162263,-2.6766646165114185,-0.3177546105018034,3.1127868187975474,4.986110316604049,-4.287691321347979,-0.7404053496109374,6.617687892175076
467,1791096805.7632499,1.6335414945162263,-2.8443159836989182,-0.4231354698768034,3.307209526972749,5.01500592209666,-4.343549080437609,-0.7477807814076733,6.676516989409795
468,1791096805.772543,1.6287514554537261,-2.8347359055739183,-0.4375055870643034,3.2984799676070633,5.0286921781377485,-4.369568642508527,-0.7512936047175861,6.704126880105054
469,1791096805.792543,1.6143813382662262,-2.786835514948918,-0.4135553917518034,3.2471075366808906,5.058593367201877,-4.425599006793313,-0.7589962607426161,6.763975809200536
470,1791096805.8180487,1.6239614163912262,-2.8586861008864184,-0.4135553917518034,3.313663375687938,5.097200893104945,-4.497135246584802,-0.7689281227130573,6.840828372985556
471,1791096805.8380487,1.6048012601412263,-2.7724653977614184,-0.47582589956430343,3.23857403080915,5.127776524674369,-4.553261937168708,-0.7768819275990998,6.901436943485102
472,1791096805.8635926,1.4611000882662262,-2.547333561823918,-0.2650641808143034,2.9485557079826155,5.16684361738434,-4.624385723889542,-0.7869361144284148,6.978573259485809
473,1791096805.8835926,1.5808510648287262,-2.470692936823918,-0.1692633995643034,2.9380374020209103,5.197406454062629,-4.679247027610985,-0.7942788631594466,7.038413564618093
474,1791096805.8928971,1.6000112210787263,-2.547333561823918,-0.3321247276893034,3.026425452165485,5.211712032995373,-4.704443301437849,-0.7975323873085405,7.066101258835616
475,1791096805.912897,1.4131996976412262,-2.5952339524489183,-0.2938044151893034,2.969628543730952,5.242369090109895,-4.7581924149756825,-0.8044156853382232,7.1253009290618685
476,1791096805.967396,1.3413491117037262,-2.614394108698918,-0.09741281362680339,2.940027763699975,5.324636140620126,-4.903980359237664,-0.8219578894669892,7.285354361034457
477,1791096805.987396,1.4754702054537263,-2.461112858698918,-0.1980036339393034,2.876333476752651,5.354523135714175,-4.95706961640267,-0.8278729980332333,7.343625187442059
478,1791096805.9831383,1.4706801663912261,-2.4563228196364184,-0.3560749230018034,2.8849976251071454,5.354523135714175,-4.95706961640267,-0.8278729980332333,7.343625187442059
479,1791096806.0031383,1.3892495023287261,-2.4419527024489183,-0.2650641808143034,2.8219507792782186,5.384162718223319,-5.009043735491072,-0.8337848212258988,7.401008339981449
480,1791096806.028435,1.5233705960787263,-2.341361882136418,-0.3225446495643034,2.8118798848957263,5.421554510898156,-5.073996795907093,-0.8412555248441888,7.473045407168115
481,1791096806.048435,1.671861807016226,-2.494643132136418,-0.5093561730018034,3.045949764761396,5.451475540378752,-5.12490081783106,-0.8475238676889337,7.530039220764769
482,1791096806.058351,1.552110830453726,-2.5185933274489183,-0.4806159386268034,2.997224058949229,5.466482941896182,-5.1500818346584225,-0.8509018030584801,7.558426591306472
483,1791096806.078351,1.4515200101412262,-2.4036323899489185,-0.3081745323768034,2.8247708842059382,5.49671688885271,-5.200635192423488,-0.857876078580525,7.615540317474067
484,1791096806.133576,1.6287514554537261,-2.3605220383864185,-0.33691476675180343,2.887630024328952,5.580435860578947,-5.339019466044917,-0.8769169979363336,7.772732896099783
485,1791096806.153576,1.6527016507662262,-2.384472233698918,-0.47582589956430343,2.9399899432519656,5.611129404593437,-5.388736042753762,-0.8839975099098528,7.829731855631672
486,1791096806.1480484,1.5616909085787263,-2.537753483698918,-0.4518757042518034,3.0138452000818665,5.611129404593437,-5.388736042753762,-0.8839975099098528,7.829731855631672
487,1791096806.1680484,1.5185805570162263,-2.5952339524489183,-0.4135553917518034,3.0351860302357636,5.642024239540608,-5.438631575041904,-0.8915941436335576,7.887083811242798
488,1791096806.1926646,1.6431215726412263,-2.6048140305739182,-0.4806159386268034,3.117033255648044,5.68018333755554,-5.500432267567785,-0.9011925107402368,7.95810189805074
489,1791096806.2126646,1.7532924710787263,-2.691034733698918,-0.5907868370643035,3.2656900517293126,5.711630638382732,-5.551055610072039,-0.9094282485954749,8.016483186208777
490,1791096806.2232544,1.7389223538912262,-2.9209566086989183,-0.5333063683143034,3.440967036350258,5.728557728524642,-5.578296840146333,-0.9140276925253303,8.047932399599858
491,1791096806.2432544,1.791612783578726,-3.1844087571364184,-0.5285163292518034,3.6918376195460736,5.761026770683553,-5.631185526558356,-0.9230039631231732,8.108737028846969
492,1791096806.2976668,1.7628725492037263,-3.2945796555739184,-0.6195270714393034,3.7875834675824325,5.850617927081903,-5.779932360915007,-0.9484469194067726,8.278701575994685
493,1791096806.3176668,1.7964028226412263,-3.4334907883864183,-0.6770075401893034,3.933733761275784,5.883947682485175,-5.836497235237231,-0.9583408289163847,8.342898624070813
494,1791096806.2986677,1.791612783578726,-3.5915620774489185,-0.6865876183143034,4.071927931591424,5.883947682485175,-5.836497235237231,-0.9583408289163847,8.342898624070813
495,1791096806.3186677,1.7053920804537261,-3.7640034836989185,-0.7584382042518034,4.20134655593187,5.917848648592719,-5.897355628616473,-0.9693952973728519,8.41067555435315
496,1791096806.3434258,1.6431215726412263,-3.8789644211989183,-0.7871784386268035,4.285541200087215,5.959737645296345,-5.975583966610879,-0.9838970231281229,8.49671288763483
497,1791096806.3634257,1.6000112210787263,-3.9987153977614183,-0.7967585167518034,4.380021104274342,5.993365138696409,-6.0411154390721045,-0.9962304390954496,8.567845500574638
498,1791096806.4482763,1.5856411038912261,-3.9364448899489184,-0.8877692589393035,4.335664924676719,6.134903810911711,-6.32792957995346,-1.0514265923827955,8.876104743476088
499,1791096806.4682763,1.7437123929537262,-3.8023237961989182,-1.1799616417518035,4.346321276261866,6.168255403216637,-6.397001530483713,-1.0655868496780432,8.950110537559242
500,1791096806.4482763,1.9688442288912262,-3.8598042649489184,-1.1368512901893035,4.4796057211948055,6.168255403216637,-6.397001530483713,-1.0655868496780432,8.950110537559242
501,1791096806.4682763,1.7437123929537262,-3.6777827805739185,-0.9260895714393035,4.174237772905979,6.202654263457485,-6.467981588488817,-1.0818659775863735,9.02652423330689
502,1791096806.4626446,1.4898403226412262,-3.3999605149489183,-0.8446589073768034,3.8069416018623667,6.202654263457485,-6.467981588488817,-1.0818659775863735,9.02652423330689
503,1791096806.4826446,1.2455483304537263,-3.3616402024489185,-0.7153278526893034,3.6556407688734898,6.235733294828729,-6.538431185896771,-1.0982253275660383,9.101733404525238
504,1791096806.507569,1.101847158578726,-3.1556685227614185,-0.48540597768930344,3.377562723265366,6.275161757533785,-6.625241006853186,-1.1177992502559588,9.193527540937499
505,1791096806.527569,1.2311782132662261,-2.418002507136418,-0.5141462120643034,2.7616810541261807,6.305553818814094,-6.692810900252101,-1.1326491416447448,9.264805491026939
506,1791096806.5377786,1.3748793851412262,-2.4084224290114182,-0.5093561730018034,2.81961622055673,6.320736641442445,-6.725825607546865,-1.1398763226725195,9.29987955968225
507,1791096806.5577786,1.2503383695162262,-2.4754829758864183,-0.5859967980018034,2.8345642080320457,6.3499554488632235,-6.788124392573415,-1.153553361386955,9.366496267503933
508,1791096806.5976682,0.905455557016226,-2.547333561823918,-0.3273346886268034,2.7232161205648917,6.405939869461031,-6.908766904153651,-1.1794725918626312,9.495171475125364
509,1791096806.6176682,1.039576650766226,-2.1066499680739184,-0.12615304800180338,2.3525748218333695,6.432716637986851,-6.967162829950767,-1.1911989798249343,9.557204416209606
510,1791096806.6284587,1.3796694242037262,-1.3450337571364182,-0.2075837120643034,1.9379614354866679,6.446954355034197,-6.99673664956201,-1.1968467967466667,9.58905555589816
511,1791096806.6484587,1.2503383695162262,-1.0193111008864184,-0.2746442589393034,1.6363895097571044,6.473330114026366,-7.046875112407859,-1.2064679672793857,9.644584831453614
512,1791096806.8083935,0.776124502328726,-1.3498237961989183,-0.4279255089393034,1.6147797884234352,6.676919951967575,-7.416095990461263,-1.280292711793813,10.060759872524075
513,1791096806.8283935,0.579732900766226,-1.8336177415114183,-0.1932135948768034,1.9327637598686176,6.700593959702045,-7.460116831733075,-1.2890714908706462,10.110044899231562
514,1791096806.8083935,0.9198256742037261,-1.3833540696364182,0.15645925668569663,1.6686003871228785,6.700593959702045,-7.460116831733075,-1.2890714908706462,10.110044899231562
515,1791096806.8283935,1.5042104398287262,-0.43013629619891836,-0.01598214956430339,1.5645835579163387,6.723246416353359,-7.498743757654079,-1.295250305030433,10.15435244959745
516,1791096806.8093884,1.2503383695162262,-0.20021442119891833,-0.3177546105018034,1.305526654356649,6.723246416353359,-7.498743757654079,-1.295250305030433,10.15435244959745
517,1791096806.8293884,0.6036830960787261,-0.6744282883864183,-0.3656550011268034,0.9762122599701731,6.74590589221269,-7.528767370843413,-1.3011651256639787,10.1922821347876
518,1791096806.8103905,0.364181142953726,-0.8756099290114183,-0.0830426964393034,0.9519541701670168,6.74590589221269,-7.528767370843413,-1.3011651256639787,10.1922821347876
519,1791096806.8303905,1.001256338266226,-0.5594673508864183,-0.05909250112680339,1.1484815607207541,6.765559543517519,-7.554588342082096,-1.3062238751835482,10.225009621868491
520,1791096806.8528435,1.394039541391226,-0.16189410869891832,-0.34649484487680343,1.4455499378851902,6.788347796401159,-7.580442926845304,-1.3117342202164428,10.259894124041939
521,1791096806.8728435,0.8000746976412261,-0.11878375713641832,-0.4375055870643034,0.9195869950568155,6.808892727022781,-7.600439329946336,-1.3170822896437087,10.288945715377837
522,1791096806.868347,0.09114891639122599,-0.30080524151141835,-0.3417048058143034,0.464278033721851,6.808892727022781,-7.600439329946336,-1.3170822896437087,10.288945715377837
523,1791096806.888347,0.335440908578726,-0.31038531963641836,-0.2842243370643034,0.5381850272662418,6.825512632548337,-7.616338491617321,-1.3228786549272786,10.31243146166949
524,1791096806.912651,1.140167471078726,-0.22895465557391834,-0.2506940636268034,1.1896426395992827,6.8453695444967515,-7.633744286783284,-1.3298409349360192,10.339323621444084
525,1791096806.932651,1.097057119516226,0.1590385084885817,-0.0734626183143034,1.1109564919262611,6.862614658814303,-7.646023963023774,-1.3351970637230555,10.360497748538986
526,1791096806.942855,0.598893057016226,0.4656010084885817,-0.03035226675180339,0.7591959252688316,6.8713911263038705,-7.650871181884494,-1.3375992697845458,10.370198535175994
527,1791096806.9628549,0.301910635141226,0.3506400709885817,-0.2171637901893034,0.5111346229357192,6.887364260060842,-7.657722472892049,-1.3419727104167438,10.386404126457943
528,1791096807.018073,0.598893057016226,-0.04214313213641832,-0.13573312612680338,0.6155261317415068,6.928580194452119,-7.672523323273541,-1.3536976739172626,10.42618506691204
529,1791096807.038073,0.733014150766226,0.3123197584885817,0.2043596473106966,0.8225668618506643,6.943267166110077,-7.6766747832515385,-1.3572044882296244,10.439458735521827
530,1791096807.0329256,0.8815053617037261,1.0164555006760818,0.39596120981069666,1.402504462467707,6.943267166110077,-7.6766747832515385,-1.3572044882296244,10.439458735521827
531,1791096807.0529256,0.790494619516226,1.1457865553635818,0.3624309363731966,1.4384244010640244,6.958445011128216,-7.6747366662549625,-1.3578351660730397,10.448217848393002
532,1791096807.0627074,0.7234340726412261,0.7865336256760818,0.3336907019981966,1.1195273495442095,6.965865549028608,-7.672513312659763,-1.3575866556656193,10.451496778343582
533,1791096807.0827074,0.6803237210787261,0.6188822584885817,0.3815910926231966,0.9957245489108406,6.980867433978364,-7.666541195432703,-1.3560818444962885,10.456926986501285
534,1791096807.1080513,0.704273916391226,0.7290531569260817,0.2618401160606966,1.0469386330208665,6.999658045014571,-7.657546384033099,-1.3532379584892409,10.462527531292412
535,1791096807.1280513,0.8575551663912261,0.6572025709885817,0.09418874887319661,1.0845218315610725,7.0146050085849225,-7.649433531712079,-1.3507963156226004,10.466287186430792
536,1791096807.1526525,1.140167471078726,0.18777874286358168,0.06544851449819662,1.157379033172584,7.033918830810899,-7.639392047587051,-1.347948903488478,10.471546744468471
537,1791096807.1726525,1.312608877328726,0.01054729755108168,0.10855886606069662,1.3171326196432136,7.050944266938038,-7.63215567286048,-1.3457202683787213,10.477431856660681
538,1791096807.1826408,1.221598135141226,0.2979496413010817,0.11813894418569662,1.2629460806642836,7.0600700570453245,-7.628852704331501,-1.3446043804247998,10.48102779953529
539,1791096807.2026408,1.1449575101412262,0.4751810866135817,0.031918241060696614,1.2400578773655966,7.07915187558919,-7.622071395383729,-1.3424800665623753,10.488689925967977
540,1791096807.2582402,1.2647084867037262,0.18777874286358168,-0.0686725792518034,1.280415688654646,7.134290018636296,-7.603282790069738,-1.337613621755054,10.511765477639273
541,1791096807.2782402,1.2886586820162262,-0.24332477276141834,0.012758084810696613,1.3114918652066547,7.154979000850679,-7.597621340343893,-1.3362095383876305,10.521550763283004
542,1791096807.3025463,1.274288564828726,-0.30080524151141835,0.012758084810696613,1.3093730975172944,7.181023031082523,-7.592764938936901,-1.3347125935375324,10.535588683041627
543,1791096807.3225462,1.1066371976412261,-0.27206500713641835,-0.02556222768930339,1.1398766085834928,7.2028099605935285,-7.590227611170024,-1.333684816415329,10.548494760264612
544,1791096807.3035443,1.0299965726412261,-0.46366656963641834,-0.08783273550180339,1.1329581708416272,7.2028099605935285,-7.590227611170024,-1.333684816415329,10.548494760264612
545,1791096807.3235443,1.001256338266226,-0.6648482102614184,-0.03035226675180339,1.2022722893351052,7.224322099084963,-7.591025219279733,-1.3332641032190402,10.56371557928368
546,1791096807.378337,1.140167471078726,-0.7702290696364184,-0.0830426964393034,1.378452310111217,7.283217260987019,-7.598779976671525,-1.3327503835300278,10.609568058568774
547,1791096807.398337,1.116217275766226,-0.5834175461989184,-0.1548932823768034,1.2689794989901146,7.304874667692647,-7.603216438305045,-1.332947900313751,10.627645281216374
548,1791096807.4077058,1.0683168851412261,-0.7414888352614184,-0.14052316518930338,1.3079959555939027,7.315033181563844,-7.605913910161726,-1.3332341267053085,10.636594854218306
549,1791096807.4277058,1.092267080453726,-0.9666206711989184,-0.08783273550180339,1.4612041221053558,7.336706809165218,-7.613370669533526,-1.334096021717359,10.656945713971087
550,1791096807.4381256,1.135377432016226,-1.0145210618239184,-0.13573312612680338,1.5286459300780693,7.348045720449295,-7.618221088953194,-1.334652420762652,10.66828784549011
551,1791096807.4581256,1.125797353891226,-0.9235103196364184,-0.2459040245643034,1.4767395781925694,7.369936919380241,-7.6290415951998,-1.3361326412906938,10.691281321341005
552,1791096807.5123153,1.058736807016226,-1.0288911790114184,-0.2650641808143034,1.4999332334238007,7.429232185449617,-7.661896911380671,-1.3416183737720595,10.756304895585098
553,1791096807.5323153,1.020416494516226,-1.1773823899489184,-0.1596833214393034,1.5661985434766876,7.450952582054178,-7.675513443877967,-1.3439764375898977,10.781302039733793
554,1791096807.5137892,1.044366689828726,-1.1342720383864184,-0.1213630089393034,1.546610429238046,7.450952582054178,-7.675513443877967,-1.3439764375898977,10.781302039733793
555,1791096807.5337892,1.020416494516226,-1.0767915696364183,-0.2027936730018034,1.4972825987536242,7.472375336473193,-7.691615337441652,-1.3465247069869863,10.80788917665364
556,1791096807.5581212,1.010836416391226,-1.1007417649489184,-0.2746442589393034,1.519490757712542,7.498235725039879,-7.712240302479844,-1.3500311835506789,10.840884358207036
557,1791096807.5781212,1.058736807016226,-1.0672114915114184,-0.2027936730018034,1.5169012057330897,7.519407866973716,-7.729902199716873,-1.3531971971876982,10.868487721001971
558,1791096807.6026235,1.101847158578726,-0.9857808274489184,-0.10220285268930339,1.4819839485405089,7.545425872077551,-7.752067101265445,-1.3570546016751486,10.9027332869087
559,1791096807.6226234,1.1066371976412261,-0.9570405930739184,-0.1932135948768034,1.4757723663355813,7.566790209928821,-7.770359614081125,-1.3601740409760479,10.930913778589726
560,1791096807.647644,1.010836416391226,-1.0097310227614185,-0.1740534386268034,1.4393198388569828,7.593482078885356,-7.793502177448181,-1.3641803724795776,10.966340974130848
561,1791096807.667644,1.077896963266226,-1.0336812180739183,-0.03514230581430339,1.4938519691305687,7.614750686347609,-7.812291264814362,-1.3672162257130265,10.994798908091914
562,1791096807.6781495,1.1832778226412262,-1.0336812180739183,0.003178006685696613,1.571194884754859,7.626028324182018,-7.822309136441907,-1.3685968630449483,11.009899436453786
563,1791096807.6981494,1.116217275766226,-0.8947700852614183,-0.0638825401893034,1.4320040122634918,7.647727127534243,-7.841412810852614,-1.3709220781620544,11.03879125773374
564,1791096807.7077394,1.0252065335787262,-0.8947700852614183,0.031918241060696614,1.3611321449747789,7.658111147916186,-7.850486040472549,-1.3718927598809778,11.052551161162132
565,1791096807.7277393,0.9964662992037261,-0.9091402024489184,0.13250906137319662,1.3553743558528897,7.679551352448399,-7.869275969626789,-1.3733668415271738,11.08093632065648
566,1791096807.7527103,1.1114272367037261,-0.9905708665114183,0.05586843637319661,1.4898397317331982,7.706252890998943,-7.892774963977043,-1.3745784402780916,11.116280679278017
567,1791096807.7727103,1.1114272367037261,-1.0863716477614185,-0.011192110501803389,1.554219779466284,7.727765278998981,-7.9118882278943,-1.3753362687619992,11.144858966813658
568,1791096807.7976773,0.9581459867037261,-1.0720015305739183,-0.12615304800180338,1.443310640475371,7.754467321564808,-7.936210847872529,-1.3763975797764811,11.1807726191315
569,1791096807.8176773,0.804864736703726,-1.0624214524489184,-0.1692633995643034,1.3435760810035628,7.775293238801318,-7.955973735651901,-1.3775633500149462,11.209388199854475
570,1791096807.8283648,0.867135244516226,-1.1438521165114184,-0.2027936730018034,1.4496366684584894,7.786093072989218,-7.966718974682827,-1.3783910991606587,11.22460772521995
571,1791096807.8483648,0.915035635141226,-1.2109126633864185,-0.3033844933143034,1.5477861101300376,7.805944849905679,-7.987342801022492,-1.3804670069984548,11.253271043488915
572,1791096807.872794,0.891085439828726,-1.2971333665114182,-0.2746442589393034,1.597503583895923,7.8298648405631,-8.01335041568324,-1.3836813447712115,11.288717481179376
573,1791096807.892794,0.8383950101412261,-1.1869624680739184,-0.2411139855018034,1.4730655272765016,7.8491047697606176,-8.035175026050497,-1.386691810769161,11.31792373026072
574,1791096807.9328103,0.847975088266226,-1.0863716477614185,-0.2363239464393034,1.3982539522706956,7.886887287387037,-8.079114923357952,-1.393244609273057,11.37612498041582
575,1791096807.9528103,0.847975088266226,-1.1007417649489184,-0.2411139855018034,1.4102588902139697,7.9054821788959195,-8.101062369572135,-1.3967445599541983,11.405032019345686
576,1791096807.9925447,0.852765127328726,-1.1869624680739184,-0.1740534386268034,1.4718637377494972,7.9419519337242965,-8.144942822093254,-1.4038921998869898,11.46235610167731
577,1791096808.0125446,0.905455557016226,-1.2588130540114182,-0.006402071439303388,1.5506453679677479,7.960192513057721,-8.167385331882825,-1.4072209352220173,11.491349736428791
578,1791096807.9935677,0.833604971078726,-1.1151118821364183,0.07502859262319661,1.3942743801705626,7.960192513057721,-8.167385331882825,-1.4072209352220173,11.491349736428791
579,1791096808.0135677,0.790494619516226,-1.0863716477614185,0.12771902231069662,1.3495915119783328,7.978024778747456,-8.18992901875844,-1.4092343266381424,11.519972139288585
580,1791096808.0373676,0.766544424203726,-1.0336812180739183,0.14208913949819663,1.2947109864521653,7.998841356633952,-8.216516158234002,-1.4107892596499276,11.553481170723469
581,1791096808.0573676,0.8623452054537261,-1.0863716477614185,0.07502859262319661,1.3890543186426894,8.016153723596613,-8.238687113093722,-1.4115742535822482,11.581331000414618
582,1791096808.08205,0.886295400766226,-1.0528413743239184,-0.04951242300180339,1.3771150921179944,8.0375516026108,-8.265904713957582,-1.41235048338074,11.615599441818034
583,1791096808.10205,0.785704580453726,-1.0576314133864184,-0.14531320425180339,1.3255307697890855,8.054797299968033,-8.287816429008254,-1.4131773465737805,11.643226825815118
584,1791096808.112627,0.8192348538912261,-1.0432612961989183,-0.11178293081430339,1.331178162981297,8.06382276347108,-8.299332793171054,-1.4137529864839211,11.657738197406522
585,1791096808.132627,0.948565908578726,-1.1821724290114184,-0.01598214956430339,1.515771870677523,8.080980774253815,-8.321180790349644,-1.4148698398382884,11.685296602278768
586,1791096808.1578722,0.9820961820162261,-1.1773823899489184,-0.05430246206430339,1.5341743578481946,8.103045469161513,-8.349089533760946,-1.4162012120347542,11.720591614377842
587,1791096808.1778722,0.852765127328726,-1.0288911790114184,-0.03993234487680339,1.3369442818617552,8.120656013109215,-8.371192548444927,-1.4172391034532574,11.748637599430145
588,1791096808.232776,0.728224111703726,-1.0049409836989183,-0.0782526573768034,1.2435192865295503,8.168258824719107,-8.431142850507236,-1.4201475910849986,11.824611671159666
589,1791096808.252776,0.8000746976412261,-1.1246919602614185,-0.0830426964393034,1.382731939572628,8.185290648106477,-8.452899858520338,-1.4212900961690245,11.852027866556028
590,1791096808.232776,0.895875478891226,-1.3115034836989183,-0.1213630089393034,1.5929103055011553,8.185290648106477,-8.452899858520338,-1.4212900961690245,11.852027866556028
591,1791096808.252776,0.8431850492037261,-1.2444429368239183,-0.13094308706430338,1.5088887772998905,8.202367063221162,-8.475559359013072,-1.4227546319011255,11.880158358816836
592,1791096808.292444,0.867135244516226,-1.1199019211989183,-0.11657296987680339,1.421159070158278,8.236244493106925,-8.52079507798485,-1.4259600721445607,11.936206861419398
593,1791096808.312444,0.895875478891226,-1.0336812180739183,-0.0782526573768034,1.3701143064226045,8.253407372885246,-8.543411475538125,-1.4276260200448203,11.964394216017043
594,1791096808.3378742,1.006046377328726,-1.1055318040114184,-0.11178293081430339,1.4989413953315285,8.275584219007632,-8.571934977065103,-1.429788999201801,12.000319162387255
595,1791096808.3578742,0.943775869516226,-1.1725923508864184,-0.1213630089393034,1.510104199443617,8.293334078282559,-8.594420001272823,-1.4315846602797238,12.028835352262055
596,1791096808.3670316,0.8383950101412261,-1.0672114915114184,-0.09262277456430339,1.360303473130802,8.301466164652295,-8.604709275003652,-1.432430481663163,12.041894339139441
597,1791096808.3870316,0.9820961820162261,-1.0959517258864184,-0.10220285268930339,1.4751503378646187,8.319293437866992,-8.627055193900999,-1.4342929165679168,12.070373680813196
598,1791096808.3971503,0.8575551663912261,-1.0959517258864184,-0.03514230581430339,1.3920294646794114,8.328356106962627,-8.638328414710829,-1.4351980813188083,12.08478492888489
599,1791096808.4171503,0.915035635141226,-1.1630122727614183,-0.11657296987680339,1.4844113370214755,8.346240748759156,-8.660656458116458,-1.4369463781440885,12.113278656723105
600,1791096808.4426074,0.9389858304537261,-1.1246919602614185,-0.0830426964393034,1.4674884955942435,8.369130529693347,-8.689181711308072,-1.439219035657355,12.149715061176307
601,1791096808.4626074,0.905455557016226,-1.0576314133864184,-0.03993234487680339,1.3928490817316417,8.387182717948315,-8.711504024722677,-1.4409211522315104,12.178316389549028
602,1791096808.5034873,0.9773061429537261,-1.0193111008864184,-0.0830426964393034,1.4145736130994673,8.424319135154843,-8.756654715938284,-1.4442554509956869,12.236585655844975
603,1791096808.5234873,0.9629360257662261,-1.0145210618239184,-0.1501032433143034,1.4067799253103728,8.442672720524744,-8.778481431895253,-1.445991741824775,12.265045904253594
604,1791096808.517818,0.7809145413912261,-1.1007417649489184,-0.0782526573768034,1.3518814417121274,8.442672720524744,-8.778481431895253,-1.445991741824775,12.265045904253594
605,1791096808.537818,0.785704580453726,-1.1917525071364183,-0.12615304800180338,1.4330109272200438,8.460506519748916,-8.800386929834966,-1.4478439737101696,12.293218978678158
606,1791096808.563626,0.924615713266226,-1.2109126633864185,-0.2459040245643034,1.5432733020645832,8.483377943721175,-8.829064484411166,-1.4505957415671678,12.329813827116705
607,1791096808.583626,0.895875478891226,-1.2109126633864185,-0.1980036339393034,1.5192457967956807,8.501174254139498,-8.851587336369251,-1.4530742122722304,12.35847833428482
608,1791096808.6229722,0.8383950101412261,-1.1534321946364183,-0.08783273550180339,1.4286450259176422,8.536051300617705,-8.896227508859981,-1.458062243814822,12.415030455178618
609,1791096808.6429722,0.886295400766226,-1.1438521165114184,-0.03514230581430339,1.4474640525847138,8.553707360808872,-8.918960729399219,-1.460401842308766,12.443735116432695
610,1791096808.6679978,0.9820961820162261,-1.1390620774489184,-0.0638825401893034,1.5053425875707271,8.57599297947534,-8.947424387334769,-1.4630760759365644,12.4797696435095
611,1791096808.6879978,0.943775869516226,-1.1917525071364183,-0.05430246206430339,1.521162610483604,8.594020485281979,-8.970256070538413,-1.465069969741001,12.50876141305423
612,1791096808.697641,0.8575551663912261,-1.2252827805739184,-0.05430246206430339,1.4965518745307433,8.602711497766448,-8.981361281110505,-1.4659656760608917,12.52280124169599
613,1791096808.7176409,0.833604971078726,-1.2157027024489184,-0.04472238393930339,1.474730619528184,8.620569803379206,-9.004600364010688,-1.4676932726081537,12.551939092942336
614,1791096808.7123957,0.871925283578726,-1.1965425461989183,-0.05430246206430339,1.4815250664076791,8.620569803379206,-9.004600364010688,-1.4676932726081537,12.551939092942336
615,1791096808.7323956,0.9389858304537261,-1.1773823899489184,-0.12615304800180338,1.5112373319485082,8.63836334226582,-9.02802709517326,-1.469338400678753,12.58115852375661
616,1791096808.7873857,0.871925283578726,-1.1773823899489184,-0.13573312612680338,1.4713621151279597,8.687416914415866,-9.09248887609856,-1.4742632808471707,12.661675198334112
617,1791096808.8073857,0.766544424203726,-1.2109126633864185,-0.10699289175180339,1.4371316263699803,8.70503935794771,-9.115999450758165,-1.4761498791113516,12.69086973675336
618,1791096808.8029318,0.867135244516226,-1.1917525071364183,-0.09262277456430339,1.476745255254319,8.70503935794771,-9.115999450758165,-1.4761498791113516,12.69086973675336
619,1791096808.8229318,0.8767153226412261,-1.1821724290114184,-0.0686725792518034,1.4733897420607223,8.722470286346775,-9.139610120128959,-1.478009398889045,12.720002862710778
620,1791096808.8475964,0.891085439828726,-1.1199019211989183,-0.0830426964393034,1.4335653677498255,8.74401238873745,-9.168618449924665,-1.4802392873861734,12.755878067879706
621,1791096808.8675964,0.809654775766226,-1.1246919602614185,-0.04472238393930339,1.3865327089625201,8.761411286218857,-9.191979188153683,-1.4819678746553857,12.784797139698549
622,1791096808.8771434,0.790494619516226,-1.1246919602614185,-0.03514230581430339,1.3751540752289255,8.769616594920715,-9.20306836783103,-1.4827264300174343,12.79848117048086
623,1791096808.8971434,0.847975088266226,-1.1773823899489184,-0.08783273550180339,1.453618117631887,8.786685189102164,-9.226267571197228,-1.4842616240878228,12.827037166721421
624,1791096808.9522278,0.8575551663912261,-1.2444429368239183,-0.11178293081430339,1.5154321199039755,8.833690456580584,-9.290584414183485,-1.4886803339559986,12.906014682172778
625,1791096808.9722278,0.776124502328726,-1.2731831711989183,-0.1213630089393034,1.4960259391059862,8.850647582043637,-9.314210098522958,-1.4903937399798002,12.934826859341138
626,1791096808.967766,0.6994838773287261,-1.2683931321364184,-0.08783273550180339,1.4511421094156807,8.850647582043637,-9.314210098522958,-1.4903937399798002,12.934826859341138
627,1791096808.987766,0.7809145413912261,-1.2827632493239183,-0.10699289175180339,1.5055751570937064,8.867001099590865,-9.338346893077322,-1.492190638313971,12.963605366435077
628,1791096809.013428,0.905455557016226,-1.3498237961989183,-0.14052316518930338,1.6314474574656836,8.8880824625195,-9.369738092908612,-1.4946267769879313,13.000919621039843
629,1791096809.033428,0.8815053617037261,-1.3115034836989183,-0.1501032433143034,1.5873323767000687,8.90472843759414,-9.394525459368914,-1.4966765579030172,13.030400526192773
630,1791096809.0575686,0.833604971078726,-1.3354536790114182,-0.0638825401893034,1.5755680739128137,8.924912097900538,-9.424749144856044,-1.499167015425811,13.06627162349141
631,1791096809.0775685,0.7234340726412261,-1.3067134446364181,-0.03993234487680339,1.4941390417291172,8.941461134819017,-9.449996131193362,-1.5010765359298257,13.096006447454414
632,1791096809.0875707,0.795284658578726,-1.2971333665114182,-0.04951242300180339,1.5223285252268761,8.9496352670754,-9.462681705080154,-1.5019553541896307,13.110842320435303
633,1791096809.1075706,0.771334463266226,-1.2204927415114184,-0.0830426964393034,1.446186528680227,8.965878237226345,-9.488018989787514,-1.5036478572136076,13.140412238352363
634,1791096809.1174586,0.8431850492037261,-1.2204927415114184,-0.01598214956430339,1.483515752659015,8.973901463411108,-9.500476891808786,-1.504432546929519,13.154971909322558
635,1791096809.1374586,0.8767153226412261,-1.3402437180739182,0.022338162935696612,1.6016809839396393,8.990275367857844,-9.525736434558842,-1.5057721029116244,13.184538499185331
636,1791096809.2228887,0.785704580453726,-1.2923433274489182,0.017548123873196615,1.512544511873676,9.060377046594967,-9.634316066324386,-1.5103801803451975,13.311338271619451
637,1791096809.2428887,0.613263174203726,-1.2588130540114182,0.017548123873196615,1.4003606544156588,9.076425225543533,-9.659749362166021,-1.5112445102536725,13.340768815346502
638,1791096809.2238872,0.7186440335787261,-1.3019234055739182,-0.09262277456430339,1.4899774425633028,9.076425225543533,-9.659749362166021,-1.5112445102536725,13.340768815346502
639,1791096809.2438872,0.737804189828726,-1.3977241868239183,-0.1213630089393034,1.5851551674521356,9.091902885155926,-9.685439321810605,-1.5122856870700372,13.370020229188086
640,1791096809.252583,0.785704580453726,-1.3833540696364182,-0.1596833214393034,1.5989055421980043,9.098616633585522,-9.696747438411329,-1.5128537735834962,13.382842077434136
641,1791096809.272583,0.7234340726412261,-1.4504146165114182,-0.1644733605018034,1.629144224297834,9.1140054203059,-9.723104954625402,-1.5144505921220202,13.41258458895992
642,1791096809.297554,0.733014150766226,-1.5701655930739182,-0.1501032433143034,1.7393276627910492,9.13306473407137,-9.756734385950685,-1.516734393043716,13.450175483382077
643,1791096809.317554,0.632423330453726,-1.4695747727614183,-0.09741281362680339,1.6028407712239063,9.1480882564593,-9.784188533710115,-1.5186604529564978,13.480511621690292
644,1791096809.342819,0.598893057016226,-1.1917525071364183,-0.03993234487680339,1.3343693357446202,9.166553141661575,-9.818710649184522,-1.520988835753329,13.518364632965095
645,1791096809.362819,0.646793447641226,-0.8947700852614183,-0.01598214956430339,1.1041787439065491,9.180846091458696,-9.845069240890382,-1.5226394006120785,13.547389197084236
646,1791096809.3877537,0.8192348538912261,-0.7175386399489183,-0.0782526573768034,1.0918474820397093,9.198734371014824,-9.876017387352027,-1.5245647807635303,13.582221145104125
647,1791096809.4077537,0.771334463266226,-0.5690474290114184,-0.12615304800180338,0.966791819476586,9.213316063245511,-9.899047038786655,-1.5261840714039066,13.609025056085965
648,1791096809.401959,0.847975088266226,-0.4061861008864183,-0.08783273550180339,0.9443322976045854,9.213316063245511,-9.899047038786655,-1.5261840714039066,13.609025056085965
649,1791096809.421959,0.895875478891226,-0.19542438213641833,-0.02556222768930339,0.9172987464814416,9.22853172694755,-9.917831798376898,-1.5277969327879266,13.633170903498923
650,1791096809.4779148,0.9581459867037261,-0.15231403057391832,-0.0734626183143034,0.9729542908254849,9.272497270749316,-9.963963701808805,-1.5320480994631374,13.696968630543239
651,1791096809.4979148,1.039576650766226,-0.10441363994891832,-0.08783273550180339,1.0484924465400007,9.288851043986742,-9.978364147804665,-1.533581591171328,13.718687155859582
652,1791096809.4932146,0.891085439828726,0.05844768817608168,-0.05430246206430339,0.8946497363293233,9.288851043986742,-9.978364147804665,-1.533581591171328,13.718687155859582
653,1791096809.5132146,0.7425942288912261,0.28357952411358167,-0.11178293081430339,0.8027197262435224,9.305578754134816,-9.988314036240133,-1.5351198889862963,13.73742356883263
654,1791096809.552243,0.814444814828726,0.5182914381760817,-0.2123737511268034,0.9884578804661828,9.33788281129322,-10.002470823255145,-1.5386203260728422,13.769997475501595
655,1791096809.572243,0.891085439828726,0.3985404616135817,-0.2411139855018034,1.0054868047977978,9.354512097704893,-10.007261986609727,-1.5408252765757018,13.785003866074389
656,1791096809.5677614,0.752174307016226,0.3698002272385817,-0.2267438683143034,0.8682921040866263,9.354512097704893,-10.007261986609727,-1.5408252765757018,13.785003866074389
657,1791096809.5877614,0.637213369516226,0.5901420241135817,-0.2602741417518034,0.9066703457043995,9.370705990843721,-10.008304056685558,-1.5437453978271631,13.797080514051354
658,1791096809.6421776,0.6420034085787261,0.8248539381760818,-0.33691476675180343,1.0982094317600428,9.413378199742997,-10.004939140976179,-1.5529359879999034,13.824691914428294
659,1791096809.6621776,0.747384267953726,0.7865336256760818,-0.2602741417518034,1.1157782114598436,9.428793366899692,-10.001470839433921,-1.5567029732447533,13.833108380065838
660,1791096809.643575,0.785704580453726,0.5470316725510818,-0.1980036339393034,0.977640413226238,9.428793366899692,-10.001470839433921,-1.5567029732447533,13.833108380065838
661,1791096809.663575,0.637213369516226,0.4608109694260817,-0.14531320425180339,0.7996896617835908,9.444019886477442,-9.995752934914693,-1.5605238984570957,13.8397912986321
662,1791096809.6877398,0.646793447641226,0.5853519850510817,-0.1836335167518034,0.8914594655897148,9.461984766055611,-9.987984557612661,-1.5650441990832977,13.846961926042178
663,1791096809.7077398,0.594103017953726,0.7769535475510817,-0.2363239464393034,1.0062128098243348,9.476484376504418,-9.980476058752517,-1.5688541598125496,13.851893800929375
664,1791096809.7483904,0.804864736703726,0.8152738600510817,-0.2746442589393034,1.178095149060579,9.505799829970481,-9.962649606912928,-1.5769942851910912,13.86006957317006
665,1791096809.7683904,0.804864736703726,0.8535941725510817,-0.2554841026893034,1.200709116534593,9.520474072613254,-9.952691328816258,-1.5811936574426175,13.863465102070704
666,1791096809.7776306,0.7617543851412261,0.9254447584885818,-0.13094308706430338,1.2057627612203847,9.527322431753735,-9.947547751549337,-1.5831105777530197,13.864696826449025
667,1791096809.7976305,0.6803237210787261,0.8727543288010817,-0.05909250112680339,1.108166236443275,9.542085124635005,-9.935387327092021,-1.5869223715122516,13.866565273286945
