imu_index,t_imu,ax,ay,az,mag
0,1787760688.191909,2.9405091796875,-1.4308325683593752,0.90004833984375,3.3917492667589433
1,1787760688.211909,2.4806654296875,-1.1242700683593752,0.004311035156249891,2.723545987436155
2,1787760688.2219317,2.2938539062500003,-1.0045190917968752,-0.32620166015625013,2.5253181724470877
3,1787760688.2419317,2.7105873046875,-1.2296509277343752,0.2342329101562499,2.9856640796665856
4,1787760688.2519126,1.9441810546875,-2.0104272949218753,-0.22561083984375013,2.8058079286771735
5,1787760688.2719126,2.0974623046875003,-2.4175806152343755,0.2438129882812499,3.2099048154106775
6,1787760688.3113356,1.7669496093750001,-1.6368042480468752,0.0665815429687499,2.409496248255818
7,1787760688.3313355,1.786109765625,-0.8033374511718752,0.1336420898437499,1.9630077339364005
8,1787760688.3412127,1.4555970703125,-1.2200708496093753,0.1480122070312499,1.905057301657653
9,1787760688.3612127,1.6567787109375,-1.5074731933593752,0.5503754882812499,2.3065784842085173
10,1787760688.371733,1.9441810546875,-1.2871313964843751,0.86172802734375,2.485784061082412
11,1787760688.391733,1.8579603515625,-0.9805688964843752,0.7180268554687499,2.2201564345570732
12,1787760688.4317307,2.4423451171875,-0.12315190429687518,0.98147900390625,2.635055425999684
13,1787760688.4517307,2.48545546875,0.025339306640624826,0.94794873046875,2.6602138566659685
14,1787760688.4617317,2.2986439453125,-0.5973657714843752,0.96710888671875,2.564353612712825
15,1787760688.4817317,1.9154408203125002,-1.9385767089843753,0.8904682617187499,2.8670414921770013
16,1787760688.521238,2.044771875,-2.800783740234375,1.11560009765625,3.6428073182976486
17,1787760688.541238,2.3848646484375,-2.4367407714843754,1.02937939453125,3.5615876960516797
18,1787760688.552244,3.8937269531250003,-1.7326050292968753,0.0857416992187499,4.262673036021159
19,1787760688.572244,9.967496484375001,-2.321779833984375,2.45202099609375,10.52397523414081
20,1787760688.5817795,5.359478906250001,-2.288249560546875,0.4449946289062499,5.844494881308143
21,1787760688.6017795,2.811178125,-3.0354956542968754,0.70844677734375,4.197481763398439
22,1787760688.6429806,3.1416908203125002,-0.8464478027343753,0.4976850585937499,3.2915627763627944
23,1787760688.6629806,2.9884095703125,-0.4536645996093752,0.9383686523437499,3.164954826940742
24,1787760688.6715844,3.2087513671875003,-1.5697437011718753,0.94794873046875,3.6957796767926716
25,1787760688.6915843,2.79201796875,-3.1217163574218754,0.6557563476562499,4.239161914990938
26,1787760688.7014313,3.117740625,-3.126506396484375,0.4641547851562499,4.439683380221674
27,1787760688.7214313,2.9596693359375,-3.4905493652343753,0.3779340820312499,4.591994296554344
28,1787760688.7613766,3.0458900390625003,-3.0115454589843753,1.09643994140625,4.421428810543094
29,1787760688.7813766,2.8063880859375003,-1.2775513183593752,1.01979931640625,3.2477595517027393
30,1787760688.790884,2.590836328125,-0.08004155273437517,0.58390576171875,2.657025680693492
31,1787760688.810884,2.514195703125,-0.6596362792968752,0.72281689453125,2.6979185157444316
32,1787760688.8214922,2.3034339843750002,-2.254719287109375,0.9096284179687499,3.349177666653865
33,1787760688.8414922,2.3273841796875,-2.8630542480468755,0.9096284179687499,3.800160602645005
34,1787760688.882027,2.7824378906250002,-1.8140356933593753,0.7563471679687499,3.4065741075840226
35,1787760688.902027,3.146480859375,-0.8608179199218752,0.6174360351562499,3.320026588324457
36,1787760688.911008,3.271021875,-1.0811597167968752,0.7323969726562499,3.522058455720015
37,1787760688.9310079,2.9500892578125,-2.1732886230468753,0.7707172851562499,3.7443577822858103
38,1787760688.9416902,2.63873671875,-2.7959937011718754,0.72281689453125,3.911901904558973
39,1787760688.9616902,3.06026015625,-3.4043286621093753,1.83410595703125,4.931388295927244
40,1787760689.0015495,3.2518617187500003,-2.714563037109375,2.96934521484375,5.17305210927047
41,1787760689.0215495,2.9884095703125,-0.5829956542968752,2.97892529296875,4.259632800365935
42,1787760689.0325518,1.8771205078125002,-0.6452661621093752,2.09276806640625,2.8843765358536975
43,1787760689.0525517,2.8542884765625,-0.7027466308593752,2.08318798828125,3.6028443942447694
44,1787760689.061804,3.472203515625,-1.3254517089843751,1.84368603515625,4.148758571307613
45,1787760689.081804,3.050680078125,-1.7182349121093752,1.22098095703125,3.7080688571941613
46,1787760689.1216,2.6722669921875,-1.6272241699218752,0.8521479492187499,3.242688005971355
47,1787760689.1416,2.5860462890625002,-1.8331958496093752,1.01979931640625,3.3298998600470893
48,1787760689.1516001,2.8255482421875002,-1.9960571777343752,1.57544384765625,3.8013143046624966
49,1787760689.1716,2.6339466796875,-1.8954663574218753,1.14434033203125,3.4409275812007944
50,1787760689.1812003,2.75369765625,-1.7038647949218753,0.90004833984375,3.360966086628426
51,1787760689.2012002,2.8590785156250003,-1.6415942871093752,0.88088818359375,3.412495531714831
52,1787760689.2417278,2.763277734375,-1.7038647949218753,0.74197705078125,3.3300734256999256
53,1787760689.2617278,2.8447083984375,-1.9002563964843753,0.96710888671875,3.555086474797907
54,1787760689.2712543,3.2183314453125003,-1.6894946777343753,1.34552197265625,3.8758842780558855
55,1787760689.2912543,3.3285023437500003,-1.2871313964843751,1.56586376953125,3.8971225832523766
56,1787760689.3022363,2.7680677734375,-1.1194800292968752,1.23535107421875,3.231335174647036
57,1787760689.3222363,2.341754296875,-1.4643628417968753,1.21140087890625,3.015901823465542
58,1787760689.361078,2.1357826171875,-1.8188257324218753,1.11560009765625,3.0189829430937323
59,1787760689.381078,2.1645228515625,-1.8140356933593753,1.09643994140625,3.029532177883085
60,1787760689.3915834,2.48545546875,-1.4020923339843752,1.31678173828125,3.142811789851251
61,1787760689.4115834,2.351334375,-1.4260425292968752,1.02458935546875,2.934647165462986
62,1787760689.4215844,2.820758203125,-1.5601636230468752,1.3982124023437499,3.5136569686358983
63,1787760689.4415843,2.90697890625,-1.8284058105468752,1.68561474609375,3.8255576380016443
64,1787760689.4820905,2.3082240234375,-1.9098364746093752,1.40779248046875,3.310174190308831
65,1787760689.5020905,1.94897109375,-2.3169897949218754,1.47485302734375,3.3678066284022616
66,1787760689.5110903,1.6807289062500002,-3.270207568359375,1.54670361328125,3.9889095331677473
67,1787760689.5310903,2.4231849609375002,-3.3181079589843754,2.05923779296875,4.595881424751942
68,1787760689.5411303,2.7010072265625,-2.9301147949218755,1.97780712890625,4.448902537538364
69,1787760689.5611303,2.1645228515625,-3.9647632324218756,2.45681103515625,5.142025585950165
70,1787760689.6013823,0.26766738281249997,-6.838786669921875,2.61488232421875,7.326544786871535
71,1787760689.6213822,1.1681947265625001,-6.460373583984375,4.83746044921875,8.154883773639403
72,1787760689.6313844,5.522340234375001,-1.1051099121093753,3.18968701171875,6.472373043541806
73,1787760689.6513844,3.4003529296875,-1.3015015136718753,2.95497509765625,4.689156007672715
74,1787760689.6653886,0.291617578125,-3.955183154296875,2.86396435546875,4.891912348489168
75,1787760689.6853886,1.37416640625,-3.3276880371093753,3.20884716796875,4.822710973277163
76,1787760689.7219203,2.3082240234375,-1.3637720214843752,3.47229931640625,4.386870731133172
77,1787760689.7419202,2.092672265625,-1.2057007324218751,3.97525341796875,4.6514117431755
78,1787760689.7519202,3.1704310546875,-1.8906763183593753,3.75491162109375,5.2655152925005115
79,1787760689.7719202,6.830020898437501,-0.7362769042968752,3.66869091796875,7.787848368097595
80,1787760689.781792,6.1642054687500005,-1.0476294433593751,1.70956494140625,6.482096019070239
81,1787760689.801792,4.698453515625,-1.2871313964843751,2.19335888671875,5.342564541140598
82,1787760689.8408866,3.9799476562500002,-1.1961206542968752,3.42918896484375,5.38795183003074
83,1787760689.8608866,4.229029687500001,-0.5590454589843752,3.41960888671875,5.4672615504558815
84,1787760689.8713343,4.947535546875001,-0.3770239746093752,1.68082470703125,5.238838302599981
85,1787760689.8913343,5.268468164062501,-1.3733520996093753,0.96231884765625,5.52891583855244
86,1787760689.9317222,5.6181410156250005,-1.2871313964843751,0.7515571289062499,5.8124911889200765
87,1787760689.9517221,5.7378919921875005,-0.5638354980468752,0.4354145507812499,5.781946109563738
88,1787760689.9617352,5.838482812500001,-0.6452661621093752,0.3731440429687499,5.885871766240269
89,1787760689.9817352,5.3786390625000005,-1.6176440917968753,0.5024750976562499,5.639061251320195
90,1787760689.9916294,4.6649232421875,-2.005637255859375,0.5934858398437499,5.112368834472655
91,1787760690.0116293,3.9607875000000003,-1.5170532714843752,0.2725532226562499,4.2501262931656525
92,1787760690.0519054,3.8793568359375,-1.1578003417968752,0.5360053710937499,4.083774338751019
93,1787760690.0719054,3.3141322265625,-1.4595728027343753,0.72281689453125,3.692734683759692
94,1787760690.0814133,2.6962171875000003,-1.6559644042968753,0.58869580078125,3.218441855358924
95,1787760690.1014132,2.58125625,-1.6272241699218752,0.6940766601562499,3.1292946070185934
96,1787760690.1114125,2.6099964843750003,-1.6368042480468752,0.70844677734375,3.1611875349625973
97,1787760690.1314125,2.83033828125,-1.6368042480468752,0.60785595703125,3.325572401441875
98,1787760690.171721,3.2518617187500003,-1.7757153808593753,0.5982758789062499,3.753092562004474
99,1787760690.191721,3.7931361328125,-1.9577368652343752,0.8090375976562499,4.344554889740362
100,1787760690.2017195,4.037428125,-2.0679077636718755,0.74676708984375,4.597252382681327
101,1787760690.2217195,4.2529798828125,-2.015217333984375,0.8377778320312499,4.78025213588592
102,1787760690.2317204,4.161969140625001,-1.9625269042968754,1.07727978515625,4.725889409741851
103,1787760690.2517204,3.36682265625,-1.9960571777343752,0.98147900390625,4.035224912013211
104,1787760690.2913246,2.351334375,-1.9960571777343752,2.14545849609375,3.757127860254747
105,1787760690.3113246,2.2411634765625,-2.2163989746093753,4.36803662109375,5.386555677475478
106,1787760690.3213055,3.8745667968750004,-1.5074731933593752,3.70222119140625,5.566972699972655
107,1787760690.3413055,4.229029687500001,-1.9002563964843753,1.77662548828125,4.965084550714794
108,1787760690.3513057,4.449371484375,-2.091857958984375,0.9766889648437499,5.012653754308512
109,1787760690.3713057,4.2433998046875,-2.0008472167968754,0.90483837890625,4.777924651909802
110,1787760690.4118154,3.8841468750000003,-1.7565552246093752,0.9383686523437499,4.364930575779663
111,1787760690.4318154,3.3524525390625,-1.7757153808593753,0.9527387695312499,3.9114977059248135
112,1787760690.4418151,3.0890003906250003,-1.7086548339843752,1.03416943359375,3.678441405318181
113,1787760690.461815,2.83033828125,-1.6990747558593753,1.0054291992187498,3.450877813969868
114,1787760690.471413,2.7776478515625,-1.7517651855468752,0.92399853515625,3.411419374036963
115,1787760690.4914129,3.0842103515625,-1.8427759277343754,0.96710888671875,3.720682223906383
116,1787760690.5320277,3.5680042968750003,-1.9002563964843753,0.9958491210937499,4.163333340831772
117,1787760690.5520277,3.932047265625,-1.9768970214843753,0.98626904296875,4.510193361462602
118,1787760690.5610657,4.0613783203125005,-2.0200073730468753,1.05332958984375,4.6566862544848915
119,1787760690.5810657,3.6494349609375,-2.2211890136718755,2.34185009765625,4.871993231569818
120,1787760690.5918708,3.3380824218750003,-1.9768970214843753,2.84480419921875,4.810803157548362
121,1787760690.6118708,3.2758119140625,-1.5026831542968753,2.18856884765625,4.216495459437
122,1787760690.6518674,3.1991712890625,-1.4547827636718753,1.01021923828125,3.6567243176963924
123,1787760690.6718674,3.5344740234375003,-1.6128540527343753,1.0389594726562499,4.021596897203687
124,1787760690.6839168,3.7356556640625,-1.5984839355468752,1.0820698242187499,4.204895865194341
125,1787760690.7039168,3.7835560546875002,-1.4212524902343753,0.9958491210937499,4.162567781062917
126,1787760690.7109199,3.6638050781250002,-1.4356226074218752,1.01021923828125,4.062637423008466
127,1787760690.7309198,3.3716126953125003,-1.5841138183593753,0.96231884765625,3.8474987097157025
128,1787760690.7709396,3.3428724609375,-1.4931030761718753,0.96710888671875,3.786746979260515
129,1787760690.7909396,3.3716126953125003,-1.5410034667968753,0.90004833984375,3.8147805790016154
130,1787760690.8014688,3.44346328125,-1.7182349121093752,0.98147900390625,3.971532653474894
131,1787760690.8214688,3.5392640625,-1.6703345214843752,0.9766889648437499,4.033649569783424
132,1787760690.8314703,3.6111146484375003,-1.5553735839843752,0.9383686523437499,4.042260718659512
133,1787760690.8514702,3.5632142578125,-1.6751245605468752,1.0054291992187498,4.063671494482213
134,1787760690.8916624,3.3620326171875003,-1.8379858886718752,1.0389594726562499,3.9699990216386363
135,1787760690.9116623,3.1800111328125,-1.7948755371093752,1.0389594726562499,3.7965096844795827
136,1787760690.9216645,3.1512708984375,-1.6463843261718754,1.10122998046875,3.722068926643717
137,1787760690.9416645,3.06026015625,-1.6990747558593753,1.0868598632812498,3.665148238794934
138,1787760690.9516656,3.1033705078125,-1.7661353027343754,1.1587104492187499,3.7540314758208644
139,1787760690.9716656,3.2374916015625,-1.6415942871093752,1.1635004882812499,3.81181283117214
140,1787760691.0108514,3.3380824218750003,-1.5362134277343753,1.2018208007812499,3.8661504352485756
141,1787760691.0308514,3.223121484375,-1.5936938964843752,1.17787060546875,3.7836161937964286
142,1787760691.0418513,3.223121484375,-1.5074731933593752,1.18745068359375,3.751136715410954
143,1787760691.0618513,3.2614417968750002,-1.5122632324218752,1.10122998046875,3.7598736878280223
144,1787760691.0734053,3.4482533203125003,-1.5841138183593753,1.17308056640625,3.971899490903982
145,1787760691.0934052,3.4817835937500003,-1.5697437011718753,1.11560009765625,3.97887871880585
146,1787760691.1310894,3.5632142578125,-1.4404126464843752,1.0820698242187499,3.9927633969113674
147,1787760691.1510894,3.4674134765625,-1.5218433105468752,1.06769970703125,3.934329160568309
148,1787760691.160578,3.2949720703125003,-1.6368042480468752,1.0389594726562499,3.823010054444782
149,1787760691.180578,3.2614417968750002,-1.5026831542968753,1.03416943359375,3.736919275819382
150,1787760691.1916008,3.2374916015625,-1.3925122558593752,0.90004833984375,3.6373794505057866
151,1787760691.2116008,3.2518617187500003,-1.6032739746093752,1.05332958984375,3.7755258309766404
152,1787760691.2540333,3.0027796875000003,-1.8331958496093752,1.01979931640625,3.6629610317924888
153,1787760691.2740333,3.0554701171875003,-1.6320142089843752,0.9383686523437499,3.5888582784855294
154,1787760691.2875412,3.1752210937500003,-1.6368042480468752,0.9383686523437499,3.6934662403114866
155,1787760691.3075411,3.203961328125,-1.8667261230468752,0.98147900390625,3.835796611617323
156,1787760691.3415434,3.2662318359375,-1.8044556152343754,0.9910590820312499,3.860897379822357
157,1787760691.3615434,3.357242578125,-1.5362134277343753,0.98626904296875,3.821486104782443
158,1787760691.3715842,3.2566517578125,-1.6224341308593753,1.0006391601562499,3.773506580023264
159,1787760691.3915842,3.1656410156250003,-1.7661353027343754,1.07727978515625,3.7816727360889155
160,1787760691.4010956,3.1848011718750002,-1.5984839355468752,1.07248974609375,3.7213362723696495
161,1787760691.4210956,3.2758119140625,-1.4068823730468754,1.11560009765625,3.7356157840166673
162,1787760691.4616683,3.21354140625,-1.5697437011718753,1.1203901367187499,3.7478283999549213
163,1787760691.4816682,3.2758119140625,-1.6511743652343753,1.14913037109375,3.844193165085623
164,1787760691.493175,3.4195130859375,-1.5218433105468752,1.17308056640625,3.9223965661358218
165,1787760691.513175,3.36682265625,-1.5170532714843752,1.07727978515625,3.8467489081906616
166,1787760691.522176,3.44346328125,-1.5553735839843752,1.14434033203125,3.9479287165027195
167,1787760691.542176,3.44346328125,-1.5314233886718753,1.12997021484375,3.9344033411843142
168,1787760691.5816905,3.36682265625,-1.5122632324218752,1.06769970703125,3.84218916077384
169,1787760691.6016905,3.3524525390625,-1.5457935058593752,1.09643994140625,3.8510513025061823
170,1787760691.6111863,3.2327015625,-1.6847046386718754,1.02458935546875,3.7866043441442816
171,1787760691.6311862,3.21354140625,-1.6703345214843752,1.0054291992187498,3.7586904179497576
172,1787760691.641191,3.2422816406250003,-1.5984839355468752,0.9718989257812499,3.743277795097516
173,1787760691.661191,3.2614417968750002,-1.6463843261718754,0.96231884765625,3.778047314211682
174,1787760691.702944,3.2566517578125,-1.7757153808593753,0.94315869140625,3.8273351176319736
175,1787760691.722944,3.29018203125,-1.7757153808593753,0.94315869140625,3.8559060193106474
176,1787760691.7313867,3.3380824218750003,-1.6415942871093752,0.96710888671875,3.8435563814612355
177,1787760691.7513866,3.2183314453125003,-1.6368042480468752,0.9192084960937499,3.7258193323888475
178,1787760691.7613878,3.2087513671875003,-1.6463843261718754,0.98626904296875,3.7389026880905263
179,1787760691.7813878,3.1752210937500003,-1.6224341308593753,0.96710888671875,3.6945393626192082
180,1787760691.8209648,3.2853919921875003,-1.5122632324218752,0.9958491210937499,3.7513272449158586
181,1787760691.8409648,3.3716126953125003,-1.5649536621093751,1.01021923828125,3.8519339351987227
182,1787760691.8509421,3.4003529296875,-1.7134448730468752,1.02458935546875,3.9431049601481387
183,1787760691.870942,3.4195130859375,-1.6990747558593753,1.05811962890625,3.9622647463254017
184,1787760691.8826926,3.3428724609375,-1.6176440917968753,0.98626904296875,3.8424335157473015
185,1787760691.9026926,3.4147230468750003,-1.5745337402343753,1.06290966796875,3.9075909392178163
186,1787760691.9415987,3.271021875,-1.5889038574218752,1.14434033203125,3.8123108963425354
187,1787760691.9615986,3.2758119140625,-1.1098999511718752,1.26888134765625,3.684139176572336
188,1787760691.9723876,3.702125390625,-1.0188892089843753,1.46527294921875,4.109853092728173
189,1787760691.9923875,2.629156640625,-1.6415942871093752,1.19703076171875,3.3226764947724967
190,1787760692.0009694,2.1070423828125002,-1.4595728027343753,0.6174360351562499,2.636514294852112
191,1787760692.0209694,2.7489076171875,-1.3110815917968752,0.7371870117187499,3.1335080530336774
192,1787760692.0616899,3.0794203125,-1.7900854980468752,0.4833149414062499,3.594555450113665
193,1787760692.0816898,3.9176771484375004,-1.9912671386718752,0.28213330078124993,4.40374139299228
194,1787760692.090655,5.0529164062500005,-1.5793237792968753,0.9144184570312499,5.3723727460929585
195,1787760692.110655,3.6877552734375003,-1.8188257324218753,0.6222260742187499,4.1587054823735405
196,1787760692.1223128,3.548844140625,-0.34349370117187517,0.9335786132812499,3.685627719177466
197,1787760692.1423128,3.3380824218750003,0.23131098632812483,0.70844677734375,3.420262543132574
198,1787760692.181039,3.2279115234375,-0.9182983886718752,0.7180268554687499,3.4319451188724313
199,1787760692.201039,2.1214125,-3.433068896484375,2.74900341796875,4.882967625857105
200,1787760692.2110853,1.45080703125,-2.5564917480468754,1.4030024414062499,3.257131706018058
201,1787760692.2310853,2.0543519531250003,-1.1961206542968752,1.41737255859375,2.767672584826226
202,1787760692.2409258,2.1214125,-1.7613452636718752,1.42216259765625,3.102462664914434
203,1787760692.2609258,2.8351283203125,-2.1110181152343754,1.22098095703125,3.7396717199399494
204,1787760692.3011005,3.5153138671875,-1.9673169433593753,0.86651806640625,4.120512237559553
205,1787760692.3211005,3.8697767578125,-2.0966479980468753,0.6365961914062499,4.447061917033845
206,1787760692.3370318,4.315250390625001,-2.1828687011718753,0.58390576171875,4.871062270071422
207,1787760692.3570318,4.506851953125,-2.3696802246093753,0.58390576171875,5.125236075817359
208,1787760692.3610375,4.59307265625,-2.2930395996093753,0.62701611328125,5.171798162852306
209,1787760692.3810375,4.353570703125,-2.0870679199218753,1.01021923828125,4.932542273399072
210,1787760692.4215436,3.8410365234375003,-1.6607544433593753,1.50838330078125,4.448245393140366
211,1787760692.4415436,3.3189222656250004,-1.0428394042968752,1.84368603515625,3.937249957095158
212,1787760692.4515438,2.8159681640625003,-0.8081274902343752,1.86284619140625,3.471734822005104
213,1787760692.4715438,2.7968080078125,-0.8512378417968752,1.85805615234375,3.4639736663452836
214,1787760692.4810624,3.1129505859375,-0.9278784667968752,1.75267529296875,3.690974191486177
215,1787760692.5010624,2.6866371093750003,-1.5410034667968753,1.3598920898437499,3.3826050816154174
216,1787760692.5419388,2.6866371093750003,-2.254719287109375,1.14434033203125,3.689348562639109
217,1787760692.5619388,3.203961328125,-2.254719287109375,1.15392041015625,4.084196318586889
218,1787760692.5711324,3.3524525390625,-1.8715161621093752,1.34073193359375,4.066825898592322
219,1787760692.5911324,3.3141322265625,-1.1673804199218751,1.24972119140625,3.7293501466350603
220,1787760692.6013045,3.3524525390625,-1.0763696777343752,0.9910590820312499,3.657828292018261
221,1787760692.6213045,3.5775843750000003,-1.9002563964843753,1.11081005859375,4.200474177863373
222,1787760692.6613061,3.6302748046875,-2.594812060546875,1.26888134765625,4.639181464605403
223,1787760692.6813061,3.836246484375,-2.1301782714843753,0.96231884765625,4.492271599284505
224,1787760692.6914942,4.085328515625,-1.9050464355468752,1.16829052734375,4.656609685001499
225,1787760692.7114942,3.8075062500000003,-2.1205981933593754,1.23056103515625,4.528611376869618
226,1787760692.72235,3.1512708984375,-1.9098364746093752,1.24972119140625,3.8909878811604277
227,1787760692.7423499,2.67705703125,-1.3829321777343753,1.1587104492187499,3.228272860510233
228,1787760692.781834,2.3178041015625,-1.3973022949218752,0.98626904296875,2.8805201234729085
229,1787760692.8018339,2.475875390625,-1.6272241699218752,1.20661083984375,3.1990197198374495
230,1787760692.811274,2.9500892578125,-1.4883130371093753,1.21140087890625,3.5193173222807395
231,1787760692.831274,3.1033705078125,-1.4404126464843752,1.01500927734375,3.568745008263608
232,1787760692.8720891,3.1991712890625,-1.6751245605468752,1.03416943359375,3.75636069187835
233,1787760692.8920891,3.4003529296875,-1.4595728027343753,0.86172802734375,3.799385214219005
234,1787760692.902597,3.5536341796875,-1.3877222167968752,0.86172802734375,3.911094990810711
235,1787760692.922597,3.1608509765625,-1.8475659667968753,0.6557563476562499,3.7194751357138616
236,1787760692.931597,3.44346328125,-1.5553735839843752,0.8329877929687499,3.869172394493216
237,1787760692.951597,3.52010390625,-1.0859497558593751,0.8713081054687499,3.7854453103569057
238,1787760692.991036,3.2566517578125,-1.2248608886718753,0.6174360351562499,3.5337362841291333
239,1787760693.011036,3.1033705078125,-1.7757153808593753,0.74197705078125,3.651657646393897
240,1787760693.020736,3.1752210937500003,-1.8619360839843753,0.7946674804687499,3.7656780769939124
241,1787760693.040736,3.2470716796875,-1.6272241699218752,0.7515571289062499,3.708931262535927
242,1787760693.0522525,3.3093421875,-1.5410034667968753,0.8329877929687499,3.7443699152036545
243,1787760693.0722525,3.3380824218750003,-1.6176440917968753,0.9575288085937499,3.830982652302562
244,1787760693.1108363,3.4195130859375,-1.6272241699218752,1.01979931640625,3.921851461977926
245,1787760693.1308362,3.4195130859375,-1.6511743652343753,1.09643994140625,3.9524204070943525
246,1787760693.1414642,3.2758119140625,-1.7757153808593753,1.2832514648437499,3.940919072013279
247,1787760693.1614642,2.8590785156250003,-1.7757153808593753,1.26888134765625,3.596881280603928
248,1787760693.1709745,2.27469375,-1.9098364746093752,2.37538037109375,3.803174847862626
249,1787760693.1909745,2.48545546875,-1.6320142089843752,2.08797802734375,3.633264579979894
250,1787760693.2314856,2.8830287109375,-1.5218433105468752,1.28804150390625,3.50526925153137
251,1787760693.2514856,3.2758119140625,-1.8044556152343754,1.2832514648437499,3.953952210850343
252,1787760693.2615104,3.3045521484375002,-2.048747607421875,1.33594189453125,4.1112251709464305
253,1787760693.2815104,3.0075697265625,-1.8379858886718752,1.14913037109375,3.7073128269492224
254,1787760693.2909553,2.79201796875,-1.5362134277343753,1.0868598632812498,3.3669838722194694
255,1787760693.3109553,2.7057972656250002,-1.5936938964843752,1.14434033203125,3.3422617901458094
256,1787760693.3509696,2.820758203125,-1.6511743652343753,1.2832514648437499,3.511379778225043
257,1787760693.3709695,2.8063880859375003,-1.8140356933593753,1.7191450195312499,3.7579248507458045
258,1787760693.381462,2.88781875,-1.7709253417968753,1.71435498046875,3.7966678414272628
259,1787760693.401462,3.117740625,-1.6368042480468752,1.72393505859375,3.9206360246072736
260,1787760693.4114616,3.3141322265625,-1.7086548339843752,1.86763623046875,4.170256448493043
261,1787760693.4314616,3.2614417968750002,-1.7852954589843752,1.84368603515625,4.150115741338262
262,1787760693.4714642,3.0937904296875,-1.5745337402343753,1.69040478515625,3.8611091747892297
263,1787760693.4914641,2.9117689453125,-1.3973022949218752,1.43653271484375,3.5347529383390524
264,1787760693.500968,2.954879296875,-1.4691528808593752,1.25930126953125,3.532076094010563
265,1787760693.520968,3.1752210937500003,-1.6320142089843752,1.35510205078125,3.8186124365472587
266,1787760693.5319695,3.1608509765625,-1.6224341308593753,1.46048291015625,3.8413905992325224
267,1787760693.5519695,3.0411,-1.4547827636718753,1.4796430664062499,3.6815792404131233
268,1787760693.591433,2.878238671875,-1.5026831542968753,1.51317333984375,3.5821792348929526
269,1787760693.611433,2.897398828125,-1.7182349121093752,1.78141552734375,3.810602637834736
270,1787760693.6214323,2.75369765625,-2.039167529296875,1.83410595703125,3.886515104330997
271,1787760693.6414323,2.7201673828125,-2.1876587402343755,1.81494580078125,3.9343601276464706
272,1787760693.6516492,2.7680677734375,-2.0104272949218753,1.88200634765625,3.904608174852958
273,1787760693.6716492,2.8351283203125,-1.8044556152343754,1.88200634765625,3.851747727020458
274,1787760693.7112012,2.878238671875,-1.8044556152343754,1.81494580078125,3.8515381575938106
275,1787760693.7312012,2.9117689453125,-2.0343774902343754,1.87242626953125,4.015354317926289
276,1787760693.7411616,2.90697890625,-2.1732886230468753,1.92032666015625,4.106259159156213
277,1787760693.7611616,2.88781875,-2.0535376464843753,1.92032666015625,4.03040549822062
278,1787760693.7711818,2.8830287109375,-1.9577368652343752,1.94427685546875,3.9905890132033277
279,1787760693.7911818,2.9357191406250003,-1.9337866699218753,1.92990673828125,4.010301456980871
280,1787760693.831154,3.1991712890625,-1.6942847167968753,2.04486767578125,4.1577375397911185
281,1787760693.851154,3.031519921875,-1.5984839355468752,2.31310986328125,4.134699646713826
282,1787760693.8619335,2.3178041015625,-1.7086548339843752,2.49992138671875,3.813308817115645
283,1787760693.8819335,2.1549427734375,-1.5601636230468752,2.45202099609375,3.618051388904508
284,1787760693.891617,2.4231849609375002,-1.3685620605468753,2.28915966796875,3.60347602377715
285,1787760693.911617,2.5956263671875,-1.6511743652343753,2.41849072265625,3.913150955179275
286,1787760693.9513142,2.6626869140625002,-2.005637255859375,2.59572216796875,4.224956328495621
287,1787760693.9713142,2.6914271484375,-2.0200073730468753,2.46160107421875,4.169375220714137
288,1787760693.982048,2.7968080078125,-1.9242065917968754,2.45681103515625,4.190540120669912
289,1787760694.002048,2.6435267578125,-1.9289966308593753,2.60530224609375,4.182924995100752
290,1787760694.0110476,2.5573060546875,-1.8331958496093752,2.55261181640625,4.051696973568384
291,1787760694.0310476,2.5573060546875,-1.8619360839843753,2.52866162109375,4.049783924134334
292,1787760694.0717633,2.6195765625000003,-2.039167529296875,2.65320263671875,4.249690554714468
293,1787760694.0917633,2.75369765625,-1.9577368652343752,2.72505322265625,4.340679610595981
294,1787760694.1013095,2.7010072265625,-1.8427759277343754,2.65799267578125,4.213809229460549
295,1787760694.1213095,2.590836328125,-1.8667261230468752,2.63404248046875,4.139478117651042
