imu_index,t_imu,ax,ay,az,mag,vx,vy,vz,velocity
0,1791274008.750543,0.0945074707031251,-0.07060517578125004,-0.008861572265624566,0.11830164972992623,0.0,0.0,0.0,0.0
1,1791274008.770543,0.0897174316406251,-0.06102509765625005,-0.03281176757812457,0.11335736489415216,0.000396834000211355,-0.00028746673512744037,-7.38084440150105e-05,0.0004955421616134116
2,1791274008.7950954,0.06576723632812509,-0.003544628906250044,-0.018441650390624564,0.06839582032151163,0.0010972341181875829,-0.0007063316455533791,-0.0002452051306283775,0.0013277622753006303
3,1791274008.8150954,0.008286767578125088,0.02998564453124996,0.034248779296875434,0.04626865329977121,0.0016932703458655048,-0.0009566911989242442,-0.0003401691062714686,0.0019743701616333556
4,1791274008.8556874,0.013076806640625088,0.05872587890624996,-0.008861572265624566,0.06081331423501532,0.002786567243340571,-0.0011185283572921591,-0.0004267084061020374,0.0030328440038293273
5,1791274008.8756874,0.02265688476562509,0.0012454101562499565,-0.06155200195312457,0.06560132939337095,0.0032980424349819833,-0.0010963492022830884,-0.000568571481009211,0.003521695473107472
6,1791274008.8702273,0.05139711914062509,-0.08497529296875005,-0.09029223632812457,0.13422053573210924,0.0032980424349819833,-0.0010963492022830884,-0.000568571481009211,0.003521695473107472
7,1791274008.8902273,0.05618715820312509,-0.09934541015625005,-0.047181884765624564,0.12350156888110059,0.003923378287993618,-0.0014635610525795173,-0.0010708797567878662,0.004322232247210396
8,1791274008.9149914,0.03702700195312509,-0.046654980468750044,0.039038818359375435,0.07121597724578724,0.004754654847300508,-0.0021212090220068575,-0.001614670108128791,0.0054510026591523646
9,1791274008.9349914,0.0945074707031251,-0.013124707031250044,0.043828857421875436,0.10499946998087789,0.0055226094627810985,-0.002662339350100425,-0.0018636688420166842,0.006407848909438822
10,1791274008.9603658,0.12324770507812509,-0.027494824218750043,-0.0040715332031245645,0.12634294419740505,0.006765187859218233,-0.003323203890050153,-0.002056531047422476,0.007812859323856461
11,1791274008.9803658,0.06576723632812509,-0.03228486328125005,-0.013651611328124565,0.07452521897440251,0.0078811947949693,-0.003855629850785277,-0.002212326784063596,0.009048397799721388
12,1791274008.9899943,0.05139711914062509,-0.051445019531250046,-0.008861572265624566,0.07325831934698744,0.008422488527653454,-0.004133970231773079,-0.002292338112284639,0.009658304038322293
13,1791274009.0099943,0.04181704101562509,-0.03228486328125005,0.010298583984375435,0.05382414094506956,0.009518009056382495,-0.004750998191622261,-0.0024314492981928515,0.010912214527943432
14,1791274009.0354476,0.03702700195312509,-0.003544628906250044,-0.008861572265624566,0.03823729502381986,0.010853620832381911,-0.005486877485348232,-0.002579192005560658,0.012432181671528292
15,1791274009.0554476,0.0034967285156250875,-0.013124707031250044,0.0007185058593754356,0.01360151813725537,0.01180644601103805,-0.006003366725372578,-0.00269008223714587,0.013515514118725737
16,1791274009.0811784,-0.020453466796874913,-0.03707490234375004,0.0007185058593754356,0.04234865922882829,0.012815696166156512,-0.0066650556714097165,-0.0028085744264520034,0.014715744141400046
17,1791274009.1011784,0.04181704101562509,-0.017914746093750045,-0.03281176757812457,0.056091132440938204,0.013514537867812555,-0.007184707982233909,-0.0029350002772465687,0.015584511195348816
18,1791274009.1097364,0.07534731445312509,0.020405566406249957,-0.07113208007812456,0.10560955331739036,0.013843920604406841,-0.0073721155338837985,-0.003047700117592174,0.015977819036177072
19,1791274009.1297364,0.05139711914062509,-0.013124707031250044,-0.04239184570312457,0.06790427359694878,0.014688334613693035,-0.007733467256937368,-0.0034418568004386235,0.016952877861078953
20,1791274009.1555173,0.008286767578125088,-0.04186494140625004,0.024668701171875435,0.04929390077230553,0.015728953482250705,-0.008235722984522973,-0.003907999247786009,0.018179647104531557
21,1791274009.1755173,0.013076806640625088,-0.04186494140625004,0.07735913085937544,0.08892756219633495,0.016447184817721963,-0.008692506043765357,-0.004062332836774833,0.019041326052193427
22,1791274009.2000966,0.15677797851562508,0.020405566406249957,-0.023231689453124565,0.15979810099826622,0.017510582328716537,-0.009209230281338725,-0.004123771852740816,0.02020979738045247
23,1791274009.2200966,0.1855182128906251,-0.008334667968750044,-0.07113208007812456,0.19886238161231332,0.01875951291058715,-0.009548510388284456,-0.004307810968116127,0.02148605619034549
24,1791274009.2301486,0.1807281738281251,-0.051445019531250046,-0.07113208007812456,0.2009204709980056,0.019569179442542505,-0.009738521639294269,-0.0044936867099103755,0.022315573217380192
25,1791274009.2501485,0.05618715820312509,-0.017914746093750045,0.034248779296875434,0.06819760815360479,0.021293868144815493,-0.01016391009465442,-0.004863366500394207,0.024091206335469434
26,1791274009.2752113,0.05618715820312509,0.05872587890624996,0.04861889648437544,0.09470756408868805,0.023342185918756503,-0.010540308019719394,-0.005101371124643874,0.02611474150681384
27,1791274009.2952113,0.15198793945312508,0.02519560546874996,-0.051971923828124565,0.16259222964379355,0.025043812971614378,-0.010669734927492987,-0.005267838123628114,0.027726989199639295
28,1791274009.3204324,0.16635805664062508,-0.05623505859375005,-0.10466235351562457,0.20442992214379357,0.027469961837211922,-0.010867181101457065,-0.005742560563662053,0.0300943753923731
29,1791274009.3404324,0.1328277832031251,-0.11371552734375005,-0.03281176757812457,0.1779074288536722,0.029554056472610158,-0.011255192943105898,-0.006268752468566701,0.03224001984622423
30,1791274009.3497477,0.08013735351562509,-0.013124707031250044,0.039038818359375435,0.09010151331715091,0.0305279334205736,-0.011497422447098317,-0.006472720616117878,0.033257203039827814
31,1791274009.3697476,0.07055727539062509,0.0060354492187499565,-0.008861572265624566,0.07136724193101135,0.0325312638128025,-0.01195011602386576,-0.006799688959265349,0.03531747680943192
32,1791274009.3953586,0.08013735351562509,-0.08497529296875005,-0.06155200195312457,0.13202819694311752,0.035001276574435386,-0.01259448644690427,-0.007290834405483945,0.03790602481175734
33,1791274009.4153585,0.0992975097656251,-0.11371552734375005,-0.07113208007812456,0.16688615706811125,0.03690997028967964,-0.013320241707153551,-0.007815872188159358,0.040010781096895244
34,1791274009.4405942,0.07534731445312509,-0.05623505859375005,-0.056761962890624566,0.10982495181668533,0.03928762107036905,-0.014420287083387016,-0.008621045479488897,0.04272919697461702
35,1791274009.4605942,0.06576723632812509,-0.013124707031250044,-0.047181884765624564,0.08199827778028192,0.041100995842461116,-0.01526537159855617,-0.009319365649537734,0.04482381069692531
36,1791274009.4851446,0.0992975097656251,-0.027494824218750043,-0.06155200195312457,0.12001920575021244,0.0432969921852926,-0.016221920270158667,-0.010248198989138452,0.04735827078838132
37,1791274009.5051446,0.1328277832031251,-0.07060517578125004,-0.04239184570312457,0.1562862099478874,0.045165800416085915,-0.017031433544988255,-0.011047286508143336,0.04951829757792632
38,1791274009.5156853,0.0945074707031251,-0.03707490234375004,0.005508544921875436,0.10166884709514991,0.0461827122079924,-0.01747920721133649,-0.011434420936306746,0.05068640423004711
39,1791274009.5356853,0.05139711914062509,0.020405566406249957,0.0007185058593754356,0.0553043149038612,0.04804163500309364,-0.01822637650113887,-0.012049447265172172,0.05277678157606718
40,1791274009.5606458,0.0945074707031251,-0.027494824218750043,-0.08071215820312456,0.12728739081043425,0.050286762159040835,-0.019032262250863997,-0.012851632578037274,0.05528245575900616
41,1791274009.5806458,0.07534731445312509,-0.13287568359375004,-0.09987231445312457,0.18250381990530576,0.05207064398789696,-0.019821686390143978,-0.013668857360769976,0.05736801267442166
42,1791274009.6053681,0.0945074707031251,-0.12329560546875006,-0.056761962890624566,0.16539464555361022,0.05425990981137415,-0.02112612109795485,-0.014817943143060605,0.06008346065578186
43,1791274009.625368,0.07534731445312509,-0.04186494140625004,0.06298901367187544,0.1067591071412766,0.05602011101201974,-0.02227083870470019,-0.015598755994477192,0.06227009140016598
44,1791274009.6354094,0.0945074707031251,-0.03228486328125005,0.09651928710937543,0.13888825436261018,0.056899198519656045,-0.02281519202957952,-0.01581184565376636,0.06330929033328637
45,1791274009.6554093,0.07534731445312509,-0.013124707031250044,-0.008861572265624566,0.07699352695501839,0.05864229046641952,-0.023804905701778106,-0.016041123602500176,0.06529095965789715
46,1791274009.6809871,-0.020453466796874913,-0.003544628906250044,-0.008861572265624566,0.022570692526211383,0.060642435209891134,-0.024912758067869523,-0.016324360671357535,0.06756208414534447
47,1791274009.700987,-0.09709409179687492,-0.008334667968750044,-0.013651611328124565,0.09840272274618961,0.06179548756070463,-0.02566689850740352,-0.01654638072023013,0.06892934554160048
48,1791274009.7256274,-0.025243505859374914,-0.04186494140625004,-0.04239184570312457,0.06470685040348174,0.06277689806794008,-0.026549415530088202,-0.01688245303386774,0.07021985201111276
49,1791274009.7456274,0.11366762695312509,-0.07539521484375004,-0.047181884765624564,0.14432913111540133,0.06358663415829456,-0.02733417650519819,-0.017248678326314718,0.07132975643308198
50,1791274009.7707028,0.05618715820312509,0.020405566406249957,0.0007185058593754356,0.05978210549966303,0.06476901430799581,-0.028273918498267325,-0.017726348905442793,0.0728605732011046
51,1791274009.7907028,-0.015663427734374912,0.03956572265624996,0.05340893554687544,0.06828838681614592,0.06563139881555226,-0.02882106318987415,-0.017968996346165316,0.07389870786129683
52,1791274009.8002625,0.027446923828125087,-0.08976533203125005,0.05340893554687544,0.10799843914871067,0.06599022090441004,-0.02907935144951674,-0.017990994833439748,0.07432357520218065
53,1791274009.8202624,0.1950982910156251,-0.19993623046875006,0.029458740234375436,0.28090150727161844,0.06696213515822329,-0.029973219859444934,-0.017905813558472084,0.07551780990522401
54,1791274009.845349,0.2142584472656251,-0.17119599609375005,-0.0040715332031245645,0.2742833000491136,0.06876857780261132,-0.031624531984481646,-0.017767228726215917,0.07774897255167416
55,1791274009.865349,0.06097719726562509,-0.11371552734375005,-0.0040715332031245645,0.12909692919687232,0.07040556826761803,-0.03317091192583643,-0.017685531184916746,0.0798124768088955
56,1791274009.8750346,-0.03482358398437491,-0.08018525390625005,0.024668701171875435,0.09083447452940921,0.07109840891578229,-0.03394830797124368,-0.017636939565213155,0.08073743246904237
57,1791274009.8950346,0.11845766601562509,-0.24304658203125007,0.005508544921875436,0.27043336284951763,0.0724399313552895,-0.035797638030714965,-0.01750638590153743,0.08267701065393386
58,1791274009.9205785,0.16635805664062508,-0.27657685546875005,-0.03281176757812457,0.3244169725551179,0.07444196066485292,-0.03880079577839117,-0.017416961863521457,0.08573481102340688
59,1791274009.9405785,0.06576723632812509,-0.20951630859375006,-0.04239184570312457,0.2236503555175097,0.0761225379348615,-0.04152859504807538,-0.01747025372954577,0.08845606114725077
60,1791274009.965167,0.05139711914062509,-0.16161591796875005,0.015088623046875436,0.17026166727213748,0.07809483575494848,-0.04506360975338948,-0.01757629564510006,0.09186108242450729
61,1791274009.985167,0.17114809570312509,-0.13766572265625004,0.005508544921875436,0.21971314463279146,0.07979225474720027,-0.047956559896142614,-0.017618714871501764,0.09474732011216831
62,1791274009.9950078,0.0992975097656251,-0.06102509765625005,-0.023231689453124565,0.11884346588877188,0.08070177208203218,-0.049313126823303764,-0.017649536566106464,0.09620845407379665
63,1791274010.0150077,0.01786684570312509,-0.05623505859375005,-0.023231689453124565,0.06341385799072786,0.0824487214876607,-0.051832503922379265,-0.017772476446801827,0.09899626789362027
64,1791274010.0404406,0.03702700195312509,-0.08018525390625005,-0.023231689453124565,0.09132570948255993,0.08444170020394876,-0.054815905341827974,-0.017993988808177187,0.10226909525857071
65,1791274010.0604405,0.0992975097656251,-0.09455537109375005,0.0007185058593754356,0.13711757691485488,0.08597834731109409,-0.05707220171600086,-0.018175823366773872,0.10478488903519999
66,1791274010.1001694,0.07055727539062509,-0.09455537109375005,-0.013651611328124565,0.11876621491434114,0.08907905422037829,-0.06144539762558562,-0.018521383536322614,0.10978914535719358
67,1791274010.1201694,0.02265688476562509,-0.08976533203125005,-0.028021728515624567,0.09672831297488212,0.09054566750672313,-0.06359316851328288,-0.018731758648806995,0.1122207100666985
68,1791274010.1311886,0.07055727539062509,-0.11850556640625005,0.015088623046875436,0.13874280134574676,0.09130954461203636,-0.06477113154001583,-0.01884096950585391,0.11352407035581488
69,1791274010.1511886,0.0945074707031251,-0.14724580078125005,0.05340893554687544,0.18293578726608942,0.092735617535291,-0.06698706781926196,-0.018906708978466635,0.11595096230334012
70,1791274010.1602316,0.1376178222656251,-0.14724580078125005,0.015088623046875436,0.20210803397761173,0.09344112858220109,-0.06803844292381107,-0.01888551778392758,0.11712018189953079
71,1791274010.1802316,0.06576723632812509,-0.14245576171875005,-0.028021728515624567,0.15938692132704024,0.09507250303248448,-0.07044948524880461,-0.01886507988867397,0.11982404618393322
72,1791274010.2053454,0.07055727539062509,-0.16640595703125005,-0.008861572265624566,0.18096352977617794,0.09707050385125729,-0.07360463567896369,-0.0189127367841267,0.12328023655085835
73,1791274010.2253454,0.1376178222656251,-0.16640595703125005,-0.0040715332031245645,0.2159772787198773,0.09873524782695424,-0.07623962946962456,-0.018964396208156542,0.12617756769194619
74,1791274010.250079,0.11845766601562509,-0.15203583984375005,0.034248779296875434,0.19575518924971028,0.10096021179904138,-0.07960018782526483,-0.018962720118764036,0.12995668133123173
75,1791274010.270079,0.05618715820312509,-0.13766572265625004,0.05819897460937544,0.15967457088401174,0.10275145224416664,-0.08234453567215708,-0.01882289660193782,0.13301422829846304
76,1791274010.2805815,0.06576723632812509,-0.14245576171875005,0.005508544921875436,0.1570010111058686,0.10364705287819631,-0.08379015242064017,-0.018710303001354855,0.13458668824000478
77,1791274010.3005815,0.11366762695312509,-0.20472626953125006,-0.03281176757812457,0.23645250462817627,0.10536586784277631,-0.08665087084221562,-0.01856900829543656,0.13767769460973597
78,1791274010.3253307,0.07055727539062509,-0.22388642578125006,-0.04239184570312457,0.2385383183930188,0.1075157529039743,-0.09045549338384157,-0.018559980755046356,0.14172616657290338
79,1791274010.3453307,0.08013735351562509,-0.2717868164062501,-0.023231689453124565,0.28430578677821416,0.10921852497015515,-0.09381235226300318,-0.018652215054370445,0.14518040074406974
80,1791274010.371142,0.11366762695312509,-0.32926728515625003,0.0007185058593754356,0.3483357442784074,0.11146160187293176,-0.09865829310400782,-0.01879697585897834,0.1500349085770351
81,1791274010.391142,0.1471979003906251,-0.33405732421875006,0.0007185058593754356,0.3650507279738933,0.11333025372303537,-0.10284495285802074,-0.018890163906425,0.15420009413002211
82,1791274010.400119,0.1759381347656251,-0.3005270507812501,0.034248779296875434,0.34991958276068147,0.1142607646567749,-0.10486954848526885,-0.01890217491206831,0.15623839718795596
83,1791274010.420119,0.2813189941406251,-0.34363740234375006,0.09172924804687543,0.453476896546118,0.11670874870963444,-0.10966975022225785,-0.018735953169489627,0.16124336290325358
84,1791274010.445693,0.3387994628906251,-0.26699677734375005,0.024668701171875435,0.4320658514444661,0.12055886639676133,-0.11605828958101423,-0.018332030821196395,0.16834497379301824
85,1791274010.465693,0.1328277832031251,-0.13766572265625004,0.32644116210937546,0.37836345424002504,0.12382562534811606,-0.12091198634372467,-0.017536864075806513,0.17395411905456673
86,1791274010.4908113,0.1903082519531251,0.12099638671874996,0.46056225585937544,0.5128108305045089,0.1279217399113183,-0.12612486075355597,-0.015205381870964393,0.18028492915350608
87,1791274010.5108113,0.4441803222656251,0.08267607421874996,0.13483959960937544,0.4715010175588548,0.13164570325926891,-0.1293474016476153,-0.012734343564980911,0.18499595943059938
88,1791274010.5208595,0.2477887207031251,0.0060354492187499565,0.015088623046875436,0.24832104884687917,0.13375748569329,-0.1306567234974892,-0.011566106894123011,0.1873393156888759
89,1791274010.5408595,0.06097719726562509,0.12099638671874996,0.09651928710937543,0.1663559946905019,0.1377934573358402,-0.1326813546367459,-0.009422211710888183,0.19152064334251476
90,1791274010.56544,0.2334186035156251,0.24553740234374996,0.23064038085937544,0.4098388045315608,0.14255245046613815,-0.13412071056259925,-0.006579415264724477,0.19583884916160785
91,1791274010.58544,0.17114809570312509,0.37486845703125,0.3935017089843755,0.5697908613811038,0.1464506437360015,-0.13418556852377392,-0.003677110574058761,0.19866323009785056
92,1791274010.6102476,0.2190484863281251,0.6526907226562499,0.42703198242187546,0.8101504383849567,0.15128660838433747,-0.1323420972413214,0.0009095362337122243,0.20100471595171016
93,1791274010.6302476,0.3244293457031251,0.70059111328125,0.41745190429687545,0.8776949360473187,0.1554157691600456,-0.1290488995955924,0.005319355453579979,0.20207913136413516
94,1791274010.6407998,0.3244293457031251,0.71975126953125,0.34560131835937546,0.861821653010031,0.15778107876962866,-0.12644793042591962,0.007900906261646022,0.20235209968384635
95,1791274010.6607997,0.2238385253906251,0.59042021484375,0.36476147460937547,0.7292123482939626,0.16241409249498806,-0.12029240496349099,0.013125435752335261,0.20253611331453886
96,1791274010.6850703,0.1088775878906251,0.55209990234375,0.32644116210937546,0.6505631895766764,0.16779867997598055,-0.11186327040197418,0.0197727204421894,0.20263452011044836
97,1791274010.7050703,0.2142584472656251,0.48982939453124996,0.35039135742187544,0.6392289271673115,0.1720549486229098,-0.10439629904036465,0.025443973331651666,0.20285188778480512
98,1791274010.7305799,0.2525787597656251,0.18805693359374998,0.32165112304687543,0.4501342967545815,0.17756258211709186,-0.09500397042210817,0.03287827729664286,0.20404706830054858
99,1791274010.7505798,0.1807281738281251,0.20242705078124998,0.23064038085937544,0.35613813189014387,0.18188291286635958,-0.08815905395128079,0.03866104732051724,0.20578651405341375
100,1791274010.7608047,0.08013735351562509,0.19763701171874998,0.29770092773437545,0.36620790024726857,0.1839603829011784,-0.0848777659993486,0.04157914485269969,0.20681992874205843
101,1791274010.7808046,0.2429986816406251,0.20721708984374998,0.2641706542968755,0.4144555660068205,0.1878991286881767,-0.0788149520827448,0.04727363729026053,0.20917140343802365
102,1791274010.8051732,0.3148492675781251,0.044355761718749956,0.14441967773437545,0.3492198995032116,0.1929978879319215,-0.07207613388832493,0.05391796977777299,0.2129561017849151
103,1791274010.8251731,0.3914898925781251,-0.008334667968750044,0.06777905273437544,0.39740131186314737,0.19761439494978308,-0.06732096416463626,0.05887149053258177,0.2169087681606093
104,1791274010.8495266,0.4633404785156251,0.11141630859374996,-0.018441650390624564,0.47690469416947046,0.2039539533586885,-0.06221096508923578,0.06408862332718478,0.2226539263250167
105,1791274010.8695266,0.7507428222656252,0.14973662109374997,-0.18130297851562457,0.786706178251173,0.21020041057723185,-0.0582521969764654,0.06743083054290895,0.22830779217347855
106,1791274010.8949268,0.8225934082031251,-0.022704785156250046,-0.2483635253906246,0.8595695802159847,0.21994073511881668,-0.05373667832182493,0.07022024974558388,0.23704944850389537
107,1791274010.9149268,0.6357818847656251,-0.16161591796875005,-0.26752368164062457,0.7084541129639708,0.22864736309321823,-0.050990983715005066,0.07131334011634625,0.24487811161525966
108,1791274010.9249783,0.6453619628906251,-0.43464814453125006,-0.4782854003906246,0.9133279788319851,0.23333254128031103,-0.05026755466685372,0.07121805907713522,0.24908415006023066
109,1791274010.9449782,0.9854547363281252,-0.62624970703125,-0.8806486816406246,1.462481395910263,0.24370275955571666,-0.05063537152781287,0.06901851201820029,0.258299304811371
110,1791274010.9695227,1.0620953613281252,-0.7507907226562501,-0.7656877441406246,1.5093081154318935,0.25828956593577174,-0.053553961815912425,0.06369343862095526,0.2713639268967616
111,1791274010.9895227,0.7363727050781251,-0.6406198242187501,-0.5692961425781246,1.1299277047317984,0.27109037205145686,-0.05766254820129941,0.058002715009473016,0.28315945019111516
112,1791274011.014283,0.5974615722656251,-0.7603708007812501,-0.8327482910156246,1.2761637047041714,0.28703776204641285,-0.0645877262494712,0.049410678868623756,0.2983348226555995
113,1791274011.034283,0.7746930175781251,-0.74600068359375,-0.9764494628906246,1.4526251563930845,0.30004521146863594,-0.07160199632795591,0.040797732068509125,0.31115660003499995
114,1791274011.0452697,0.7267926269531251,-0.6597799804687501,-0.7465275878906246,1.2332236555882972,0.3073561451746346,-0.07603561503507017,0.035356254689953404,0.3185895156405391
115,1791274011.0652697,0.6501520019531252,-0.8322213867187501,-0.7992180175781246,1.3244015636419504,0.3207338347268838,-0.08513379372057367,0.02461799078515587,0.33275216158902293
116,1791274011.0894055,0.7315826660156252,-1.1579440429687502,-1.0770402832031247,1.7424303072156464,0.33695751469546353,-0.09806903764266708,0.010206583845649755,0.3510869937888623
117,1791274011.1094055,0.7842730957031251,-1.0525631835937501,-0.8758586425781246,1.578005673589157,0.3506583868926536,-0.11049568792357141,-0.0028733844726824345,0.3676667753362942
118,1791274011.1349084,0.8417535644531251,-1.3591256835937502,-0.7561076660156246,1.7684655749211846,0.36861855377025105,-0.12857750838302692,-0.020171929950098998,0.3909203507155524
119,1791274011.1549084,0.9854547363281252,-1.8716598632812502,-0.9716594238281246,2.327735748980869,0.3833314257846072,-0.14547683728282476,-0.03429461028236146,0.4114396826684227
120,1791274011.1644754,1.0189850097656252,-1.85728974609375,-1.2111613769531246,2.440239236651814,0.3907519014122471,-0.15502370556312517,-0.04160310782366326,0.42243368275315873
121,1791274011.1844754,0.6788922363281251,-1.4070260742187501,-0.9572893066406246,1.8322171974650052,0.40648442312192873,-0.17688434597185032,-0.05784251115394835,0.4470608618379058
122,1791274011.2103798,1.0764654785156251,-1.7614889648437502,-0.8231682128906246,2.222437222154031,0.42721533015791746,-0.2071074627456111,-0.0791802285055277,0.48132727746622744
123,1791274011.2303798,1.0333551269531251,-1.9962008789062502,-0.8375383300781246,2.398772857462008,0.4439848839352683,-0.2325781576532187,-0.0956743360229342,0.5102634174167382
124,1791274011.2550712,0.8321734863281252,-1.7519088867187502,-0.7561076660156246,2.0816811142245664,0.4650372506765439,-0.2662476140871889,-0.11593416808842805,0.5482592159319123
125,1791274011.2750711,1.3015973144531252,-1.3639157226562502,-0.5597160644531246,1.966647843490899,0.4827324531430407,-0.29410275900849,-0.1318567911904064,0.5804423033833203
126,1791274011.2851343,1.5842096191406252,-1.8860299804687501,-0.4734953613281246,2.5081919906187187,0.4924784569361347,-0.3084688490526001,-0.13944646508008784,0.5976063737991456
127,1791274011.3051343,1.2153766113281252,-2.44646455078125,-0.4160148925781246,2.7632223031163323,0.5131420163904206,-0.33923660367719444,-0.15360216769122537,0.6340266778134086
128,1791274011.3292422,1.2728570800781251,-2.51831513671875,-0.4112248535156246,2.8515227781451675,0.5388126170044201,-0.3797376731203176,-0.16960166061059684,0.6806500274824479
129,1791274011.3492422,1.5363092285156252,-2.4416745117187504,-0.6842570800781246,2.9648319039089404,0.5611282790855008,-0.4157374412786355,-0.18252710675083483,0.72181625803884
130,1791274011.3752365,1.6321100097656251,-3.01168916015625,-0.8710686035156247,3.5345176747910694,0.5919587672417079,-0.4661402315587519,-0.19983882790668744,0.7795110356698538
131,1791274011.3952365,1.608159814453125,-3.57691376953125,-0.9812395019531246,4.042687356657374,0.6169819638725912,-0.5089859910733019,-0.21393896060687198,0.8279513039536199
132,1791274011.4053385,1.6991705566406252,-3.7780954101562503,-1.1057805175781246,4.287649246598127,0.630231151186874,-0.532953795236784,-0.22157390297646942,0.8545911573751803
133,1791274011.4253385,1.5698395019531253,-3.8882663085937503,-1.2782219238281247,4.383704168279673,0.657430763365868,-0.5847870158582433,-0.23799819709134146,0.9115010720536463
134,1791274011.4499085,1.440508447265625,-3.91700654296875,-1.4602434082031246,4.421573888956771,0.6913806079289995,-0.6532957460665009,-0.26019516834570183,0.9861561755012778
135,1791274011.4699085,1.4740387207031251,-3.8116256835937503,-1.0962004394531246,4.231186110941098,0.7192423342858498,-0.7122898986444915,-0.27938792292670367,1.0501066834456563
136,1791274011.494887,1.7806012207031252,-3.3326217773437503,-1.0003996582031247,3.9086708858802894,0.7549173865377675,-0.7883017024849074,-0.3036905851048577,1.1329376885420255
137,1791274011.514887,1.6943805175781252,-2.98773896484375,-1.1824211425781246,3.632578866151384,0.7844096134348757,-0.8495144166201949,-0.32350474094343595,1.2006783512279553
138,1791274011.5399306,1.363867822265625,-3.0595895507812503,-1.1776311035156246,3.550780008931674,0.821543832913358,-0.9260245868643322,-0.34902671799756324,1.2861863996914986
139,1791274011.5599306,1.2393268066406251,-3.1793405273437503,-0.7752678222656246,3.499310977708179,0.8506560179806485,-0.9873194955236688,-0.3692808549300636,1.3545419140748964
140,1791274011.5697823,1.3830279785156252,-2.79134736328125,-0.4016447753906246,3.1409719860980596,0.8647828119319517,-1.017395118645167,-0.37863080309738356,1.3879133345818524
141,1791274011.5897822,1.5746295410156252,-2.14948212890625,-0.5022355957031246,2.711452047799794,0.8935963468538649,-1.0767045471224856,-0.39612079842570724,1.4542072754082307
142,1791274011.6148736,1.282437158203125,-2.31713349609375,-0.7896379394531247,2.763563058604513,0.9296992823737519,-1.1483568132702113,-0.41720300294346224,1.5352923082903225
143,1791274011.6348736,0.8704937988281252,-2.47999482421875,-0.8662785644531246,2.7674125701060506,0.9573892112780858,-1.2040984904539576,-0.4339705341417182,1.5983671984523529
144,1791274011.6602018,0.8417535644531251,-2.46562470703125,-0.7608977050781246,2.714188566917493,0.9904485798320442,-1.2734962540878292,-0.45511090966759843,1.6762777331234566
145,1791274011.6802018,1.1099957519531252,-2.32671357421875,-0.6794670410156246,2.6659636317163637,1.0155652879542376,-1.327263775308259,-0.47146064378213287,1.7364553325607224
146,1791274011.690093,1.1147857910156251,-2.3075534179687502,-0.5692961425781246,2.625194894590481,1.0277742796234055,-1.3533044454673528,-0.4792601250962226,1.7656282619748578
147,1791274011.710093,1.081255517578125,-2.4273043945312502,-0.7034172363281246,2.74876625531662,1.0520517538252145,-1.4051624442746677,-0.4945740477823695,1.8237044377493041
148,1791274011.735267,0.8800738769531251,-2.7434469726562503,-0.7417375488281246,2.97509763066922,1.0817290998923665,-1.4704074952719814,-0.5136868031960522,1.8963412613461088
149,1791274011.755267,0.8752838378906251,-2.6476461914062503,-0.5645061035156246,2.8451395910652537,1.1044033016575585,-1.5225542331502073,-0.5285530465405727,1.9537774613816827
150,1791274011.7796407,1.086045556640625,-2.4416745117187504,-0.33937426757812456,2.69377880787752,1.1314765687548964,-1.5858757642632744,-0.5456051058113773,2.0230981431473913
151,1791274011.7996407,1.167476220703125,-2.37940400390625,-0.5932463378906246,2.7159722673718494,1.1537396515657534,-1.6372722709653245,-0.558897342575957,2.0794571196361527
152,1791274011.8245044,0.9423443847656251,-2.4704147460937502,-0.6507268066406245,2.722940934742702,1.1811996030315046,-1.700627267710634,-0.5752631051846568,2.1490214624496926
153,1791274011.8445044,1.1147857910156251,-2.4943649414062503,-0.5645061035156246,2.7898514228670552,1.2030603913898408,-1.7513919192411276,-0.5882756581205826,2.2047213452160803
154,1791274011.855077,1.320757470703125,-2.5614254882812504,-0.5692961425781246,2.9375838586139613,1.2148145608006844,-1.7782114471777228,-0.5950217543694526,2.2342473578769546
155,1791274011.875077,1.287227197265625,-2.5374752929687503,-0.7177873535156246,2.9344426054489676,1.237626268358013,-1.8289833784366838,-0.6077995437537518,2.290484504229338
156,1791274011.89994,1.2201666503906252,-2.5901657226562502,-0.6411467285156246,2.934081500748597,1.2664065148734673,-1.8921946392963473,-0.6238356005498803,2.3607958129430053
157,1791274011.91994,1.248906884765625,-2.6668063476562502,-0.5070256347656246,2.988092953210146,1.289788504461268,-1.9433005462763013,-0.6365224495846993,2.417670827102712
158,1791274011.9302957,1.287227197265625,-2.81529755859375,-0.7561076660156246,3.1866209381430735,1.3020491025143748,-1.9700510140939183,-0.6430872101949149,2.4474464291189792
159,1791274011.9502957,1.3542877441406251,-2.8631979492187503,-0.9381291503906246,3.3033443800416262,1.326138426495769,-2.0224824428400887,-0.6564053048461642,2.5059820993086266
160,1791274011.974755,1.248906884765625,-2.83924775390625,-0.7082072753906246,3.1816118178987325,1.3559552899604461,-2.0874470287538944,-0.6732699076404592,2.578631849403744
161,1791274011.994755,1.1387359863281252,-2.6811764648437504,-0.6028264160156246,2.974697727507278,1.3802603574146342,-2.14087997579178,-0.6869578566286809,2.6382563980364866
162,1791274012.0198312,1.3542877441406251,-2.60932587890625,-0.7465275878906246,3.0331469261710966,1.4108518354674844,-2.207775375042351,-0.7040833615425843,2.7130256888364457
163,1791274012.0398312,1.3542877441406251,-2.5614254882812504,-0.7656877441406246,2.9968772993690456,1.4356537082859022,-2.260882182986561,-0.717961650235634,2.7727529184314665
164,1791274012.0497406,1.2345367675781251,-2.52310517578125,-0.7321574707031246,2.9027909536276937,1.448023031174202,-2.287026935859215,-0.7249196901701553,2.8022796900653777
165,1791274012.0697405,1.2345367675781251,-2.48957490234375,-0.6124064941406246,2.8455414140278736,1.4729467391608049,-2.33939838795962,-0.7388733486023789,2.861518956650018
166,1791274012.0955179,1.2249566894531252,-2.48957490234375,-0.5309758300781245,2.82496679937004,1.5050065480808508,-2.406399496216567,-0.7563706131563398,2.9373286757875907
167,1791274012.1155179,1.2297467285156252,-2.4512545898437503,-0.5692961425781246,2.8008970310383186,1.5298318298837745,-2.457997517476133,-0.7695603488317546,2.9957236778679075
168,1791274012.139647,1.1052057128906252,-2.54226533203125,-0.5309758300781245,2.822503856220783,1.5595154386247014,-2.519947474953445,-0.7850774374683929,3.0657087700326295
169,1791274012.159647,1.086045556640625,-2.57579560546875,-0.5022355957031246,2.8401511484148587,1.5837156400206438,-2.571270861226883,-0.797559682581809,3.123410078347131
170,1791274012.169597,1.1531061035156251,-2.56621552734375,-0.5692961425781246,2.8704030930688953,1.5956201842211297,-2.5968112859268304,-0.8036377002736891,3.152025726467348
171,1791274012.189597,1.1770562988281252,-2.6236959960937503,-0.6986271972656246,2.9592773055745494,1.6194549856439264,-2.6482333503123034,-0.8159242072275148,3.2095960244512307
172,1791274012.2154722,1.0668854003906252,-2.6572262695312503,-0.6986271972656246,2.9474015447191535,1.650020882977306,-2.715030747265463,-0.8321472919205817,3.2842700845559007
173,1791274012.2354722,1.2776471191406251,-2.71470673828125,-0.5836662597656246,3.056579974204299,1.67361934536871,-2.766974250078489,-0.8447292291999893,3.342262061008175
174,1791274012.2597454,1.363867822265625,-2.6907565429687503,-0.7273674316406246,3.103122554903721,1.7027726020058425,-2.8304002698644233,-0.8600956030562029,3.4132630528845795
175,1791274012.2797453,1.2728570800781251,-2.77218720703125,-0.8950187988281246,3.179032196658045,1.7271455030036655,-2.883015817567934,-0.8732911961278474,3.4723838074336046
176,1791274012.3049228,1.0764654785156251,-2.9973190429687504,-0.7656877441406246,3.275511729990619,1.7576618277043916,-2.950211383398314,-0.8905469898749625,3.547702953810746
177,1791274012.3249228,1.2297467285156252,-3.07874970703125,-0.6698869628906245,3.382266299079763,1.7817259470923867,-3.004696324500621,-0.9043515646991408,3.6084067267401534
178,1791274012.334715,1.3015973144531252,-3.07874970703125,-0.8087980957031246,3.4390419722867005,1.7935996081125447,-3.0318931152582524,-0.9111824907523441,3.6386300922222787
179,1791274012.3547149,1.205796533203125,-3.1458102539062502,-0.9189689941406246,3.4920726574998713,1.8179744821318358,-3.0884461205075833,-0.9256332658777104,3.701395358491213
180,1791274012.380062,1.1578961425781251,-3.2799313476562504,-0.8471184082031246,3.579983620053595,1.8487260006001736,-3.161583929340522,-0.944557892230416,3.7822731761910235
181,1791274012.400062,1.1818463378906252,-3.21766083984375,-0.7561076660156246,3.5102422778573366,1.872860162740311,-3.220382667348243,-0.9596551733669292,3.84699983949916
182,1791274012.4246645,1.2249566894531252,-3.26077119140625,-0.8183781738281246,3.5781126993345462,1.9025359157129536,-3.293816716586625,-0.9783461555654913,3.9275988432059856
183,1791274012.4446645,1.014194970703125,-3.36136201171875,-0.8902287597656247,3.6221337989007636,1.926400243079653,-3.3544919880913464,-0.9938243166741596,3.9939105106548443
184,1791274012.4553971,0.8178033691406251,-3.5385934570312503,-0.7656877441406246,3.7117009209053053,1.9387603367133328,-3.3877224015988574,-1.0022174235665273,4.029875243429734
185,1791274012.475397,0.8321734863281252,-3.4954831054687503,-0.7561076660156246,3.6718678699774263,1.9608130718143757,-3.450908824875202,-1.0177943774348228,4.097494968262636
186,1791274012.4999745,0.8896539550781252,-3.50027314453125,-0.6938371582031246,3.6776087676935165,1.9870218776579653,-3.5298048485841456,-1.0367378110897603,4.181220336256237
187,1791274012.5199745,0.7794830566406251,-3.4284225585937502,-0.5453459472656246,3.557959707200655,2.0076540097924904,-3.59476965375678,-1.051699611032982,4.249601811752888
188,1791274012.5598395,0.7267926269531251,-3.11227998046875,-0.4591252441406246,3.228824892933523,2.0471138836745784,-3.724393130025641,-1.0800521071335971,4.385007638971582
189,1791274012.5798395,0.5639312988281251,-3.04521943359375,-0.5453459472656246,3.144643399613708,2.0658771828490985,-3.788905829859827,-1.0936494124904481,4.451934968033901
190,1791274012.5748663,0.4010699707031251,-2.8775680664062504,-0.4208049316406246,2.9356995569529736,2.0658771828490985,-3.788905829859827,-1.0936494124904481,4.451934968033901
191,1791274012.5948663,0.5974615722656251,-2.6045358398437504,-0.21004321289062458,2.6804263509087725,2.0821618378340054,-3.8512909503679653,-1.1056515781209633,4.51556256910696
192,1791274012.6197603,0.7555328613281251,-2.34587373046875,-0.15256274414062457,2.469256741359584,2.1019170453585243,-3.9265368183525924,-1.1190268244255805,4.5921637258738075
193,1791274012.6397603,0.4537604003906251,-2.3075534179687502,-0.08550219726562457,2.3532980906547243,2.1172217130054687,-3.984901968168371,-1.1285178083194922,4.651410960303141
194,1791274012.6649482,-0.03482358398437491,-2.19738251953125,0.04861889648437544,2.198196173283536,2.134396614842972,-4.05589152467459,-1.138747485095178,4.722568242406974
195,1791274012.6849482,-0.3222259277343749,-1.7950192382812502,0.08214916992187545,1.8255607632787607,2.1454528073925925,-4.109792730184637,-1.1454555952096335,4.775503382306865
196,1791274012.695338,0.2573687988281251,-1.4453463867187502,-0.12382250976562457,1.4732945700489897,2.150284319601855,-4.136118738117642,-1.1484501494593329,4.801055989751281
197,1791274012.715338,0.6788922363281251,-1.50761689453125,-0.14777270507812457,1.6600120907959557,2.159594116171865,-4.18362326202808,-1.1537572849084012,4.847443266059523
198,1791274012.74041,0.5639312988281251,-1.45492646484375,0.05340893554687544,1.5613077987049697,2.171851325642829,-4.239813216467476,-1.1595898259290829,4.902815808861988
199,1791274012.76041,-0.006083349609374913,-1.30164521484375,0.24022045898437544,1.323640110219831,2.180999023286613,-4.282047327749934,-1.1631041013106902,4.944238789455184
200,1791274012.7844977,-0.38449643554687496,-1.1627340820312502,0.36476147460937547,1.277825883219037,2.1896581552226873,-4.329735607360099,-1.1656088140816359,4.989975668662118
201,1791274012.8044977,-0.14499448242187493,-1.0860934570312502,0.06298901367187544,1.0975381602396497,2.1949751423996564,-4.3667650714602875,-1.1667349016946138,5.024721225691064
202,1791274012.8150196,0.2238385253906251,-0.8801217773437501,-0.3010539550781246,0.9567400442502407,2.197415015553208,-4.38487555539294,-1.1674263333008104,5.041691247046513
203,1791274012.8350196,-0.10667416992187492,-0.8753317382812501,-0.2962639160156246,0.930245848420679,2.2015328112130823,-4.4167694430006055,-1.169439440064179,5.071704608457523
204,1791274012.8595986,-0.26953549804687493,-0.60708955078125,-0.3729045410156246,0.7617512087848831,2.2051407883068586,-4.452818872067923,-1.1727759168929117,5.105452492673187
205,1791274012.8795986,0.5687213378906251,-0.5352389648437501,-0.7225773925781246,1.0639749987307563,2.208085007133681,-4.479465782344812,-1.1767267968317863,5.130880923224448
206,1791274012.9046462,0.9471344238281252,-0.5639791992187501,-0.7561076660156246,1.3367254604290488,2.2140668257687763,-4.509896944443516,-1.183710400254933,5.161630814979165
207,1791274012.9246461,0.5351910644531251,-0.32447724609375006,-0.4687053222656246,0.7819204804986094,2.2203502242361033,-4.531883522338192,-1.1902874503928054,5.185046537194082
208,1791274012.9509058,0.05618715820312509,-0.027494824218750043,-0.26752368164062457,0.27473966285252155,2.22852743154194,-4.557114549002371,-1.1990776636516352,5.212620719880957
209,1791274012.9709058,0.4298102050781251,0.22158720703124996,-0.4160148925781246,0.6378919136938471,2.23455018879909,-4.57315747719638,-1.2057935803445403,5.230766866903869
210,1791274012.97979,1.1483160644531252,0.38444853515625,-0.6698869628906245,1.3838999252531685,2.2378757806472205,-4.578811131629927,-1.2090529180951173,5.237882047879644
211,1791274012.99979,1.2632770019531252,0.37007841796874996,-0.7369475097656246,1.5086147458048011,2.247856717990063,-4.5884976630653815,-1.2173999411475696,5.252545406303084
212,1791274013.0255928,0.9519244628906252,0.16889677734374997,-0.5549260253906246,1.1147327922433006,2.2630889239265457,-4.598077096255488,-1.229053523442389,5.27014772318523
213,1791274013.0455928,0.6788922363281251,0.32217802734374995,-0.5118156738281245,0.9092021963380038,2.275570753046811,-4.603651810994396,-1.2383314958071179,5.282546463828019
214,1791274013.0701241,1.052515283203125,0.47066923828124996,-0.6842570800781246,1.3407183540466086,2.2917696423307516,-4.608005197399685,-1.2502051584363234,5.296124331145572
215,1791274013.0901241,1.881192041015625,0.15452666015624997,-0.9716594238281246,2.122942302511677,2.307395863141893,-4.610084256545619,-1.260917357163776,5.307246470938671
216,1791274013.0996637,1.924302392578125,0.02998564453124996,-0.9620793457031246,2.1516123034572012,2.3164539758440013,-4.610795163829592,-1.2666439747632265,5.313170242313135
217,1791274013.1196637,1.2536969238281253,-0.14724580078125005,-0.7752678222656246,1.4813768929291087,2.337362915584095,-4.612237921165041,-1.2794550711903212,5.326632080383929
218,1791274013.1455915,1.4548785644531252,-0.08497529296875005,-0.8183781738281246,1.671417145155143,2.3656701925662453,-4.614279314679003,-1.2966710035422413,5.345028039711128
219,1791274013.1655915,2.120693994140625,-0.18556611328125006,-0.9237590332031246,2.3205836659355334,2.3895936857055635,-4.616023600188392,-1.310572120736467,5.360543922393676
220,1791274013.189989,2.230864892578125,-0.41548798828125005,-0.9764494628906246,2.470393084293064,2.4223625166382936,-4.61893207027049,-1.3284632231292297,5.382117442698027
221,1791274013.209989,1.8524518066406253,-0.63103974609375,-0.9956096191406246,2.195683804831998,2.4513204419284027,-4.6225284499041654,-1.3438876296260414,5.4021083976769075
222,1791274013.220401,2.221284814453125,-0.82743134765625,-1.2494816894531247,2.679543497367215,2.4673157724426535,-4.625258799620736,-1.3524662637396632,5.413855472670772
223,1791274013.240401,2.863150048828125,-1.18668427734375,-1.3836027832031246,3.394142666106831,2.501058527724833,-4.632737903333477,-1.3704225090645088,5.440184931915315
224,1791274013.2649522,2.7481891113281254,-1.3255954101562502,-1.3836027832031246,3.3502392817136544,2.546598925882352,-4.645167739423538,-1.394253861020134,5.477836547913408
225,1791274013.2849522,2.6380182128906253,-1.06693330078125,-1.3883928222656245,3.166247209043749,2.586211820461201,-4.657363335046655,-1.4149134214425931,5.511942017574978
226,1791274013.3101413,3.265513330078125,-1.0046627929687502,-1.5273039550781247,3.7424032395896325,2.6397718991479504,-4.674332845184958,-1.4425386117620174,5.558659989019869
227,1791274013.3301413,3.624766259765625,-0.9998727539062501,-1.6183146972656246,4.093607018428281,2.686254620548286,-4.6887922459760665,-1.4659010774917325,5.599071582086956
228,1791274013.3399498,3.8163678222656254,-0.8513815429687501,-1.5799943847656246,4.217332823292848,2.7111055638633865,-4.696181698089361,-1.477992839279517,5.620380659069456
229,1791274013.3599498,3.797207666015625,-0.8322213867187501,-1.7620158691406247,4.268029805245425,2.7655971193229,-4.711514364124565,-1.5039630715599661,5.666462737049924
230,1791274013.3997293,4.1660406738281255,-1.09567353515625,-1.8961369628906246,4.706562522018823,2.8814800308181043,-4.74318797708002,-1.558782992747474,5.764595716301251
231,1791274013.4197292,3.9792291503906254,-1.22979462890625,-2.006307861328125,4.622978552300691,2.9432212046725397,-4.7602120908911365,-1.588064287636699,5.8175698011770605
232,1791274013.4300783,3.5864459472656254,-0.9519723632812501,-2.1883293457031248,4.307856919440893,2.9762494058281064,-4.769393320848924,-1.6041989925645037,5.84624901816502
233,1791274013.4500782,3.9361187988281254,-1.0860934570312502,-2.4709416503906247,4.772649456594251,3.0417874668461056,-4.787532089154601,-1.6376917852895285,5.903809692203151
234,1791274013.4601278,4.486973291015626,-1.3255954101562502,-2.700863525390625,5.402295464753884,3.076127913554751,-4.797097030147938,-1.6558948981847592,5.9343652374149665
235,1791274013.4801278,4.084610009765625,-1.6369479492187502,-2.7152336425781245,5.170699300299437,3.1470759575022993,-4.8177210014231076,-1.6948116242432971,5.998908998435673
236,1791274013.5051339,3.5768658691406254,-1.8045993164062502,-2.8349846191406245,4.907920733809883,3.2368453332236276,-4.846093764086714,-1.746579881312407,6.083776274924725
237,1791274013.5251338,3.8355279785156253,-2.05368134765625,-3.0313762207031245,5.302652519553937,3.308992247573452,-4.871169967388777,-1.7905732702925579,6.154988154495325
238,1791274013.550084,4.486973291015626,-2.1255319335937504,-3.1319670410156246,5.87026684751405,3.401069566565496,-4.905580891378757,-1.8487565807341968,6.24899183655143
239,1791274013.570084,4.400752587890626,-1.9626706054687502,-2.9595256347656247,5.654864386369666,3.477138467286643,-4.935159238076815,-1.8975372897365457,6.328264880028344
240,1791274013.580147,4.137300439453125,-1.9578805664062502,-2.8254045410156245,5.378983366678316,3.516115078038227,-4.95076807751934,-1.9227655846814284,6.369473863124617
241,1791274013.600147,4.146880517578126,-1.97704072265625,-3.0888566894531246,5.535913989043678,3.594387125622335,-4.983039507290337,-1.9742568092609334,6.453525508508437
242,1791274013.6252813,4.2522613769531254,-2.16385224609375,-3.0888566894531246,5.683750435129219,3.693831103627772,-5.025318057110588,-2.04090569083804,6.56227901236642
243,1791274013.6452813,4.1995709472656255,-2.08242158203125,-2.811034423828125,5.465783596006501,3.7737692901058937,-5.060283203288077,-2.0948345058732016,6.651024910449728
244,1791274013.6854157,4.276211572265625,-2.02015107421875,-2.9020451660156246,5.548771208027978,3.9356338482374227,-5.132272855172314,-2.2040185285897675,6.8327985570846215
245,1791274013.7054157,4.276211572265625,-2.26923310546875,-3.0984367675781246,5.747670371586542,4.017024422856727,-5.169200018567326,-2.2592669812996227,6.925417051598739
246,1791274013.7456694,3.873848291015625,-2.43688447265625,-2.8685148925781245,5.401248393086575,4.18087111348638,-5.2465821960417145,-2.3717993649161384,7.115598375036589
247,1791274013.7656693,3.9361187988281254,-2.3506637695312502,-2.691283447265625,5.3161694808763365,4.261782059527088,-5.286443681299027,-2.4276639176666945,7.211298441722834
248,1791274013.7456694,4.204360986328125,-2.15906220703125,-2.6290129394531245,5.4083185883415394,4.261782059527088,-5.286443681299027,-2.4276639176666945,7.211298441722834
249,1791274013.7656693,4.563613916015625,-2.20696259765625,-2.6290129394531245,5.710425983910224,4.343771269680109,-5.3275425304954025,-2.4826964597495973,7.308545680830687
250,1791274013.7904203,4.429492822265625,-2.1446920898437503,-2.4901018066406246,5.515497967561583,4.446711149299801,-5.378853147913619,-2.5500888080085584,7.430225713991326
251,1791274013.8104203,4.458233056640625,-1.62736787109375,-2.624222900390625,5.423164574870101,4.530746129896001,-5.419753505438665,-2.6040481644846625,7.528775159097144
252,1791274013.835606,4.554033837890625,-1.54593720703125,-2.7631340332031247,5.546535470920722,4.6377206507156,-5.469527360086227,-2.6719825561774027,7.6526905828814265
253,1791274013.855606,4.582774072265625,-1.7710690429687501,-2.624222900390625,5.570013427571507,4.72363175232348,-5.508099333144135,-2.72591809246476,7.751289224520535
254,1791274013.865693,4.367222314453126,-1.6800583007812502,-2.7056535644531245,5.405163073277179,4.767232615194803,-5.5272459465877795,-2.7530723645303654,7.8010487760165255
255,1791274013.885693,4.161250634765626,-1.81417939453125,-2.7870842285156248,5.326827594142656,4.8535073178407,-5.5647557318334755,-2.8070754743419037,7.8995387433671445
