imu_index,t_imu,ax,ay,az,mag,vx,vy,vz,velocity
0,1791096733.0534797,-0.07157423753004809,0.07373896672175483,0.015291278545672743,0.10389480203918365,0.0,0.0,0.0,0.0
1,1791096733.0734797,-0.07157423753004809,0.011468458909254828,-0.03260911207932726,0.07948428283857846,-0.00030597957363581653,0.00022182810946477948,-6.480363974586455e-06,0.00037798572029683526
2,1791096733.1136613,0.005066387469951918,-0.08433232234074517,-0.008658916766827259,0.08492694338638283,-0.0010289369468845662,0.00038106447593651684,-0.00014191328989564644,0.0011063727931099492
3,1791096733.1336613,0.014646465594951918,-0.03164189265324517,0.015291278545672743,0.03807297630426274,-0.0013052353653959668,0.00027447279115883343,-0.0001892635062863031,0.0013471434025294595
4,1791096733.1136613,-0.07157423753004809,0.06894892765925484,0.024871356670672744,0.10244711067672294,-0.0013052353653959668,0.00027447279115883343,-0.0001892635062863031,0.0013471434025294595
5,1791096733.1336613,-0.0955244328425481,0.05936884953425483,0.005711200420672742,0.11261525374102996,-0.0018280915792895738,0.00043750320540691094,-0.0001263929346745366,0.0018839594079879778
6,1791096733.2033162,-0.018883807842548082,-0.046012009840745174,-0.013448955829327258,0.05152259369556531,-0.003973605062777479,0.0009899060513061672,1.9302229896568836e-05,0.004095097527705826
7,1791096733.2233162,0.03859666090745192,-0.06517216609074518,0.010501239483172742,0.0764682254066841,-0.004467669793678259,0.0009579493751215864,5.043901884615161e-05,0.004569494992366568
8,1791096733.204318,-0.07157423753004809,0.06415888859675484,0.058401630108172745,0.11247215150102878,-0.004467669793678259,0.0009579493751215864,5.043901884615161e-05,0.004569494992366568
9,1791096733.224318,-0.08115431565504809,0.10726924015925483,0.034451434795672746,0.13885105038588497,-0.005095770543146997,0.0011907106969095776,0.00030006588833819036,0.00524163227720943
10,1791096733.2337968,0.014646465594951918,-0.007691697340745172,-0.027819073016827258,0.032366371219543645,-0.005396081874977131,0.0013552692523451865,0.0004053430140385074,0.005578418889509716
11,1791096733.2537968,0.06254685621995192,-0.08912236140324517,-0.027819073016827258,0.11237795757445294,-0.005818892222129288,0.0015051796037284515,0.0005106975409905387,0.006032071311797519
12,1791096733.292974,-0.07157423753004809,0.03541865422175483,0.020081317608172743,0.08234447074192829,-0.0065494099075668055,0.0015969881098475435,0.0006633804117782069,0.0067738626153074355
13,1791096733.312974,-0.08115431565504809,0.10247920109675483,-0.02302903395432726,0.13273411773819818,-0.007095492894875601,0.0018436727630790563,0.000725211858461131,0.007366890858306667
14,1791096733.3085306,-0.023673846905048083,0.0018883807842548287,-0.04697922926682726,0.05264090606909342,-0.007095492894875601,0.0018436727630790563,0.000725211858461131,0.007366890858306667
15,1791096733.3285306,0.04338669996995192,-0.07954228327824518,0.0009211613581727419,0.09061031454336212,-0.007594124381608229,0.0020384902223767546,0.0006115375922316647,0.007886706900650912
16,1791096733.3530874,-0.018883807842548082,0.0018883807842548287,0.06319166917067275,0.06597993053343096,-0.008069401619259554,0.002098794718405037,0.000610980184746896,0.00836023196741974
17,1791096733.3730874,-0.10510451096754808,0.09289912297175483,0.058401630108172745,0.15194721344579007,-0.008584404011603788,0.002282722821529268,0.0007929840833410242,0.008918051326988533
18,1791096733.3983393,-0.057204120342548084,0.10247920109675483,-0.0038688777043272586,0.11742770651036696,-0.009444501988007802,0.0028501404724869984,0.0010915906615921356,0.009925396147603726
19,1791096733.4183393,0.01943650465745192,0.02583857609675483,-0.01823899489182726,0.03712237415186482,-0.010080185893540814,0.0034246121348445223,0.001259455894064361,0.01072027728519916
20,1791096733.473179,0.005066387469951918,-0.007691697340745172,0.0009211613581727419,0.00925629667983383,-0.011460991599676305,0.004838168747499242,0.0015794706367855908,0.012540212628564043
21,1791096733.493179,-0.07157423753004809,0.03541865422175483,0.029661395733172745,0.08518891325593873,-0.011988793743705286,0.005317952167558829,0.0017245468424370392,0.013228221819175478
22,1791096733.47418,-0.0955244328425481,0.06415888859675484,-0.0038688777043272586,0.11513578275476447,-0.011988793743705286,0.005317952167558829,0.0017245468424370392,0.013228221819175478
23,1791096733.49418,0.009856426532451919,0.02104853703425483,-0.03739915114182726,0.04403278961638995,-0.012711683281226283,0.005919367951122,0.0018003478459101266,0.014137434744296835
24,1791096733.5635426,0.05775681715745192,-0.0029016582782451714,-0.013448955829327258,0.05937292280006296,-0.014490962729105505,0.007786694234175147,0.0017592808413092792,0.016544354837571006
25,1791096733.5835426,-0.04762404221754808,0.049788771409254834,0.04403151292067274,0.08176640682863107,-0.014911844468558285,0.00831468498877199,0.0017950895836466626,0.017167394634314763
26,1791096733.5635426,-0.09073439378004809,0.06894892765925484,0.015291278545672743,0.11498046807851904,-0.014911844468558285,0.00831468498877199,0.0017950895836466626,0.017167394634314763
27,1791096733.5835426,-0.009303729717548082,-0.007691697340745172,-0.04697922926682726,0.048505356169643084,-0.015542395405115733,0.00893943448875186,0.0018490660062206142,0.018024943522879887
28,1791096733.593149,0.01943650465745192,-0.06038212702824518,-0.02302903395432726,0.06748418616701134,-0.015792530475540162,0.009145455802816758,0.0018206636499059148,0.01834007079561658
29,1791096733.613149,-0.04283400315504808,0.02104853703425483,0.034451434795672746,0.0588616521773689,-0.01627028046575134,0.009451042944531245,0.0017875347496562458,0.018900780927115474
30,1791096733.668407,-0.12426466721754809,0.06415888859675484,0.04882155198317274,0.14812702131179312,-0.018084777212028186,0.010521834421143095,0.0020548451879944503,0.021023571417370303
31,1791096733.688407,-0.08594435471754809,0.05457881047175483,0.010501239483172742,0.10235015725933405,-0.018958315413695966,0.011029366873851802,0.002226066616790158,0.022045861959687336
32,1791096733.6834786,0.009856426532451919,-0.0029016582782451714,-0.04218919020432726,0.04342230457783458,-0.018958315413695966,0.011029366873851802,0.002226066616790158,0.022045861959687336
33,1791096733.7034786,-0.028463885967548085,0.049788771409254834,-0.01823899489182726,0.06018118890052533,-0.01971436994285344,0.011532277979768484,0.002218729809255046,0.022947169315905028
34,1791096733.728846,-0.1386347844050481,0.09289912297175483,0.04403151292067274,0.1725938139854345,-0.02084740287660712,0.012345948975384232,0.0022598917269253077,0.02433400446740699
35,1791096733.748846,-0.09073439378004809,0.07852900578425483,0.015291278545672743,0.12096841804230436,-0.02195075631462978,0.013148371089149763,0.0023764604149435326,0.025697527686258888
36,1791096733.758513,-0.028463885967548085,0.0018883807842548287,0.0009211613581727419,0.028541326609106913,-0.022490483998458363,0.013536345916181762,0.0024361063435000825,0.026362646782223588
37,1791096733.778513,-0.014093768780048083,0.04020869328425483,0.015291278545672743,0.04526805201921206,-0.023503470940412767,0.01428177351435233,0.0025653166984210708,0.02762178579898992
38,1791096733.8337162,-0.061994159405048085,0.07373896672175483,0.029661395733172745,0.10079935223189906,-0.02619510059285173,0.01650242034086018,0.003054576907495634,0.031110185024519902
39,1791096733.8537161,-0.08594435471754809,0.04020869328425483,0.020081317608172743,0.09698675394260454,-0.02724590323388798,0.017357196235498737,0.003279859992826553,0.03247104842410456
40,1791096733.8337162,-0.061994159405048085,-0.0029016582782451714,0.024871356670672744,0.06686015108973385,-0.02724590323388798,0.017357196235498737,0.003279859992826553,0.03247104842410456
41,1791096733.8537161,-0.04762404221754808,0.03062861515925483,0.029661395733172745,0.06392151328428024,-0.0283581567132832,0.01806392863930262,0.0035817406776201917,0.033813006910694374
42,1791096733.8784823,-0.11947462815504808,0.09768916203425483,0.015291278545672743,0.1550844361994564,-0.02983925557984385,0.019046156128610412,0.003982987699166273,0.03562304630216731
43,1791096733.8984823,-0.0955244328425481,0.10247920109675483,0.024871356670672744,0.14228664136158184,-0.031178407604188645,0.02002062755860777,0.004318654994347093,0.03730374524807948
44,1791096733.9236882,-0.04762404221754808,0.07373896672175483,0.053611591045672743,0.10285760693686843,-0.03288358720197088,0.02139765941937925,0.004826605683385106,0.03952829693169512
45,1791096733.9436882,-0.10989455003004808,0.16474970890925483,0.10151198167067274,0.222539796743634,-0.03426991633424165,0.022684125649536875,0.005401876104229913,0.04145089851240079
46,1791096733.9537594,-0.22006544846754808,0.4952624042217548,0.11109205979567274,0.5532224655546639,-0.03511254029259782,0.023733308804789237,0.005808698508230503,0.042777346937161856
47,1791096733.9737594,-0.22964552659254808,0.49047236515925485,0.10630202073317274,0.5519060866495658,-0.03720942750681149,0.02698289604175511,0.006821492091456365,0.04646666470211333
48,1791096733.9984503,-0.1530049015925481,0.27492060734675483,0.14941237229567275,0.34830431701354864,-0.04011842079621135,0.03181025826333627,0.008357815772802672,0.05187709805351631
49,1791096734.0184503,-0.3877168156550481,0.36114131047175485,0.21168288010817277,0.5705760396317374,-0.04293238244150154,0.03608805211815525,0.009957237038917984,0.056962123707207754
50,1791096734.1336436,-0.2679658390925481,0.6054333026592549,0.30269362229567276,0.7279962938559108,-0.062373530484227904,0.06538166869512954,0.022231517236330062,0.0930562209906239
51,1791096734.1536436,-0.1434248234675481,0.7587145526592549,0.29790358323317273,0.8276261216919114,-0.06585969776582701,0.07175097604323523,0.024943823465347088,0.10053803599649933
52,1791096734.1336436,-0.0955244328425481,0.7012340839092549,0.2787434269831728,0.7606260946038244,-0.06585969776582701,0.07175097604323523,0.024943823465347088,0.10053803599649933
53,1791096734.1536436,-0.08115431565504809,0.8018249042217549,0.3601740910456728,0.882742644172265,-0.06894813150803644,0.08046881967071753,0.028597064315737015,0.10975822458989733
54,1791096734.1346378,-0.23443556565504808,0.8736754901592548,0.46076491135817277,1.015171512645977,-0.06894813150803644,0.08046881967071753,0.028597064315737015,0.10975822458989733
55,1791096734.1546378,-0.10031447190504808,0.9455260760967549,0.48471510667067275,1.0672540880630426,-0.07208402617919281,0.09163252240410542,0.03370144573452363,0.12136067500198933
56,1791096734.1937807,0.03859666090745192,0.8928356464092548,0.5038752629206728,1.025931515412025,-0.07748200040137333,0.11560105561741926,0.045095172857624724,0.14628957263290893
57,1791096734.2137806,0.01943650465745192,0.9742663104717548,0.46076491135817277,1.077903949789799,-0.07973932476993066,0.12881139006757,0.05149049883335506,0.16000626736478757
58,1791096734.208505,0.03380662184495192,0.9982165057842549,0.45597487229567274,1.0979490717996667,-0.07973932476993066,0.12881139006757,0.05149049883335506,0.16000626736478757
59,1791096734.228505,0.10086716871995192,0.8593053729717549,0.48471510667067275,0.9917301267877606,-0.08110034621146799,0.1436570500610476,0.05869099758306483,0.1750978223312832
60,1791096734.239145,0.23019822340745194,0.7108141620342548,0.31706373948317274,0.8116510394889298,-0.08145161527680304,0.15162332737472523,0.06258693859592412,0.18314235970466639
61,1791096734.259145,0.3547392390324519,0.7826647479717549,0.15420241135817275,0.8730305945931613,-0.08113543993900513,0.16659143344655283,0.06951846454863521,0.19791028832547589
62,1791096734.3280919,0.24935837965745192,0.8593053729717549,0.21168288010817277,0.919453624308702,-0.07708517266801836,0.21894227649860662,0.09172152045514859,0.24958101209478006
63,1791096734.3480918,0.20624802809495194,0.8880456073467549,0.25479323167067275,0.9466165225296397,-0.07540310329729462,0.23447126701404863,0.09789576475807812,0.2650395891175595
64,1791096734.329093,0.23977830153245194,0.8688854510967549,0.21647291917067274,0.9269930343576867,-0.07540310329729462,0.23447126701404863,0.09789576475807812,0.2650395891175595
65,1791096734.349093,0.3643193171574519,0.7874547870342549,0.005711200420672742,0.8676671160574664,-0.0727129795851444,0.2504155556124402,0.10329079589778863,0.2804712398982031
66,1791096734.3591518,0.32120896559495193,0.5527428729717548,0.005711200420672742,0.6393219071875245,-0.07104577066466446,0.2582428501979417,0.10560580406559486,0.2879052918236021
67,1791096734.3791518,0.3547392390324519,0.5000524432842548,0.034451434795672746,0.6140678098576381,-0.06721418721569483,0.2730505405655426,0.10957852150659092,0.3017976094036729
68,1791096734.4036415,0.4840702937199519,0.41383174015925484,0.03924147385817275,0.6380600690341931,-0.06168557316246346,0.29014109596200344,0.1138487219655208,0.3177239320472989
69,1791096734.4236414,0.608611309344952,-0.10828251765324517,-0.14757004957932726,0.6355389437514803,-0.05620875214475747,0.30246317687192936,0.11665047597695188,0.3290147880062235
70,1791096734.4779508,0.44574998121995196,-0.32383427546574517,-0.15715012770432726,0.5729379079459641,-0.039272798652205,0.329144292949133,0.12187615844892694,0.3531743426315525
71,1791096734.4979508,0.5271806452824519,-0.1753430645282452,-0.12840989332932726,0.5702225212523861,-0.03251209155551153,0.33674728272484156,0.1230835682436155,0.3600074072730436
72,1791096734.5677989,0.9534941218449521,-0.1801331035907452,-0.10924973707932727,0.976490901367756,-0.004685955990866006,0.3574549040317793,0.12542281422367524,0.37884937498655513
73,1791096734.5877988,1.010974590594952,-0.5777063457782452,-0.3200114558293273,1.207568456296822,0.005033213672643382,0.3613580743726574,0.12534826088524537,0.38251428425765355
74,1791096734.5677989,0.867273418719952,-0.8172082989032452,-0.4493425105168273,1.2735388798038692,0.005033213672643382,0.3613580743726574,0.12534826088524537,0.38251428425765355
75,1791096734.5877988,0.819373028094952,-0.7597278301532452,-0.48287278395432726,1.217261130802529,0.016980044940033648,0.3600341985303386,0.1229151491184606,0.38081633357875055
76,1791096734.5692863,1.025344707782452,-0.8124182598407452,-0.5211930964543273,1.4081894199616032,0.016980044940033648,0.3600341985303386,0.1229151491184606,0.38081633357875055
77,1791096734.5892863,0.987024395282452,-1.3201624004657453,-0.7654850886418273,1.8174194181363736,0.030982194176790663,0.35387434594136935,0.11794702765327986,0.37429727544250685
78,1791096734.5993073,0.939124004657452,-2.0290881817157453,-1.0720475886418273,2.4796045607344563,0.03839323396495744,0.34873371013807725,0.11445010635815611,0.3690366754759609
79,1791096734.6193073,1.063665020282452,-2.3596008770282455,-1.0816276667668274,2.8051769968685374,0.05396980432876415,0.3334298989126898,0.10528727686809039,0.3537988806349019
80,1791096734.6438546,0.9726542780949521,-2.230269822340745,-0.7415348933293273,2.543626117015857,0.07396922842717442,0.3090138175051689,0.09237150284426991,0.33089799138244747
81,1791096734.6638546,1.106775371844952,-1.7991663067157453,-0.5164030573918272,2.174539776740663,0.09093874664468643,0.2860605859046842,0.08153992336383449,0.3110454525493303
82,1791096734.6885056,1.145095684344952,-1.8087463848407452,-0.49245286207932726,2.196660518229893,0.11288053684214305,0.25534274600888995,0.06832679359640405,0.2874203963888028
83,1791096734.7085056,1.183415996844952,-2.0195081035907454,-0.3870720027043273,2.372490492569941,0.13150491080363153,0.2284165756265064,0.05789540131216164,0.2698509793932697
84,1791096734.7482314,1.274426739032452,-2.0961487285907454,-0.30085129957932727,2.4715409181302377,0.1702723010135257,0.17069352308750083,0.038233966756369225,0.2441122109407701
85,1791096734.7682314,1.2025761530949521,-1.8039563457782453,-0.39186204176682726,2.203180374196339,0.19057765849517844,0.14014175549715907,0.02878111543597743,0.2383021362830586
86,1791096734.7787812,1.0445048640324521,-1.7895862285907453,-0.3870720027043273,2.1079454489684113,0.2014598615848215,0.12360004221863134,0.023926457151403055,0.23756161646621451
87,1791096734.7987812,0.919963848407452,-1.8901770489032452,-0.37270188551682726,2.1349495202568676,0.22194220818831395,0.09142498806950486,0.01496397236738577,0.24050112824688763
88,1791096734.8089004,0.900803692157452,-2.110518845778245,-0.3870720027043273,2.327135970558483,0.2321328305316878,0.07455129030530615,0.010532886023875865,0.24403788145456287
89,1791096734.8289003,0.929543926532452,-2.1679993145282452,-0.4780827448918273,2.4068311220589647,0.2519983211626984,0.039786160161438135,0.001791049099996441,0.25512604780007997
90,1791096734.853871,0.9343339655949521,-2.3260706035907455,-0.3391716120793273,2.5295497217081726,0.2765714315070492,-0.005525166707935632,-0.009016861956203312,0.27677353195807236
91,1791096734.873871,0.805002910907452,-2.0961487285907454,-0.04218919020432726,2.2458070056690462,0.2959096933606752,-0.043006229590222926,-0.01694687810300092,0.2994983791038171
92,1791096734.883654,0.8768534968449521,-1.6458850567157453,0.11109205979567274,1.8681946152901354,0.30518416330906833,-0.061335706190367406,-0.020193457586363754,0.3119410491067494
93,1791096734.903654,1.111565410907452,-1.3201624004657453,0.18294264573317276,1.7354752772532325,0.3242830478903423,-0.09763592959182414,-0.025393991539804206,0.33961319865787504
94,1791096734.9437015,1.250476543719952,-1.3393225567157452,0.18294264573317276,1.8414517395113157,0.3638841873758361,-0.16740741689366728,-0.033146428965197566,0.40191495469356153
95,1791096734.9637015,1.1259355280949521,-1.3680627910907452,0.10151198167067274,1.7747200613663456,0.3842593468141052,-0.20108624253662993,-0.03601062991064118,0.4351869575459084
96,1791096734.9738326,0.742732403094952,-1.3010022442157452,-0.06134934645432726,1.4993405231540902,0.39445221867018,-0.21761548336243697,-0.037213360679929364,0.4520330581118919
97,1791096734.9938326,0.733152324969952,-1.2339416973407453,-0.13798997145432726,1.4419312314625035,0.41376964568524555,-0.24915390185015265,-0.03953054724365248,0.484608760406817
98,1791096735.0334342,0.790632793719952,-1.2578918926532452,0.015291278545672743,1.4858082148473069,0.45080801131084003,-0.3096362458224268,-0.04379495952746262,0.5486533206580024
99,1791096735.0534341,0.824163067157452,-1.2339416973407453,0.13504225510817275,1.4899977464302552,0.46912986798406336,-0.3393375847975311,-0.045400067418590574,0.5807701745205059
100,1791096735.0480978,0.709202129657452,-1.0135999004657452,0.13504225510817275,1.2444230910745488,0.46912986798406336,-0.3393375847975311,-0.045400067418590574,0.5807701745205059
101,1791096735.0680978,0.766682598407452,-1.0040198223407453,0.10630202073317274,1.2677374057611064,0.4865362731727615,-0.3666888417093649,-0.045853384379293566,0.6109670896259723
102,1791096735.0930455,0.900803692157452,-1.0567102520282452,-0.01823899489182726,1.3886743712911098,0.508111853225736,-0.3995444958048036,-0.04616925303376205,0.648031680893845
103,1791096735.1130455,0.881643535907452,-1.0662903301532451,-0.14278001051682726,1.3909193089424334,0.5254876922597723,-0.4251177050990062,-0.046626022564774584,0.6775222239051333
104,1791096735.1534026,0.848113262469952,-0.9752795879657452,-0.22900071364182728,1.3125957898486973,0.5605259645977273,-0.47515972501119674,-0.04853476379073412,0.7364249755115256
105,1791096735.1734025,0.613401348407452,-1.0135999004657452,-0.09487961989182726,1.188548743099359,0.577477715940081,-0.4992226842769763,-0.049824619785117805,0.764974701307706
106,1791096735.1683962,0.709202129657452,-1.0758704082782453,-0.07571946364182726,1.2908130125210504,0.577477715940081,-0.4992226842769763,-0.049824619785117805,0.764974701307706
107,1791096735.1883962,0.881643535907452,-1.0327600567157453,-0.12361985426682727,1.3635140364234817,0.5937979403338891,-0.5224351871305619,-0.05127306305683387,0.7925676284659525
108,1791096735.2136416,0.848113262469952,-1.0806604473407453,-0.027819073016827258,1.3740076452653534,0.614583560526568,-0.551342183070925,-0.05311387932422596,0.8273525487238167
109,1791096735.2336416,0.761892559344952,-1.0040198223407453,0.07277174729567275,1.2624705156330616,0.6309953668953447,-0.5739348423778944,-0.054286035089074675,0.8546948753469986
110,1791096735.2436535,0.747522442157452,-0.9752795879657452,-0.03260911207932726,1.2292369301409216,0.6391121091727425,-0.5850344117010473,-0.05475463729420982,0.8681748794285876
111,1791096735.2636535,0.905593731219952,-1.1285608379657452,-0.18589036207932727,1.45887106960444,0.6553738134610135,-0.6070369700211039,-0.05587806142191929,0.8950592584243268
112,1791096735.3638284,0.7954228327824521,-1.2291516582782451,-0.04697922926682726,1.464827064858622,0.737386940508337,-0.7184252580512409,-0.06241054607272038,1.0313919854736768
113,1791096735.3838284,0.800212871844952,-1.1812512676532452,0.08235182542067275,1.4291525533507126,0.7536982671817566,-0.7409437879441565,-0.06346606960717273,1.0588138253900918
114,1791096735.3638284,0.900803692157452,-1.0423401348407453,0.058401630108172745,1.3788875947312067,0.7536982671817566,-0.7409437879441565,-0.06346606960717273,1.0588138253900918
115,1791096735.3838284,0.886433574969952,-1.0279700176532451,0.03924147385817275,1.3579494590368908,0.7703328480981079,-0.7631539643933644,-0.06390276035989235,1.0862321266699235
116,1791096735.36483,0.771472637469952,-1.0615002910907452,0.005711200420672742,1.3122444574700347,0.7703328480981079,-0.7631539643933644,-0.06390276035989235,1.0862321266699235
117,1791096735.38483,0.7954228327824521,-1.1477209942157451,0.015291278545672743,1.3964937474528127,0.7868155021790434,-0.7851787177485494,-0.06412945113528104,1.1134167412866707
118,1791096735.408444,0.838533184344952,-1.1620911114032453,0.04882155198317274,1.4338679145542523,0.80625118715996,-0.8113733859725111,-0.06424340971343884,1.1456417258257274
119,1791096735.428444,0.805002910907452,-1.0615002910907452,-0.03739915114182726,1.33274575634715,0.8227084984602708,-0.8335666618205836,-0.06430831643276776,1.1729527751362718
120,1791096735.468516,0.752312481219952,-0.9848596660907453,-0.10924973707932727,1.2441294692850888,0.8554168348888425,-0.8775135307275774,-0.06485959793261183,1.2271816187774345
121,1791096735.488516,0.771472637469952,-1.0279700176532451,-0.05176926832932726,1.28630184820757,0.8715784930329283,-0.8991765206312161,-0.06533499846926691,1.2539681602006445
122,1791096735.4835324,0.7762626765324521,-0.9704895489032452,-0.03260911207932726,1.2431802209246867,0.8715784930329283,-0.8991765206312161,-0.06533499846926691,1.2539681602006445
123,1791096735.5035324,0.7954228327824521,-0.8651086895282453,-0.07092942457932726,1.1773451112057556,0.8875861777010965,-0.920129459085761,-0.06594136534629756,1.2801545641004572
124,1791096735.5284185,0.752312481219952,-0.8124182598407452,-0.06134934645432726,1.1089460043808979,0.9074056767095648,-0.945421613944526,-0.06682958931525648,1.3121254834223217
125,1791096735.5484185,0.752312481219952,-0.9225891582782452,0.010501239483172742,1.1904852373727968,0.9232015248170008,-0.9653014654438472,-0.06751261674385461,1.337410156994509
126,1791096735.6039608,0.713992168719952,-0.9465393535907453,0.13504225510817275,1.1932971028013548,0.9665965048255114,-1.0200149578066997,-0.06851864935134838,1.40692363779959
127,1791096735.6239607,0.848113262469952,-0.7884680645282452,0.13983229417067275,1.1664180490936242,0.9822216976410516,-1.0393637957400845,-0.06841425745917089,1.431683300816139
128,1791096735.6482418,0.785842754657452,-0.8315784160907452,0.04403151292067274,1.144993568228961,1.0013215896219767,-1.0622809526481558,-0.06797170068930518,1.4614054537659125
129,1791096735.6682417,0.646931621844952,-0.9417493145282452,-0.07092942457932726,1.144745944753033,1.0168432428814114,-1.0809860344071076,-0.06770219824574207,1.485625987529868
130,1791096735.6636398,0.6038212702824519,-0.9656995098407453,-0.11882981520432727,1.1451184195242272,1.0168432428814114,-1.0809860344071076,-0.06770219824574207,1.485625987529868
131,1791096735.6836398,0.5607109187199519,-0.9273791973407453,-0.10445969801682727,1.0887335480005675,1.0313991423956084,-1.0997720662623889,-0.06808435948067056,1.5092773995098892
132,1791096735.70827,0.699622051532452,-0.9225891582782452,-0.07571946364182726,1.1603340928961985,1.048964278478252,-1.122854476341802,-0.06881724181437629,1.5381365496389325
133,1791096735.72827,0.761892559344952,-1.0567102520282452,-0.06134934645432726,1.3041781209011183,1.0632801087074513,-1.1417550380452652,-0.06952868453770653,1.5617308969371833
134,1791096735.7384505,0.7571025202824521,-1.0662903301532451,-0.08529954176682726,1.3105171903572987,1.0706339532134999,-1.151553740386979,-0.06994847646932927,1.5739205406033652
135,1791096735.7584505,0.5463408015324519,-0.9944397442157452,0.005711200420672742,1.134650295952565,1.0848690205517542,-1.171007311542238,-0.07076885338926905,1.59787582310026
136,1791096735.7684147,0.512810528094952,-0.9561194317157452,0.005711200420672742,1.084975402135785,1.0916888098829232,-1.180703197592862,-0.07110773051784994,1.6096275369690347
137,1791096735.7884147,0.742732403094952,-0.9656995098407453,-0.03260911207932726,1.2187248746556625,1.105207375292944,-1.200128088993247,-0.07172623612433282,1.6330754499841902
138,1791096735.813977,0.733152324969952,-1.1046106426532452,0.13025221604567275,1.3321571391005154,1.1227234446226901,-1.225200395759092,-0.07221098093231712,1.6633816064393887
139,1791096735.833977,0.685251934344952,-1.0902405254657452,0.21647291917067274,1.3057776003690658,1.1364999637250623,-1.2451667963353568,-0.07201326918734133,1.6873821230480583
140,1791096735.858162,0.761892559344952,-1.1812512676532452,0.16857252854567276,1.4157159060693927,1.1532852437299521,-1.2698096736478437,-0.07111162634674402,1.7168402150743607
141,1791096735.878162,0.852903301532452,-1.5261340801532453,0.11588209885817274,1.7521295423586476,1.1675060777325694,-1.2911926214871998,-0.07005116559916065,1.7421699093737317
142,1791096735.8884192,0.781052715594952,-1.7464758770282454,0.04882155198317274,1.9137933215260925,1.1749624041217819,-1.3030317572382442,-0.06946217003966963,1.7559195324779675
143,1791096735.9084191,0.5655009577824519,-1.7464758770282454,0.09193190354567275,1.8380480943609665,1.189340077207532,-1.3278929334026823,-0.06827486021304299,1.783953732127016
144,1791096735.9487307,0.781052715594952,-1.7512659160907453,0.020081317608172743,1.9176493195358444,1.218043660602103,-1.381061144605532,-0.06590205208670002,1.842634886444233
145,1791096735.9687307,0.963074199969952,-1.9716077129657452,-0.09966965895432726,2.1965160890350544,1.2327645715811462,-1.4090672660355108,-0.06502078641435909,1.8733410666038304
146,1791096735.97881,0.9726542780949521,-2.2015295879657453,-0.23858079176682728,2.4186173044913746,1.240533951648259,-1.424219065472402,-0.06489897662722645,1.8898508694641458
147,1791096735.99881,0.7571025202824521,-2.0626184551532454,-0.3152214167668273,2.219676476278759,1.25623249400956,-1.4561704491547525,-0.06552423361291917,1.9242780155652126
148,1791096736.0080357,0.805002910907452,-2.0721985332782453,-0.24816086989182726,2.236877346936003,1.2634685673733104,-1.4715591893381457,-0.06615920555567836,1.9406741892820816
149,1791096736.0280356,0.800212871844952,-1.8614368145282452,-0.29127122145432727,2.046979867804005,1.2792102681325481,-1.5058163980758255,-0.06813841282365048,1.9769938740704092
150,1791096736.0537539,0.575081035907452,-1.6027747051532453,-0.33438157301682725,1.7353431907587238,1.2990690990493567,-1.5499423851408376,-0.07150853630864329,2.023614437615521
151,1791096736.0737538,0.27809861403245195,-1.2722620098407453,-0.28169114332932726,1.332418613289745,1.3134757441624494,-1.583422634888868,-0.07466032830517103,2.058645169961094
152,1791096736.0984411,0.14876755934495192,-1.2483118145282452,-0.23379075270432728,1.2786994521991124,1.3293817149752434,-1.623217435950052,-0.07892166145035064,2.0995997754640916
153,1791096736.118441,0.34994919996995194,-1.4111731426532452,-0.28169114332932726,1.4809537404441873,1.3410828443470197,-1.6546098685855697,-0.0826292920651402,2.1314466009097757
154,1791096736.143121,0.4122197077824519,-1.1812512676532452,-0.42060227614182727,1.3199189064152141,1.354766889417103,-1.6923358461025624,-0.08781815345567141,2.169586589362345
155,1791096736.163121,0.21103806715745194,-0.6830872051532452,-0.3056413386418273,0.7775357377769803,1.3651276055896806,-1.7211187216948978,-0.09248170421401528,2.1987214237656443
156,1791096736.173148,-0.1769550969050481,-0.3429944317157452,0.005711200420672742,0.385993399320412,1.369568404119778,-1.7341560341877347,-0.09469460650860845,2.211782501281432
157,1791096736.193148,0.00027634840745191785,-0.08433232234074517,0.029661395733172745,0.08939695384444331,1.3768324594300891,-1.7569009041623456,-0.09839337364941853,2.23428952115989
158,1791096736.2483165,0.5990312312199519,0.03541865422175483,-0.18589036207932727,0.628210254419454,1.396343987707103,-1.8104324821879927,-0.10771217847570588,2.2888958512695883
159,1791096736.2683165,0.5271806452824519,0.05457881047175483,-0.17152024489182727,0.5570614631444959,1.4040457003078035,-1.8267930195437272,-0.11111984487624503,2.306699955506099
160,1791096736.2493174,0.23977830153245194,0.3467711932842548,0.015291278545672743,0.42187405416443285,1.4040457003078035,-1.8267930195437272,-0.11111984487624503,2.306699955506099
161,1791096736.2693174,0.23977830153245194,0.5623229510967549,0.10630202073317274,0.6204843711391179,1.4113073936050127,-1.8367381471003699,-0.11359868581778403,2.3191162630789774
162,1791096736.2928345,0.3738993952824519,0.6102233417217549,-0.02302903395432726,0.716033254101734,1.419647699404891,-1.8446099743629085,-0.11592935978385713,2.330541817776421
163,1791096736.3128345,0.16313767653245193,0.6868639667217549,-0.07571946364182726,0.7100207373445911,1.4264822659688563,-1.8483547048178122,-0.11776227201236392,2.3377627601309974
164,1791096736.338251,0.11044724684495193,0.9982165057842549,0.09672194260817275,1.0089548656593395,1.4343865332206283,-1.8491876112973227,-0.11970216086389494,2.3433497723932883
165,1791096736.358251,0.2733085749699519,1.146707716721755,0.11109205979567274,1.184051354667935,1.440248961191493,-1.8465273202320729,-0.1206879411075212,2.344897821591676
166,1791096736.383406,0.3643193171574519,1.0604870135967548,0.029661395733172745,1.1217134523835735,1.4477193295785808,-1.8395191324713496,-0.12147627310254641,2.3440303711536004
167,1791096736.403406,0.20624802809495194,1.026956740159255,-0.28169114332932726,1.084678890493294,1.4536237587763547,-1.8316517389348335,-0.1223870831047769,2.341569713447155
168,1791096736.4137437,-0.0955244328425481,0.7635045917217549,-0.6026237605168273,0.9773533524726543,1.4563037661468399,-1.8268069239460336,-0.12347289718504036,2.339506305400758
169,1791096736.4337437,-0.2009052922175481,0.44257197453425484,-0.7127946589543273,0.8627335132692964,1.4602662445280017,-1.817030782970759,-0.1272315835862721,2.3345591119166618
170,1791096736.4584413,0.15834763746995192,0.02583857609675483,-0.6792643855168273,0.6979553794753474,1.4643466160564116,-1.805901646180985,-0.133755408551446,2.3288371082907067
171,1791096736.4784412,0.38826951246995195,-0.23282353327824518,-0.7511149714543273,0.8770026866005914,1.4679751706717128,-1.798551638583529,-0.14039150005466633,2.3258221926122684
172,1791096736.502948,0.3259990046574519,-0.12744267390324518,-0.7511149714543273,0.8286680194819233,1.4730672896210397,-1.7915584825203772,-0.15006437130385136,2.3242479109546412
173,1791096736.522948,0.34994919996995194,0.38988154484675486,-0.4637126277043273,0.6996438112812502,1.4776135331614177,-1.786313783076318,-0.15859652842643615,2.3236633886643547
174,1791096736.5331786,0.48886033278245195,0.7970348651592549,-0.16194016676682726,0.9489328842758423,1.4802338433187352,-1.7831226862658116,-0.16278635433924796,2.323169847932135
175,1791096736.5531785,0.805002910907452,0.9598961932842549,-0.14757004957932726,1.261430659205618,1.4865287784256287,-1.7751846798635789,-0.17021280929427454,2.321641845151357
176,1791096736.5779574,0.627771465594952,0.8353551776592548,-0.03739915114182726,1.0456165560871196,1.4958206729398553,-1.763488831925375,-0.17837737179577673,2.319308265989783
177,1791096736.5979574,0.5655009577824519,0.7922448260967548,0.04882155198317274,0.974590550779143,1.5039854560705426,-1.7530232813073838,-0.18396168742187027,2.317089721896096
178,1791096736.6380844,0.5415507624699519,0.9934264667217548,0.12067213792067275,1.137864288035002,1.5212413866694283,-1.7298012954845843,-0.19297508766530783,2.311628703497927
179,1791096736.6580844,0.5032304499699519,1.1802379901592548,0.17336256760817276,1.2947035100901736,1.5301191024026572,-1.7167027128601324,-0.19635259981895303,2.308004985985627
180,1791096736.697458,0.622981426532452,1.386209669846755,0.23084303635817274,1.5371960232891964,1.5483006337011889,-1.6872050135383967,-0.20081083661307136,2.2987432658150073
181,1791096736.717458,0.828953106219952,1.5251208026592549,0.17336256760817276,1.7444802363063374,1.5583286018137068,-1.670102078402288,-0.2021294196627818,2.2931387410724886
182,1791096736.698459,0.939124004657452,1.558651076096755,0.14941237229567275,1.8258343654714255,1.5583286018137068,-1.670102078402288,-0.2021294196627818,2.2931387410724886
183,1791096736.718459,0.733152324969952,1.4963805682842548,0.14941237229567275,1.673018587387055,1.570336517043734,-1.6492308592743872,-0.2022223215708787,2.286222445713779
184,1791096736.743644,0.5271806452824519,1.620921583909255,0.07277174729567275,1.7060486338752996,1.5855700283426053,-1.6210027523267103,-0.20190208097980195,2.2764987784167854
185,1791096736.763644,0.536760723407452,1.4868004901592549,0.12067213792067275,1.5853231647210095,1.5974485806319436,-1.5972871613877206,-0.20139575257498354,2.267978944534604
186,1791096736.7878249,0.6373515437199521,1.2856188495342549,0.15899245042067275,1.4437144509392281,1.6117853662926533,-1.5678869476005537,-0.2003682141800741,2.257491742776712
187,1791096736.8078249,0.632561504657452,1.232928419846755,0.14462233323317275,1.393255958146285,1.6237694797905846,-1.5434397845588448,-0.19919039815635514,2.249113271219599
188,1791096736.8177109,0.6038212702824519,1.280828810471755,0.08714186448317275,1.4187023199831628,1.6297214016913764,-1.531304319291433,-0.1985236890493518,2.245060449191796
189,1791096736.8377109,0.6373515437199521,1.2089782245342549,0.03924147385817275,1.3672546328137882,1.641818067673811,-1.5067014995908956,-0.19718764307521747,2.2370960960117876
190,1791096736.8933702,0.3930595515324519,1.1658678729717549,0.09672194260817275,1.234138907279272,1.6747343968502315,-1.4385893127103755,-0.1934596245037496,2.216235803553167
191,1791096736.9133701,0.35952927809495194,1.1323375995342548,0.09193190354567275,1.1915960792214813,1.6859168930839288,-1.4143385446689252,-0.1920379975974063,2.208969868930584
192,1791096736.8943713,0.43616990309495196,1.0556969745342548,-0.02302903395432726,1.1424844081262153,1.6859168930839288,-1.4143385446689252,-0.1920379975974063,2.208969868930584
193,1791096736.9143713,0.5032304499699519,0.6581237323467548,-0.05176926832932726,0.8300890253450753,1.6964198612870482,-1.391456894728866,-0.19103521842905136,2.2023821399425443
194,1791096736.9377232,0.23498826246995194,0.47131220890925485,0.0009211613581727419,0.5266455452235553,1.7081365170080072,-1.366769754210486,-0.19012905822155174,2.195891386326075
195,1791096736.9577231,0.03380662184495192,0.5671129901592549,-0.07092942457932726,0.5725303612552728,1.7170693314374543,-1.3472400963638886,-0.18957439384165964,2.1907353598766965
196,1791096737.0276263,0.00027634840745191785,0.5814831073467549,-0.07571946364182726,0.5863924604497281,1.7437863934984084,-1.283197922521379,-0.18869539043504358,2.173245003418805
197,1791096737.0476263,0.00027634840745191785,0.5431627948467549,0.11588209885817274,0.5553868551829036,1.7502846367137448,-1.2659363188550388,-0.18842137867936662,2.168315864641461
198,1791096737.0286403,-0.29670607346754807,0.6006432635967549,0.35059401292067277,0.7561236578976429,1.7502846367137448,-1.2659363188550388,-0.18842137867936662,2.168315864641461
199,1791096737.0486403,-0.5362080265925481,0.8593053729717549,0.3984944035456728,1.088449613651281,1.753352299939216,-1.2498165380060064,-0.18650501715745657,2.1612657837018476
200,1791096737.0580895,-0.4547773625300481,1.036536818284255,0.44639479417067274,1.2167577151558606,1.7538819480618653,-1.2419993724945424,-0.18513665205211793,2.157067432637929
201,1791096737.0780895,-0.5841084172175481,1.194608107346755,0.7242170597956727,1.5141867529806468,1.7532765023926271,-1.2245889201457174,-0.18091893204640389,2.1462358158316595
202,1791096737.117778,-0.8092402531550481,1.228138380784255,0.8631281926081728,1.7053398331584437,1.748107753867221,-1.1880098973647757,-0.16907966118018591,2.1203386916226785
203,1791096737.137778,-0.665539081280048,1.199398146409255,0.7146369816706728,1.54667520762842,1.7436816346187285,-1.168700545398113,-0.1616418497049438,2.1053300680170137
204,1791096737.1490362,-0.4787275578425481,1.319149122971755,0.5613557316706728,1.5114412792942227,1.7405976935912386,-1.1573350256111226,-0.15700567779454105,2.09612868767668
205,1791096737.1690361,-0.6703291203425481,1.539490919846755,0.5230354191706728,1.7586754878535333,1.7342173004871362,-1.1358849181342268,-0.14837838467066425,2.078403314467903
206,1791096737.1786666,-0.8331904484675481,1.798153029221755,0.3984944035456728,2.0214743207802934,1.7305198760314107,-1.1246947904870475,-0.1441816785286992,2.068918985729462
207,1791096737.1986666,-0.842770526592548,1.635291701096755,0.26437330979567275,1.85858396503933,1.7214791173265367,-1.0997914336743895,-0.13577920922148287,2.0473073884084267
208,1791096737.3128297,-0.7373896672175481,1.520330763596755,0.034451434795672746,1.690069836846211,1.6640842019949063,-0.9519426794929049,-0.09245233289779684,1.9193536751280105
209,1791096737.3328297,-0.679909198467548,1.6161315448467548,-0.13319993239182726,1.7583799107129066,1.6534116052338332,-0.9252219004143863,-0.08614867024246384,1.896635730632763
210,1791096737.3138225,-0.7373896672175481,1.659241896409255,-0.08050950270432726,1.8175007488704606,1.6534116052338332,-0.9252219004143863,-0.08614867024246384,1.896635730632763
211,1791096737.3338225,-0.703859393780048,1.515540724534255,-0.11882981520432727,1.6752320015197075,1.6417317282137793,-0.8969778709853433,-0.08216576193558241,1.8725927429357556
212,1791096737.3880827,-0.622428729717548,1.539490919846755,-0.3679118464543273,1.7008259589475465,1.6093998413121406,-0.8194128505698524,-0.0749617289566553,1.8075465498024457
213,1791096737.4080827,-0.6942793156550481,1.755042677659255,-0.3583317683293273,1.9210934971379794,1.5972950542358793,-0.7901695819921113,-0.07379403711497781,1.7835820750685165
214,1791096737.3890772,-1.192443378155048,2.210096388596755,-0.21942063551682728,2.52083174216068,1.5972950542358793,-0.7901695819921113,-0.07379403711497781,1.7835820750685165
215,1791096737.4090772,-1.307404315655048,2.315477247971755,-0.2673210261418273,2.6724897495567346,1.5823940084681498,-0.7571974189755996,-0.0744171251679589,1.7558065490985824
216,1791096737.3890772,-0.5314179875300481,1.8891637714092548,-0.4541325495793273,2.014343864702138,1.5823940084681498,-0.7571974189755996,-0.0744171251679589,1.7558065490985824
217,1791096737.4090772,-0.29670607346754807,1.544280958909255,-0.4493425105168273,1.6354653361779892,1.5680413217934368,-0.7228639568251325,-0.07714237001575451,1.7283624712947925
218,1791096737.4181361,-0.646378925030048,2.085555372971755,-0.38228196364182726,2.216638542518876,1.5618747014324381,-0.7071791847738615,-0.0787566286862077,1.716320945777365
219,1791096737.438136,-0.861930682842548,2.243626662034255,-0.4972429011418273,2.4543910860643896,1.5480399908294487,-0.6712514546010805,-0.0831052243210963,1.6893527774922459
220,1791096737.5378456,-0.7325996281550481,1.9226940448467549,-0.6169938777043273,2.148054014774003,1.4774889775043627,-0.4878453774483421,-0.10986558680162356,1.5598196171698404
221,1791096737.5578456,-0.1817451359675481,1.917904005784255,-0.4589225886418273,1.9804032448511262,1.4640888590478225,-0.45081464698128176,-0.11604197084642857,1.5363123940523085
222,1791096737.5388467,0.42179978590745193,1.740672560471755,-0.41102219801682727,1.8376058525792336,1.4640888590478225,-0.45081464698128176,-0.11604197084642857,1.5363123940523085
223,1791096737.5588467,0.699622051532452,1.716722365159255,-0.6074137995793273,1.950784000843727,1.4563954740017078,-0.41420917610284125,-0.12314123940350373,1.519151336471217
224,1791096737.5398474,0.3547392390324519,1.750252638596755,-0.5882536433293273,1.8802304580860436,1.4563954740017078,-0.41420917610284125,-0.12314123940350373,1.519151336471217
225,1791096737.5598474,0.09607712965745192,1.505960646409255,-0.34396165114182725,1.5477266880275755,1.4528575365774625,-0.3784570192095359,-0.13119325708000754,1.5070621777757416
226,1791096737.5825715,0.30683884840745196,0.9742663104717548,-0.28169114332932726,1.0595729436157006,1.4501273709789566,-0.33970131634436707,-0.14003602066249887,1.4959533627327504
227,1791096737.6025715,0.517600567157452,0.27013056828425486,-0.23379075270432728,0.6289189034313935,1.44932158651603,-0.3088415030967148,-0.14742453209261833,1.489177668325411
228,1791096737.6285698,0.5607109187199519,0.09289912297175483,-0.18110032301682727,0.5965101075568569,1.450533824482013,-0.27403567271205975,-0.1563973145100882,1.4844541238688158
229,1791096737.6485698,0.809792949969952,-0.1849231426532452,-0.12840989332932726,0.8405059733366793,1.453382244883399,-0.2514146311235808,-0.16272876451717483,1.483917085718269
230,1791096737.6576273,1.149885723407452,-0.6208166973407452,-0.11403977614182727,1.3117376334983408,1.4558099676272989,-0.24325412372711006,-0.16533072430954415,1.4852237134364505
231,1791096737.6776273,1.269636699969952,-0.8651086895282453,-0.37270188551682726,1.5809165348226535,1.4639958194669267,-0.23016662445036948,-0.17094443176963542,1.4918050922223585
232,1791096737.7035353,1.135515606219952,-1.2866321270282453,-0.3774919245793273,1.7570765707256175,1.4776826355802815,-0.21993714634828834,-0.17858333443355195,1.5045964000942982
233,1791096737.7235353,1.092405254657452,-1.6219348614032452,-0.4349723933293273,2.00330300204363,1.490005357904546,-0.21758774136748515,-0.18481442958377722,1.5171080268590087
234,1791096737.7490613,1.4803984187199521,-1.4830237285907453,-0.6744743464543272,2.201330166453166,1.5082992750799387,-0.22098326938812934,-0.19369826734207682,1.536658494047216
235,1791096737.7690613,1.825281231219952,-1.8853870098407453,-0.5930436823918273,2.6903599311513893,1.5254412782605118,-0.22829725400541134,-0.20151605206239404,1.5555383148113997
236,1791096737.7928326,1.968982403094952,-2.024298142653245,-0.30085129957932727,2.839927143168557,1.5495241012974301,-0.2426567992093332,-0.2110078859443387,1.5825396016008024
237,1791096737.8128326,2.323445293719952,-1.8518567364032452,-0.7942253230168272,3.07547805532614,1.573185515520424,-0.2587402236845279,-0.2194385637872377,1.6093515628577204
238,1791096737.8376207,2.242014629657452,-2.3117004864032453,-0.9283464167668273,3.351479644568776,1.606600439514806,-0.28342457658582465,-0.23152270903883332,1.6477552086589506
239,1791096737.8576207,2.007302715594952,-2.4601916973407456,-0.6074137995793273,3.2327633541010394,1.635890737081105,-0.30751121261498665,-0.24211378878161377,1.6820584818221656
240,1791096737.868132,1.8348613093449522,-2.110518845778245,-0.2769011042668273,2.810281132637871,1.6520047226354977,-0.32187489438829603,-0.2475423472132184,1.7011761416476818
241,1791096737.888132,2.117473614032452,-1.7752161114032452,-0.35354172926682725,2.7856917458043147,1.6839942138183321,-0.3509337361813403,-0.2572675661029567,1.7393037687340174
242,1791096737.9131165,2.1701640437199523,-1.7512659160907453,-0.37270188551682726,2.8134411280465583,1.7259961079535913,-0.3883974864507123,-0.268955011441412,1.7894837161403918
243,1791096737.9331164,2.083943340594952,-1.7943762676532453,-0.10445969801682727,2.7520025191189426,1.7609564031242588,-0.41920721814680373,-0.27762318350774756,1.831331968123662
244,1791096737.9436154,2.083943340594952,-1.4734436504657453,0.11109205979567274,2.5546423396744826,1.7798378630663545,-0.43552792856620737,-0.2814857682982852,1.853845094154378
245,1791096737.9636154,2.194114239032452,-1.2291516582782451,-0.17152024489182727,2.520787632344476,1.8168278070274313,-0.4660083152358017,-0.28783070855421017,1.8975967819965953
246,1791096737.987939,1.930662090594952,-1.3057922832782451,-0.3200114558293273,2.3526489170701796,1.8625907578204421,-0.5021417557652333,-0.29528646051043506,1.9515595732034163
247,1791096738.0079389,1.662419903094952,-1.4207532207782452,-0.12361985426682727,2.19031082655566,1.899964694987726,-0.5314856999329034,-0.3011628284966144,1.995755982253605
248,1791096738.0330153,1.691160137469952,-1.3201624004657453,-0.04697922926682726,2.1459399856830506,1.9461030533140167,-0.5679138569333603,-0.30774640402991693,2.050500205366585
249,1791096738.0530152,1.5187187312199522,-1.2578918926532452,0.03924147385817275,1.9723941014492177,1.9821963471026314,-0.5964765984305557,-0.3122212001460436,2.093410797899671
250,1791096738.0631921,1.351067364032452,-1.1525110332782453,0.20689284104567277,1.7878672634336243,1.9999977795531312,-0.6106702952791855,-0.31396876614711805,2.1145887812692488
251,1791096738.083192,1.375017559344952,-0.9082190410907452,0.2595832707331728,1.6682081973037037,2.03382328158275,-0.6374712289742346,-0.31618827188843157,2.1547115193820585
252,1791096738.1077936,1.413337871844952,-0.8746887676532452,0.09193190354567275,1.6646488684222573,2.0743347968327615,-0.6687829543774666,-0.3178603210532113,2.2025373261575196
253,1791096738.1277936,1.3989677546574522,-1.0423401348407453,-0.027819073016827258,1.744808767772174,2.1065473262501877,-0.6932953748717977,-0.3189195633774452,2.240515521583214
254,1791096738.168186,1.288796856219952,-1.0950305645282452,-0.01823899489182726,1.6912781955633862,2.1699882802638752,-0.7418503369957477,-0.3208774716831821,2.315632399759743
255,1791096738.188186,1.269636699969952,-1.1237707989032453,0.23084303635817274,1.711176982609715,2.200526376053104,-0.7656139047168204,-0.321382592484954,2.3519710358661934
256,1791096738.1981428,1.355857403094952,-0.9369592754657452,0.15899245042067275,1.655753780215963,2.215409679979217,-0.7772087142062574,-0.32130522779449244,2.369668855555947
257,1791096738.2181427,1.633679668719952,-0.9704895489032452,0.30748366135817273,1.9249169921120193,2.2453052573070686,-0.7998664907317656,-0.3204734243017753,2.4049709597352766
258,1791096738.2285216,1.767800762469952,-0.8651086895282453,0.18294264573317276,1.976613414938408,2.261139982872431,-0.8112897122230396,-0.31972476081015166,2.423462180843429
259,1791096738.2485216,1.7630107234074521,-0.6399768535907452,-0.2864811823918273,1.8973267119413562,2.2923726330835423,-0.8322579674463881,-0.3186537974983234,2.4595052055135946
260,1791096738.2733605,1.528298809344952,-0.8315784160907452,-0.4253923152043273,1.7911388931593464,2.331474989778893,-0.8571346058386693,-0.31884939230802767,2.504420151545243
261,1791096738.2933605,1.2792167780949522,-1.1094006817157451,-0.31043137770432727,1.7214915271979694,2.3624482645736395,-0.8770718672871842,-0.3200869936458339,2.5402504889626254
262,1791096738.3333228,1.4468681452824521,-1.0998206035907452,-0.4732927058293273,1.8780412070311556,2.423223789132046,-0.917554708457659,-0.32453789032620295,2.611368418566341
263,1791096738.3533227,1.5235087702824521,-1.0423401348407453,-0.5020329402043273,1.9130052281364978,2.453533296258004,-0.9379893723499695,-0.32789429162015193,2.6471049025237434
264,1791096738.3481412,1.413337871844952,-1.0088098614032452,-0.4445524714543273,1.7924419589855074,2.453533296258004,-0.9379893723499695,-0.32789429162015193,2.6471049025237434
265,1791096738.3681412,1.475608379657452,-1.0231799785907452,-0.3583317683293273,1.8310431493818684,2.48350980629879,-0.9584166126165166,-0.3327305120150491,2.6827398224478216
266,1791096738.408401,1.509138653094952,-0.8746887676532452,-0.21942063551682728,1.7580458838763586,2.5438133638877263,-0.9990991264913142,-0.34275001790567156,2.7543897817164216
267,1791096738.428401,1.6001493952824521,-0.7836780254657452,-0.20984055739182728,1.794063096534567,2.5739408688543897,-1.0187651357450367,-0.34762471192867933,2.789963608814995
268,1791096738.437954,1.5570390437199522,-0.7453577129657452,-0.16194016676682726,1.7338262085798384,2.5884347021191974,-1.0278450659869338,-0.3498702129404161,2.806932285024267
269,1791096738.457954,1.4468681452824521,-0.7070374004657453,-0.05176926832932726,1.6112136334557858,2.6187330923647845,-1.0461818669725202,-0.3541867631902108,2.84213085044438
270,1791096738.498143,1.379807598407452,-0.5681262676532453,-0.10445969801682727,1.4958436726912054,2.6790039139855533,-1.0813453396318942,-0.3620304852037079,2.911603645228925
271,1791096738.518143,1.456448223407452,-0.5777063457782452,-0.22421067457932728,1.5828002009143458,2.7087528887495673,-1.0979382577513368,-0.3658413895900392,2.9456154793999056
272,1791096738.543502,1.5187187312199522,-0.6351868145282452,-0.22900071364182728,1.6620499994757518,2.746473873100786,-1.1181283709887606,-0.37081062848821494,2.9884494828982864
273,1791096738.563502,1.413337871844952,-0.5872864239032451,-0.05655930739182726,1.5315443966613973,2.7761589223275838,-1.1334968997435348,-0.3745701904992994,3.0219491080026377
274,1791096738.5736048,1.250476543719952,-0.4723254864032452,0.09193190354567275,1.3398635849926628,2.7909230984850177,-1.1408985169411319,-0.37615762121621366,3.038485761627776
275,1791096738.5936048,1.384597637469952,-0.5441760723407452,0.23084303635817274,1.5054988285716577,2.819719514194481,-1.154878033747677,-0.37834464280401425,3.0704569823237318
276,1791096738.6036835,1.691160137469952,-0.7214075176532452,0.41286452073317276,1.8843854514335003,2.8343792467568396,-1.161822728249572,-0.3787948613581095,3.086587648733542
277,1791096738.6236835,1.6001493952824521,-1.1237707989032453,0.46555495042067274,2.0099951013750332,2.864043204120927,-1.176304311515962,-0.37823663015256875,3.1192143653092326
