imu_index,t_imu,ax,ay,az,mag,vx,vy,vz,velocity
0,1790995100.9773576,-0.005400534237132343,-0.04930922564338235,-0.04390869140624928,0.06624604655830915,0.0,0.0,0.0,0.0
1,1790995100.9973576,-0.13952162798713236,-0.001408835018382348,0.018361816406250727,0.1407317511936295,-0.00022426871060922756,-0.0001389462211783907,-9.430380410776396e-05,0.00028017086644987777
2,1790995101.0069017,-0.11557143267463235,0.05128159466911766,0.056682128906250726,0.13856197797238454,-0.0004978361294921235,-0.0001596070101846528,-7.883867619693233e-05,0.000528706673300297
3,1790995101.0269017,0.08561020795036767,0.027331399356617655,0.07584228515625073,0.11759321967621333,-0.0010300554093010438,-7.84885684915613e-05,0.00014749419587616362,0.0010435176756679071
4,1790995101.0516138,0.20057114545036767,0.027331399356617655,0.07105224609375073,0.21453254171111286,-0.0010586161418692304,0.00010801964544419967,0.0006574588780340019,0.0012508351433876944
5,1790995101.0716138,0.12872055951286768,0.046491555606617656,0.04710205078125073,0.14473786778804107,-0.0005843266075338006,0.0003470570483007054,0.0011855060031278246,0.0013664957601468319
6,1790995101.0970292,0.04728989545036766,0.07044175091911765,0.013571777343750726,0.08592186930302473,0.0002634837495517231,0.0008281480164579439,0.0018715333005270792,0.002063465463346272
7,1790995101.1170292,0.09040024701286767,0.022541360294117654,-0.010378417968749274,0.09374448860296146,0.0010371060708974913,0.001289416897465256,0.002335196439985692,0.0028620495018575774
8,1790995101.1270711,0.11914048138786766,-0.010988913143382349,-0.005588378906249274,0.11977662750388932,0.0015250900617174866,0.0014949794703085545,0.0025210548226823094,0.003304024929077144
9,1790995101.1470711,0.09519028607536767,-0.07325942095588235,-0.029538574218749277,0.1236958394157947,0.002672692207405118,0.0017166032122758147,0.0027830034149021288,0.004223164480727289
10,1790995101.1723373,-0.005400534237132343,-0.06367934283088235,-0.010378417968749274,0.06474516223590411,0.0040751508590172415,0.0016950918658741943,0.0029886460745985966,0.005330309213987067
11,1790995101.1923373,0.01854966107536766,-0.030149069393382348,-0.024748535156249276,0.04319197036114584,0.005038498905139202,0.00153987577801224,0.003074319436536825,0.006099928575538065
12,1790995101.2173004,0.05686997357536766,-0.03493910845588235,-0.039118652343749276,0.07736410120557238,0.006201751386079165,0.0012533412785785555,0.0030456388423912052,0.007022001180119939
13,1790995101.2373004,0.06166001263786766,0.008171243106617652,-0.034328613281249275,0.07104350823420118,0.007171725101637962,0.0010180585477513,0.0029159364666170684,0.007808506234707171
14,1790995101.2472634,-0.0006104951746323423,-0.006198874080882349,0.023151855468750728,0.023975136201381784,0.007628058394274454,0.0009199067271248365,0.002852665082690089,0.008195803885347047
15,1790995101.2672634,-0.08683119829963235,0.08481186810661766,0.056682128906250726,0.13396109027336708,0.008275540049174029,0.0008703491007934979,0.002864455625931619,0.008800407757352306
16,1790995101.2918444,0.01375962201286766,0.08481186810661766,-0.019958496093749275,0.08820839946397116,0.008817246011210495,0.0011312901780262767,0.00294447575628964,0.009364485152344658
17,1790995101.3118443,0.08082016888786767,-0.015778952205882348,-0.029538574218749277,0.0874837264790174,0.009333754887013709,0.0014153041255210884,0.002925571476301423,0.00988337161709089
18,1790995101.3369393,-0.0006104951746323423,-0.04930922564338235,0.03752197265625073,0.06196507782553551,0.01003559573702668,0.0015957117522723335,0.002920435090212839,0.010573004251844155
19,1790995101.3569393,-0.07246108111213234,0.017751321231617653,0.056682128906250726,0.09369408422494947,0.010401433376348728,0.001670587670248797,0.0030582615888055786,0.010969669247163846
20,1790995101.3671038,0.01375962201286766,0.0033812040441176523,0.013571777343750726,0.019620216079169344,0.010514721854604833,0.0017190435555662325,0.003171358666273671,0.011116294446252645
21,1790995101.3871038,0.05686997357536766,0.008171243106617652,-0.034328613281249275,0.066928445359085,0.0108101395523865,0.0018174140045352128,0.0033293767323381556,0.011456302205850996
22,1790995101.4123895,-0.0006104951746323423,-0.006198874080882349,-0.019958496093749275,0.020907900673025243,0.011234300565893836,0.0019268676909707262,0.0033962382722932684,0.011893559715473706
23,1790995101.4323895,-0.04372084673713234,-0.006198874080882349,0.027941894531250726,0.05225598481779852,0.01145297366964302,0.001981858503952829,0.0034531654128172272,0.012125292589274026
24,1790995101.4563713,0.02812973920036766,-0.030149069393382348,0.013571777343750726,0.043410157256522704,0.011647808670793548,0.001972529964201072,0.0035858551147603312,0.012345876971488793
25,1790995101.4763713,0.03291977826286766,-0.03493910845588235,-0.015168457031249276,0.05034416738091056,0.011877495533963545,0.0018682850691831697,0.003677519837704423,0.012573366351767782
26,1790995101.487405,0.04249985638786766,-0.001408835018382348,-0.010378417968749274,0.043771385272029645,0.012047616167973639,0.0017893217811518905,0.0036993638272288173,0.012729179882990634
27,1790995101.507405,0.08082016888786767,0.008171243106617652,0.03752197265625073,0.08947942414313653,0.012494704730591187,0.0016778048632271469,0.003773734648196344,0.013159549713372567
28,1790995101.5320804,0.02333970013786766,0.06086167279411765,0.03273193359375073,0.07294014186036059,0.013156332123494624,0.0016886125555561316,0.003981743220955274,0.013848998750238288
29,1790995101.5520804,-0.09641127642463235,0.09918198529411766,0.003991699218750726,0.13837678306479892,0.013502550056441591,0.0019361237243774839,0.004180135180834072,0.014266778306010607
30,1790995101.5773017,-0.08683119829963235,0.012961282169117653,-0.0007983398437492739,0.0877968631565142,0.013527042269677176,0.0024135633280845128,0.004398833732160857,0.01442760890471819
31,1790995101.5973017,0.04728989545036766,-0.05888930376838235,0.013571777343750726,0.07673641541210965,0.013484238896059207,0.0026664807105163334,0.004565403590470952,0.01448370560075828
32,1790995101.6223638,0.04728989545036766,-0.015778952205882348,0.023151855468750728,0.05496651668123192,0.013616424829276639,0.0027955223697478677,0.004811851550079427,0.01470972079242512
33,1790995101.6423638,-0.024560690487132344,0.05128159466911766,0.008781738281250727,0.057533889111138437,0.013740182285163704,0.0029363071558873135,0.0050269212048344985,0.014922615244750373
34,1790995101.6524174,-0.06767104204963234,0.036911477481617654,-0.034328613281249275,0.08438175627333576,0.01372351654543405,0.0030629612318040537,0.005099553220009723,0.014957342040752036
35,1790995101.6724174,-0.029350729549632342,0.036911477481617654,-0.005588378906249274,0.04748844568704518,0.013549803441867708,0.003387858626385238,0.005162493379829065,0.014890470015496548
36,1790995101.6970625,0.06166001263786766,0.0033812040441176523,0.008781738281250727,0.062373941887060025,0.013427573216509052,0.003802638044884667,0.005234320541083132,0.014904961929234182
37,1790995101.7170625,0.03770981732536766,-0.015778952205882348,0.003991699218750726,0.04107236684294069,0.01349231439862906,0.004070152927914087,0.0053030264738502695,0.015057582225258393
38,1790995101.7425547,-0.04372084673713234,-0.006198874080882349,0.023151855468750728,0.04985927086238199,0.01355096366266238,0.004317963957442357,0.00542935994977691,0.015223382619799353
39,1790995101.7625546,0.004179543887867658,-0.010988913143382349,0.018361816406250727,0.021803236019459854,0.013530763213843498,0.004457440102390021,0.005575878433849658,0.015298390298477972
40,1790995101.7731283,0.11435044232536766,-0.010988913143382349,-0.0007983398437492739,0.11488001226752266,0.013615682422878828,0.004502688926827539,0.005655649061027838,0.015415815960044797
41,1790995101.7931283,0.06645005170036766,0.008171243106617652,0.003991699218750726,0.06706945838115853,0.014023413669305752,0.004571212238735766,0.005788692111525911,0.015844906709541754
42,1790995101.8172936,-0.005400534237132343,0.022541360294117654,0.018361816406250727,0.029570847057406403,0.014552812360542051,0.004697251402452713,0.005965844943734496,0.016414622268930586
43,1790995101.8372936,0.008969582950367658,-0.001408835018382348,0.03273193359375073,0.0339678923573167,0.014930589814583187,0.0048176167849811056,0.00616710980487062,0.016857199857734324
44,1790995101.861358,0.13351059857536768,-0.054099264705882354,0.003991699218750726,0.1441101801966921,0.01557410706030014,0.004840536256071704,0.006439229832507166,0.017534174711342578
45,1790995101.881358,0.12872055951286768,-0.05888930376838235,-0.019958496093749275,0.14295199930730149,0.01642205969105124,0.004687244794214305,0.006607516109388602,0.018311569495626772
46,1790995101.8922524,0.02333970013786766,-0.03493910845588235,-0.005588378906249274,0.042387650100203726,0.016938924204202416,0.004539601764880247,0.006664561625911306,0.018760370973010844
47,1790995101.9122524,-0.019770651424632343,0.008171243106617652,-0.015168457031249276,0.026224606009826325,0.01775080019404371,0.004269065812459407,0.006722441002183123,0.019455257476266016
48,1790995101.9365635,0.09040024701286767,-0.006198874080882349,-0.029538574218749277,0.09530560354320561,0.018718428795887206,0.003993138589830374,0.006700727537257338,0.020278670615029245
49,1790995101.9565635,0.10477036420036766,-0.030149069393382348,0.023151855468750728,0.11145314715884243,0.01968781748466761,0.003745669269100611,0.006675963907142087,0.021123652375300353
50,1790995101.9813979,-0.019770651424632343,0.041701516544117655,0.06147216796875073,0.07686821563306864,0.020869289885882457,0.0035059919663392052,0.006807445795863946,0.02222972240655867
51,1790995102.0013978,-0.010190573299632343,0.012961282169117653,0.018361816406250727,0.024677903504542787,0.02163310594973474,0.003423918858056209,0.007017200462450272,0.022999034669072826
52,1790995102.0114386,0.09998032513786766,-0.030149069393382348,-0.034328613281249275,0.10992490841376343,0.02202666804901403,0.0033759521947134712,0.0070946857312775636,0.023386015568883034
53,1790995102.0314386,0.09519028607536767,-0.04451918658088235,-0.019958496093749275,0.10696490126792974,0.02298576261718863,0.003182737689019697,0.007144445244880979,0.02427999588443036
54,1790995102.0575688,0.01854966107536766,-0.001408835018382348,0.003991699218750726,0.01902651846168935,0.024273773820128738,0.002878158180496505,0.007168413734182597,0.02547324175379223
55,1790995102.0775688,0.004179543887867658,0.046491555606617656,0.018361816406250727,0.05016063826917169,0.02514583171488218,0.002747626544830172,0.007217537577620566,0.026305040447552917
56,1790995102.1017172,0.15267075482536765,0.008171243106617652,-0.05827880859374928,0.16362013361430136,0.02632491110650698,0.002712662227339555,0.00719565884985955,0.027425115996266843
57,1790995102.1217172,0.13351059857536768,-0.06367934283088235,-0.04869873046874928,0.15572958930336234,0.027584228496321382,0.0026047860522821842,0.007019790554679729,0.028582372741726727
58,1790995102.131408,0.01854966107536766,-0.06367934283088235,0.03752197265625073,0.07620398323841401,0.02821340661378561,0.0024677912133272834,0.006939234485559738,0.029158862828871746
59,1790995102.151408,0.05207993451286766,-0.02535903033088235,0.03752197265625073,0.06901665328167994,0.029423084366431755,0.0020939110751172023,0.006910485100289118,0.030296157537647857
60,1790995102.1768568,0.17662095013786766,0.022541360294117654,-0.015168457031249276,0.1786985031840536,0.03116795379089214,0.0016841536927290695,0.0069220557437490535,0.031971746478594035
61,1790995102.1968567,0.15267075482536765,0.0033812040441176523,0.013571777343750726,0.15331009444913868,0.0328274764034126,0.0014493165764263413,0.006927390000885311,0.033581728034448755
62,1790995102.2225807,0.06166001263786766,0.012961282169117653,0.08542236328125073,0.1061458060524459,0.03505528706905913,0.0012241060923940403,0.007124210681598646,0.03579282002099562
63,1790995102.2425807,0.07124009076286766,0.08002182904411766,0.07105224609375073,0.12855763427519398,0.03672691358949454,0.0012147474597222427,0.0074889937815298315,0.037502357540038646
64,1790995102.2671409,0.16225083295036766,-0.001408835018382348,0.023151855468750728,0.16390035393751612,0.03890186816733062,0.0013497852162315694,0.008043283508559129,0.03974759963365572
65,1790995102.2871408,0.06166001263786766,-0.08762953814338235,0.04231201171875073,0.11520069205266174,0.04074318492024517,0.001309697643548504,0.008525145120339998,0.04164613457075779
66,1790995102.2972682,0.01854966107536766,-0.010988913143382349,0.09979248046875074,0.10209498173852527,0.04159663084147335,0.0012175380723249835,0.00884047879304143,0.042543109449235
67,1790995102.3172681,0.03770981732536766,0.14229233685661766,0.04710205078125073,0.15455660011345124,0.043113638569030034,0.0012597913433232447,0.009590148449043072,0.04418533526142299
68,1790995102.3419888,0.004179543887867658,0.22372300091911765,0.15727294921875073,0.273503620238069,0.04478511650337499,0.0019827946685297814,0.010756694950493115,0.04610146007640522
69,1790995102.3619888,0.09998032513786766,0.32431382123161767,0.3105541992187507,0.46002111985095523,0.04609080312568355,0.0033020462166924586,0.012260649206871786,0.047807835769480916
70,1790995102.3875628,0.16225083295036766,0.5207054227941177,0.3488745117187507,0.6474356300415399,0.04801291887481203,0.006356720940356416,0.015160104838880702,0.05074915820699592
71,1790995102.4075627,0.06645005170036766,0.6691966337316178,0.39677490234375073,0.7808137211259824,0.04963367286695335,0.010172130075168553,0.018205955648171027,0.05383707396945956
72,1790995102.4166288,0.004179543887867658,0.6308763212316177,0.4398852539062508,0.7691043088437463,0.05030619045356061,0.012526239535088836,0.019948445546173248,0.055547816829727654
73,1790995102.4366288,-0.029350729549632342,0.8224778837316178,0.3584545898437507,0.8976753463991243,0.05152948111889176,0.01912049330016983,0.024413322061370795,0.06014059346644557
74,1790995102.4617815,0.03291977826286766,0.7602073759191177,0.28181396484375076,0.8114296500520928,0.05284389951448263,0.029155343592036184,0.030394066077739014,0.06757448504135558
75,1790995102.4817815,0.11914048138786766,0.6883567899816178,0.17643310546875074,0.7205263113339285,0.053960367724906186,0.03811045789558332,0.035123650938612076,0.07481844118448065
76,1790995102.5069282,0.11435044232536766,0.6596165556066177,0.17164306640625074,0.6911087948620579,0.05559394318315098,0.05022340094845856,0.04083480516008697,0.08532618492551576
77,1790995102.5269282,0.13830063763786765,0.6308763212316177,0.19080322265625074,0.6734522023408869,0.05707726836753123,0.060347872878541216,0.04523939583308065,0.09458479402422942
78,1790995102.536522,0.14788071576286765,0.7649974149816178,0.16206298828125074,0.7958355126492813,0.05788798594288471,0.06548033355914178,0.04728919353899184,0.09937283746129177
79,1790995102.556522,0.20536118451286767,0.9374388212316177,0.16206298828125074,0.9732569916662822,0.059854431611304534,0.07712865376397227,0.05140760279129062,0.11033641212085046
80,1790995102.5824513,0.34427231732536767,0.8416380399816178,0.19559326171875074,0.9301261972713475,0.06309033720372968,0.09342492076038769,0.05664163824644493,0.12616212447008876
81,1790995102.6024513,0.5023436063878677,0.7362571806066177,0.15727294921875073,0.9050737624246646,0.06648179892016434,0.10647599351686834,0.06060249902672123,0.13939020651160933
82,1790995102.626783,0.5119236845128677,0.6260862821691178,0.10458251953125074,0.81546759278164,0.07183978835813674,0.12245810916147934,0.06517624782799153,0.1562206355501169
83,1790995102.6467829,0.4879734892003677,0.5638157743566177,0.013571777343750726,0.745781835871592,0.07708315334108184,0.13540934686917497,0.06854906642228967,0.17022478743094016
84,1790995102.657639,0.4592332548253677,0.44406479779411767,0.04231201171875073,0.6402179576621695,0.08027359966214842,0.14220550587572103,0.0701507418941028,0.17772839754069025
85,1790995102.677639,0.4304930204503677,0.3722142118566176,0.03273193359375073,0.5700342442707362,0.08660420644936742,0.1540722389702859,0.07277142090220437,0.19113927669677766
86,1790995102.701847,0.5550340360753677,0.44885483685661764,-0.06785888671874928,0.7170343605981526,0.09490674068399374,0.16777199221758013,0.07540391385496163,0.20697942174177866
87,1790995102.721847,0.5789842313878677,0.34826401654411765,-0.14928955078124928,0.6919522638070552,0.1024381756654619,0.17858824605695967,0.07692684527017607,0.21978416909912055
88,1790995102.7469199,0.6316746610753677,0.17103257123161764,-0.2115600585937493,0.6877664401953396,0.11274023622320858,0.1910905152032189,0.07787111063071896,0.2351379504358201
89,1790995102.7669199,0.5119236845128677,-0.06367934283088235,-0.24509033203124928,0.5711306228209018,0.12144068249557953,0.199728390809185,0.07782637083233397,0.24636601522359095
90,1790995102.7775,0.5406639188878677,-0.13552992876838235,-0.3696313476562493,0.6688147486033219,0.12618809836508613,0.2034543648620418,0.07731846889204456,0.25158549318715406
91,1790995102.7975,0.4736033720128677,-0.17385024126838236,-0.4271118164062493,0.6610208499622982,0.13533761819676232,0.20897716859580545,0.07530726138722779,0.2601132666957542
92,1790995102.8225207,0.5933543485753677,-0.18343031939338236,-0.35047119140624927,0.7131241974942185,0.1470693083682881,0.21417958476945342,0.07170938686404513,0.26952645910997197
93,1790995102.8425207,0.5933543485753677,-0.14990004595588236,-0.3600512695312493,0.7100537468684599,0.15682026759119888,0.2172142831154928,0.06819908937734856,0.2764520879079271
94,1790995102.8674693,0.7849559110753677,-0.23612074908088238,-0.5133325195312493,0.967170649930496,0.16973838742904274,0.21970972269313413,0.06284283593688314,0.2846624394638248
95,1790995102.8874693,0.8999168485753677,-0.40856215533088236,-0.47022216796874927,1.094478074868413,0.1810681061019614,0.22044309276946045,0.057717752109404157,0.2910535261866427
96,1790995102.9119809,0.7322654813878677,-0.3415016084558824,-0.2786206054687493,0.8546727593657897,0.1958713128311546,0.2198281825296733,0.051002083384634835,0.2988163541944661
97,1790995102.9319808,0.7801658720128677,-0.2936012178308824,-0.3600512695312493,0.9080183806820432,0.20840670992496496,0.21844905869211126,0.04538642979481986,0.3053084931585397
98,1790995102.942535,1.0100877470128677,-0.3750318818933824,-0.6187133789062493,1.242470287105334,0.2154465304163728,0.2173011942871191,0.04209278941501717,0.3088831808755509
99,1790995102.962535,0.9382371610753677,-0.45646254595588237,-0.5468627929687493,1.1780093126189082,0.2297084105791082,0.21420503047303474,0.03503919336928958,0.3160340077312952
100,1790995102.9868486,0.7897459501378677,-0.4947828584558824,-0.3265209960937493,0.9874840270460031,0.24759670145021925,0.20927104172601987,0.026157843070058657,0.32524256829049975
101,1790995103.0068486,0.9334471220128677,-0.4612525850183824,-0.2929907226562493,1.0816288829089564,0.26268887337665636,0.20438717483877955,0.019018789966037116,0.33337857730551174
102,1790995103.0317488,1.1537889188878676,-0.4995728975183824,-0.3887915039062493,1.3160398104894204,0.2825582508380837,0.1974244208265661,0.010190581312124228,0.34484694431422985
103,1790995103.0517488,1.1633689970128678,-0.43730238970588237,-0.5181225585937493,1.3465183953355166,0.29959930202827023,0.19126546408797615,0.002802974138205158,0.3554575589189728
104,1790995103.0627327,1.0675682157628676,-0.5810035615808824,-0.5420727539062493,1.33083053181248,0.3093922092254669,0.18755147567443406,-0.0015190787708218665,0.36180298887292917
105,1790995103.0827327,0.9382371610753677,-0.7438648897058824,-0.4558520507812493,1.2811811100548514,0.3275575161399214,0.17981598979941515,-0.00970525846777593,0.37379393870048855
106,1790995103.1069381,0.8663865751378677,-1.0312672334558823,-0.3744213867187493,1.3979732398051348,0.3495208859746343,0.1686356546023512,-0.019633932563616938,0.38857216195137995
107,1790995103.126938,0.7610057157628677,-1.2228687959558824,-0.4175317382812493,1.4996234674139057,0.3673872993980426,0.15740227393951342,-0.027794973572522384,0.4006512999557269
108,1790995103.1526325,0.8999168485753677,-1.3234596162683825,-0.5899731445312493,1.7057150997488315,0.3900983602368541,0.14022831707127315,-0.03864846673715191,0.4163344995904816
109,1790995103.1726325,0.8328563017003677,-1.4480006318933825,-0.5420727539062493,1.7561885775090196,0.40772367543188615,0.12470844750531918,-0.04752745359486343,0.42901008290258735
110,1790995103.1822767,0.7849559110753677,-1.4288404756433826,-0.6187133789062493,1.7437164713354507,0.4161181687957834,0.11626625702977135,-0.052006409384769775,0.43517449321251034
111,1790995103.2022767,0.6316746610753677,-1.4432105928308825,-0.6857739257812493,1.718183799826251,0.4330401114600488,0.09707710986010193,-0.06185820738830927,0.44807827576598364
112,1790995103.2266529,0.5406639188878677,-1.5917018037683826,-0.5612329101562493,1.7722343199332198,0.45271431598303213,0.07164893078323387,-0.07434433957024839,0.46433921006576834
113,1790995103.2466528,0.6508348173253677,-1.6635523897058826,-0.5612329101562493,1.872424869569284,0.468222396221797,0.04903238570420618,-0.08473589295211555,0.4783477382887055
114,1790995103.272313,0.6604148954503677,-1.5533814912683825,-0.5708129882812493,1.7818443700667221,0.48765845869291385,0.018176567313003992,-0.09824718017561791,0.4977887788475076
115,1790995103.292313,0.5167137235753677,-1.4527906709558824,-0.5324926757812493,1.6313007863383868,0.5023005796994591,-0.006774727236226623,-0.10885339155583312,0.5140046985667985
116,1790995103.302374,0.7035252470128677,-1.5869117647058826,-0.47022216796874927,1.7984286500708573,0.5094820567201896,-0.019737133118727337,-0.11414504394818957,0.5224850348110605
117,1790995103.3223739,0.7466355985753677,-1.7545631318933825,-0.4366918945312493,1.9561841200686618,0.5237920315450982,-0.046652267904816094,-0.12444686167333951,0.5403901810647074
118,1790995103.3477402,0.6220945829503677,-1.5150611787683825,-0.3600512695312493,1.6769165042536547,0.5418231446316112,-0.08188901347141277,-0.13706871481719515,0.5648592419067309
119,1790995103.3677402,0.6460447782628677,-1.2707691865808826,-0.2546704101562493,1.44813162346981,0.5558094379874983,-0.1096827069376674,-0.14644970632917279,0.5851512146796364
120,1790995103.3928206,0.7418455595128677,-1.1510182100183823,-0.2307202148437493,1.3886718732301113,0.5733283730589848,-0.14386401812065563,-0.15736212698267346,0.6116903776199146
121,1790995103.4128206,0.7657957548253677,-1.0552174287683824,-0.3361010742187493,1.3464363676669269,0.5874644883165023,-0.17034208793808797,-0.16560899692949838,0.6336854833591123
122,1790995103.422095,0.6747850126378677,-1.2803492647058825,-0.2690405273437493,1.4720773954744988,0.5940385109020047,-0.18240342791270334,-0.1692805599265263,0.6440564190488394
123,1790995103.442095,0.6173045438878677,-1.1462281709558824,-0.1923999023437493,1.3160249398166284,0.6080267253888642,-0.20815154073232695,-0.1767026382537222,0.6665188557439111
124,1790995103.4676785,0.7562156767003677,-0.9450465303308824,-0.2546704101562493,1.2368638211165313,0.6258715710395585,-0.2401601248335213,-0.1856304861528145,0.6955938372246464
125,1790995103.4876785,0.6652049345128677,-1.1366480928308824,-0.1923999023437493,1.3309711545552876,0.6398614215009149,-0.264552048003841,-0.19223355667825348,0.7185848350343677
126,1790995103.512045,0.6220945829503677,-1.1797584443933824,-0.13970947265624928,1.3410258737263696,0.6567014321988165,-0.2940448256938908,-0.19967843490797677,0.7467198992504663
127,1790995103.532045,0.7083152860753676,-1.0647975068933824,-0.1828198242187493,1.2918697160711552,0.6704460173770119,-0.3179882364188756,-0.20535638589583874,0.7699257275514853
128,1790995103.5426073,0.7753758329503677,-1.1510182100183823,-0.1780297851562493,1.3991944848805606,0.677791359300386,-0.3304918400721338,-0.2081910950628958,0.7822848043775474
129,1790995103.5626073,0.7131053251378677,-1.0647975068933824,-0.13012939453124928,1.288117461548991,0.6918462460721614,-0.3539398370713283,-0.2132157357935156,0.8058446416401802
130,1790995103.5871816,0.7131053251378677,-0.9594166475183823,-0.14928955078124928,1.2046936864812827,0.7091538881324408,-0.3821598804423258,-0.21897849915183806,0.8348035663339266
131,1790995103.6071815,0.7035252470128677,-0.9210963350183824,-0.14449951171874928,1.1680095635121186,0.7232519045016909,-0.40450269564351626,-0.2234057440687105,0.8582691155057883
132,1790995103.6319451,0.5119236845128677,-0.9115162568933823,-0.09659912109374928,1.0498852963739598,0.7403468241601177,-0.4314211201010985,-0.22851299769298924,0.8868234283260082
133,1790995103.651945,0.5023436063878677,-0.8779859834558823,-0.12054931640624927,1.0186955500588857,0.7536037363821196,-0.45258463371092916,-0.23234480495472196,0.9092499934285372
134,1790995103.6771235,0.6508348173253677,-0.8348756318933823,-0.1732397460937493,1.0726673714618833,0.7699673932260491,-0.47846591726719184,-0.23699994823547008,0.93698900531504
135,1790995103.6971235,0.5406639188878677,-0.8348756318933823,-0.1732397460937493,1.0096270616139347,0.7828030597943574,-0.4984450768342186,-0.2406627284221695,0.9587213744854556
136,1790995103.7226117,0.4496531767003677,-0.8731959443933823,-0.15886962890624928,0.994936528433142,0.798600356322026,-0.5233526069592344,-0.24526528745219475,0.9858070508764387
137,1790995103.7426116,0.4783934110753677,-0.9594166475183823,-0.12533935546874928,1.0793750568384741,0.8105288470644251,-0.5427142551955676,-0.24876139825638502,1.0066667810047858
138,1790995103.7523344,0.6460447782628677,-0.9450465303308824,-0.11575927734374929,1.1506028899243668,0.8162778289332718,-0.5521035300960969,-0.25038185552112524,1.01676884075329
139,1790995103.7723343,0.5358738798253677,-0.9402564912683824,-0.12533935546874928,1.0894737438234774,0.8281026971152021,-0.5713484610183538,-0.2535768436451528,1.0375424601000924
140,1790995103.7977,0.44486313763786767,-0.9354664522058823,-0.15407958984374928,1.0472541307811045,0.8427161350775287,-0.5956636519075748,-0.257552736324125,1.063634844536376
141,1790995103.8177,0.5454539579503677,-0.9977369600183823,-0.1732397460937493,1.150222183431128,0.8539955150704491,-0.6148594613239451,-0.26070835259492536,1.0841260729512845
142,1790995103.8277614,0.7322654813878677,-0.9258863740808824,-0.14449951171874928,1.1892680193412275,0.8597829221201791,-0.6245194537727381,-0.26229750919262046,1.094555254264839
143,1790995103.8477614,0.6795750517003677,-0.9354664522058823,-0.12054931640624927,1.1625196221063245,0.8716791236765752,-0.6436330700647853,-0.26538013197866656,1.1155781630991157
144,1790995103.8727605,0.5550340360753677,-0.9163062959558823,-0.1780297851562493,1.0859901535526377,0.8866332284979357,-0.6674125642131608,-0.2692151259592401,1.1419434297685278
145,1790995103.8927605,0.6987352079503677,-0.9163062959558823,-0.2307202148437493,1.1751935740019082,0.8986830112806491,-0.6863320762527306,-0.2724361333288763,1.1631441528894984
146,1790995103.916853,0.7562156767003677,-0.9737867647058823,-0.2211401367187493,1.2526075893398265,0.9136501376477064,-0.7091195936815233,-0.27655069903248425,1.1891540948514945
147,1790995103.936853,0.6556248563878677,-0.9689967256433824,-0.2067700195312493,1.1880877272315213,0.9263289250969995,-0.7281129799405762,-0.2800958628781005,1.2110687352213896
148,1790995103.9476197,0.6316746610753677,-0.9258863740808824,-0.2259301757812493,1.1433822193308196,0.9331700763411017,-0.7383342373256229,-0.28206749199638126,1.2229087894960913
149,1790995103.9676197,0.7274754423253676,-1.0121070772058824,-0.2163500976562493,1.2650646701542936,0.9460105288035306,-0.7573799199504911,-0.28584398487519647,1.2450972040128752
150,1790995103.9927113,0.6843650907628677,-1.0312672334558823,-0.16365966796874928,1.2484599197308093,0.9623604421724572,-0.7815355330725813,-0.29058635235534647,1.2733325717535842
151,1790995104.0127113,0.6508348173253677,-0.8875660615808824,-0.1828198242187493,1.1156982393284118,0.9754405619916572,-0.8007795857281746,-0.2943190991920336,1.2958996747614366
152,1790995104.037786,0.6412547392003677,-0.8923561006433823,-0.2019799804687493,1.1172747931518683,0.9918096488596765,-0.8246348517482951,-0.29902065633414,1.3240552749804622
153,1790995104.057786,0.6364647001378677,-0.9306764131433823,-0.1923999023437493,1.1437935228549345,1.0048240253737373,-0.8435426245473392,-0.30279975446678536,1.3464483550072166
154,1790995104.0672786,0.6604148954503677,-0.9306764131433823,-0.1732397460937493,1.1542609885726791,1.0109978220567823,-0.8524959131300335,-0.3045847003028854,1.3570695331358544
155,1790995104.0872786,0.5885643095128676,-0.9402564912683824,-0.15407958984374928,1.1199244330806908,1.023927696016411,-0.8713363982478015,-0.3082722673465577,1.3793791488912375
156,1790995104.1121974,0.5454539579503677,-0.9881568818933824,-0.1780297851562493,1.1426585876278854,1.0397404538363477,-0.8948934401625119,-0.31279826681802725,1.4070313558389775
157,1790995104.1321974,0.5885643095128676,-1.0695875459558823,-0.2067700195312493,1.2382161789741073,1.0522291854632715,-0.9140510290642027,-0.3164631722129529,1.4292741101136313
158,1790995104.1578746,0.6125145048253677,-1.0312672334558823,-0.2594604492187493,1.2271943000723275,1.0681709421344776,-0.9390031709173047,-0.3213604804139099,1.4580770469989128
159,1790995104.1778746,0.4831834501378677,-1.1031178193933824,-0.24030029296874927,1.2280388433397418,1.0803689701278143,-0.9587246907140354,-0.32535245824086184,1.4806094577177091
160,1790995104.187092,0.3730125517003677,-1.3665699678308825,-0.2977807617187493,1.4475238245891213,1.0857393753122493,-0.968157806943906,-0.32728827439942176,1.491065774809823
161,1790995104.207092,0.24368149701286768,-1.7401930147058826,-0.4175317382812493,1.806096662111345,1.0965691395895822,-0.9902155939523207,-0.3319314987965869,1.5143214058778713
162,1790995104.2323828,0.17183091107536766,-1.9988551240808825,-0.5037524414062493,2.0685053036644954,1.1089977328110632,-1.0210168031930225,-0.33866979684768905,1.5450076100393269
163,1790995104.2523828,-0.0006104951746323423,-2.0323853975183823,-0.4941723632812493,2.0916015637260568,1.117608845695431,-1.0477676911527798,-0.34469604846300933,1.5702490351617204
164,1790995104.277661,0.09519028607536767,-1.9413746553308826,-0.1876098632812493,1.9527401782430305,1.1270393344084557,-1.0840407250708137,-0.3524628053215819,1.6029946924587959
165,1790995104.297661,0.4017527860753677,-1.9413746553308826,0.18601318359375074,1.9912161504846997,1.1341268664831505,-1.1142588992689635,-0.3576884386407625,1.629649552209382
166,1790995104.3225422,0.7274754423253676,-1.8072535615808825,0.39198486328125076,1.9872186814930295,1.1437288038775704,-1.1532083277014258,-0.362135685218852,1.664075502616412
167,1790995104.3425422,0.6077244657628676,-1.4336305147058825,0.41114501953125077,1.6104861707161502,1.1522921083717939,-1.1846817764563724,-0.36396956480966997,1.6922534853240756
168,1790995104.3525949,0.18141098920036766,-1.2611891084558824,0.6266967773437507,1.4199495642534077,1.1565456585288798,-1.200160234347481,-0.3639705883954955,1.7060061657532084
169,1790995104.3725948,-0.24490248736213235,-1.1510182100183823,0.5548461914062508,1.3010282257614945,1.16364355561508,-1.2299540003427576,-0.3622000066078796,1.7314854929425212
170,1790995104.396682,-0.0006104951746323423,-1.0168971162683824,0.25786376953125073,1.0490823806623464,1.1704661907011098,-1.264370498804497,-0.3589192579034733,1.7599565038703313
171,1790995104.416682,0.12393052045036766,-1.1653883272058823,0.10937255859375074,1.1770518610750196,1.1754663724531857,-1.2919340091844833,-0.35605295438307605,1.782579137985369
172,1790995104.4418688,-0.21616225298713235,-1.2084986787683825,0.08542236328125073,1.2306470478370122,1.1806445357420914,-1.3259233592202238,-0.35261678194972956,1.8100643273696335
173,1790995104.4618688,-0.7382765107996324,-1.0887477022058825,-0.06785888671874928,1.317204841307447,1.182707914930785,-1.3523105648011136,-0.35027116917799084,1.8303638347798366
174,1790995104.4721534,-0.7286964326746324,-0.5810035615808824,-0.2019799804687493,0.9536034511643514,1.1824782659140627,-1.3651323365083519,-0.34945404532842445,1.839554096876817
175,1790995104.4921534,-0.43171401079963234,-0.14031996783088235,-0.33131103515624927,0.5619908206626425,1.1803580546534767,-1.3874080076338202,-0.3489033200889594,1.8546912529046136
176,1790995104.5172477,-0.40776381548713236,0.03212143841911765,-0.2882006835937493,0.5003626185584228,1.1765168771087418,-1.4113688156882855,-0.34948193208664935,1.8703720263290076
177,1790995104.5372477,-0.9298780732996323,0.5733958524816176,-0.15407958984374928,1.103266311845411,1.1719082303455348,-1.4266926659997223,-0.3505373295667255,1.8792810548155827
178,1790995104.5622654,-1.3514015107996324,0.9901292509191177,-0.12533935546874928,1.6799856936731645,1.1627276299428857,-1.4400521351866884,-0.3521837683566805,1.8840698235952544
179,1790995104.5822654,-1.2699708467371325,0.9901292509191177,0.023151855468750728,1.6105023730189063,1.1525571991742274,-1.4461597395110353,-0.3534558329553734,1.8827366027676686
180,1790995104.5917075,-0.19700209673713234,0.8512181181066177,-0.07743896484374928,0.8771424650465109,1.1474370677412784,-1.4473066927628564,-0.35400474259071296,1.8805924186594971
181,1790995104.6117074,0.6029344267003677,0.9757591337316177,-0.3456811523437493,1.197969644459692,1.1388274407059904,-1.446631257966402,-0.3556277048322152,1.8751375951312585
182,1790995104.6367798,-0.06767104204963234,1.1913108915441177,-0.14449951171874928,1.201948883742849,1.1306597575205821,-1.441836518209751,-0.35827884139752036,1.8669889557018995
183,1790995104.6567798,-1.0639991670496325,1.6128343290441176,-0.06306884765624927,1.9332114421268534,1.1234242584573892,-1.4343792911025814,-0.36038776360979125,1.8572574822555288
184,1790995104.6822143,-1.5813233857996325,1.9912474149816177,0.08063232421875073,2.5440423522136393,1.1105567394999412,-1.4194431748222136,-0.3626339351226191,1.8383847717767414
185,1790995104.7022142,-1.2029102998621324,1.6272044462316178,0.24349365234375073,2.0381552095171878,1.0977799618428268,-1.404032455780396,-0.3636490495085459,1.818974604747641
186,1790995104.712228,-0.43171401079963234,1.1482005399816178,0.19559326171875074,1.2421747828564882,1.091114660029471,-1.3953894130868767,-0.36375129945001555,1.8083024700911463
187,1790995104.732228,-0.23053237017463235,1.0907200712316178,-0.10617919921874928,1.1198613618803777,1.0788059255395983,-1.3773581528824348,-0.3637907633464768,1.7869754966947013
188,1790995104.7572453,-0.9250880342371324,1.2823216337316177,-0.04869873046874928,1.5819317968149305,1.0635505684644173,-1.3537341672803684,-0.3641233193528755,1.759636837259272
189,1790995104.7772453,-1.0448390107996324,1.4212327665441176,0.027941894531250726,1.764191566881952,1.0502292054354663,-1.333625628761347,-0.3643804364143122,1.7361773538668777
190,1790995104.802364,-0.3550733857996324,1.1817308134191178,0.09979248046875074,1.2379512768463588,1.033370656458454,-1.3072549797773203,-0.36441428170897994,1.705745662311779
191,1790995104.822364,0.05686997357536766,0.7602073759191177,0.21954345703125075,0.7933150558394353,1.021513780374822,-1.2864948807918655,-0.36395818416362336,1.6825650185413394
192,1790995104.8319094,0.09040024701286767,0.38179428998161763,0.20517333984375075,0.4427586068109735,1.0168091520714233,-1.2772554328843033,-0.3634691014642196,1.6725406064690578
193,1790995104.8519094,0.2532615751378677,0.41053452435661764,-0.10138916015624928,0.49290950784826376,1.008945820694792,-1.2596117185438165,-0.362442381467045,1.6540731031226816
194,1790995104.8765268,0.13351059857536768,0.49675522748161766,-0.08222900390624928,0.5209150075066763,1.001432974121037,-1.239476989025333,-0.36170719955864117,1.634014475515063
195,1790995104.8965268,0.2915818876378677,0.26204331341911763,-0.2067700195312493,0.44321612818475503,0.9968824893738358,-1.2244344153580615,-0.3616330054183343,1.6198125711764653
196,1790995104.921734,0.7849559110753677,-0.2648609834558824,-0.4558520507812493,0.9455729559853372,0.9940427517443153,-1.2083244756431166,-0.3628062380189244,1.6061747716481751
197,1790995104.941734,0.9526072782628677,-0.7055445772058824,-0.6618237304687493,1.3576687472412363,0.9947339531972254,-1.1989154156472002,-0.3652739871595229,1.6000996522764743
198,1790995104.9518597,0.7657957548253677,-0.9785768037683823,-0.6618237304687493,1.4078587816942683,0.9963363992272263,-1.196145281047095,-0.36734116632152153,1.5994965727599308
199,1790995104.9718597,0.9238670438878677,-1.0695875459558823,-0.6187133789062493,1.5428396152820363,1.001561245835663,-1.1945667315076696,-0.3727325678110698,1.60282381199302
200,1790995104.9972718,1.5753123563878677,-1.4288404756433826,-0.4989624023437493,2.1845268604386052,1.011967357675498,-1.197623644505022,-0.38068554503141516,1.6134750729633496
201,1790995105.0172718,1.7764939970128677,-1.4767408662683825,-0.4750122070312493,2.3584594769379748,1.0239564647819097,-1.204027003008801,-0.3874668283904673,1.6273593361166394
202,1790995105.0421739,1.4076609892003678,-1.3090894990808826,-0.6666137695312493,2.0346003771868952,1.0425919344367558,-1.2160069146485712,-0.39677590188950385,1.6501823761469347
203,1790995105.0621738,1.6519529813878677,-1.5438014131433826,-0.6618237304687493,2.355903670813249,1.059903274635905,-1.2284646037832272,-0.4051236051980484,1.6723173651615473
204,1790995105.0873036,2.207597512637868,-1.7880934053308826,-0.4558520507812493,2.877249710434283,1.0856663140887193,-1.2480493689615832,-0.4161456190743725,1.7057185433673354
205,1790995105.1073036,2.250707864200368,-1.6683424287683826,-0.2163500976562493,2.8099572442224163,1.109782131257126,-1.2664828600102378,-0.42461017223793224,1.736631512994408
206,1790995105.1174273,2.150117043887868,-1.5102711397058826,-0.2882006835937493,2.6432899674211896,1.1234996339139276,-1.276827490858199,-0.4286352169441878,1.753929308159472
207,1790995105.1374273,2.2123875517003677,-1.4001002412683825,-0.5708129882812493,2.679695287175223,1.1530781088775675,-1.2985639694838116,-0.43668267751643625,1.7906840226173752
208,1790995105.1614997,2.174067239200368,-1.6012818818933825,-0.6570336914062493,2.778914409888733,1.1912586460012815,-1.3262208773292725,-0.44713265218535747,1.8379027683169595
209,1790995105.1814997,2.097426614200368,-1.6779225068933825,-0.5708129882812493,2.74598794765854,1.224629053356947,-1.3506710435860647,-0.45635421373550955,1.8794381486768743
210,1790995105.2073128,2.107006692325368,-1.7497730928308826,-0.5372827148437493,2.791031313613072,1.2693780329329825,-1.3841302513222362,-0.46861605491024266,1.935649283841937
211,1790995105.2273128,2.0591063017003677,-1.6300221162683826,-0.3935815429687493,2.6555220376023776,1.3050979631323207,-1.4112354921433758,-0.4780877488594466,1.980766064750399
212,1790995105.2370577,1.9776756376378677,-1.2132887178308824,-0.24030029296874927,2.332598266166491,1.322842002033496,-1.4245394216573222,-0.4824738085848564,2.0029988772263807
213,1790995105.2570577,2.2411277860753676,-0.8444557100183824,-0.1732397460937493,2.4012020342587492,1.3601247427672338,-1.4508347897049385,-0.49074561550023754,2.0483388787108723
214,1790995105.2821417,2.356088723575368,-0.6001637178308824,-0.16844970703124929,2.4371552813389847,1.4085195715977612,-1.4815853049164294,-0.5002067765324887,2.1045734053739427
215,1790995105.3021417,2.150117043887868,-0.7869752412683824,-0.04869873046874928,2.2901320702387014,1.448077099442792,-1.5045063027991077,-0.5069445330117305,2.148827415276381
216,1790995105.3272176,1.8962449735753677,-1.0073170381433822,-0.024748535156249276,2.147334418560878,1.497844603136619,-1.532308349618843,-0.5142632757996229,2.203627475389903
217,1790995105.3472176,1.8818748563878678,-1.1079078584558824,-0.3456811523437493,2.210974503927818,1.5372511979971082,-1.5543293253826311,-0.519780594031586,2.2470542413167953
218,1790995105.356917,1.7333836454503677,-0.8588258272058823,-0.5277026367187493,2.005161025102621,1.5561254074892894,-1.5648375700344568,-0.5226903007454391,2.2679171181765896
219,1790995105.376917,1.9968357938878678,-0.7007545381433823,-0.6857739257812493,2.2245664718685667,1.5948014462928037,-1.585594676398619,-0.5296103395449673,2.3104088907970803
220,1790995105.4017766,2.020785989200368,-0.9689967256433824,-0.6378735351562493,2.330110150896055,1.6431548618304848,-1.6106385336297544,-0.5393895231390584,2.3632721899185345
221,1790995105.4217765,1.8675047392003679,-0.8971461397058823,-0.7672045898437493,2.2093094010577863,1.682053193284652,-1.6305636854373662,-0.5481845152524635,2.4059399701714836
222,1790995105.446939,1.9201951688878678,-0.6576441865808823,-1.2030981445312494,2.3594682680931465,1.7307993710961187,-1.654805928442932,-0.5613082527619049,2.45949508607259
223,1790995105.466939,1.9537254423253678,-0.6863844209558824,-1.2845288085937494,2.43683830760838,1.769543603724103,-1.6732002473880803,-0.5739062050255173,2.502049552967968
