imu_index,t_imu,ax,ay,az,mag,vx,vy,vz,velocity
0,1791295897.4431005,0.049624804687500065,0.004885839843750049,0.01278940429687535,0.051478748367848236,0.0,0.0,0.0,0.0
1,1791295897.4631004,0.09273515625000008,0.014465917968750049,0.04152963867187535,0.10263421883371578,0.00027681130339473047,3.525704889575739e-05,9.778496167654669e-05,0.00029568472384283067
2,1791295897.4727564,0.025674609375000067,0.014465917968750049,0.05110971679687535,0.05899704653873997,0.0004761606050771084,7.067811159099838e-05,0.0002050028858035101,0.0005232117166819132
3,1791295897.4927564,-0.012645703124999935,-0.03343447265624995,0.0032093261718753488,0.035889797210414034,0.0008466724197101275,0.0001045865801627562,0.00047524607294317214,0.0009765507508039967
4,1791295897.5333529,0.044834765625000064,-0.04780458984374995,-0.0015807128906246515,0.06555862774662413,0.0015839430276507853,-8.426089633052926e-05,0.0009464694657625658,0.001847100393350301
5,1791295897.5533528,0.06878496093750007,-0.009484277343749951,-0.0015807128906246515,0.06945373295330616,0.0020631082565802697,-0.0002492749525224026,0.0011390545142748606,0.0023698098798879763
6,1791295897.5629218,0.006514453125000066,9.580078125004901e-05,0.0032093261718753488,0.007262716556839825,0.002312015233257081,-0.00032312067761001653,0.0012185437887818676,0.0026333762314357627
7,1791295897.5829217,-0.041385937499999935,-0.07175478515624996,0.01278940429687535,0.08381595240670134,0.002701911595850705,-0.0005618020034635579,0.0013837610391020663,0.0030871900453689274
8,1791295897.593129,-0.017435742187499936,-0.08612490234374996,0.02715952148437535,0.0919736022813594,0.0028260205006775192,-0.0007862061863655415,0.001486015604247956,0.0032882752947095964
9,1791295897.613129,0.025674609375000067,-0.004694238281249951,0.01278940429687535,0.0290652765661868,0.0030450813415686313,-0.0012961784349055034,0.0017162432309245862,0.003728014181783374
10,1791295897.6380873,0.03525468750000007,0.02883603515625005,-0.0015807128906246515,0.04557311233060275,0.003391498352260829,-0.001791931733330315,0.0019814343037150147,0.004317332777334023
11,1791295897.6580873,0.030464648437500068,0.03362607421875005,-0.011160791015624652,0.04672655484710819,0.0037260334991282193,-0.002035912846529926,0.0021429525942703058,0.004756102666741026
12,1791295897.6825733,0.04004472656250007,0.014465917968750049,-0.011160791015624652,0.0440159762386165,0.004203657712267846,-0.0022014951539196382,0.002270045438819626,0.0052602685643364615
13,1791295897.7025733,0.05920488281250007,9.580078125004901e-05,-0.025530908203124654,0.06447522470149238,0.004684132995354531,-0.002294611719349725,0.0023032449174573413,0.005701866537419057
14,1791295897.713357,-0.0030656249999999347,0.03362607421875005,-0.020740869140624653,0.03962694256076322,0.004949741998166371,-0.0023100142238050726,0.002281036978301317,0.0059193953457233935
15,1791295897.733357,-0.05096601562499994,0.03841611328125005,0.02236948242187535,0.06762932982181744,0.005287415492001147,-0.0022262324145140857,0.002248470059359374,0.0061618577520357026
16,1791295897.7585115,-0.027015820312499935,0.014465917968750049,0.01757944335937535,0.03532922527683526,0.005501292385528388,-0.002036896763301305,0.0022890211223307445,0.006297045659187827
17,1791295897.7785115,0.020884570312500066,0.014465917968750049,-0.025530908203124654,0.036017430967418294,0.005636637872595349,-0.0018655421680269894,0.002304499169300036,0.006368881417389369
18,1791295897.80337,0.016094531250000065,0.014465917968750049,-0.025530908203124654,0.03346825350256885,0.00584857181433201,-0.0016305683071741364,0.0022256525966069373,0.0064666896285922645
19,1791295897.82337,-0.03180585937499994,0.02883603515625005,0.0032093261718753488,0.043051473709877164,0.005969940268553638,-0.0014049236887037962,0.002138249390596525,0.006495083358784995
20,1791295897.8334103,-0.06054609374999994,0.03841611328125005,0.02236948242187535,0.07511338743422645,0.005952186715886835,-0.0012579960260641922,0.002120214741197999,0.0064425454015603414
21,1791295897.8534102,-0.022225781249999937,0.03362607421875005,0.01757944335937535,0.043974254380980946,0.005797969102027653,-0.0009011582035429592,0.002149602206234825,0.006248945627938344
22,1791295897.8779821,0.020884570312500066,0.02883603515625005,-0.0015807128906246515,0.035639596713667156,0.005634446929241417,-0.00041339919273405626,0.002209775663832306,0.006066382742249018
23,1791295897.8979821,-0.0030656249999999347,0.02404599609375005,-0.006370751953124652,0.025063807875690174,0.005548043053392215,3.378218767457878e-06,0.0022394792833246957,0.005982980912145395
24,1791295897.9230642,-0.017435742187499936,0.05278623046875005,0.02236948242187535,0.05992315893335023,0.005417371002918856,0.0005921926686592202,0.002301239212366863,0.005915598249764316
25,1791295897.9430642,-0.027015820312499935,0.04799619140625005,0.05110971679687535,0.07513782062130547,0.0052621277042205405,0.0011424488325553666,0.0024533171330596475,0.005917258002309555
26,1791295897.9683821,0.006514453125000066,0.00967587890625005,0.01278940429687535,0.01730981208434024,0.005056155159666463,0.0018440413262046833,0.002738289216007838,0.006038494948402072
27,1791295897.988382,-0.0030656249999999347,-0.004694238281249951,-0.011160791015624652,0.012489883337174334,0.004923025895375104,0.0023226056779538182,0.002932079732997871,0.0061828612035573
28,1791295898.0125663,-0.05575605468749994,0.01925595703125005,0.02236948242187535,0.06308663296869965,0.004679499796138161,0.0028409010691767336,0.0031515940769286373,0.006316722445433095
29,1791295898.0325663,-0.05096601562499994,0.02404599609375005,0.04152963867187535,0.07000325396040462,0.004348233379807813,0.003270182854759193,0.0034017473836000685,0.006416627984437447
30,1791295898.0431244,-0.0030656249999999347,0.00967587890625005,0.007999365234375349,0.012923255526452003,0.004156801746150523,0.0034895135480373833,0.003553216414828368,0.0064869910165917645
31,1791295898.0631244,0.011304492187500065,-0.03343447265624995,-0.0015807128906246515,0.035329225276835075,0.0038609297732493776,0.003807027131104052,0.00380672956798858,0.006625060323855501
32,1791295898.0876193,-0.03180585937499994,-0.004694238281249951,0.01278940429687535,0.03460082984398435,0.003515253689487486,0.004067522576867617,0.004091236966581842,0.006755735957799783
33,1791295898.1076193,-0.05096601562499994,9.580078125004901e-05,0.036739599609375354,0.06282787682179496,0.003151189276736788,0.004241414430878115,0.004362984722661595,0.0068523883371026575
34,1791295898.1178436,0.011304492187500065,-0.014274316406249953,0.01757944335937535,0.02530977047127201,0.0029625770856857967,0.004306104071592662,0.004522721860941098,0.00691190337717853
35,1791295898.1378436,0.006514453125000066,-0.004694238281249951,0.01757944335937535,0.01932642753807495,0.0026757005457949744,0.004385210541037007,0.0048410546082284,0.007058700632541306
36,1791295898.1626248,-0.046175976562499936,-0.004694238281249951,0.03194956054687535,0.056347414347777756,0.0022998466769159295,0.004451076376623719,0.00526837787462294,0.007270294428541083
37,1791295898.1826248,-0.07012617187499993,0.014465917968750049,0.02236948242187535,0.0750155751050622,0.0018675569264031309,0.004510918010148596,0.00564300119104356,0.007461877284555028
38,1791295898.2083547,-0.046175976562499936,0.004885839843750049,0.007999365234375349,0.047117747045378265,0.00117040560998633,0.00461370002861001,0.006111263910079826,0.0077462006057503864
39,1791295898.2283547,-0.041385937499999935,0.014465917968750049,0.0032093261718753488,0.043958598475269776,0.0005784484215634178,0.004710636685548036,0.0064374625211041205,0.00799785122831504
40,1791295898.2382915,-0.03180585937499994,-0.009484277343749951,0.01278940429687535,0.03556870913576108,0.0002739091641700112,0.004755287092286073,0.006587144250267352,0.008128852990066255
41,1791295898.2582915,-0.046175976562499936,-0.019064355468749954,0.05589975585937535,0.07496968164583045,-0.00036407199883705684,0.004788852504283719,0.006946254750600393,0.008444886724424441
42,1791295898.283463,-0.05096601562499994,0.014465917968750049,0.02715952148437535,0.05953517564118367,-0.0012299690752536048,0.004816079240779627,0.007487232379065517,0.008986995709227626
43,1791295898.303463,-0.036595898437499934,0.004885839843750049,0.01757944335937535,0.04089215135269935,-0.0019461091332823766,0.004863494857762664,0.007919698576440783,0.009495396175610954
44,1791295898.3275683,0.0017244140625000655,-0.019064355468749954,0.0032093261718753488,0.0194093541308125,-0.002742822012428157,0.004886437737135577,0.008400334087267971,0.010097819523465416
45,1791295898.3475683,-0.007855664062499936,9.580078125004901e-05,-0.006370751953124652,0.010114698023212689,-0.003313891170759796,0.004874165125327581,0.00873455443659674,0.010537162880323678
46,1791295898.3581207,-0.022225781249999937,-0.052594628906249954,0.0032093261718753488,0.057188111670490364,-0.003593810323601768,0.004827111960268888,0.008881942760091058,0.010728717990166932
47,1791295898.3781207,-0.022225781249999937,-0.07654482421874996,0.01278940429687535,0.0807258591104555,-0.004111438876854269,0.0045576000612613556,0.009143384221270846,0.01101258929472551
48,1791295898.403476,-0.03180585937499994,-0.028644433593749952,0.0032093261718753488,0.0429233740631664,-0.004771986218841493,0.004067140050026884,0.009455538300431048,0.011345513880396263
49,1791295898.423476,-0.022225781249999937,-0.02385439453124995,0.01278940429687535,0.03502265485217119,-0.005295910508308969,0.0036595533600989553,0.009688826190844449,0.011632383756729411
50,1791295898.448432,0.025674609375000067,-0.03822451171874995,-0.0015807128906246515,0.0460738267993693,-0.005845145420161196,0.0031110614533324038,0.009957237739914157,0.01195788491993517
51,1791295898.468432,-0.022225781249999937,-0.04301455078124995,0.0032093261718753488,0.04852356855758925,-0.0062141102303817095,0.0026155710623380363,0.010142522226243896,0.012178962806714133
52,1791295898.477623,-0.05575605468749994,-0.02385439453124995,0.01278940429687535,0.061978533663172,-0.006411990088541395,0.0023759282797279004,0.010225926311703876,0.012301553601816378
53,1791295898.497623,-0.06533613281249993,0.00967587890625005,-0.0015807128906246515,0.06606762850854896,-0.00695963201795144,0.0019114108951143363,0.010397005736046572,0.012656527869468859
54,1791295898.5226302,-0.07012617187499993,0.01925595703125005,-0.0015807128906246515,0.07273905770818018,-0.007795736274728778,0.0014719805342548343,0.010572901104698362,0.013218413994427589
55,1791295898.5426302,-0.07012617187499993,0.00967587890625005,-0.015950830078124652,0.07256536084545885,-0.008574500157483187,0.001216652492031549,0.010666177885384905,0.01373934667004657
56,1791295898.567717,-0.13239667968749994,0.043206152343750054,0.02236948242187535,0.14105334500269173,-0.009785863055072442,0.001043921804055183,0.010777705770777185,0.014594924807858978
57,1791295898.587717,-0.15634687499999994,0.05757626953125005,0.05110971679687535,0.1742744252219974,-0.011039851268830397,0.0010780453077335992,0.01096350071247212,0.015596116362601276
58,1791295898.5983932,-0.12760664062499993,0.07673642578125005,0.05110971679687535,0.15742978410814132,-0.011836196320631303,0.00120107403227619,0.011129650897455531,0.01629132441733228
59,1791295898.6183932,-0.11323652343749994,-0.009484277343749951,0.04631967773437535,0.12271093798989978,-0.013465507593789193,0.0014978549133430894,0.011540361348793002,0.017797286426883618
60,1791295898.6424787,-0.10365644531249994,0.004885839843750049,0.05589975585937535,0.11786989773025103,-0.015525127218173772,0.0017933437204970407,0.012145429836877704,0.019792855346383083
61,1791295898.6624787,-0.07491621093749994,0.09110654296875005,0.09422006835937535,0.1509644399009053,-0.017246701613383666,0.0021458933417473204,0.01279767731308889,0.021583190667396616
62,1791295898.6875713,-0.017435742187499936,0.12463681640625006,0.06547983398437535,0.1418659570444425,-0.019256452853904222,0.0029278823237251185,0.013793804343088098,0.023867394279049693
63,1791295898.7075713,-0.0030656249999999347,0.08152646484375005,0.01757944335937535,0.08345657167284865,-0.020648791003837604,0.003766916572907783,0.014593259123152678,0.02556414368256623
64,1791295898.7327092,-0.08928632812499994,0.10068662109375005,0.036739599609375354,0.13949782162019148,-0.022310427001086788,0.005006842826906447,0.015549776096081833,0.027651747950219074
65,1791295898.7527092,-0.09407636718749994,0.13421689453125005,0.02715952148437535,0.16613902987579487,-0.023709183723020392,0.006197721472357337,0.016292487478647436,0.029427577074960447
66,1791295898.7634668,-0.05575605468749994,0.11984677734375006,0.01278940429687535,0.13279893273767987,-0.02446958689080577,0.006947178879628726,0.01666428848108583,0.030409250033059068
67,1791295898.7834668,-0.017435742187499936,0.08631650390625005,0.04631967773437535,0.09949902762159554,-0.02578101236871777,0.008440764200638832,0.017340495825275942,0.03219627143805905
68,1791295898.80816,0.0017244140625000655,0.11984677734375006,0.04152963867187535,0.12685004742513056,-0.027186403680342704,0.01039004157407961,0.01821284758274326,0.03433309374428543
69,1791295898.82816,-0.017435742187499936,0.08631650390625005,0.02236948242187535,0.09085668767927453,-0.028177507482101814,0.012041259528378123,0.018909263750751748,0.036007278632648076
70,1791295898.853248,0.020884570312500066,0.13421689453125005,0.007999365234375349,0.13606737264643345,-0.0292277667182561,0.014216797034873947,0.019708947947334198,0.03801081812403317
71,1791295898.8732479,0.0017244140625000655,0.14858701171875005,0.02236948242187535,0.15027131262882315,-0.02990552851914114,0.01611518727652898,0.020296382100596904,0.039572503374694354
72,1791295898.882615,-0.027015820312499935,0.20606748046875006,0.04631967773437535,0.2129299734638418,-0.03019311888647894,0.017120110465813042,0.020578501097091126,0.040350927100348925
73,1791295898.902615,-0.0030656249999999347,0.22522763671875007,0.02715952148437535,0.22687998150082375,-0.03076017042477133,0.01959082352051978,0.0212007195622164,0.04218363380185345
74,1791295898.9284856,-0.08449628906249994,0.21085751953125006,0.01278940429687535,0.2275172197229783,-0.03155353923567112,0.023153504910309337,0.02196236129859466,0.044878234610318216
75,1791295898.9484856,-0.15155683593749994,0.18211728515625006,-0.011160791015624652,0.2371934723557198,-0.032428954655870784,0.02608406478117889,0.022465291889035604,0.04729381434438154
76,1791295898.9726028,-0.11802656249999995,0.16295712890625005,-0.035110986328124656,0.20425003470714112,-0.033813861240992726,0.02971200770103965,0.022897091313665678,0.050502053465954176
77,1791295898.9926028,-0.05575605468749994,0.16774716796875005,-0.03032094726562465,0.17935219496548213,-0.035050741064482194,0.032765362638320826,0.02310331439861995,0.053253042863216075
78,1791295899.0026581,-0.041385937499999935,0.20606748046875006,0.007999365234375349,0.21033447690201798,-0.03565258207480962,0.034352127825023226,0.023174610229631135,0.0546647770872899
79,1791295899.022658,-0.041385937499999935,0.23480771484375007,0.02236948242187535,0.23947411659033285,-0.03679424136329538,0.03769610215172419,0.023340699646603732,0.05761597499762222
80,1791295899.0480886,-0.09407636718749994,0.20606748046875006,0.04631967773437535,0.2312134985578316,-0.03828650571041791,0.04215112590698838,0.023651217891769927,0.06165998737029248
81,1791295899.0680885,-0.11802656249999995,0.23001767578125007,0.06547983398437535,0.2666945992816428,-0.03960222291122768,0.04578338980652797,0.024026495198857953,0.06512854453484893
82,1791295899.0933988,-0.07970624999999994,0.22522763671875007,0.06068979492187535,0.2465031964065274,-0.041392874335874186,0.05055475081283128,0.0246696805621956,0.06984086206923357
83,1791295899.1133988,-0.0030656249999999347,0.16774716796875005,0.0032093261718753488,0.1678058705547996,-0.042719746803060434,0.05434896034501382,0.02519753313024033,0.07357786306594556
84,1791295899.122831,-0.06054609374999994,0.14379697265625005,0.036739599609375354,0.16029097601843753,-0.04329665565424592,0.05609035326148364,0.02543739621399935,0.07528472119884859
85,1791295899.142831,-0.10365644531249994,0.18211728515625006,0.06068979492187535,0.2181619018416494,-0.044582729449546665,0.059717758969459724,0.026015848478630487,0.07893449736059022
86,1791295899.167674,-0.09407636718749994,0.16774716796875005,0.04152963867187535,0.19675920845782516,-0.04630902198236456,0.06419954946295445,0.026817051948803065,0.08357787951027629
87,1791295899.187674,-0.036595898437499934,0.16295712890625005,0.02715952148437535,0.1692097079102622,-0.04768632760648597,0.0677624828115254,0.027468347005512674,0.08729404335113959
88,1791295899.2134824,0.04004472656250007,0.11984677734375006,0.03194956054687535,0.13033650518671372,-0.049190356881140256,0.07221790731408996,0.02829713643305044,0.091846857742827
89,1791295899.2334824,0.0017244140625000655,0.16774716796875005,0.06547983398437535,0.18008246617596158,-0.05011840929171589,0.07558409180159244,0.0289892050716632,0.0952112592821377
90,1791295899.2433856,-0.07491621093749994,0.19648740234375006,0.05589975585937535,0.21758796071052386,-0.0505633760702316,0.07727140338727868,0.02937064053894602,0.09690283435858411
91,1791295899.2633855,-0.09886640624999994,0.19169736328125006,0.01757944335937535,0.21640582756154944,-0.05158788706607489,0.08075014690689693,0.030135637653520148,0.10044925571756017
92,1791295899.2875545,-0.036595898437499934,0.13900693359375005,-0.0015807128906246515,0.1437521687586926,-0.052885795261152724,0.08492290870120894,0.030950429478275143,0.10472218889790319
93,1791295899.3075545,0.04004472656250007,0.11984677734375006,0.036739599609375354,0.131592660679101,-0.053793545492158826,0.08824622866664694,0.03157627653523213,0.10806573763377805
94,1791295899.3333585,0.020884570312500066,0.14858701171875005,0.04631967773437535,0.15703432068838363,-0.05467113387530599,0.0924103242702726,0.03242337090674903,0.11216004588045238
95,1791295899.3533585,-0.046175976562499936,0.15816708984375005,0.036739599609375354,0.1688160161258364,-0.05528723571097368,0.09561380641348675,0.03310603468021745,0.11530259295299583
96,1791295899.37843,-0.07012617187499993,0.12942685546875005,0.01278940429687535,0.14775845072495744,-0.05616240281469826,0.09956800636905083,0.03392656871459407,0.11924351322807394
97,1791295899.3984299,-0.017435742187499936,0.05278623046875005,0.02715952148437535,0.061871082421347756,-0.05688716423464558,0.10252252351634937,0.03454286604220591,0.12223022080168934
98,1791295899.407992,0.016094531250000065,0.07673642578125005,0.007999365234375349,0.07881308788514417,-0.05718265901463255,0.10381608538661949,0.0348185349139723,0.12353123674011005
99,1791295899.4279919,-0.022225781249999937,0.11505673828125006,0.007999365234375349,0.11745649501090118,-0.05771720604908815,0.10640355472650176,0.03533263534380411,0.12610070361773082
100,1791295899.4525802,-0.07970624999999994,0.08152646484375005,0.02236948242187535,0.11618969189564232,-0.05846378626644384,0.10946999918562461,0.0359258772158182,0.12919893064586535
101,1791295899.4725802,-0.05096601562499994,0.08152646484375005,-0.0015807128906246515,0.09615923185971037,-0.05917596792624839,0.11183466828992374,0.036367218144765165,0.13164863374571947
102,1791295899.4983473,-0.012645703124999935,0.10068662109375005,-0.006370751953124652,0.1016774112340114,-0.06007881134317371,0.11477635536707008,0.03683516514600955,0.1346844635252723
103,1791295899.5183473,0.020884570312500066,0.12942685546875005,0.02236948242187535,0.13299575157684196,-0.060662109167445584,0.11706232014360107,0.03716789393198317,0.13698514746272747
104,1791295899.5283487,-0.012645703124999935,0.20127744140625006,0.03194956054687535,0.2041893646733603,-0.060903866176967476,0.11828205761980008,0.037350068966041594,0.1381844916111925
105,1791295899.5483487,-0.046175976562499936,0.17732724609375006,0.01757944335937535,0.1840820736723688,-0.06140302674474393,0.12092322123689615,0.03773401566265185,0.14077149237595063
106,1791295899.5730937,-0.07012617187499993,0.11984677734375006,0.036739599609375354,0.1436340078149379,-0.062143817571136906,0.12425235277568551,0.03823860748927768,0.14409265191302154
107,1791295899.5930936,-0.06533613281249993,0.10547666015625005,0.08463999023437535,0.15019342207794872,-0.06285593944244826,0.12687747484149825,0.03876733490244607,0.1468048670882071
108,1791295899.618359,-0.06533613281249993,0.13900693359375005,0.11817026367187536,0.1937935733049742,-0.06386821578156181,0.13015956014987856,0.03971938034717136,0.15032727384175254
109,1791295899.638359,-0.0030656249999999347,0.14379697265625005,0.08943002929687535,0.16936557366177735,-0.06465193335223643,0.13279213258200417,0.04067136887279048,0.15319198153899957
110,1791295899.6633463,0.09273515625000008,0.23001767578125007,-0.059061181640624655,0.2549434516776359,-0.06531616398606452,0.13628835784699178,0.04173925308630391,0.15678929494926205
111,1791295899.6833463,0.011304492187500065,0.10068662109375005,-0.13091176757812467,0.16553995922834636,-0.06561201206373915,0.13916306062366235,0.04218082588782927,0.1595321774494937
112,1791295899.6934254,-0.017435742187499936,-0.014274316406249953,-0.08780141601562466,0.09064684147196465,-0.06574337758815299,0.14045980222472104,0.04220464666994815,0.160724546781882
113,1791295899.7134254,-0.05575605468749994,-0.052594628906249954,-0.015950830078124652,0.07829023952117424,-0.0660747327511785,0.1425466472419584,0.042089195755187304,0.16265582481848434
114,1791295899.738,-0.07491621093749994,0.02404599609375005,-0.0015807128906246515,0.07869655165644308,-0.06666164665213516,0.14467356811501278,0.04193630454778411,0.16472058184886265
115,1791295899.758,0.016094531250000065,0.06236630859375005,-0.020740869140624653,0.06766663902157848,-0.06715589017259017,0.14627453250126157,0.04179705622478586,0.1662923520562312
116,1791295899.76811,0.14063554687500007,0.03841611328125005,0.01278940429687535,0.1463479540913952,-0.06724941517169852,0.14703885637371844,0.04173119453530328,0.16698623213298094
117,1791295899.78811,0.17895585937500008,0.07194638671875005,0.007999365234375349,0.19304266888613428,-0.06692728880399562,0.14848959420025415,0.04165163263848803,0.16811686433508433
118,1791295899.8286116,0.08315507812500007,0.02404599609375005,0.04631967773437535,0.09817580909537693,-0.06557661311619822,0.15127836572201475,0.04167968179030255,0.17006655167156198
119,1791295899.8486116,0.016094531250000065,0.00967587890625005,0.09422006835937535,0.09607329415821553,-0.06486081141684538,0.15249949673731272,0.04190226445168718,0.17093513719819095
120,1791295899.8581061,0.0017244140625000655,0.06236630859375005,0.09901010742187535,0.11702790873616901,-0.06455928350770676,0.1530435462247606,0.04212967808272316,0.1713625919021791
121,1791295899.878106,0.09752519531250008,0.02404599609375005,0.09422006835937535,0.13771998740388883,-0.06387052337423277,0.15414728541819475,0.042826707281993254,0.1722642046813973
122,1791295899.8873966,0.19811601562500009,0.02883603515625005,0.05589975585937535,0.2078611442184314,-0.06339257188264931,0.15461993845443148,0.04320652675966738,0.17260575741319548
123,1791295899.9073966,0.11189531250000007,0.01925595703125005,0.03194956054687535,0.11794968105001587,-0.062052983953036725,0.15555695246671541,0.04403330679842294,0.17316890709885488
124,1791295899.9335985,0.006514453125000066,0.01925595703125005,0.05110971679687535,0.055003937420551756,-0.06032854696202223,0.15667607833642427,0.04511721995175749,0.17384616946486206
125,1791295899.9535985,0.06399492187500007,-0.02385439453124995,0.02236948242187535,0.07186637536471754,-0.05910395841404828,0.15739527595422925,0.04593068770109229,0.1742876325664354
126,1791295899.9770527,0.08794511718750007,9.580078125004901e-05,-0.059061181640624655,0.10593666028198014,-0.05761601137320774,0.1580703821218489,0.04667701254972173,0.1745983790625555
127,1791295899.9970527,0.025674609375000067,0.00967587890625005,-0.11175161132812465,0.11507054720300715,-0.05636709335493162,0.1585743677281234,0.04696174218162347,0.17472402394173203
128,1791295900.0079994,-0.046175976562499936,-0.014274316406249953,-0.04948110351562465,0.069169043115329,-0.05580288180241475,0.1588050653078206,0.04696183596553387,0.17475246614033563
129,1791295900.0279994,0.016094531250000065,-0.009484277343749951,-0.04469106445312465,0.04843838039038609,-0.05497179987738289,0.15912769404949476,0.046820723491966795,0.17474467643845365
130,1791295900.0525422,0.06399492187500007,9.580078125004901e-05,-0.06385122070312466,0.09040098223391262,-0.053957501448304454,0.1594469370576755,0.046473738314559046,0.1746268766614928
131,1791295900.0725422,0.020884570312500066,0.014465917968750049,-0.006370751953124652,0.026191879280887925,-0.053127611685257946,0.15968990858462795,0.04612806041228192,0.1745027449198021
132,1791295900.0978994,0.011304492187500065,0.06715634765625005,0.0032093261718753488,0.06817672879085543,-0.05217203581690915,0.16010698380419255,0.045749516489005174,0.17449695081328667
133,1791295900.1178994,0.030464648437500068,0.03841611328125005,-0.011160791015624652,0.050283753043629906,-0.05146874579637408,0.16054495756222387,0.04548380620469198,0.17462099478405801
134,1791295900.142407,0.054414843750000066,0.02404599609375005,-0.03032094726562465,0.06677233702336885,-0.05058020555983277,0.16111594756402137,0.04513080405921151,0.17479558126268055
135,1791295900.162407,0.06399492187500007,-0.03343447265624995,-0.011160791015624652,0.07306009337308114,-0.04978624279161407,0.16149794001628884,0.04482371666484395,0.17484112838934832
136,1791295900.1725407,0.006514453125000066,-0.014274316406249953,-0.015950830078124652,0.022374610355596493,-0.04939070604053917,0.16162619809818382,0.044670853218206026,0.17480833756459907
137,1791295900.1925406,-0.027015820312499935,-0.052594628906249954,-0.011160791015624652,0.06017152809292677,-0.04875792059456477,0.1617410556745912,0.044373747898989756,0.1746611960741143
138,1791295900.2175813,0.006514453125000066,-0.004694238281249951,0.01278940429687535,0.015101087206817571,-0.048122995362254506,0.16175569909777884,0.04406061881788226,0.17441922773553797
139,1791295900.2375813,0.044834765625000064,0.03841611328125005,0.007999365234375349,0.05958140492166542,-0.047614923341104384,0.16181622322498912,0.043879219829260116,0.1742901516334279
140,1791295900.2629912,0.025674609375000067,0.08152646484375005,0.0032093261718753488,0.08553391029852159,-0.04693187159507252,0.16211016464377984,0.04370468373668577,0.17433417746607666
141,1791295900.2829912,0.025674609375000067,0.03362607421875005,0.01278940429687535,0.04419804629384269,-0.046397866437732006,0.162479548610823,0.04361191210813696,0.17451178929940028
142,1791295900.2924685,0.020884570312500066,-0.03343447265624995,0.04152963867187535,0.05726028402964666,-0.046149680668496264,0.16262846856507657,0.04361315487893646,0.1745849910276378
143,1791295900.3124685,0.044834765625000064,-0.009484277343749951,0.04631967773437535,0.0651584244038961,-0.04560592013493512,0.16283121470942022,0.04374715793998661,0.17466458789040645
144,1791295900.3370893,0.04004472656250007,0.03362607421875005,0.03194956054687535,0.06127860484678759,-0.04488020303783705,0.16308794421154507,0.04403190524670927,0.17478763929843752
145,1791295900.3570893,0.049624804687500065,0.03362607421875005,0.007999365234375349,0.060475812948569345,-0.04424461063440628,0.16336608718894544,0.04428843897348079,0.1749500781375192
146,1791295900.3824723,0.09273515625000008,0.01925595703125005,-0.006370751953124652,0.09492727514444686,-0.043287933145507454,0.16376681463646625,0.044568282433205667,0.1751563488179364
147,1791295900.4024723,0.04004472656250007,0.01925595703125005,0.036739599609375354,0.05765561712541078,-0.042448039222658225,0.16409296527918268,0.04480125775879279,0.17531540144760008
148,1791295900.41237,-0.022225781249999937,0.043206152343750054,0.05589975585937535,0.07406442909833273,-0.042081507794868814,0.16427652891814473,0.04496802833814275,0.1754415994691785
149,1791295900.43237,-0.0030656249999999347,9.580078125004901e-05,0.03194956054687535,0.03209644300493073,-0.04148990237519884,0.16465676473875418,0.04538624192539861,0.1757645388849747
150,1791295900.4581354,0.054414843750000066,-0.019064355468749954,-0.0015807128906246515,0.05767948962168758,-0.0407428483323482,0.16503647992654263,0.045902883871651964,0.1760797948218682
151,1791295900.4781353,0.04004472656250007,-0.004694238281249951,0.01757944335937535,0.043984688555587584,-0.04010825400482444,0.16525137756613287,0.04626776150509627,0.17623108574117274
152,1791295900.5027046,-0.012645703124999935,0.043206152343750054,0.04631967773437535,0.06459255338886487,-0.039395125662238725,0.16554673835775036,0.04676651156262049,0.1764789084014567
153,1791295900.5227046,-0.027015820312499935,0.03362607421875005,0.02715952148437535,0.05097261050586302,-0.038961189767455405,0.16586635277589037,0.04722182564819666,0.1768036258361815
154,1791295900.5321484,-0.0030656249999999347,-0.02385439453124995,0.0032093261718753488,0.02426375835625298,-0.038808331324988704,0.1660015543808315,0.04742608029918658,0.17695150671759524
155,1791295900.5521483,0.0017244140625000655,-0.057384667968749956,-0.0015807128906246515,0.057432328657170184,-0.03853517826169175,0.16612307620012093,0.04779620788744267,0.1771053751252942
156,1791295900.5774875,-0.041385937499999935,-0.03822451171874995,0.01278940429687535,0.05777090947146052,-0.03831639005632203,0.16607224575429091,0.048216104818369784,0.17712405065568548
157,1791295900.5974874,-0.05096601562499994,-0.019064355468749954,-0.0015807128906246515,0.054437882502621104,-0.03830813315982394,0.1659522104620516,0.048514626089873954,0.17709127072804054
158,1791295900.6226351,-0.022225781249999937,-0.019064355468749954,-0.025530908203124654,0.038849224899450474,-0.03843735364862678,0.16575200583370078,0.04878254426853173,0.17700535081944851
159,1791295900.642635,0.020884570312500066,-0.028644433593749952,-0.035110986328124656,0.049894390606342376,-0.038526719307413713,0.1655451031596288,0.04887269584821698,0.17685595743484786
160,1791295900.6522102,-0.012645703124999935,-0.004694238281249951,0.007999365234375349,0.01568245914133745,-0.03855716945219132,0.16543696383678808,0.048889912639915746,0.17676613894532606
161,1791295900.6722102,-0.06533613281249993,0.02404599609375005,0.036739599609375354,0.07871987270372385,-0.03872820423737108,0.16527399749770394,0.048987588255575795,0.17667810236534803
162,1791295900.697507,-0.05575605468749994,0.02883603515625005,0.04152963867187535,0.07526596472552848,-0.03914182783842932,0.16519912123181943,0.049241096751001835,0.17676967486404488
163,1791295900.717507,-0.0030656249999999347,-0.019064355468749954,0.02236948242187535,0.029550659043447256,-0.03950802529793016,0.16516346008292654,0.04950730915718673,0.17689213173426235
164,1791295900.742229,-0.017435742187499936,-0.02385439453124995,0.007999365234375349,0.030610898193852883,-0.0399307981507729,0.16504641314250024,0.049843324554522075,0.17697215638289
165,1791295900.762229,-0.036595898437499934,9.580078125004901e-05,-0.0015807128906246515,0.036630146238857485,-0.04030256241714261,0.16493028875172347,0.05008401123115951,0.17701611470743975
166,1791295900.8028264,0.016094531250000065,-0.009484277343749951,0.0032093261718753488,0.018954820689415168,-0.04100642452876646,0.1647013424568464,0.05050424910348089,0.17708398639410414
167,1791295900.8228264,0.054414843750000066,-0.04301455078124995,-0.015950830078124652,0.07117342045617071,-0.041195399467818784,0.16452672412122143,0.05066110946967224,0.1770103158012882
168,1791295900.8179739,0.011304492187500065,-0.028644433593749952,-0.03032094726562465,0.04321637377902954,-0.041195399467818784,0.16452672412122143,0.05066110946967224,0.1770103158012882
169,1791295900.8379738,0.0017244140625000655,-0.03343447265624995,-0.0015807128906246515,0.03351620830140337,-0.0412285984471372,0.1642160789852165,0.05066759217979699,0.1767312163272023
170,1791295900.8625886,0.011304492187500065,-0.03822451171874995,0.04152963867187535,0.05756401417526949,-0.04123927610592417,0.16375881321887006,0.050748124084502716,0.17633206996655348
171,1791295900.8825886,-0.0030656249999999347,-0.03822451171874995,0.05110971679687535,0.0638961227605735,-0.04123429223985982,0.163328333564366,0.050942701575045116,0.17598741501936743
172,1791295900.907423,-0.027015820312499935,-0.03343447265624995,0.04631967773437535,0.06319201733110913,-0.041285061040673664,0.16274050775408982,0.05132954087351567,0.1755666565594875
173,1791295900.927423,-0.007855664062499936,-0.028644433593749952,0.036739599609375354,0.04724418708398757,-0.041372121180316974,0.16224500281519474,0.05171893426719049,0.17524252198366513
174,1791295900.9377408,0.054414843750000066,-0.02385439453124995,0.01278940429687535,0.06077479922680438,-0.04137426853154149,0.16198709498010724,0.051928013290178335,0.17506618063143814
175,1791295900.9577408,0.03525468750000007,-0.057384667968749956,0.01757944335937535,0.06960553093994631,-0.041243302416343434,0.16144029824219475,0.05231805266490622,0.17464580878275507
176,1791295900.9829805,-0.017435742187499936,-0.07654482421874996,0.01757944335937535,0.08044968644521731,-0.041069085696173374,0.16060023007741267,0.052802998425706064,0.17397488423212884
177,1791295901.0029805,-0.022225781249999937,-0.11965517578124996,-0.011160791015624652,0.12221255949986941,-0.041011235772756005,0.1597401097752477,0.05313925738109612,0.1732703229223953
178,1791295901.027309,0.016094531250000065,-0.11007509765624995,-0.03990102539062465,0.11818482511478987,-0.040962608504758656,0.15843160499371,0.05339376682604026,0.17213193513195232
179,1791295901.047309,0.025674609375000067,-0.06217470703124996,-0.025530908203124654,0.07194933658246601,-0.04086597562019814,0.1572588877954741,0.053473462360689956,0.17105495295635337
180,1791295901.0569468,0.011304492187500065,-0.03822451171874995,-0.020740869140624653,0.04493426857602801,-0.04079966411135749,0.15670596080836532,0.05347265933793908,0.17053063080028702
181,1791295901.0769467,0.030464648437500068,-0.04780458984374995,-0.04948110351562465,0.07524462252994296,-0.04062004489154824,0.1556016202215344,0.05336591004334263,0.1694395839740884
182,1791295901.1033373,0.011304492187500065,-0.06217470703124996,-0.035110986328124656,0.07229292564955972,-0.04033591075266463,0.15414531123356237,0.05307874768313158,0.16794378859352996
183,1791295901.1233373,0.030464648437500068,-0.019064355468749954,0.01757944335937535,0.040007265373739526,-0.040090226611657856,0.15308534321225245,0.052867469216719275,0.1668451913528465
184,1791295901.1474006,0.04004472656250007,-0.028644433593749952,0.036739599609375354,0.06143192883858819,-0.03971171521104948,0.15191521852841838,0.05274942850078399,0.16564346094156548
185,1791295901.1674006,0.04004472656250007,-0.07175478515624996,0.01278940429687535,0.08316187937122346,-0.03932417498666326,0.1509379643004753,0.052740329957545413,0.1646517604205434
186,1791295901.177991,0.030464648437500068,-0.04780458984374995,0.01757944335937535,0.05934989842767317,-0.03909374373168808,0.15040315024999593,0.052760355979445055,0.16411302071182382
187,1791295901.197991,0.04004472656250007,-0.02385439453124995,0.03194956054687535,0.056510058246796925,-0.03861808259054331,0.14943715763850493,0.052866795960797935,0.1631493748109567
188,1791295901.2227275,0.049624804687500065,-0.03343447265624995,0.036739599609375354,0.0702159766828837,-0.037951656836239286,0.14831531649743046,0.053106132640735125,0.16204327412269845
189,1791295901.2427275,0.020884570312500066,-0.06217470703124996,0.02236948242187535,0.06929829157621502,-0.03738789915681521,0.14740092996686247,0.05335927766143092,0.16115862270138
190,1791295901.267782,-0.017435742187499936,-0.06217470703124996,0.01278940429687535,0.06582756384919361,-0.036781120690980273,0.14619361415010168,0.053694896869253224,0.16002676528428927
191,1791295901.287782,0.006514453125000066,-0.028644433593749952,-0.006370751953124652,0.030058745081470307,-0.03638579043390127,0.1452381959490177,0.0539322496538551,0.15914379303243592
192,1791295901.297711,0.016094531250000065,-0.028644433593749952,-0.020740869140624653,0.038855130481990345,-0.03620213255705421,0.14479236683290003,0.05401221865502332,0.1587222216918276
193,1791295901.3177109,0.0017244140625000655,-0.052594628906249954,-0.03032094726562465,0.060733256431134024,-0.03586095162624901,0.14390717546907575,0.054072546106404745,0.15785792107289642
194,1791295901.3431437,0.0017244140625000655,-0.057384667968749956,-0.006370751953124652,0.0577629656630515,-0.03548559198155738,0.14274059426218713,0.05406776579551769,0.15670809738722136
195,1791295901.3631437,0.0017244140625000655,0.004885839843750049,0.0032093261718753488,0.006094654158786007,-0.03522951827013089,0.14188207186494878,0.05405982837310216,0.15586566754088355
196,1791295901.3878102,0.006514453125000066,-0.009484277343749951,0.007999365234375349,0.014013545604304598,-0.034945826869717436,0.14097355062983322,0.054072243319929825,0.15497922535114217
197,1791295901.4078102,0.03525468750000007,-0.052594628906249954,-0.0015807128906246515,0.06333708734818322,-0.034687655416379394,0.140254286925037,0.05409042756948221,0.15427337033261923
198,1791295901.4172792,0.025674609375000067,-0.06217470703124996,-0.015950830078124652,0.06913254473228807,-0.03454048776867846,0.139883323980048,0.05408529502844031,0.1539012955154008
199,1791295901.4372792,-0.022225781249999937,-0.06217470703124996,-0.0015807128906246515,0.06604678796003026,-0.03427110087695824,0.13903080124635395,0.054049783163399916,0.15305375235691665
200,1791295901.4625719,-0.0030656249999999347,-0.07654482421874996,-0.04948110351562465,0.0911969724083202,-0.034029503140303854,0.1378512484695994,0.05391474851860046,0.15188078843760033
201,1791295901.4825718,-0.041385937499999935,-0.11486513671874996,-0.06385122070312466,0.1377816164858366,-0.03393379490341357,0.13677131889324348,0.05365398911807371,0.15078675889025073
202,1791295901.5077097,-0.007855664062499936,-0.11007509765624995,-0.03032094726562465,0.11444473961253356,-0.03392438116585883,0.1351934739549826,0.053197856929388665,0.14919165867897155
203,1791295901.5277097,0.044834765625000064,-0.08133486328124996,0.02715952148437535,0.09676340114365843,-0.033862546347378494,0.13383931164315788,0.05288464672870573,0.14783916681942813
204,1791295901.5525794,0.006514453125000066,0.00967587890625005,0.06547983398437535,0.06651067125467607,-0.03370141136822533,0.13227435275897778,0.05272638865265087,0.14632963331590507
205,1791295901.5725794,0.07357500000000007,-0.004694238281249951,0.04152963867187535,0.08461694503028154,-0.03347113145528572,0.13121207782455016,0.05277872340414279,0.14533588563085112
206,1791295901.583234,0.07357500000000007,-0.004694238281249951,-0.0015807128906246515,0.07374154291363688,-0.033249267231303996,0.13072355118474846,0.052834345120704625,0.14486417303841534
207,1791295901.603234,0.025674609375000067,-0.019064355468749954,-0.006370751953124652,0.03260708046492263,-0.03274639965104513,0.12990844939178503,0.052911164624562385,0.14404208848600983
208,1791295901.6275697,0.025674609375000067,-0.07175478515624996,0.02236948242187535,0.07942498664275004,-0.032132580194523565,0.12889965764660236,0.053019816775481544,0.14303400093080812
209,1791295901.6475697,0.0017244140625000655,-0.06696474609374996,0.02715952148437535,0.07228340356208743,-0.03166268968035595,0.12798687320888444,0.05317001066392059,0.14216263807900797
210,1791295901.6725352,0.020884570312500066,-0.019064355468749954,0.02715952148437535,0.03920783765826498,-0.031121785631013435,0.12685729410886723,0.053431079513634,0.1411248343399512
211,1791295901.6925352,0.07836503906250007,0.014465917968750049,0.01278940429687535,0.0807088036846954,-0.030604589034855464,0.12608122270305774,0.053668774643292436,0.14040460448291198
212,1791295901.7022898,0.07357500000000007,-0.04780458984374995,0.02236948242187535,0.09054807109459462,-0.030279013878697195,0.12573509363082766,0.05379303892736436,0.14007078028218545
213,1791295901.7222898,0.020884570312500066,-0.019064355468749954,0.05589975585937535,0.06264501282396216,-0.029569926752574294,0.12503157195171538,0.0541270049418149,0.13941666764358143
214,1791295901.7479036,-0.022225781249999937,-0.004694238281249951,0.01757944335937535,0.028723823806023587,-0.028800600313602896,0.12422008641074105,0.05463171199708043,0.13872537043399025
215,1791295901.7679036,-0.022225781249999937,-0.03343447265624995,-0.0015807128906246515,0.040178949304542064,-0.028356672187455117,0.12362430680757737,0.0549906864049957,0.13824270571170613
216,1791295901.7926655,0.04004472656250007,0.014465917968750049,0.007999365234375349,0.043322427820898235,-0.027856397699698235,0.12296209150826667,0.05538038511328966,0.13770490875850205
217,1791295901.8126655,0.09273515625000008,-0.004694238281249951,-0.020740869140624653,0.09514215012528146,-0.0273137708606741,0.12252211336637163,0.055628815659309556,0.1373035887151129
218,1791295901.8224323,0.03525468750000007,-0.057384667968749956,0.02715952148437535,0.07261909332859083,-0.026994777815171418,0.1222940092864389,0.05573663846029903,0.13708069011898125
219,1791295901.8424323,0.06399492187500007,-0.08133486328124996,0.04152963867187535,0.11151421837139652,-0.02629066875673773,0.12168889545049975,0.05602734694570577,0.13652270926631088
220,1791295901.8683045,0.12626542968750007,-0.028644433593749952,0.01757944335937535,0.13066177382425687,-0.025147266487852368,0.12081012418873106,0.0564616978057407,0.13570333244771282
221,1791295901.8883045,0.14063554687500007,-0.028644433593749952,-0.03032094726562465,0.1466909010941779,-0.023995614893197174,0.1201467727536482,0.05672798645653162,0.13501518797761916
222,1791295901.9123769,0.09273515625000008,9.580078125004901e-05,-0.035110986328124656,0.09915946623210198,-0.022396050465989043,0.11941656968895953,0.056882287790075134,0.1341547422083401
223,1791295901.9323769,0.025674609375000067,-0.07654482421874996,-0.06864125976562466,0.10597130849173343,-0.021088820347078867,0.11878622537919445,0.05683562748377866,0.13336114214771486
224,1791295901.9431283,0.03525468750000007,-0.12444521484374996,-0.06864125976562466,0.1464278902068923,-0.02044236543310275,0.11833612612659969,0.056703607259819724,0.13280296731408867
225,1791295901.9631283,0.09752519531250008,-0.09091494140624995,-0.035110986328124656,0.1378748405350915,-0.019221037258484966,0.11730140038108068,0.05633923192232292,0.13154153662722642
226,1791295901.9878922,0.18374589843750008,-0.08612490234374996,-0.020740869140624653,0.20398587610183475,-0.01741323292002821,0.11588357559471082,0.05585200728517084,0.1298139841893969
227,1791295902.0078921,0.15500566406250008,-0.06696474609374996,-0.006370751953124652,0.16897224503244687,-0.01566407615218091,0.11468062640440124,0.055476867663161816,0.12835377750546784
228,1791295902.032915,0.13105546875000007,-0.06217470703124996,-0.04469106445312465,0.15178445679863714,-0.013267029007819092,0.11315895754692819,0.05498208607317752,0.12650689119870154
229,1791295902.052915,0.13105546875000007,-0.057384667968749956,-0.059061181640624655,0.15477971179696898,-0.011245369615247856,0.11194583521975135,0.054490315721724025,0.12501009106581928
230,1791295902.0620453,0.10710527343750006,-0.052594628906249954,-0.054271142578124654,0.1310842916014079,-0.010297809058551197,0.11139979033350966,0.05422188499916004,0.12432204539267534
231,1791295902.0820453,0.054414843750000066,-0.02385439453124995,-0.015950830078124652,0.06151777254558763,-0.00829122554599247,0.11026841255654138,0.053616749486129656,0.12289272986736244
232,1791295902.1081562,0.07836503906250007,-0.03343447265624995,-0.015950830078124652,0.08667971094350681,-0.0058044671309992486,0.1089007173114864,0.05288274872010696,0.12120083820595094
233,1791295902.1281562,0.12626542968750007,-0.06217470703124996,-0.011160791015624652,0.14118504235465326,-0.0038784709436425384,0.10786683999886106,0.05236419634117649,0.11996794057854729
234,1791295902.1527321,0.17895585937500008,-0.04301455078124995,-0.0015807128906246515,0.18405963663117483,-0.0013042260193005186,0.10659309261157093,0.051799094275152016,0.11851976445190247
235,1791295902.172732,0.14063554687500007,-0.014274316406249953,0.01278940429687535,0.14193548540081516,0.0009558496506860458,0.10562606685856259,0.05142500780046234,0.1174832374249274
236,1791295902.1985054,0.06399492187500007,9.580078125004901e-05,0.05110971679687535,0.08189970912423225,0.0038270090790835376,0.10453941296314657,0.051138763072525927,0.11644014749972892
237,1791295902.2185054,0.06878496093750007,-0.004694238281249951,0.04152963867187535,0.08048675426696673,0.005919986983763386,0.10381576161674444,0.05108891579694147,0.11585696320575475
238,1791295902.2284648,0.11189531250000007,0.004885839843750049,-0.015950830078124652,0.11313205279951678,0.006940858117289275,0.10350959945747339,0.05108692290327664,0.11563860247761665
239,1791295902.2484648,0.14542558593750007,-0.009484277343749951,-0.03032094726562465,0.14885534053262306,0.009069382761913606,0.10298010800178517,0.05101411359669843,0.1152805106416444
240,1791295902.2725272,0.11189531250000007,0.014465917968750049,-0.006370751953124652,0.11300623975073022,0.01171050616339381,0.10244761236497286,0.05087343819562336,0.11498154611819471
241,1791295902.2925272,0.10231523437500006,0.004885839843750049,-0.006370751953124652,0.10262974762045463,0.013897764565639133,0.1021004339830135,0.0507549393620989,0.11486387747717716
242,1791295902.3179584,0.10710527343750006,0.01925595703125005,0.007999365234375349,0.10911609103823294,0.016661243917360197,0.10177124138565415,0.05062996915440834,0.11488418689544351
243,1791295902.3379583,0.15021562500000007,-0.019064355468749954,-0.0015807128906246515,0.15142880273191786,0.018894529985357462,0.10155147316841893,0.050556058196473894,0.11500269556149081
244,1791295902.347508,0.13584550781250007,-0.04780458984374995,0.007999365234375349,0.14423338950159256,0.020005812638866857,0.10141438526317788,0.05053065793422454,0.115058495857174
245,1791295902.367508,0.12147539062500007,-0.02385439453124995,-0.006370751953124652,0.12395922372456647,0.022370070399054896,0.10106285652820678,0.05048788395864265,0.11516573902824115
246,1791295902.3926845,0.09752519531250008,9.580078125004901e-05,-0.03032094726562465,0.10212997964170838,0.025313359625445304,0.10064185769601282,0.05037283295047672,0.11535584942034041
247,1791295902.4126844,0.10231523437500006,-0.02385439453124995,-0.035110986328124656,0.11077102818245156,0.027600521696618273,0.10032194815021579,0.05019699907444011,0.11552497909395795
248,1791295902.438178,0.10710527343750006,-0.019064355468749954,0.007999365234375349,0.10908244172053286,0.030479032510224418,0.0998932709894129,0.049954648587162816,0.11577177517508543
249,1791295902.458178,0.13105546875000007,-0.014274316406249953,-0.006370751953124652,0.1319843872531756,0.03275575877205573,0.0995574070283898,0.04979548424538993,0.11603537080641602
250,1791295902.4674428,0.12147539062500007,-0.019064355468749954,-0.03032094726562465,0.12664548953681692,0.033827692597678115,0.0994019949651786,0.049707317874914586,0.11617179881476486
251,1791295902.4874427,0.12147539062500007,-0.03343447265624995,-0.025530908203124654,0.12855334209181127,0.036159029684824436,0.0990380783201491,0.04946176206278808,0.11645807095882992
252,1791295902.51242,0.09752519531250008,0.00967587890625005,-0.035110986328124656,0.10410363929413542,0.039044071071836786,0.09860726229162577,0.04908749674514472,0.1168649391358106
253,1791295902.53242,0.08315507812500007,-0.009484277343749951,-0.025530908203124654,0.08750169031729851,0.04127870774977094,0.09831432773951927,0.04874180157404461,0.11724078630343686
254,1791295902.5581155,0.10231523437500006,-0.028644433593749952,0.0032093261718753488,0.106297744734286,0.044076502835597504,0.09792094451700553,0.04832126344111123,0.11775480447890091
255,1791295902.5781155,0.09752519531250008,-0.004694238281249951,-0.0015807128906246515,0.09765089987821426,0.046227262616979854,0.09761067728290415,0.04804548160763527,0.1182081741318937
256,1791295902.5881205,0.10710527343750006,-0.014274316406249953,-0.04948110351562465,0.11884307010554447,0.04729534272746329,0.09746451416170714,0.04788990014515935,0.11844671164873746
257,1791295902.6081204,0.16458574218750008,-0.057384667968749956,-0.059061181640624655,0.18403719685455106,0.04951770640313137,0.09710867282685336,0.04746273074417945,0.1188899003082854
258,1791295902.6326966,0.13105546875000007,-0.04780458984374995,-0.020740869140624653,0.14103545069279538,0.05238387073300095,0.09654311416856375,0.046869464765357326,0.11942105984175136
259,1791295902.6526966,0.08315507812500007,-0.009484277343749951,-0.0015807128906246515,0.08370912248943135,0.05468778618701788,0.09606596940949536,0.04642560501432175,0.11989479237051498
260,1791295902.6777763,0.08794511718750007,-0.04780458984374995,-0.015950830078124652,0.10136099559215808,0.05746534126348116,0.09544962667141534,0.045919523127533377,0.12050518363332337
261,1791295902.6977763,0.16458574218750008,-0.11486513671874996,-0.03032094726562465,0.2029823292996515,0.059726868647799365,0.09478784198984105,0.045507074161618914,0.12092529771025431
262,1791295902.708069,0.18374589843750008,-0.057384667968749956,0.03194956054687535,0.19513157030482337,0.06098505541646747,0.09436537931007698,0.04532790843711185,0.12115535926968937
263,1791295902.728069,0.13584550781250007,0.014465917968750049,0.06068979492187535,0.14948751112776582,0.06354251802208152,0.09360324352250328,0.04517094943987342,0.12181803424706544
264,1791295902.752649,0.12626542968750007,-0.014274316406249953,0.0032093261718753488,0.12711024591869943,0.06669737562922401,0.09280743077092889,0.04512478009333383,0.12287393906194388
265,1791295902.772649,0.13584550781250007,-0.08612490234374996,-0.03032094726562465,0.16367913929282887,0.06927249951968016,0.09210643327166333,0.0450521811266693,0.12374155835450625
266,1791295902.7977548,0.15979570312500008,-0.08612490234374996,-0.0015807128906246515,0.18153419566069698,0.07257681228779732,0.09103413913321344,0.04491464992373774,0.12478755525834835
267,1791295902.8177547,0.13105546875000007,-0.03822451171874995,0.02236948242187535,0.138336701309673,0.07525055782486334,0.09012152620525156,0.04485270571697204,0.1256833367978836
268,1791295902.828193,0.13584550781250007,-0.028644433593749952,-0.0015807128906246515,0.13884165161069412,0.07664564325176494,0.08966431975407527,0.044841500580922386,0.12619431461356226
269,1791295902.848193,0.11189531250000007,-0.052594628906249954,-0.03990102539062465,0.12991861982211053,0.07928933369895082,0.08879784061212105,0.04476102899932695,0.12718256426443766
270,1791295902.8730624,0.08315507812500007,-0.04301455078124995,-0.03032094726562465,0.09840923960671777,0.08244739795554237,0.08770368247565036,0.044544995781052636,0.1283501694528031
271,1791295902.8930624,0.14063554687500007,-0.03822451171874995,-0.020740869140624653,0.14720616153434513,0.08494183893187744,0.08683389123020481,0.044320729482033694,0.12930416748553644
272,1791295902.918146,0.17416582031250008,-0.04301455078124995,-0.03032094726562465,0.1819432449615088,0.08819326658706561,0.08575381667124528,0.04398558920648184,0.1306388204280188
273,1791295902.9381459,0.12626542968750007,-0.03343447265624995,-0.025530908203124654,0.13308887996240304,0.0908475179980835,0.08490713936470973,0.04367467534830412,0.1317951862106128
274,1791295902.9625392,0.08315507812500007,-0.028644433593749952,0.0032093261718753488,0.08800892209520067,0.09398236041393492,0.08391580123211421,0.0433115083251711,0.13323074914900024
275,1791295902.9825392,0.09752519531250008,-0.004694238281249951,0.01757944335937535,0.09920804615860512,0.09643808810290563,0.08317491838803628,0.04308959619724774,0.13444361340815766
276,1791295902.993097,0.15979570312500008,-0.03343447265624995,-0.011160791015624652,0.16363708001278052,0.09774375694610658,0.08281228438616502,0.04299510439670054,0.13513066072982033
277,1791295903.013097,0.16937578125000008,-0.06696474609374996,-0.025530908203124654,0.1839137291425647,0.10033986078968923,0.08207778378673265,0.04278791916186931,0.13651247664898072
278,1791295903.038167,0.13584550781250007,-0.06217470703124996,0.007999365234375349,0.14961178440019593,0.10367983310576216,0.08105237852030588,0.042534205065255466,0.1383045713531221
279,1791295903.058167,0.11668535156250007,-0.02385439453124995,0.0032093261718753488,0.11914194551959544,0.10632347083299035,0.08022800566222864,0.042378974058197176,0.13977550137537584
280,1791295903.0832522,0.12626542968750007,-0.03822451171874995,-0.011160791015624652,0.13239575252401536,0.10959899779883406,0.07923232854612734,0.042198518979757266,0.14167009991326762
281,1791295903.1032522,0.17416582031250008,-0.09091494140624995,-0.020740869140624653,0.1975587082078045,0.11226943445266753,0.07836385963122966,0.042028374024551646,0.14321907914720192
282,1791295903.1127968,0.14542558593750007,-0.07654482421874996,0.007999365234375349,0.16453480180222504,0.11358146551656179,0.0778916930090823,0.04195023439157205,0.143971133614412
283,1791295903.1327968,0.08794511718750007,-0.057384667968749956,0.04152963867187535,0.11292499565297012,0.11626839037417096,0.07684981917382343,0.041885352694455924,0.14552874656777928
284,1791295903.1578774,0.10710527343750006,-0.06217470703124996,0.007999365234375349,0.1241016665347261,0.1194993638048888,0.07551435735653836,0.04190935993560108,0.1474412105449352
285,1791295903.1778774,0.12147539062500007,-0.052594628906249954,-0.03032094726562465,0.1358006824738642,0.12203222669449625,0.07443701161308781,0.04189214998807552,0.1489553130322222
286,1791295903.202462,0.12626542968750007,-0.052594628906249954,-0.03990102539062465,0.14248243944844025,0.1251354666727861,0.07311740166210257,0.0417446902106912,0.15082326944480345
287,1791295903.222462,0.09752519531250008,-0.07175478515624996,-0.020740869140624653,0.12284175416473583,0.12761701497255418,0.0720183792434414,0.04155176033880466,0.15231315848150062
288,1791295903.232519,0.05920488281250007,-0.07654482421874996,-0.015950830078124652,0.09807526315897604,0.12879589991878498,0.07143677478799372,0.04144162236169103,0.153000015333232
289,1791295903.252519,0.044834765625000064,-0.04301455078124995,-0.04469106445312465,0.07653560628566784,0.1309447085482296,0.07027431037741161,0.041164485902315855,0.15420606439243412
290,1791295903.2924895,0.049624804687500065,-0.02385439453124995,-0.011160791015624652,0.05618021568861679,0.13487817576959454,0.06809911012639827,0.040526266760650555,0.15643525624518398
291,1791295903.3124895,0.13105546875000007,-0.019064355468749954,-0.03032094726562465,0.1358614933739722,0.13682214599335107,0.06710959370218329,0.04019260207285978,0.1576053376713024
292,1791295903.323048,0.12147539062500007,-0.04780458984374995,-0.011160791015624652,0.1310195122633265,0.1378944634478616,0.06661260375582426,0.040010023800283595,0.1582811550160137
293,1791295903.343048,0.08794511718750007,-0.057384667968749956,-0.0015807128906246515,0.10502305655545065,0.1399350889353081,0.06565463657911946,0.03969694965985275,0.15958761929412232
294,1791295903.3536289,0.06878496093750007,-0.03822451171874995,-0.011160791015624652,0.07947985533079882,0.14097709900834754,0.06514798308338662,0.03954605425799372,0.16025820588044418
295,1791295903.3736289,0.07836503906250007,-0.08133486328124996,-0.020740869140624653,0.1148330221885469,0.1428720063715637,0.06415461131890143,0.03925576034494612,0.16145971348412363
296,1791295903.398027,0.09752519531250008,-0.09091494140624995,-0.015950830078124652,0.1342800032462926,0.1451587271498,0.06280937207113617,0.03888760830448288,0.16287516498031057
297,1791295903.418027,0.10231523437500006,-0.06696474609374996,-0.006370751953124652,0.1224470125607801,0.14705181791333796,0.06163522337436229,0.0385976067393012,0.1640515564023298
298,1791295903.442263,0.09273515625000008,-0.004694238281249951,0.0032093261718753488,0.09290933673334754,0.14935629970710493,0.060295561302743154,0.03829315007308405,0.16555731429789244
299,1791295903.4622629,0.10231523437500006,0.00967587890625005,0.01757944335937535,0.10426440738164244,0.1512653221015551,0.05936334620518975,0.03811077625277159,0.16690606882241654
300,1791295903.4730606,0.12147539062500007,-0.014274316406249953,0.02236948242187535,0.12433993879757493,0.15232261323313556,0.05893182469056131,0.038059435969595615,0.16770110056244178
301,1791295903.4930606,0.09752519531250008,-0.04780458984374995,0.0032093261718753488,0.10865883445605301,0.15431571525350943,0.058159318009787464,0.038016973892515515,0.16923692430882215
302,1791295903.5176566,0.049624804687500065,-0.019064355468749954,-0.006370751953124652,0.05354117453100582,0.15667061187067877,0.05722844060066032,0.03796675513426743,0.1710621218532659
303,1791295903.5376565,0.07357500000000007,0.00967587890625005,0.01278940429687535,0.07530253727383532,0.1584830436822666,0.056570963998422624,0.037941673438883716,0.17250136140288558
304,1791295903.5627806,0.07357500000000007,9.580078125004901e-05,0.03194956054687535,0.08021261884471889,0.16069558701957237,0.055887340326273814,0.03799919373011329,0.1743284406528332
305,1791295903.5827806,0.06399492187500007,-0.019064355468749954,0.03194956054687535,0.07402414534707356,0.16239903976053693,0.05539631955598041,0.03813396292120688,0.17577371664605812
306,1791295903.6074188,0.04004472656250007,0.00967587890625005,0.02236948242187535,0.046878529220704054,0.16437501615514152,0.05486481155934371,0.0383754570656067,0.17748794096625142
307,1791295903.6274188,0.030464648437500068,0.00967587890625005,0.036739599609375354,0.04869820958193539,0.16584417514737634,0.05452710636564115,0.03863074805839922,0.1788010918715965
308,1791295903.6379786,-0.0030656249999999347,0.00967587890625005,0.08463999023437535,0.08524639954933108,0.16652522128464536,0.0543908733375753,0.03884145135558467,0.17943710533145735
309,1791295903.6579785,-0.0030656249999999347,-0.009484277343749951,0.11338022460937536,0.11381750702702198,0.16761242551187322,0.05417184220487532,0.03947768796633382,0.18051870130546135
310,1791295903.6820543,0.049624804687500065,0.043206152343750054,0.10380014648437536,0.12289777561372561,0.1688089458683045,0.05400861607331924,0.04052085658826121,0.18181125002037082
311,1791295903.7020543,0.049624804687500065,0.06715634765625005,0.07984995117187535,0.11553618901863834,0.16980268809205007,0.054058905021690085,0.04153291713236565,0.18297623151916237
312,1791295903.7271967,-0.012645703124999935,0.02883603515625005,0.09422006835937535,0.09934209587432453,0.17093428650452377,0.054293652637576253,0.04294259958929523,0.1844190821987436
313,1791295903.7471967,-0.036595898437499934,0.06236630859375005,0.14691049804687537,0.16374220795640823,0.17162555123880488,0.054589179959298656,0.04425744790032458,0.185456275443303
314,1791295903.7572708,0.011304492187500065,0.10547666015625005,0.14212045898437536,0.1773452628159654,0.1719024079488539,0.05484252586673677,0.04503878225970837,0.18597481660024645
315,1791295903.7772708,-0.08449628906249994,0.06715634765625005,0.13733041992187536,0.174668950107852,0.17225981261654516,0.055528993202516606,0.04677645020180082,0.18693567990689725
316,1791295903.802874,-0.11323652343749994,0.09110654296875005,0.13254038085937536,0.19669739441659223,0.1722690234509927,0.05657987034234762,0.04918549663499071,0.1878752544853798
317,1791295903.822874,-0.13239667968749994,0.11026669921875006,0.22834116210937536,0.28605473612987564,0.17190668977458595,0.05757968756077259,0.05132636846421125,0.18841901843650471
318,1791295903.8474472,-0.12281660156249995,0.11026669921875006,0.25229135742187536,0.3014856407952668,0.17105793060700253,0.059030292884828015,0.05444800030112055,0.18897083330082845
319,1791295903.8674471,-0.10844648437499994,0.12463681640625006,0.23792124023437536,0.28965754354382994,0.17012385360444585,0.06038619557739897,0.05734290427094658,0.18941179174424636
320,1791295903.8776188,-0.14197675781249994,0.15816708984375005,0.22834116210937536,0.3119517821427699,0.16952901485930452,0.061188090081919395,0.0589500579760442,0.1896290552168057
321,1791295903.8976188,-0.03180585937499994,0.14379697265625005,0.17565073242187534,0.22922120721265266,0.16827418121848337,0.06298125007568652,0.06224209735416896,0.19014972155881005
322,1791295903.9237065,0.044834765625000064,0.07673642578125005,0.14691049804687537,0.1717012803875118,0.16690840051504763,0.06540087365657617,0.06652320064564411,0.19120937388547565
323,1791295903.9437065,-0.0030656249999999347,0.07673642578125005,0.17565073242187534,0.19170565171288814,0.16608104870036705,0.06720782062472556,0.06979680565724909,0.19227948400829137
324,1791295903.967382,-0.046175976562499936,0.16774716796875005,0.19960092773437535,0.2647864489082852,0.1651611250695009,0.06946010301590881,0.07375704936135703,0.19376017515397131
325,1791295903.987382,-0.017435742187499936,0.26833798828125005,0.16607065429687537,0.316051804739428,0.16440516291414886,0.07173146559570209,0.07714918124260879,0.19525997264093867
326,1791295903.9979298,-0.03180585937499994,0.2922881835937501,0.11338022460937536,0.31511754995808855,0.16402732171438472,0.07319318992792831,0.07889089466784718,0.1961784355685237
327,1791295904.0179298,-0.08928632812499994,0.23959775390625007,0.15170053710937537,0.29730823235530845,0.16323671796699904,0.0763468752246658,0.08209563024624007,0.1980271798383637
328,1791295904.042383,-0.06054609374999994,0.21085751953125006,0.22834116210937536,0.3166487159688403,0.1621402840313321,0.08045050476791882,0.0861231767305357,0.20044689319950326
329,1791295904.062383,-0.017435742187499936,0.2635479492187501,0.21876108398437535,0.3429547178696581,0.1612610640257894,0.08401497984520277,0.08959380361987829,0.20270840450311106
330,1791295904.087568,0.06399492187500007,0.29707822265625006,0.16128061523437537,0.3440381624947478,0.16040791981089544,0.08888923763684765,0.09402650634213296,0.2060897406486451
331,1791295904.107568,0.05920488281250007,0.32581845703125006,0.18523081054687535,0.3794381876760941,0.160016845785172,0.09311371269611149,0.09753835361706428,0.20925889432331662
332,1791295904.1179924,0.07357500000000007,0.18690732421875006,0.21876108398437535,0.29699165028268365,0.15994739681557912,0.09538617230194653,0.09941008197197755,0.21110200380899338
333,1791295904.1379924,0.12147539062500007,0.08631650390625005,0.19481088867187535,0.24527146535873237,0.1601267153280439,0.09950191563125499,0.10308283816977992,0.21486569689267487
334,1791295904.1625648,0.15021562500000007,0.20127744140625006,0.19481088867187535,0.3178500035524821,0.1608146894225099,0.1043301117079115,0.10763644084366357,0.2198448087641259
335,1791295904.1825647,0.15979570312500008,0.4599395507812501,0.20918100585937535,0.529939383630252,0.16175566931104177,0.10866224273631758,0.11139276175281623,0.22445651454495408
336,1791295904.2083614,0.22685625000000006,0.43598935546875006,0.22834116210937536,0.5419318799993028,0.16353539528061561,0.11514520994527203,0.11635753257274366,0.2313899744356809
337,1791295904.2283614,0.25080644531250007,0.23959775390625007,0.21876108398437535,0.4100821485424975,0.1654247273798375,0.12043086257700046,0.12029996739132394,0.23736262394085453
338,1791295904.2379336,0.33223710937500006,0.22043759765625007,0.07984995117187535,0.40663281472166685,0.16661192745271425,0.12291144968280966,0.12211821450916156,0.24037391112087012
339,1791295904.2579336,0.2795466796875001,0.2635479492187501,0.03194956054687535,0.38551866631961296,0.1696380245261157,0.12804285585106828,0.12551505147996614,0.24683204906907658
340,1791295904.2824447,0.3082869140625001,0.2539678710937501,-0.015950830078124652,0.39974358019892225,0.17387101207480926,0.13433972422181134,0.1290830246287747,0.2548346867897376
341,1791295904.3024447,0.4184578125000001,0.23959775390625007,-0.020740869140624653,0.48264294066308866,0.17789697037783286,0.13944734495145988,0.131502600205735,0.26150684110457295
342,1791295904.3271058,0.5382087890625001,0.2922881835937501,-0.006370751953124652,0.6124880973317807,0.18388599331278202,0.14578438845298305,0.1339884031290372,0.27022220231932864
343,1791295904.3471057,0.6100593750000001,0.30665830078125006,-0.08780141601562466,0.6884190897395155,0.18973689754394754,0.1510512172234907,0.13556072108222372,0.27783676793151957
344,1791295904.3726776,0.5813191406250001,0.21564755859375007,-0.15486196289062465,0.6390759268934879,0.19838060990237083,0.1577769487443636,0.1368041208915965,0.28803437196494575
345,1791295904.3926775,0.45198808593750006,0.06715634765625005,-0.15486196289062465,0.48247842688591713,0.20567685372985717,0.16267237732148943,0.13716613965412286,0.2959388794519105
346,1791295904.417219,0.5046785156250001,0.04799619140625005,-0.18839223632812466,0.5408286912060701,0.21504774955154443,0.16799030627998032,0.13691193385502193,0.3053050199769851
347,1791295904.437219,0.5717390625000001,0.13900693359375005,-0.28419301757812465,0.6534325936282,0.22315365929801112,0.17195457719423032,0.1360269665194973,0.3128406429743996
348,1791295904.4473636,0.5813191406250001,0.11505673828125006,-0.25545278320312464,0.6453108713845842,0.22752583535104903,0.173857080194542,0.13523482103043896,0.31667451255997686
349,1791295904.4673636,0.6387996093750001,-0.19629580078124997,-0.22671254882812467,0.705688006230905,0.2366826793294182,0.1769233383252668,0.13318413708239657,0.3241274019719586
350,1791295904.5080273,0.6771199218750001,-0.45016787109374995,-0.42310415039062466,0.9166022162546072,0.2565208897058247,0.18025090411905303,0.12765832788169423,0.3385114532312815
351,1791295904.5280273,0.5765291015625001,-0.35915712890624996,-0.5093248535156247,0.8489943784274173,0.2666949770242648,0.18042804888066744,0.12394955105585542,0.34502751020723804
352,1791295904.5225432,0.4759382812500001,-0.13881533203124996,-0.3799937988281247,0.624645684459582,0.2666949770242648,0.18042804888066744,0.12394955105585542,0.34502751020723804
353,1791295904.5425432,0.772920703125,-0.36394716796875,-0.33209340820312466,0.9165969594994766,0.27726093643524746,0.17916697865794806,0.1190679498069041,0.350929636516478
354,1791295904.5671198,0.8495613281250001,-0.70882998046875,-0.40394399414062465,1.1778646534551938,0.2912878180802093,0.1758723829277338,0.11261237152591236,0.35841489123542103
355,1791295904.5871198,0.9022517578125001,-0.75194033203125,-0.5141148925781247,1.2821024218765167,0.30361810349457324,0.17140231675288697,0.10676988081374586,0.3646402534099601
356,1791295904.6130276,0.8783015625000001,-0.93875185546875,-0.6099156738281247,1.4229075198399852,0.3206545023920756,0.16319526054832278,0.0981527443097632,0.37294230677851814
357,1791295904.6330276,0.7393904296875001,-0.97228212890625,-0.5715953613281247,1.3486111384664465,0.3342598725964696,0.15494345901089837,0.09072614230223348,0.3794316418217057
358,1791295904.642337,0.6723298828125001,-0.89085146484375,-0.46142446289062466,1.2077070583095997,0.34062859494017284,0.15037772167069402,0.08706649731722241,0.3823896884342921
359,1791295904.662337,0.8304011718750001,-1.03934267578125,-0.47100454101562467,1.4112563840808094,0.3545125110270825,0.13914501354354988,0.07898503617497901,0.3889461289283192
360,1791295904.6875334,0.8783015625000001,-1.4560760742187502,-0.5141148925781247,1.7764811542408339,0.3726090000451875,0.1224008798433733,0.06846944570587127,0.3981300130565086
361,1791295904.7075334,0.7250203125000001,-1.3746454101562502,-0.5428551269531247,1.6462065927642666,0.3872237038455664,0.10685751417234512,0.059789110433320206,0.4061224727608405
362,1791295904.7327409,0.6914900390625001,-1.16867373046875,-0.4470543457031247,1.4296203518495572,0.4055587405421573,0.08539727878977954,0.04861820124811215,0.41729404111183055
363,1791295904.7527409,0.7872908203125001,-1.05850283203125,-0.3560436035156247,1.3663901817456452,0.4201420821874386,0.06758370662292656,0.039879879864735325,0.4274076876282362
364,1791295904.762799,0.8974617187500001,-1.13514345703125,-0.40394399414062465,1.5023844231969534,0.4276469721603315,0.05831409196418423,0.03557118259845198,0.4330678643711157
365,1791295904.782799,0.9357820312500001,-1.3794354492187502,-0.5572252441406247,1.7575636948000746,0.4430813569403265,0.03887502496016801,0.026847009653587592,0.4455929963106181
366,1791295904.8081052,0.6483796875000001,-1.63330751953125,-0.6434459472656247,1.8713931600741944,0.4626879646950523,0.012249919206097783,0.0151851915898182,0.4630991289538616
367,1791295904.8281052,0.4136677734375001,-1.4991864257812502,-0.5572252441406247,1.652023286377973,0.47745218163590286,-0.010334786763061526,0.005550117258513083,0.4775962702617184
368,1791295904.8527544,0.5477888671875001,-1.43691591796875,-0.49016469726562467,1.6140202690090486,0.49469645272913354,-0.0394222200744644,-0.006479781120401347,0.49630704139852344
369,1791295904.8727543,0.6771199218750001,-1.5758270507812502,-0.6099156738281247,1.820362439668308,0.5084268169479741,-0.06400230719871598,-0.016426662209467462,0.5127026026362178
370,1791295904.8823054,0.5669490234375001,-1.7195282226562503,-0.6147057128906247,1.9120856720211228,0.5148914077455636,-0.0763404119623734,-0.02134153092311708,0.5209572738823555
371,1791295904.9023054,0.4567781250000001,-1.8584393554687502,-0.35125356445312467,1.9457189313913366,0.5279333715444455,-0.1036680451252048,-0.03153848082317384,0.538939128420827
372,1791295904.9875224,0.5765291015625001,-1.7195282226562503,-0.18360219726562466,1.8228748943086006,0.5817719403720476,-0.22550901679122598,-0.07188744873784786,0.6280769957134551
373,1791295905.0075223,0.7202302734375001,-1.43212587890625,-0.23629262695312467,1.6203550183096493,0.5944573618816437,-0.2545426127067723,-0.08056652712214432,0.6516613093251713
374,1791295904.988524,0.6627498046875001,-1.4608661132812502,-0.38478383789062465,1.649674424378527,0.5944573618816437,-0.2545426127067723,-0.08056652712214432,0.6516613093251713
375,1791295905.008524,0.5908992187500001,-1.82969912109375,-0.4566344238281247,1.9762276583115228,0.6072663485821196,-0.28414379017247526,-0.08889115918120549,0.6763222233480269
376,1791295905.0175807,0.4950984375000001,-2.01172060546875,-0.4278941894531247,2.115475288120909,0.6129343904670618,-0.2981470415745523,-0.09269625732519218,0.6878755857994849
377,1791295905.0375807,0.4855183593750001,-1.9638202148437502,-0.4374742675781247,2.0697105228297414,0.625044452841901,-0.33039500331738614,-0.10113662834189575,0.7141918816661904
378,1791295905.04715,0.5908992187500001,-2.32786318359375,-0.6194957519531247,2.4802991502918674,0.6307420260487052,-0.3465900158885698,-0.10532781738210949,0.7273610462845419
379,1791295905.0671499,0.5094685546875001,-2.5817352539062504,-0.6626061035156247,2.7136620972210044,0.64251452730385,-0.38272544999538116,-0.11469677188051529,0.7566102281561278
380,1791295905.0923707,0.3849275390625001,-2.32307314453125,-0.5045348144531246,2.4081929790127434,0.6568251392186543,-0.4307363550633415,-0.12694696542821338,0.7956560834395031
381,1791295905.1123707,0.3945076171875001,-2.2847528320312502,-0.36562368164062464,2.3472137610516475,0.6676402769268843,-0.47000956332288935,-0.13650937480392342,0.8278208371376852
382,1791295905.1376567,0.6483796875000001,-2.32786318359375,-0.4566344238281247,2.4592393575491327,0.6812405915326698,-0.5209622667116863,-0.1483450279590836,0.8703428486575513
383,1791295905.1576567,0.6579597656250001,-2.15063173828125,-0.38478383789062465,2.281706933150218,0.6923437158832136,-0.5619359754667655,-0.15756437300661422,0.9055044964481009
384,1791295905.1674902,0.5477888671875001,-1.8823895507812503,-0.3895738769531247,1.9988073617808422,0.6978732761395385,-0.5820344332739055,-0.16198849185537875,0.9230555035098318
385,1791295905.1874902,0.5094685546875001,-1.9734002929687502,-0.5476451660156246,2.1103985766591107,0.7090184961439243,-0.6225637143389875,-0.17104260102082747,0.9589308513389891
386,1791295905.2130804,0.4663582031250001,-2.38055361328125,-0.6147057128906247,2.502476491955272,0.7230127250281966,-0.6749990868599464,-0.18312056070488308,1.0059345443751948
387,1791295905.2330804,0.4088777343750001,-2.48593447265625,-0.8110973144531247,2.646682840372343,0.7336221770652496,-0.7171325035331522,-0.19328285303557044,1.0439534412909672
388,1791295905.258017,0.3897175781250001,-2.66316591796875,-1.0410191894531247,2.8858366984532564,0.7463597511329385,-0.7714160175981575,-0.20751687163801463,1.0932514817427192
389,1791295905.278017,0.37055742187500007,-2.9314081054687504,-1.1368199707031248,3.1658846993382417,0.7561836996945248,-0.8168143609136794,-0.22048732976217436,1.1347308713806
390,1791295905.2880788,0.3657673828125001,-2.9936786132812503,-1.0553893066406248,3.195269003780188,0.7609403129586635,-0.8406990515505952,-0.2276881221975207,1.1565668749162463
391,1791295905.3080788,0.3945076171875001,-2.80686708984375,-0.9595885253906247,2.9924821232763006,0.7701173404374811,-0.8897546432148875,-0.2428768062208539,1.201554487389146
392,1791295905.3324106,0.49030839843750007,-2.56736513671875,-0.8015172363281247,2.7338975750653693,0.7812220185361508,-0.9502905284214592,-0.2617972839103857,1.2577351662874379
393,1791295905.3524106,0.6483796875000001,-2.66316591796875,-0.6338658691406247,2.813296085707001,0.7906885907336397,-1.0004311220527584,-0.27716958842691675,1.3049420899935893
394,1791295905.3776283,0.6675398437500001,-2.60568544921875,-0.5620152832031247,2.74792053775541,0.8033232910974422,-1.0641347715217493,-0.2959067621503913,1.3657495868085041
395,1791295905.3976283,0.8160310546875001,-2.6440057617187502,-0.6482359863281247,2.8419857572104648,0.8140660395377904,-1.1149536588136102,-0.3103533743517284,1.4149715173819237
396,1791295905.4075508,0.7585505859375001,-2.4380340820312503,-0.7057164550781246,2.6490460342432938,0.8197681145352679,-1.1401663234105892,-0.3174532044670996,1.4397137019820152
397,1791295905.4275508,0.5238386718750001,-2.38055361328125,-0.6578160644531247,2.524710762545044,0.831460922012874,-1.1905904387502348,-0.33166246632778873,1.489574720935008
398,1791295905.4528308,0.3945076171875001,-2.5050946289062503,-0.6147057128906247,2.6094057701427493,0.8457648702209631,-1.2540293459410374,-0.34934161226629545,1.5524005212064325
399,1791295905.4728308,0.4184578125000001,-2.4092938476562504,-0.49016469726562467,2.494005857178777,0.856603261007014,-1.3040615405268456,-0.36288757171415775,1.6018842149024686
400,1791295905.497512,0.3753474609375001,-2.37097353515625,-0.38478383789062465,2.431143727290798,0.8694416851861693,-1.3653919386274096,-0.3787163246549862,1.662422943949061
401,1791295905.517512,0.3370271484375001,-2.41408388671875,-0.4374742675781247,2.476443426709368,0.8793530841825109,-1.4148126136039816,-0.3908522246564641,1.7110587482004032
402,1791295905.5273836,0.37055742187500007,-2.4284540039062503,-0.4949547363281247,2.5059293371938063,0.8840351650404875,-1.4391317127878438,-0.3966340352518181,1.7349169483580402
403,1791295905.5473835,0.2987068359375001,-2.42366396484375,-0.4997447753906247,2.4926126110665785,0.8931022157114447,-1.4882905503928685,-0.4080831166937426,1.783023320158174
404,1791295905.572265,0.2555964843750001,-2.44761416015625,-0.6626061035156247,2.548566555583433,0.9037246360894423,-1.5493643052393815,-0.4223591156857805,1.8427249362907587
405,1791295905.592265,0.2891267578125001,-2.5913153320312503,-0.6338658691406247,2.683336611788539,0.911799400342659,-1.5986508261252652,-0.4340577790891999,1.8908909978959851
406,1791295905.6174483,0.36097734375000007,-2.51946474609375,-0.6338658691406247,2.6229359865561817,0.9216696871113786,-1.6610550773602424,-0.44897326403710675,1.951962083131832
407,1791295905.6374483,0.3753474609375001,-2.6152655273437504,-0.7488268066406247,2.7461320218242253,0.9294370723770459,-1.7108829151503933,-0.4611159418066209,2.0009001805813624
408,1791295905.6474874,0.2747566406250001,-2.54341494140625,-0.8302574707031247,2.6895684121052663,0.933240602866308,-1.7360266838122809,-0.4674857011263946,2.025652870188812
409,1791295905.6674874,0.11189531250000007,-2.50030458984375,-0.6913463378906247,2.5965368015624146,0.9402613980363381,-1.7861701800224787,-0.4805545198846373,2.074952542883894
410,1791295905.707584,0.2603865234375001,-2.4955145507812504,-0.5380650878906247,2.566107568586235,0.9533451021447004,-1.8866435243153357,-0.5065222774928071,2.1736732710370203
411,1791295905.727584,0.4232478515625001,-2.4380340820312503,-0.5428551269531247,2.533345735950292,0.9599177361277501,-1.936642179548631,-0.5191533758946213,2.2229586634578427
412,1791295905.7378173,0.3561873046875001,-2.4380340820312503,-0.5859654785156246,2.53263402867026,0.9633745266798637,-1.962130002727102,-0.5255132689935188,2.2481567610257436
413,1791295905.7578173,0.2651765625000001,-2.5386249023437504,-0.6003355957031247,2.6220865415861767,0.9700490785210067,-2.0119359934707517,-0.5378579324025409,2.2974274334592013
414,1791295905.7828808,0.22206621093750006,-2.4619842773437504,-0.5524352050781247,2.532955712154809,0.9780747149834229,-2.074389317415227,-0.5531744092868314,2.35917848315598
415,1791295905.8028808,0.2843367187500001,-2.37097353515625,-0.5428551269531247,2.448888434147243,0.9842779163024422,-2.1239993461563493,-0.5652061439003733,2.4082429744724694
416,1791295905.8129206,0.34181718750000006,-2.44761416015625,-0.5476451660156246,2.531317699248373,0.9873962585786482,-2.1487958839010703,-0.5711611218252322,2.4327967751561066
417,1791295905.8329206,0.37055742187500007,-2.50988466796875,-0.4949547363281247,2.5849205094982888,0.9937449778957486,-2.198219064269395,-0.5828083349931387,2.4818061348437173
418,1791295905.8583267,0.29391679687500005,-2.39971376953125,-0.5332750488281247,2.4757616074383617,1.0018662073240578,-2.2609393373184044,-0.5973437940028847,2.5440916242630567
419,1791295905.8783267,0.25080644531250007,-2.44282412109375,-0.6673961425781247,2.544741867210878,1.0081174449356602,-2.3101711170812114,-0.6088709023120465,2.593051320098031
420,1791295905.9025466,0.3178669921875001,-2.4811444335937503,-0.6626061035156247,2.587694721850269,1.015585154654846,-2.3697922616223837,-0.623152285617628,2.6524794703580863
421,1791295905.9225466,0.3274470703125001,-2.5386249023437504,-0.6386559082031247,2.6381280006358323,1.0217947019411922,-2.4191699232440826,-0.6351282637736789,2.7018207642047685
422,1791295905.9331102,0.2747566406250001,-2.58652529296875,-0.7200865722656247,2.6989125540283574,1.025059611120743,-2.4453987262048473,-0.6415814184483558,2.7280668710597076
423,1791295905.9531102,0.3753474609375001,-2.62005556640625,-0.7344566894531247,2.7468169790088033,1.0312889732566954,-2.4954185108346887,-0.6541482704883953,2.778233332598294
424,1791295905.9923654,0.4567781250000001,-2.54341494140625,-0.6290758300781247,2.659575571333809,1.0441315898868262,-2.5940707328606867,-0.6791285416748252,2.8776082638540896
425,1791295906.0123653,0.4471980468750001,-2.4188739257812504,-0.5955455566406247,2.5309309891792,1.051049226104976,-2.644236872076935,-0.6917835249064327,2.928354069554952
426,1791295906.0229332,0.2747566406250001,-2.47635439453125,-0.5380650878906247,2.548987316109775,1.0547284038947375,-2.6706482301724352,-0.6983658291983145,2.9550852452505243
427,1791295906.0429332,0.37055742187500007,-2.51946474609375,-0.5715953613281247,2.6099303950120434,1.0616148575816842,-2.7206283974766556,-0.7106188958629778,3.0056320796385063
428,1791295906.053156,0.3897175781250001,-2.50030458984375,-0.6626061035156247,2.615807653691207,1.0651896772614302,-2.7461916423007064,-0.7168886755292484,3.0315222179440875
429,1791295906.0731559,0.35139726562500007,-2.50988466796875,-0.6913463378906247,2.6269679944202036,1.0722461609562561,-2.7962177896971996,-0.7293460482866998,3.0822867185347875
430,1791295906.0976768,0.2747566406250001,-2.49072451171875,-0.6194957519531247,2.5812738699200652,1.0807515298269925,-2.8575483939693336,-0.7447390760908748,3.144557677091771
431,1791295906.1176767,0.2987068359375001,-2.50988466796875,-0.5955455566406247,2.5968098371607398,1.0875083791601083,-2.907568962703089,-0.7572334102035458,3.1953144110003096
432,1791295906.142776,0.33223710937500006,-2.50030458984375,-0.5668053222656246,2.585183322742938,1.095903765369024,-2.9703583291208875,-0.7727494327170129,3.2590144755880264
433,1791295906.162776,0.35139726562500007,-2.4811444335937503,-0.5763854003906247,2.5713377585267634,1.1026154923598401,-3.02035834165181,-0.7849733695193173,3.309759602574198
434,1791295906.1724927,0.33223710937500006,-2.4284540039062503,-0.6099156738281247,2.52582015890193,1.1058853849170913,-3.0445843587981933,-0.7908859180253727,3.3343630482811353
435,1791295906.1924927,0.31307695312500006,-2.44282412109375,-0.7200865722656247,2.5659172895346303,1.112574210835447,-3.094276010108927,-0.8032252462587589,3.384898255129566
436,1791295906.2173972,0.30349687500000005,-2.5577850585937503,-0.6865562988281246,2.665658325922655,1.1208056031062021,-3.156212053074603,-0.818913086414113,3.447970180704576
437,1791295906.2373972,0.2699666015625001,-2.59610537109375,-0.6147057128906247,2.6815122929498934,1.1272846051078576,-3.206220870042127,-0.831573610169101,3.498876607932401
438,1791295906.262492,0.2843367187500001,-2.4524041992187504,-0.5620152832031247,2.5319942544423686,1.1352378984206897,-3.269058493453872,-0.8472911242852259,3.5627813248817337
439,1791295906.282492,0.3657673828125001,-2.44282412109375,-0.5668053222656246,2.5342540792658492,1.1416008686486498,-3.3189695427541865,-0.8596318998308207,3.61355481101865
440,1791295906.2926972,0.4663582031250001,-2.56257509765625,-0.6530260253906247,2.6852791464924826,1.1449975486120558,-3.344448288037827,-0.8659180475765824,3.639528513805821
441,1791295906.3126972,0.5238386718750001,-2.61047548828125,-0.6913463378906247,2.7508087879719616,1.152141047608029,-3.3946504675537694,-0.8784060980150827,3.690891228887196
442,1791295906.3377676,0.37055742187500007,-2.5913153320312503,-0.6769762207031247,2.7037982092464596,1.161434121679588,-3.4579214352715013,-0.8942848763544338,3.755781584648929
443,1791295906.3577676,0.2699666015625001,-2.62963564453125,-0.6147057128906247,2.71398760174192,1.1686964387550618,-3.5086562059388435,-0.9069896234472912,3.8077749295977283
444,1791295906.3823495,0.34181718750000006,-2.6248456054687503,-0.5524352050781247,2.7040410681106026,1.1774115258045763,-3.571347839857039,-0.9224144724243402,3.871908024900239
445,1791295906.4023495,0.3753474609375001,-2.68232607421875,-0.5380650878906247,2.761389672551258,1.1845143194255157,-3.6226639187963987,-0.9347175043296525,3.924342601554256
446,1791295906.4280105,0.3561873046875001,-2.80686708984375,-0.5093248535156247,2.8748537462760053,1.193668470814464,-3.6891932453232332,-0.950150886934633,3.9922146645061285
447,1791295906.4480104,0.3466072265625001,-2.81644716796875,-0.5284850097656246,2.886487073418399,1.2007871359337854,-3.7417027903091027,-0.9619319616982793,4.045681971654185
448,1791295906.4575605,0.33223710937500006,-2.83560732421875,-0.5859654785156246,2.9145164154660237,1.2041626825887566,-3.7670636574633782,-0.9675118904158481,4.071468484910175
449,1791295906.4775605,0.22206621093750006,-2.85955751953125,-0.6147057128906247,2.933299460165672,1.2110028980278877,-3.8207509054393047,-0.9792456450195774,4.125965042718736
450,1791295906.5026379,0.10231523437500006,-2.9170379882812503,-0.6626061035156247,2.9930963700952384,1.2189032150561692,-3.8888347601110906,-0.9941537099558051,4.194890038861739
451,1791295906.5226378,0.05920488281250007,-3.0511590820312504,-0.6530260253906247,3.1208203972430235,1.224501136604013,-3.94394123609009,-1.0062333649811221,4.250480101362383
452,1791295906.547696,0.2029060546875001,-3.04636904296875,-0.7200865722656247,3.136886973504854,1.2309554004163854,-4.014087904155353,-1.0216785123360037,4.321108640461344
453,1791295906.567696,0.2699666015625001,-2.7972870117187503,-0.8015172363281247,2.9223494780776473,1.2360433981692305,-4.070442149717973,-1.0344391835204108,4.377940954462587
454,1791295906.5778706,0.12147539062500007,-2.59610537109375,-0.7057164550781246,2.693056828831755,1.2385422408261193,-4.0989263308165,-1.0411072699833999,4.4067094634640585
455,1791295906.5978706,0.15021562500000007,-2.59610537109375,-0.5763854003906247,2.6635592656442655,1.2431249434014013,-4.15430715065133,-1.0541717269871207,4.4626119657481444
456,1791295906.622985,0.17416582031250008,-2.60568544921875,-0.5476451660156246,2.668303884698241,1.2486273266783996,-4.223216298563058,-1.0702333814178442,4.532110501309272
457,1791295906.6429849,-0.007855664062499936,-2.59610537109375,-0.5572252441406247,2.655244768752451,1.252601380233854,-4.27766389665383,-1.0827628932431572,4.586915533720202
458,1791295906.6676133,-0.022225781249999937,-2.63921572265625,-0.5428551269531247,2.694558461961332,1.2567054896693655,-4.344324953883538,-1.0979096254339598,4.653802051905609
459,1791295906.6876132,-0.007855664062499936,-2.55299501953125,-0.40394399414062465,2.584766146406965,1.259493267432048,-4.398126680218607,-1.1097849961905006,4.707596448690876
460,1791295906.6981723,-0.06533613281249993,-2.50988466796875,-0.28419301757812465,2.526767802548476,1.2606863516595432,-4.426280271165633,-1.1156591615032079,4.735607931492725
461,1791295906.7181723,-0.12760664062499993,-2.5146747070312503,-0.23629262695312467,2.5289734167180784,1.262317787756913,-4.479144015762962,-1.1258972184502565,4.787882815790993
462,1791295906.7582865,-0.11802656249999995,-2.46677431640625,-0.17402211914062465,2.4757199953725144,1.2643601446773467,-4.584255961485872,-1.1445860642916261,4.891225465508401
463,1791295906.7782865,-0.05575605468749994,-2.3422333007812504,-0.14528188476562465,2.347396941074091,1.2649650015452025,-4.636014862951648,-1.1529851667873137,4.941876673843087
464,1791295906.7878394,-0.09886640624999994,-2.20811220703125,-0.21713247070312466,2.220963888711127,1.2650997914261053,-4.6602892224304195,-1.1566548704303201,4.96554363672878
465,1791295906.8078394,-0.33357832031249995,-2.2224823242187504,-0.2794029785156247,2.2646783881272614,1.2646909905922201,-4.7101325991878396,-1.1639301023095332,5.01393315538604
466,1791295906.818182,-0.5060197265624999,-2.1554217773437503,-0.2602428222656247,2.2292656477994846,1.263860025878725,-4.735437713025567,-1.167546609758345,5.0383407571260195
467,1791295906.838182,-0.5491300781249999,-2.01172060546875,-0.29377309570312465,2.1059122177641023,1.2609114575897464,-4.783282082752123,-1.1743220356153254,5.084163395327722
468,1791295906.8628733,-0.34315839843749996,-1.8871795898437502,-0.3177232910156247,1.94426144856982,1.2561648948008266,-4.840709336602216,-1.182564452987439,5.138956684957299
469,1791295906.8828733,-0.23298749999999996,-1.6668377929687501,-0.31293325195312466,1.7118874447238468,1.252032669465914,-4.885579007728024,-1.189185339230926,5.1817593360946885
470,1791295906.9081137,-0.35752851562499993,-1.39859560546875,-0.16923208007812465,1.4534565022900012,1.246482087657913,-4.939514515523075,-1.1972004434334858,5.233145339628217
471,1791295906.9281137,-0.5874503906249999,-1.13514345703125,-0.035110986328124656,1.2786248123852657,1.241326180643974,-4.9796418817363195,-1.2029053082637575,5.2711199130491915
472,1791295906.9376688,-0.769471875,-0.9004315429687499,0.01278940429687535,1.1844946174851823,1.23825999230201,-4.9973960514378275,-1.2052380057271872,5.287707797705108
473,1791295906.9576688,-0.5874503906249999,-0.71362001953125,0.01278940429687535,0.9243998391299707,1.2307693937883513,-5.031404504211601,-1.2093498623807069,5.319055524745645
474,1791295907.0280058,-0.18987714843749995,-0.59386904296875,-0.13570180664062464,0.6380820887792611,1.2042769197129854,-5.139964286745839,-1.22228994694472,5.418810615142236
475,1791295907.0480058,-0.15634687499999994,-0.42621767578124997,-0.24108266601562467,0.5140298671515475,1.1973545350798631,-5.167732569458635,-1.2259826527104127,5.444460602930902
476,1791295907.0280058,-0.53955,-0.25856630859374996,-0.20755239257812466,0.6332840864135956,1.1973545350798631,-5.167732569458635,-1.2259826527104127,5.444460602930902
477,1791295907.0480058,-0.798212109375,-0.019064355468749954,-0.17402211914062465,0.8171840179252894,1.1894592032625941,-5.189084698064995,-1.2297950030020532,5.463863921194157
478,1791295907.0575554,-0.7551017578125,0.18690732421875006,-0.12133168945312466,0.787295618788578,1.185142294136271,-5.19763044194992,-1.2315538189194315,5.471439415485667
479,1791295907.0775554,-0.28567792968749994,0.26833798828125005,-0.22192250976562466,0.45040732210526757,1.1758962755639557,-5.21216048796943,-1.2351996985597669,5.48407396909971
480,1791295907.1032503,-0.13718671874999994,0.4024590820312501,-0.2698229003906247,0.5035850534775999,1.1649844188216663,-5.226735061703974,-1.2401287651884247,5.496714241762134
481,1791295907.1232502,-0.4197990234375,0.61801083984375,-0.2698229003906247,0.7943380991861494,1.1569295406740796,-5.234847051081048,-1.2441993559577882,5.503648030866623
482,1791295907.148282,-0.6018205078125,0.80003232421875,-0.16444204101562465,1.014534784160669,1.146442363007668,-5.2408147996136405,-1.2493451477063335,5.508296756134815
483,1791295907.168282,-0.45332929687499995,0.8048223632812501,-0.20755239257812466,0.9467441489165392,1.1377374266882885,-5.242460428893158,-1.253397827927702,5.50897848204654
484,1791295907.2082968,-0.319208203125,0.8335625976562501,-0.19318227539062466,0.9132578347207462,1.1206150994515873,-5.240342065922937,-1.261492577464171,5.50529987303122
485,1791295907.2282968,-0.40063886718749997,0.9533135742187501,-0.21713247070312466,1.0566289710795624,1.1122610290119714,-5.236761782542697,-1.2655470466706835,5.501127874454058
486,1791295907.2391949,-0.49164960937499996,1.09222470703125,-0.26503286132812465,1.2267504092650074,1.1076623525120124,-5.233431563688383,-1.2678190581359792,5.497552817677614
487,1791295907.2591949,-0.31441816406249995,1.09701474609375,-0.23629262695312467,1.165390209583029,1.0992797693896703,-5.224952894076851,-1.2721151598650127,5.4887909175582426
488,1791295907.2684872,-0.07970624999999994,0.9916338867187501,-0.10217153320312465,1.0000649347792745,1.0956945945428862,-5.220148811987611,-1.2740476864159038,5.483949103617564
489,1791295907.2884872,0.020884570312500066,0.9916338867187501,0.05589975585937535,0.9934277594627655,1.0890474376529078,-5.208385049903035,-1.2776525689076028,5.4722660056276515
490,1791295907.3276677,-0.06533613281249993,1.08743466796875,0.07984995117187535,1.0923181688745038,1.077848145050772,-5.182686920614579,-1.2832564181719297,5.446902548759089
491,1791295907.3476677,-0.18508710937499995,1.29340634765625,0.08943002929687535,1.3096392435912698,1.0726132640045773,-5.167965534511641,-1.2854339453322339,5.432375852960759
492,1791295907.3431892,-0.19466718749999995,1.32214658203125,0.08943002929687535,1.3393896477150018,1.0726132640045773,-5.167965534511641,-1.2854339453322339,5.432375852960759
493,1791295907.3631892,0.2029060546875001,1.1161749023437502,-0.025530908203124654,1.1347550867586378,1.068359234470938,-5.150337027508742,-1.2866833137580966,5.415063887038678
494,1791295907.387768,0.4376179687500001,1.0347442382812502,-0.04948110351562465,1.1245681414810953,1.0650962223334637,-5.1279572544404415,-1.2881266824754027,5.393481799014664
495,1791295907.407768,0.23164628906250007,1.1592852539062501,-0.03032094726562465,1.1825910802149622,1.0638432487757852,-5.109187197742231,-1.2892446943488345,5.3756588583582525
496,1791295907.4328537,0.16937578125000008,1.31256650390625,-0.06385122070312466,1.3249890417795924,1.063261893691541,-5.084525030457734,-1.2906138326116594,5.352439136025398
497,1791295907.4528537,0.3657673828125001,1.20718564453125,-0.16923208007812465,1.272683171735764,1.0636706369287154,-5.064032431889554,-1.2918912902076103,5.33336692913659
498,1791295907.4631724,0.6531697265625,0.83835263671875,-0.3368834472656247,1.1148794967316344,1.0646384525387673,-5.053462397143584,-1.292843202311419,5.323756265995953
499,1791295907.4831724,0.7681306640625001,0.7617120117187501,-0.3991539550781247,1.153062784814527,1.0683648616558687,-5.033648341172976,-1.295515517157059,5.306352754520674
500,1791295907.508254,0.8064509765625001,0.8096124023437501,-0.41352407226562465,1.2152520635533082,1.075299084877662,-5.009571288494788,-1.2998928729007135,5.2859998200404945
501,1791295907.528254,1.1465437500000002,0.66112119140625,-0.5189049316406247,1.4215857794981785,1.0829284944380386,-4.991046098051998,-1.3042584260453973,5.27108767891944
502,1791295907.552934,1.3189851562500001,0.23480771484375007,-0.6099156738281247,1.472023652846379,1.0954946324473334,-4.9699567289819555,-1.3109268788147952,5.255388440379363
503,1791295907.572934,1.4483162109375,0.10068662109375005,-0.6147057128906247,1.576585156593834,1.108301375304377,-4.954926729596985,-1.3173571661894727,5.245480029271583
504,1791295907.582488,1.7836189453125002,0.13900693359375005,-0.5763854003906247,1.8795849540385967,1.1158174535121594,-4.948652018244245,-1.3208216846200245,5.242020155416963
505,1791295907.602488,2.190772265625,0.08152646484375005,-0.5620152832031247,2.263181579735816,1.1351526197517638,-4.937156434915648,-1.328693806366269,5.237319196309728
506,1791295907.6427338,2.43027421875,-0.28730654296874997,-0.48058461914062467,2.4939405374042334,1.1821727137533826,-4.918114983211864,-1.3453056705304105,5.234045725860383
507,1791295907.6627338,2.5117048828125004,-0.51722841796875,-0.39436391601562465,2.594553825410795,1.2094471615929698,-4.9112785948968565,-1.3536350136509374,5.2360049296729185
508,1791295907.672797,2.755996875,-0.77589052734375,-0.6530260253906247,2.936659305276832,1.2250877729689231,-4.909330738666836,-1.3579878551977562,5.238940672307868
509,1791295907.692797,2.938018359375,-1.02497255859375,-0.8781578613281247,3.2332154050275044,1.2600508895752625,-4.908741465244919,-1.367638000143774,5.249181337729866
510,1791295907.703185,2.8038972656250003,-1.06808291015625,-0.8206773925781247,3.1106514368916405,1.2799605575921558,-4.9101120241207665,-1.373222082303038,5.256732635937617
511,1791295907.723185,2.8278474609375004,-1.10640322265625,-0.7344566894531247,3.124144039911932,1.3209899538138845,-4.915616643339661,-1.3846930238080033,5.2750048542667365
512,1791295907.747751,3.1152498046875,-1.2596844726562502,-0.8637877441406246,3.469541119973117,1.3747766584746668,-4.925723145627653,-1.3996139751211203,5.30204476097789
513,1791295907.767751,3.46492265625,-1.47523623046875,-0.9260582519531247,3.8780916486711194,1.4218680883105133,-4.936819369090171,-1.4126242565016742,5.328170570996819
514,1791295907.7928278,3.5128230468750004,-1.5806170898437502,-0.9595885253906247,3.969771565395626,1.4851801188199694,-4.954392708917768,-1.430036654215363,5.366262380084961
515,1791295907.8128278,3.4361824218750003,-1.7291083007812502,-1.0937096191406248,3.9991706494264654,1.5385237924258621,-4.971270522988455,-1.4449207241406334,5.400776052721077
516,1791295907.837906,3.4553425781250002,-1.9781903320312502,-1.3475816894531247,4.203404064766409,1.6083404210734502,-4.996232098153309,-1.4653761545215158,5.449442298338097
517,1791295907.8579059,3.4074421875,-2.16021181640625,-1.4385924316406247,4.2833077798904045,1.6659620785802083,-5.019360717371007,-1.4834217956885163,5.492718077807946
518,1791295907.8677201,3.2733210937500004,-2.1554217773437503,-1.4481725097656246,4.17823858091867,1.6949139565971651,-5.0321844229596255,-1.4930736109512766,5.515875469466695
519,1791295907.88772,3.1727302734375002,-2.14105166015625,-1.3715318847656248,4.065884812728144,1.7547326370356502,-5.060841981939011,-1.5140217610427869,5.56627973484495
520,1791295907.9128776,3.1248298828125,-2.0356708007812503,-1.3619518066406247,3.9703186432933846,1.8305726266930333,-5.099363112194648,-1.541576931771781,5.63302403049909
521,1791295907.9328775,3.091299609375,-1.7961688476562503,-1.3715318847656248,3.8292891657775803,1.891145190197672,-5.131141268607492,-1.564297380222532,5.687887757558667
522,1791295907.958461,3.1344099609375,-1.8440692382812502,-1.0745494628906247,3.7920672076056277,1.9689514007732885,-5.172678412776188,-1.593694774613682,5.759621047884907
523,1791295907.978461,3.2972712890625004,-1.7291083007812502,-0.8973180175781247,3.8297510485900834,2.0303003627118876,-5.2056391911148685,-1.6161868477632602,5.816602004416499
524,1791295907.988018,3.3308015625,-1.6093573242187502,-0.6242857910156246,3.751533392445412,2.0599695117799977,-5.221419908757656,-1.626413174982582,5.843964413717015
525,1791295908.008018,3.4553425781250002,-1.3459051757812501,-0.5620152832031247,3.7505618583023224,2.122924128110354,-5.253923500242334,-1.6463831907532491,5.9009403158231155
526,1791295908.033244,3.5319832031250002,-0.91001162109375,-0.7967271972656247,3.733336406559895,2.203637431314316,-5.293038688665624,-1.6703637215615994,5.97179968273466
527,1791295908.0532439,3.3691218750000003,-0.75194033203125,-1.0889195800781246,3.6196881527855824,2.2683826212330374,-5.321891750238518,-1.689352920434938,6.026773996704283
528,1791295908.0794587,2.9332283203125002,-0.92438173828125,-1.1943004394531247,3.2991913428640482,2.3529084200827914,-5.357333698531253,-1.714998456677553,6.097411097926844
529,1791295908.0994587,2.6937263671875002,-1.1495135742187501,-1.0793395019531247,3.1213005236713034,2.4161627326166712,-5.383428184121039,-1.7350397122718373,6.150569418129898
530,1791295908.1083267,2.842217578125,-1.2836346679687503,-1.0601793457031248,3.2939184821834147,2.4436845645016825,-5.394881204012616,-1.7440160410754948,6.173971931238515
531,1791295908.1283267,2.8565876953125002,-1.23573427734375,-1.0889195800781246,3.2974047851440047,2.5049923268642873,-5.420615780715458,-1.7644473774859728,6.2266633558999755
532,1791295908.152697,2.755996875,-1.03934267578125,-0.9452184082031247,3.0934107085732965,2.5787500781988895,-5.4514285685646575,-1.7893269802024527,6.290446442507409
533,1791295908.172697,2.9811287109375004,-1.09682314453125,-1.1224498535156247,3.3689824985019663,2.6388066551803657,-5.47612676625601,-1.8097836436554575,6.342442885858139
