imu_index,t_imu,ax,ay,az,mag,vx,vy,vz,velocity
0,1790651338.2941432,-0.05819897460937489,0.001676513671874973,0.07616162109375044,0.09586722000403819,0.0,0.0,0.0,0.0
1,1790651338.3141432,0.06634204101562512,-0.017483642578125028,0.02347119140625044,0.07251097151429814,-6.198903390017175e-05,-2.157311785398645e-05,0.0002465550505110896,0.00025514198531473525
2,1790651338.3244581,0.008861572265625109,-0.017483642578125028,-0.024429199218749566,0.031320775777235736,-3.098505820796624e-05,-5.808187066848061e-05,0.00035390005723218534,0.0003599705933009601
3,1790651338.344458,-0.0677790527343749,0.03999682617187497,0.004311035156250436,0.07881834251943379,-6.826375613092607e-05,-8.448195118900994e-05,0.000500637405115902,0.0005122840538988
4,1790651338.369739,-0.005508544921874891,0.006466552734374973,0.02347119140625044,0.02496111370615523,-0.00024727605677645273,-2.4749407935544275e-05,0.0007109751880197625,0.0007531558267900529
5,1790651338.389739,0.06155200195312511,-0.03185375976562503,-0.005269042968749565,0.0695059261462661,-0.00028358640854850574,-2.2663488732779327e-05,0.0008797184235694307,0.0009245752482099361
6,1790651338.4145706,-0.015088623046874892,-0.012693603515625028,0.004311035156250436,0.02018363544510749,-0.00023537444693564791,-0.0001034255828525141,0.0010560159482110503,0.001086861382299844
7,1790651338.4345706,-0.0534089355468749,0.011256591796874974,0.02347119140625044,0.059414830481627684,-0.0003051141643860055,-0.0001608718557678864,0.0012183847772005815,0.0012662684836168374
8,1790651338.460031,0.03760180664062511,0.03520678710937498,0.037841308593750435,0.06391696455004149,-0.0004107618088343863,-0.0001343093301433064,0.0015111578933891476,0.0015717386673721452
9,1790651338.480031,0.06155200195312511,0.025626708984374975,0.02347119140625044,0.07068432629541153,-0.00033257225377733633,-2.532335359802063e-05,0.001798611397573852,0.001829275412752971
10,1790651338.489435,-0.0725690917968749,0.07352709960937498,0.03305126953125044,0.10846609552674776,-0.0003090926977529463,8.81676187438252e-05,0.0019533624195758083,0.0019796304117208866
11,1790651338.509435,-0.08214916992187489,0.006466552734374973,0.02347119140625044,0.08568079860241949,-0.0004987246916308223,0.00041332133627405095,0.002317897255867169,0.002406700757015333
12,1790651338.533825,-0.03424877929687489,-0.012693603515625028,-0.024429199218749566,0.043941918802065175,-0.0009082133133017298,0.0007389768024619748,0.002694012604238564,0.002937455029244138
13,1790651338.553825,0.03281176757812511,-0.05101391601562503,-0.048379394531249564,0.07758606533431403,-0.0011957851881225522,0.0008703996930406191,0.002846954778191541,0.0032082159140005115
14,1790651338.564348,-0.03424877929687489,-0.012693603515625028,0.018681152343750437,0.04102550312218422,-0.0013255304835441553,0.0008788961780478822,0.0028919165396768384,0.0033004046459560736
15,1790651338.584348,-0.1013093261718749,0.030416748046874973,0.042631347656250436,0.11404468393631724,-0.0017384703155819926,0.0009192068979965093,0.003056520699971694,0.0036344929699807607
16,1790651338.6096213,0.02323168945312511,0.03520678710937498,0.028261230468750436,0.05077328432373786,-0.002330012214426276,0.0010868946981505872,0.00336770169589365,0.004236946036565542
17,1790651338.6296213,0.09987231445312511,-0.007903564453125027,0.009101074218750437,0.10059709278713679,-0.002543254305195022,0.0012406439157705534,0.0036330595561993554,0.0046050473966641175
18,1790651338.6542149,-0.005508544921874891,0.001676513671874973,0.042631347656250436,0.043018444512050724,-0.002592085245131206,0.0013898610861374247,0.004005840647159573,0.004969645766774714
19,1790651338.6742148,-0.05819897460937489,0.016046630859374973,0.05221142578125044,0.07981633911443653,-0.002721400152462005,0.0015195901051371574,0.004405784500700397,0.005396861119582644
20,1790651338.683833,0.07113208007812512,0.020836669921874974,-0.00047900390624956436,0.07412266235380496,-0.0027649305140230733,0.0015992249706558537,0.004606585804937549,0.005605621645491001
21,1790651338.7038329,0.08550219726562511,-0.03664379882812503,-0.014849121093749565,0.09420132762898199,-0.002606919648874237,0.0017162696797844712,0.00493851184853523,0.005842132397297833
22,1790651338.7443879,-0.0965192871093749,-0.03185375976562503,0.009101074218750437,0.1020463833128999,-0.0023680836912090696,0.0017096627830636463,0.005493132574903004,0.006221356177379962
23,1790651338.7643878,-0.1635798339843749,0.03999682617187497,0.009101074218750437,0.16864441212834191,-0.002658115926859601,0.0017191078694512281,0.005752923585243824,0.006566356822857594
24,1790651338.774474,-0.0725690917968749,0.059156982421874976,-0.03879931640624957,0.1013469713759496,-0.002961076457650416,0.00179816192223783,0.005841819696719146,0.006791775721828082
25,1790651338.794474,0.04718188476562511,-0.03185375976562503,-0.06753955078124957,0.08833109973829074,-0.0035097951153675163,0.001972361777472129,0.005832145330350173,0.007086804067237644
26,1790651338.8046777,-0.0677790527343749,-0.017483642578125028,0.004311035156250436,0.07013032704534627,-0.003763517155721077,0.0020101485880959927,0.00577956189391719,0.007183877394085373
27,1790651338.8246777,-0.1492097167968749,0.11184741210937497,0.09053173828125044,0.20729056615869618,-0.004511710593928976,0.002214648374813974,0.005834219908158058,0.007700540360532172
28,1790651338.8493931,0.02323168945312511,0.08310717773437498,0.08095166015625044,0.11832026735886166,-0.005531137870827004,0.002790835175934722,0.006209504404066246,0.008771555852267566
29,1790651338.869393,0.14777270507812512,0.006466552734374973,0.037841308593750435,0.15267793981600764,-0.0059758231144413036,0.0033215136044040592,0.00664582522704076,0.009534668713054669
30,1790651338.894539,0.06634204101562512,-0.03664379882812503,0.018681152343750437,0.07805779814704866,-0.006047251226956199,0.0038317402108440334,0.007218722623793324,0.010166682682398813
31,1790651338.914539,-0.024668701171874894,-0.03664379882812503,0.037841308593750435,0.05816594747918072,-0.006033030324396125,0.004066748131691535,0.007690814097910321,0.010586997532365632
32,1790651338.9388657,0.02802172851562511,-0.03664379882812503,-0.005269042968749565,0.046430034195184745,-0.006012210046670203,0.004176005447920465,0.008238327833042985,0.011020695832434278
33,1790651338.9588656,0.10466235351562511,-0.06059399414062503,-0.04358935546874956,0.12855299405118806,-0.0057986344055435575,0.004106500522480656,0.008547655994394894,0.011115301638228374
34,1790651338.968849,0.07592211914062512,-0.017483642578125028,-0.05795947265624957,0.09710379190944833,-0.005572804058213975,0.004018549786623053,0.00860286661771563,0.01100973212666958
35,1790651338.988849,-0.048618896484374896,-0.041433837890625026,0.004311035156250436,0.06402456592452137,-0.005147295879515389,0.0037804074496927036,0.008616409002404466,0.010725140533050601
36,1790651339.014299,-0.1060993652343749,-0.012693603515625028,0.06658154296875043,0.12590196478788063,-0.004982373695722837,0.0034195108694958483,0.008766372955009252,0.010647365731332268
37,1790651339.034299,-0.024668701171874894,0.06873706054687498,0.05221142578125044,0.08977394550894509,-0.005068361544721358,0.0032625057144622057,0.009044734562045858,0.0108691975592854
38,1790651339.058939,0.02802172851562511,0.07352709960937498,0.02347119140625044,0.08211180470553056,-0.005152211995051385,0.0033609942602896774,0.009476098050018835,0.011297699107040439
39,1790651339.078939,-0.02945874023437489,0.049576904296874974,0.018681152343750437,0.060619075122838116,-0.005212218625689061,0.0036136004967508377,0.009836938011317312,0.011704301815597428
40,1790651339.104467,-0.0725690917968749,0.016046630859374973,0.004311035156250436,0.07444697757651904,-0.005472664300554899,0.004013305470057247,0.010272448151436844,0.012311777546987993
41,1790651339.124467,-0.02945874023437489,-0.02706372070312503,-0.00047900390624956436,0.04000614701811884,-0.005799146055066167,0.004262957784425165,0.010568218075973732,0.012786326186247499
42,1790651339.134376,0.02802172851562511,-0.041433837890625026,0.004311035156250436,0.05020523095722615,-0.005937708354079021,0.004317189752136131,0.010695626359351739,0.012972699452038066
43,1790651339.154376,-0.015088623046874892,-0.04622387695312503,0.037841308593750435,0.06161394308203118,-0.006156023970205335,0.004278742798478225,0.010977434420339481,0.013293168828767878
44,1790651339.1797957,-0.043828857421874895,-0.0031135253906250273,0.03305126953125044,0.05498226260251999,-0.006504203703641969,0.004143146370837052,0.011417037770109597,0.013777484498730503
45,1790651339.1997957,0.01844165039062511,-0.02706372070312503,0.013891113281250436,0.035573901608051565,-0.00677513722648126,0.004007197492850267,0.011781445552149002,0.014169071087499319
46,1790651339.2244365,0.04239184570312511,-0.03664379882812503,0.004311035156250436,0.05619983628794742,-0.006946444333183888,0.0037470917663491015,0.01219670477362785,0.01452767678999296
47,1790651339.2444365,-0.005508544921874891,-0.04622387695312503,0.009101074218750437,0.047432271921858865,-0.007009306271475415,0.0034433402969367786,0.012503315258152833,0.01474177259533638
48,1790651339.2541404,-0.0629890136718749,-0.02706372070312503,0.037841308593750435,0.07830725035231317,-0.007085083360598498,0.003264730591213095,0.012663930265212332,0.014873869766203857
49,1790651339.2741404,-0.019878662109374893,-0.03185375976562503,0.009101074218750437,0.038634864700164966,-0.007342136810061309,0.0028634524202429167,0.01301572132835583,0.015215627965945708
50,1790651339.29969,0.04239184570312511,-0.07017407226562503,0.02347119140625044,0.08527816734948973,-0.00757812087170573,0.00223221188015732,0.013460133332780856,0.015607237909391135
51,1790651339.31969,-0.0007185058593748912,-0.05580395507812503,0.037841308593750435,0.06742820099275082,-0.007672627757083707,0.0016232361790480977,0.013847800637259926,0.01591432357598143
52,1790651339.328903,-0.1060993652343749,0.016046630859374973,0.06658154296875043,0.1262840905624057,-0.007783440326077424,0.0013573195210608746,0.014071745752721116,0.01613810051155606
53,1790651339.348903,-0.048618896484374896,0.030416748046874973,0.02347119140625044,0.06196670463349071,-0.008219991377775857,0.0009363390388658458,0.014620053361719091,0.016798540095672818
54,1790651339.3892436,0.02802172851562511,0.016046630859374973,0.004311035156250436,0.032577548327933914,-0.00903076707889956,0.00035515377830502403,0.015644172171030996,0.018067125149188543
55,1790651339.4092436,-0.015088623046874892,-0.03664379882812503,0.009101074218750437,0.040660350342095995,-0.009353036938164853,7.93404090395073e-05,0.01609586486849417,0.018616188136458215
56,1790651339.4192123,-0.08214916992187489,-0.012693603515625028,0.018681152343750437,0.08519741276561967,-0.00956227434769248,-7.440160459292242e-05,0.016308006260743198,0.018904859018245627
57,1790651339.4392123,0.008861572265625109,-0.041433837890625026,-0.005269042968749565,0.042697227066544025,-0.010029023680457622,-0.00041777297656392647,0.01668989468462248,0.01947584233934226
58,1790651339.4495935,0.09029223632812511,-0.06538403320312502,-0.019639160156249565,0.11319653859851092,-0.010157754255351089,-0.0006524367321125673,0.016838991434621663,0.019676312605180234
59,1790651339.4695935,0.02802172851562511,-0.06538403320312502,0.018681152343750437,0.07354777032515102,-0.010191088884865295,-0.001232867116666743,0.017081710881828513,0.019928951318043852
60,1790651339.493875,-0.043828857421874895,-0.05101391601562503,0.042631347656250436,0.0796292670639657,-0.010254275611596515,-0.002043824623572599,0.017443845778194737,0.020337530404253786
61,1790651339.513875,0.008861572265625109,-0.007903564453125027,0.02347119140625044,0.026303813794057357,-0.010350964829268831,-0.0026999689565555787,0.017796537655783,0.02076412911240985
62,1790651339.5395253,0.0807121582031251,-0.0031135253906250273,-0.00047900390624956436,0.0807736093467821,-0.010284050113554676,-0.0034364506528468558,0.018225251869150316,0.02120685468242574
63,1790651339.5595253,0.02802172851562511,-0.02706372070312503,-0.00047900390624956436,0.038960129517782126,-0.010076601001358028,-0.003969827535553506,0.01850794975146503,0.02144391807495456
64,1790651339.584144,-0.015088623046874892,-0.041433837890625026,0.013891113281250436,0.046231942377427865,-0.009835666553525576,-0.004654376125162625,0.018828501632079542,0.021746632552555063
65,1790651339.604144,0.02323168945312511,-0.02227368164062503,0.03305126953125044,0.04613257749466991,-0.009657080288256027,-0.005222636414999186,0.019120264782263932,0.022048121374869584
66,1790651339.6138065,0.05197192382812511,-0.02706372070312503,0.03305126953125044,0.06727490068606985,-0.009529244992378451,-0.005491747405488062,0.019287981027859412,0.022203423425713416
67,1790651339.6338065,0.004071533203125109,0.006466552734374973,0.09053173828125044,0.09085366983845743,-0.009220266794854229,-0.005996116315380837,0.01976843489572779,0.022622063320185803
68,1790651339.659346,0.004071533203125109,0.049576904296874974,0.10490185546875044,0.11609843281919123,-0.008869293040599961,-0.00643622656672362,0.02066428434628285,0.02339021203414506
69,1790651339.679346,0.03281176757812511,0.06873706054687498,0.11448193359375045,0.13750457702778313,-0.008580348994712288,-0.0065517069865353526,0.02158966522997723,0.024138369830022988
70,1790651339.704725,0.04239184570312511,-0.03185375976562503,0.16238232421875046,0.17082081199902754,-0.00812554807551708,-0.006606060432277276,0.02311477583729599,0.025376316280557375
71,1790651339.724725,0.01844165039062511,-0.14681469726562504,0.21507275390625044,0.2610573486327204,-0.007729651329754719,-0.006910471301902444,0.024702547195060924,0.026790258700098595
72,1790651339.7488658,-0.1204694824218749,-0.10370434570312503,0.21507275390625044,0.26743929588885446,-0.007508194407829811,-0.007676373144197659,0.02711038447980333,0.029159434743449456
73,1790651339.7688658,-0.1539997558593749,-0.09891430664062503,0.30608349609375046,0.35663296460635213,-0.007763947835587641,-0.008519649161339507,0.029587717914700568,0.03175368260888699
74,1790651339.7791853,0.008861572265625109,-0.20908520507812503,0.32524365234375047,0.3867539060377838,-0.007988446849556984,-0.0091278708395777,0.031162843918589353,0.03344033717274052
75,1790651339.7991853,-0.1156794433593749,-0.09891430664062503,0.11448193359375045,0.1904517965089705,-0.00851850636255192,-0.01059183559187807,0.03441724642178155,0.03700403738934237
76,1790651339.8238213,-0.1731599121093749,0.011256591796874974,0.009101074218750437,0.1737639075658208,-0.009607184915248071,-0.012286619305352402,0.03805305550436497,0.0411253455811463
77,1790651339.8438213,-0.048618896484374896,-0.21866528320312503,0.09053173828125044,0.2416077374793408,-0.010691090636033252,-0.013767210059138,0.04071137857383752,0.044286023045455605
78,1790651339.8539162,-0.2402204589843749,-0.19950512695312503,0.042631347656250436,0.31515963637216354,-0.011374806721378368,-0.014719035677435285,0.0419527064210204,0.04589189269653904
79,1790651339.8739161,-0.2450104980468749,-0.314466064453125,0.009101074218750437,0.3987503973637517,-0.013254044173076929,-0.017092885313394354,0.044120726170175685,0.04913730653039859
80,1790651339.8987076,-0.1635798339843749,-0.544387939453125,-0.10106982421874956,0.5773488547455377,-0.015993798693676696,-0.0211909851366098,0.04623403294154785,0.053314587588707864
81,1790651339.9187076,0.02802172851562511,-0.884480712890625,-0.10585986328124956,0.8912337849287562,-0.018075836893335265,-0.026144430243762885,0.04737277293065584,0.05704775830218855
82,1790651339.9590583,0.06155200195312511,-1.1575129394531252,-0.15376025390624956,1.1693019582756057,-0.021375258295698855,-0.04081880650332828,0.04853991569339872,0.0669268260646376
83,1790651339.9790583,-0.05819897460937489,-0.9323811035156251,-0.18729052734374957,0.9527850673007513,-0.022760294961301247,-0.05013604809188933,0.048520064317798366,0.07338835729460746
84,1790651339.989195,0.0807121582031251,-1.071292236328125,-0.05795947265624957,1.0758907047508646,-0.02333987528642936,-0.055673386071378145,0.04832505747214383,0.07732778850274202
85,1790651340.009195,0.09987231445312511,-1.138352783203125,0.12406201171875045,1.149440264203507,-0.024040983544963403,-0.06827423855945255,0.04809717511551388,0.08690614934959809
86,1790651340.019268,-0.019878662109374893,-1.1527229003906252,0.11927197265625045,1.1590474751939834,-0.024280695552931456,-0.07539951274847442,0.04818345029992818,0.09271614520700885
87,1790651340.039268,-0.05819897460937489,-1.0856623535156251,0.10969189453125044,1.09274067290118,-0.02480237080363825,-0.09078232206071526,0.04867250130470873,0.10595093194244905
88,1790651340.0645576,-0.015088623046874892,-1.0377619628906252,0.14801220703125045,1.048372630126481,-0.025502076339501925,-0.11134339328708302,0.04968692767550153,0.12456523555205261
89,1790651340.0845575,-0.019878662109374893,-0.7982600097656251,0.22465283203125044,0.8295077451946641,-0.026024879183749638,-0.12791886676918346,0.050927836468088426,0.14012200162487415
90,1790651340.093901,-0.08214916992187489,-0.6689289550781251,0.25818310546875045,0.7217152825112223,-0.026303977601939046,-0.1355290307537619,0.051758943419616475,0.1474415329500223
91,1790651340.113901,-0.12525952148437489,-0.5491779785156251,0.21507275390625044,0.602945013481181,-0.027122900759097537,-0.15120263314862387,0.05398099836754058,0.1628245565061413
92,1790651340.1388466,-0.02945874023437489,-0.726409423828125,0.2629731445312504,0.7731062948567672,-0.028280585889769554,-0.1702062397066465,0.0572311999482589,0.18178384367391573
93,1790651340.1588466,0.004071533203125109,-0.601868408203125,0.13364208984375045,0.6165406445266952,-0.029107604240610842,-0.1851492046718217,0.060041064871569114,0.19680551335302607
94,1790651340.1983669,0.01365161132812511,-0.568338134765625,0.11927197265625045,0.5808789937517429,-0.030444143104144974,-0.21371611534935842,0.06551019226783707,0.22559478961255933
95,1790651340.2183669,-0.1971101074218749,-0.40068676757812505,0.18633251953125043,0.48386164137585164,-0.03129425435660179,-0.22745795542340222,0.06832119109819972,0.23955007199791623
96,1790651340.2139068,-0.0007185058593748912,-0.33841625976562506,0.13364208984375045,0.3638492672827995,-0.03129425435660179,-0.22745795542340222,0.06832119109819972,0.23955007199791623
97,1790651340.2339067,0.17172290039062513,-0.37673657226562507,0.03305126953125044,0.41534514059833233,-0.03190418463071562,-0.23940151856307365,0.07101014479162734,0.2517407490864051
98,1790651340.2584667,0.06634204101562512,-0.34799633789062506,-0.07232958984374957,0.36157196677614545,-0.03210231463157946,-0.2532031654438076,0.07374452384745624,0.26567020230533417
99,1790651340.2784667,0.04239184570312511,-0.35757641601562506,-0.09627978515624958,0.3727301421973148,-0.032076356069272116,-0.26381478151297094,0.07538429925901678,0.2762425096508362
100,1790651340.303515,0.10466235351562511,-0.49648754882812507,-0.16813037109374956,0.5345296213203825,-0.031772462991442874,-0.2767158584323044,0.07663319928098006,0.2888837187252133
101,1790651340.323515,0.15735278320312512,-0.5922883300781251,-0.20645068359374957,0.6466739898007575,-0.031173191674717757,-0.2871048438198176,0.07691894334193056,0.2988603069476267
102,1790651340.348706,0.0807121582031251,-0.563548095703125,-0.24956103515624958,0.621596025502644,-0.030081815684335773,-0.3004112709073802,0.07636331037114877,0.31142126210953247
103,1790651340.368706,0.18130297851562513,-0.434217041015625,-0.30704150390624957,0.5618627001750639,-0.028952287316917878,-0.31088764916507156,0.07515344305589232,0.3211501289855279
104,1790651340.3787904,0.48307543945312514,-0.5491779785156251,-0.16334033203124956,0.7494253774442238,-0.027965697267668885,-0.316121459272846,0.07427914607583272,0.32593288999150644
105,1790651340.3987904,0.4591252441406251,-0.49169750976562504,-0.09627978515624958,0.679582392316516,-0.02488923166957837,-0.32650578176162376,0.07241585086730155,0.3353648085797111
106,1790651340.4236822,0.4974455566406251,-0.434217041015625,-0.24477099609374958,0.7042083222020262,-0.019848812515967353,-0.33921998580286866,0.06980795801604049,0.34689670671362927
107,1790651340.4436822,0.5070256347656251,-0.49169750976562504,-0.23519091796874958,0.7444166866172367,-0.014899734163276734,-0.3492920692290455,0.06730694571197575,0.35602974123732906
108,1790651340.4688416,0.5645061035156251,-0.46295727539062503,-0.16813037109374956,0.7491758147642159,-0.00758588558931187,-0.36186327159252335,0.06387163095886428,0.3675352476010482
109,1790651340.4888415,0.6315666503906251,-0.434217041015625,-0.16813037109374956,0.784658329642986,-0.0008498673962334079,-0.3717032957494036,0.06104602478377879,0.3766837924406378
110,1790651340.5132847,0.6603068847656252,-0.5491779785156251,-0.2830913085937496,0.9042910610841591,0.008516052387811092,-0.3837282511076859,0.057283490699050636,0.3880738230712082
111,1790651340.5332847,0.6076164550781251,-0.664138916015625,-0.5082231445312496,1.0337161220012718,0.01693184591478731,-0.3939114696213232,0.05347971259690284,0.397885678260427
112,1790651340.5441377,0.5836662597656251,-0.5970783691406251,-0.6375541992187496,1.0505447342335708,0.021783353075571527,-0.39963513593505184,0.05079256174186305,0.4034385215535861
113,1790651340.5641377,0.7417375488281251,-0.740779541015625,-0.5369633789062496,1.1778194216497246,0.031370751728600835,-0.41060734676758437,0.044821692655943886,0.4142360455296915
114,1790651340.5887344,0.8710686035156252,-0.9898615722656251,-0.41721240234374957,1.3829868520518478,0.04436826544094298,-0.4252698645127097,0.03681976521566183,0.42916045455217905
115,1790651340.6087344,0.7417375488281251,-1.032971923828125,-0.4651127929687496,1.3540810525747429,0.055770693772305806,-0.43843809950475543,0.029965752809414548,0.4429856473099564
116,1790651340.619957,0.5118156738281251,-0.865320556640625,-0.5034331054687496,1.1243575238343397,0.06226431689886394,-0.44631661738751943,0.025881435926517538,0.4513814538067974
117,1790651340.639957,0.4782854003906251,-0.6545588378906251,-0.6040239257812496,1.0109644402271223,0.07358600039789855,-0.4605308046912623,0.01803333315753967,0.466721247243911
118,1790651340.6634312,0.7848479003906251,-0.884480712890625,-0.5944438476562496,1.3235013586088409,0.08710496609827585,-0.4774212429394667,0.00809365110903418,0.4853697822455801
119,1790651340.6834311,0.6555168457031252,-1.0042316894531251,-0.5465434570312496,1.317912505262061,0.0990559209076191,-0.4924863327239862,-0.0008161274202623404,0.5023500069182277
120,1790651340.708619,0.5118156738281251,-0.898850830078125,-0.7333549804687496,1.267950167035989,0.11405450024911684,-0.5122084651447469,-0.012771806856569756,0.5249086204696916
121,1790651340.728619,0.5261857910156251,-0.9898615722656251,-0.7285649414062496,1.3369758011127975,0.1257344133542621,-0.5283524863141313,-0.023033868587045276,0.543595485262663
122,1790651340.7386844,0.5405559082031252,-1.147932861328125,-0.5225932617187495,1.3722442425472672,0.13153608639716852,-0.536872335785447,-0.02836823408660813,0.5534784581730329
123,1790651340.7586844,0.4974455566406251,-1.052132080078125,-0.43637255859374957,1.2429219628137074,0.1428919186974442,-0.5545621706486319,-0.038816246233191465,0.5739895491341241
124,1790651340.7833033,0.5549260253906252,-0.980281494140625,-0.5944438476562496,1.2736789977960614,0.15671667139401252,-0.5768237715008965,-0.05165134443767994,0.5999613652924305
125,1790651340.8033032,0.5692961425781251,-1.1575129394531252,-0.5465434570312496,1.4009439865245923,0.16794936436217678,-0.5954026906176454,-0.06222580220298547,0.6217583159429361
126,1790651340.8290572,0.5166057128906252,-1.2533137207031249,-0.3214116210937496,1.3931913634774131,0.18234152372252063,-0.6203947809277977,-0.07547651884015844,0.6510259751900299
127,1790651340.8490572,0.6411467285156252,-1.061712158203125,-0.28788134765624956,1.2732546896402954,0.19357829494328738,-0.6403643865566283,-0.08513714482634872,0.6743792977786165
128,1790651340.8586905,0.6459367675781251,-0.9371711425781251,-0.3357817382812496,1.1867069705507096,0.1991087209809472,-0.6499844463071824,-0.08954295245169218,0.6856690189484204
129,1790651340.8786905,0.46391528320312514,-0.9323811035156251,-0.39805224609374956,1.1148979786521858,0.21053309456897695,-0.6697653858467217,-0.09841867432975591,0.7089401183767388
130,1790651340.9048212,0.4782854003906251,-1.0760822753906252,-0.38847216796874956,1.2400083116346545,0.2250670130788787,-0.6956693911885026,-0.10981708098304495,0.7393719317694354
131,1790651340.9248211,0.6219865722656251,-1.258103759765625,-0.5609135742187495,1.5113955154617853,0.23617283410719034,-0.7160231840854192,-0.11865668496668737,0.7632471530279875
132,1790651340.948759,0.6363566894531252,-1.234153564453125,-0.7812553710937497,1.5932497643894155,0.24973065142386275,-0.7412048520422059,-0.13005943196983397,0.7928842833577994
133,1790651340.968759,0.38248461914062515,-1.243733642578125,-0.6902446289062496,1.472958079951268,0.26088725375087246,-0.7628049197340855,-0.14036455751630156,0.8183127236863323
134,1790651340.9939973,0.32500415039062514,-1.392224853515625,-0.5465434570312496,1.5305644354098278,0.2741933195488644,-0.7909632798827351,-0.1537592008544008,0.8511443934230334
135,1790651341.0139973,0.4878654785156251,-1.521555908203125,-0.7141948242187496,1.7502055176052802,0.28437531533156113,-0.8143008396418654,-0.16467266298581476,0.878107204927856
136,1790651341.0240183,0.36332446289062514,-1.4880256347656249,-0.8962163085937496,1.7746629614785476,0.28935147393363436,-0.8265020320922839,-0.17053095705724744,0.8921382694600104
137,1790651341.0440183,0.24357348632812512,-1.550296142578125,-0.7668852539062496,1.7466708807309705,0.2987035780825879,-0.8517581101457474,-0.18296385564803921,0.9209731148258306
138,1790651341.0691516,0.43517504882812513,-1.7275275878906249,-0.5417534179687495,1.8620487791480071,0.30997265156028525,-0.8849145844696314,-0.19871108387563657,0.9584586383237437
139,1790651341.0891516,0.5022355957031251,-1.670047119140625,-0.5321733398437496,1.8233229108914375,0.31900106499073466,-0.912437679334264,-0.2109732544233592,0.9893502474938305
140,1790651341.1141012,0.4782854003906251,-1.593406494140625,-0.4890629882812496,1.7340368468700207,0.3304091724523001,-0.9477286108260102,-0.22588648579187795,1.0287781322920007
141,1790651341.1341012,0.43517504882812513,-1.617356689453125,-0.5034331054687496,1.748903906943787,0.33955255360068226,-0.9765910864368512,-0.23753672181005814,1.0608721793754998
142,1790651341.1434753,0.3681145019531251,-1.588616455078125,-0.5896538085937496,1.7340421395924321,0.34376005072354904,-0.9903439306716763,-0.24294669854334547,1.0760925479831156
143,1790651341.1634753,0.4399650878906251,-1.626936767578125,-0.5800737304687495,1.7824079378863007,0.35260245503255205,-1.0201080063956307,-0.25451226818807304,1.1089298132279106
144,1790651341.1884556,0.5118156738281251,-1.6508869628906249,-0.5465434570312496,1.8127583398351912,0.3637733008955494,-1.0578485335352519,-0.2689017608384366,1.1505140987094153
145,1790651341.2084556,0.4878654785156251,-1.641306884765625,-0.5513334960937496,1.7988523116201833,0.3728749776211524,-1.0884705855785002,-0.2803411343100837,1.1842276454262677
146,1790651341.233589,0.5405559082031252,-1.794588134765625,-0.5273833007812496,1.9470183381976136,0.3845356865353321,-1.127656793419901,-0.29459370611545105,1.22729906284006
147,1790651341.253589,0.48307543945312514,-1.789798095703125,-0.4794829101562496,1.9148480265329855,0.3939583295443214,-1.1595385622114236,-0.305744313929155,1.262225189168992
148,1790651341.2638469,0.3968547363281251,-1.665257080078125,-0.4459526367187496,1.7690247535556967,0.3987432313480104,-1.1760959919097411,-0.3113175550618218,1.2802798783163318
149,1790651341.2838469,0.4974455566406251,-1.540716064453125,-0.3645219726562496,1.6595584779195434,0.40801444998633485,-1.208344716140231,-0.3217695091588886,1.3153358359924734
150,1790651341.3085382,0.5453459472656251,-1.564666259765625,-0.3357817382812496,1.6906602504380261,0.4196746042880742,-1.2479366866450605,-0.3340344710107643,1.35832682929494
151,1790651341.3285382,0.4878654785156251,-1.540716064453125,-0.3549418945312496,1.6546306128210726,0.42925243331442875,-1.2798538176330692,-0.3435149786869474,1.3929414871410046
152,1790651341.353901,0.3968547363281251,-1.655677001953125,-0.24956103515624958,1.7207674819134666,0.441259457560002,-1.3203380315229756,-0.35488406793803523,1.4366437025401815
153,1790651341.373901,0.41122485351562515,-1.641306884765625,-0.20166064453124957,1.7040132586575572,0.4505195744585054,-1.3524190270485792,-0.3631813071084464,1.4710220166694645
154,1790651341.3989892,0.4782854003906251,-1.559876220703125,-0.2639311523437496,1.6527644724277515,0.46206693620475114,-1.3926489439531013,-0.37290434159843644,1.5139466908085957
155,1790651341.4189892,0.42080493164062516,-1.4497053222656249,-0.3022514648437496,1.5395058492576579,0.47124012936795173,-1.424423335796605,-0.3803419989897954,1.5478078483081177
156,1790651341.4295597,0.3872746582031251,-1.416175048828125,-0.37889208984374956,1.5162759133996206,0.47600180309256757,-1.4409699508181053,-0.38422335355609327,1.5654391400262098
157,1790651341.4495597,0.34416430664062514,-1.435335205078125,-0.42679248046874957,1.5364856140838916,0.4847568930483925,-1.4718582042151989,-0.3916740439282783,1.5983630299029854
158,1790651341.4734647,0.3776945800781251,-1.535926025390625,-0.41721240234374957,1.6357836470517966,0.4949459639140502,-1.508566700896068,-0.40075688317379055,1.63748315339683
159,1790651341.4934647,0.38248461914062515,-1.583826416015625,-0.3405717773437496,1.6645689338297556,0.5033321533213498,-1.5393514426307238,-0.4083527873525376,1.6702389408210383
160,1790651341.503505,0.30584399414062513,-1.473655517578125,-0.3645219726562496,1.5485726982578332,0.5074289707575113,-1.5547900238234578,-0.4121250047521399,1.686624794697068
161,1790651341.523505,0.30584399414062513,-1.387434814453125,-0.4699028320312496,1.4964372972695705,0.5152831418566514,-1.5852219168796045,-0.41976367520856367,1.7189086028819887
162,1790651341.5493803,0.2148332519531251,-1.516765869140625,-0.37889208984374956,1.5780656651992762,0.5249308461858789,-1.624323984284996,-0.42981115441138174,1.7603177064545341
163,1790651341.5693803,0.19088305664062513,-1.535926025390625,-0.31662158203124957,1.5797956586193933,0.5318779215431764,-1.6545929128332113,-0.43745557582233147,1.792188386147234
164,1790651341.5941331,0.2100432128906251,-1.483235595703125,-0.3453618164062496,1.5373291020056976,0.5399305316791773,-1.692040710866039,-0.44672643536156537,1.831417826253272
165,1790651341.6141331,0.25315356445312515,-1.579036376953125,-0.3453618164062496,1.6360676609382627,0.5461557686343842,-1.7223528427162849,-0.45412964232018643,1.863067140620365
166,1790651341.6243286,0.36332446289062514,-1.622146728515625,-0.3214116210937496,1.693124361747482,0.5493246165212944,-1.737935182249081,-0.457847374078394,1.8793085031377617
167,1790651341.6443286,0.3393742675781251,-1.684417236328125,-0.37889208984374956,1.7595441271191896,0.5556624060471821,-1.7688770432951144,-0.46509678099267093,1.9115443284110243
168,1790651341.6693645,0.2004631347656251,-1.780218017578125,-0.4028422851562496,1.836203574013448,0.5634196194079392,-1.8083054653284236,-0.47427818540476463,1.9525240384234122
169,1790651341.6893644,0.2292033691406251,-1.885598876953125,-0.4842729492187496,1.9602391687080751,0.5693314635131907,-1.8405770857679467,-0.48184326386045073,1.9859595300327222
170,1790651341.7135956,0.2723137207031251,-2.086780517578125,-0.6040239257812496,2.1894411601920245,0.5763310658405238,-1.881030427625755,-0.49161178938443134,2.0278350816988464
171,1790651341.7335956,0.19088305664062513,-2.268802001953125,-0.6854545898437496,2.3777608921245297,0.5819366013897141,-1.9159448198397697,-0.5003993516898152,2.063951131175214
172,1790651341.759256,0.24357348632812512,-2.422083251953125,-0.6567143554687496,2.5213268465854632,0.588885910487839,-1.9630488626575446,-0.5125657720934401,2.112598192622988
173,1790651341.7792559,0.19088305664062513,-2.498723876953125,-0.7764653320312496,2.6235387869087283,0.5941415256791014,-2.0016365876811784,-0.5227758171134336,2.152405105141423
174,1790651341.7888389,0.15256274414062512,-2.675955322265625,-0.7477250976562496,2.7826435451430873,0.5965288637149527,-2.0210716787896645,-0.5280296144653397,2.172416325155733
175,1790651341.8088388,0.01844165039062511,-2.819656494140625,-0.7141948242187496,2.9087586847931166,0.6010204450162013,-2.0637924296692454,-0.5395425907283397,2.216206437879244
176,1790651341.8337703,-0.1156794433593749,-2.675955322265625,-0.6231840820312496,2.7499958219013334,0.6055978445667864,-2.119334784185347,-0.5542422963637478,2.2727765398033415
177,1790651341.8537703,0.056761962890625114,-2.489143798828125,-0.5657036132812496,2.5532487833650617,0.6086306578527173,-2.164955066372364,-0.5660489080353198,2.319024166190938
178,1790651341.8792222,0.13340258789062512,-2.378972900390625,-0.3549418945312496,2.4090022955037487,0.612274276032152,-2.2235955431650907,-0.5805776124396212,2.3783034484145293
179,1790651341.8992221,-0.3072810058593749,-1.952659423828125,-0.15855029296874956,1.983037729703399,0.6144471258240374,-2.2692604822072804,-0.5910519488220416,2.4241350648731133
180,1790651341.9243348,-0.7096442871093749,-1.555086181640625,0.06179150390625044,1.7104695953192468,0.6148508567190115,-2.324604765679141,-0.6024133197752998,2.478856732542035
181,1790651341.9443347,-0.4940925292968749,-1.382644775390625,0.10490185546875044,1.472018478723267,0.6133185586789783,-2.3664766477519947,-0.609854355349395,2.5195820513557807
182,1790651341.9535754,-0.0629890136718749,-1.353904541015625,0.07616162109375044,1.3575071692457885,0.6123307000959354,-2.384817425241159,-0.6126511656749034,2.53725136492557
183,1790651341.9735754,-0.2977009277343749,-1.358694580078125,0.11448193359375045,1.395629935701776,0.6099723020759628,-2.422627851890985,-0.617510493105418,2.573424008427891
184,1790651341.9991908,-0.9683063964843749,-1.306004150390625,0.31087353515625044,1.655266284671635,0.6049726122240011,-2.4689097786167262,-0.6219834624197194,2.6169392014362973
185,1790651342.0191908,-1.040156982421875,-0.5491779785156251,0.33961376953125044,1.2242795892371623,0.5986418196603448,-2.5024080700519735,-0.6239762687563127,2.647595996612501
186,1790651342.0287676,-0.0677790527343749,-0.10849438476562503,0.26776318359375045,0.2967526815439099,0.5952693107474182,-2.516514732692431,-0.6243511149393434,2.6602643227509866
187,1790651342.0487676,0.3010539550781251,-0.29051586914062505,0.10969189453125044,0.43251042278373997,0.5896326080423434,-2.5421542945279647,-0.6244503305635948,2.6833101358200793
188,1790651342.0889697,-0.3839216308593749,-0.24261547851562504,0.018681152343750437,0.45454050920680134,0.5797519200865837,-2.5875693371139277,-0.6242327842983802,2.7242051927505755
189,1790651342.1089697,-0.9251960449218749,0.298658935546875,0.15759228515625046,0.9848960400274952,0.5736100715553438,-2.6066895972547335,-0.6238763822041407,2.7409999837464243
190,1790651342.1187813,-0.1779499511718749,0.8159831542968751,0.21986279296875044,0.8636170105726091,0.5702371755472013,-2.6138424168250096,-0.6234500052866454,2.747004282024616
191,1790651342.1387813,0.5836662597656251,0.427989990234375,0.24381298828125045,0.7637319606931792,0.5650017540622233,-2.624369679530244,-0.6220157369993272,2.7556209416401742
192,1790651342.149369,0.15735278320312512,0.356139404296875,0.19112255859375044,0.4337314907614206,0.5632343590941353,-2.6284840502532028,-0.6210249764766369,2.758955122343868
193,1790651342.169369,-0.1539997558593749,0.624381591796875,0.12406201171875045,0.6549501353013448,0.5604015949862121,-2.6336194534416633,-0.6189613989410435,2.7628091838902864
194,1790651342.1939995,0.5261857910156251,0.9548942871093751,0.013891113281250436,1.0903612012764639,0.5581237956166496,-2.6360778074262132,-0.616546408005618,2.764152284383615
195,1790651342.2139995,0.9812395019531251,1.007584716796875,-0.04358935546874956,1.4071097873392953,0.5588127960740094,-2.6348308457060563,-0.6149241304903164,2.762740851545692
196,1790651342.23931,0.9572893066406252,0.653121826171875,0.12406201171875045,1.1654880176056197,0.5632338398519913,-2.6303369910046475,-0.6130262895224411,2.7589320898216134
197,1790651342.25931,0.5022355957031251,0.614801513671875,-0.00047900390624956436,0.7938650541806485,0.5683925498219147,-2.625416779142873,-0.6115662171438345,2.754976695518424
198,1790651342.26877,0.5166057128906252,0.724972412109375,-0.15376025390624956,0.9033873347530565,0.571189470886132,-2.622488045027417,-0.6110886286319259,2.752658763814751
199,1790651342.28877,1.1967912597656252,0.753712646484375,-0.17292041015624957,1.424883693909955,0.5787857532769645,-2.615006956358377,-0.6107204017333221,2.7470409059736256
200,1790651342.3138125,1.4746135253906252,0.662701904296875,-0.2830913085937496,1.641279851891503,0.5918879486105243,-2.6043844728648833,-0.611184971308392,2.7398351949274815
201,1790651342.3338125,1.1057805175781252,0.480680419921875,-0.4890629882812496,1.3011482719729532,0.6046528878638909,-2.5954583876208166,-0.6126585721018134,2.734476162383433
202,1790651342.3591006,0.6842570800781251,0.437570068359375,-0.4124223632812496,0.9109157601532433,0.6217669481358076,-2.584123556671877,-0.6159520821232578,2.7283118702620133
203,1790651342.3791006,0.7273674316406251,0.389669677734375,-0.3262016601562496,0.8873068023213755,0.6353893472550408,-2.5752628333912484,-0.6192740864021457,2.7238206030758927
204,1790651342.4038265,1.0051896972656251,0.17411791992187498,-0.6567143554687496,1.2132588850717785,0.6529174067373309,-2.5649060092595106,-0.624587784661609,2.719403220764557
205,1790651342.4238265,0.9333391113281252,-0.02706372070312503,-0.7812553710937497,1.2174622362011496,0.6678763887734589,-2.557564727099308,-0.6303981020106773,2.717461677927087
206,1790651342.4339068,0.9812395019531251,-0.19950512695312503,-0.6183940429687496,1.17687911369564,0.6757325072708371,-2.554590905297597,-0.6339454980729168,2.7174318775893256
207,1790651342.4539068,1.1057805175781252,-0.14681469726562504,-0.5561235351562496,1.2464262893341218,0.6921119842396612,-2.5500951831830334,-0.6416897783456925,2.7191488031468256
208,1790651342.4783254,1.0003996582031252,-0.304885986328125,-0.5992338867187496,1.2053365471038626,0.7129677074410867,-2.546256804592164,-0.6518426391744615,2.723351885642328
209,1790651342.4983253,0.7369475097656252,-0.46295727539062503,-0.7668852539062496,1.1599715788094638,0.7300932749808636,-2.544736326980905,-0.6609601377362817,2.7286603796927373
210,1790651342.5236452,0.8854387207031251,-0.6880891113281251,-0.8914262695312496,1.4325184631477235,0.7516028698065375,-2.5452859725285126,-0.6739205260202528,2.738166618605094
211,1790651342.5436451,1.3788127441406253,-0.9754914550781251,-1.0351274414062497,1.9809586018610505,0.7694410067833861,-2.5481503786676853,-0.6855120917176011,2.74864269105956
212,1790651342.5543203,1.4602434082031253,-1.262893798828125,-0.8866362304687496,2.1244611936910136,0.7798071599275891,-2.5512420879325632,-0.6923097794188275,2.7561255828774898
213,1790651342.5743203,1.3788127441406253,-1.550296142578125,-0.6902446289062496,2.186545302716397,0.8005735872027067,-2.5603853407329242,-0.7055002510133794,2.773846024159705
214,1790651342.5994353,1.8290764160156252,-1.535926025390625,-0.8147856445312496,2.523581767573821,0.8287819081929312,-2.5759580371565134,-0.7224145304261219,2.800771681931597
215,1790651342.6194353,1.9967277832031252,-1.478445556640625,-1.0734477539062497,2.7064761562836734,0.8536144075037903,-2.5910205198772434,-0.7366959053183165,2.825732780720031
216,1790651342.6443524,1.8817668457031251,-1.670047119140625,-1.3129497070312497,2.8379465771805563,0.8871595694877453,-2.612855224623953,-0.7562792417233978,2.86112264994706
217,1790651342.6643524,2.1068986816406254,-1.933499267578125,-1.4518608398437496,3.207076764079081,0.9160291187608839,-2.6331575071481033,-0.7737874008092194,2.893332809325492
218,1790651342.673906,2.4086711425781253,-2.177791259765625,-1.6099321289062496,3.624410697463074,0.9309865823588995,-2.6443467150848954,-0.7830901153251906,2.91076204709911
219,1790651342.693906,2.2458098144531253,-2.196951416015625,-1.7153129882812497,3.579463073533989,0.9645838925212412,-2.6708191123874485,-0.8046314054958924,2.951462097929737
220,1790651342.7188993,2.241019775390625,-2.139470947265625,-1.7680034179687496,3.5672596841041306,1.008681843058001,-2.707066963946703,-0.8340422423718914,3.0068716417345187
221,1790651342.7388992,2.5523723144531254,-2.244851806640625,-1.8159038085937496,3.8537605929052945,1.0458666831994148,-2.73829868209721,-0.8594229044157301,3.054623466163421
222,1790651342.7637637,2.6721232910156254,-2.259221923828125,-2.00271533203125,4.031773218404883,1.0949041826433628,-2.7797018161366958,-0.8933647382372798,3.118278036245219
223,1790651342.7837636,2.6146428222656253,-2.316702392578125,-1.9643950195312496,4.007781787543022,1.1363615967970033,-2.8148733009588223,-0.9225216611774053,3.172676408722984
224,1790651342.793888,2.514052001953125,-2.359812744140625,-1.9117045898437497,3.942561108564163,1.158094668528207,-2.8335582492978095,-0.9380108255452686,3.2015777239163254
225,1790651342.813888,2.4613615722656252,-2.522674072265625,-1.7009428710937498,3.9134884585279908,1.202049843162875,-2.872255921434931,-0.9694376906818507,3.2610715017890173
226,1790651342.8394716,2.351190673828125,-2.570574462890625,-1.3800102539062495,3.7470493664813342,1.2590764525072946,-2.924104637807761,-1.0095197405906138,3.339878972769725
227,1790651342.8594716,2.3416105957031252,-2.115520751953125,-1.3225297851562496,3.4216448188669286,1.304009259634053,-2.96558672773485,-1.0402076683325105,3.4025250597440433
228,1790651342.8839798,2.3464006347656254,-1.775427978515625,-1.2889995117187496,3.212360531904192,1.3594284380975694,-3.015946540563068,-1.0769725462558655,3.479058648432299
229,1790651342.9039798,2.2793400878906254,-1.8472785644531249,-1.1357182617187496,3.146058693183377,1.4048082043319934,-3.0563123600677278,-1.106111343919022,3.5409057652537985
230,1790651342.9138436,2.054208251953125,-1.971819580078125,-0.7333549804687496,2.940349218400785,1.427037956874183,-3.0760596104848648,-1.1197094606849685,3.5710403713712564
231,1790651342.9338436,2.020677978515625,-1.655677001953125,-0.5848637695312496,2.6770266073695987,1.4714624303590746,-3.1155345002513557,-1.14512263434699,3.6308487649458066
232,1790651342.974473,2.078158447265625,-1.315584228515625,-0.6327641601562496,2.5396643236141996,1.560662406987682,-3.1927518286081855,-1.1927152076831908,3.7485865275199735
233,1790651342.994473,1.9057170410156252,-1.277263916015625,-0.6567143554687496,2.386301384203524,1.603960908072912,-3.2289500594281613,-1.2145629157126205,3.8044673946732086
234,1790651343.0048466,1.6662150878906252,-1.3299543457031249,-0.7333549804687496,2.2545200837755495,1.6258293014038143,-3.2469375329887593,-1.2252765925907205,3.8323918104475005
235,1790651343.0248466,1.7524357910156252,-1.468865478515625,-0.8435258789062496,2.4372387868225096,1.666794648986952,-3.28061318060226,-1.2451992173883866,3.8847327235753895
236,1790651343.0351253,2.0158879394531253,-1.703577392578125,-0.9584868164062497,2.8079667188484336,1.6875951768682993,-3.297769871609849,-1.255291497579143,3.9113962150338684
237,1790651343.0551252,1.8721867675781252,-1.746687744140625,-1.0063872070312496,2.751148229140308,1.7278293551700397,-3.3313207805831984,-1.2749304662152317,3.963400070320501
