imu_index,t_imu,ax,ay,az,mag,vx,vy,vz,velocity
0,1790995683.9085157,-0.026198580994897993,-0.030011061065051005,-0.017449428013392703,0.04349151607372436,0.0,0.0,0.0,0.0
1,1790995683.9285157,0.021701809630102008,-0.068331373565051,-0.012659388950892702,0.07280388233547525,-4.0148309527240755e-05,-0.00018577757763161973,-6.74111818751297e-05,0.00020166671155738482
2,1790995683.9385736,-0.021408541932397995,-0.053961256377551,0.0304509626116073,0.06555458779893698,-5.7088972199363975e-05,-0.00035744125102823933,-8.280594363273211e-05,0.00037132226297963844
3,1790995683.9585736,-0.007038424744897993,0.017889329559948996,0.0256609235491073,0.03206322710500593,-0.00012839261919704893,-0.0007016963439691411,-2.4658538781120054e-05,0.0007137719995480052
4,1790995683.9836445,0.016911770567602007,-0.0012708266900510038,0.016080845424107298,0.02337127668231644,-0.00018580266038697332,-0.0010372570710200169,0.00011578616115855321,0.0010601090958499203
5,1790995684.0036445,0.04086196588010201,-0.04438117825255101,-0.022239467075892704,0.06429605846777113,-0.00013807051939863428,-0.0013332707468258998,0.0002017804421817248,0.0013555034856154939
6,1790995684.0282323,-0.007038424744897993,-0.07312141262755101,-0.003079310825892702,0.0735238911014687,-2.581746473523139e-05,-0.0018592861120100533,0.00024495310439415463,0.001875530168019472
7,1790995684.0482323,-0.06930893255739799,-0.04438117825255101,0.0352410016741073,0.08952846091788401,-6.272694578866377e-05,-0.002399225371507798,0.00032304505165925575,0.002421688493265853
8,1790995684.058667,-0.03577865911989799,-0.015640943877551005,0.0017107282366072985,0.039085523725518705,-0.00016133651141749794,-0.002685646501665032,0.0003865949663392623,0.002718121091824433
9,1790995684.078667,0.06481216119260201,-0.068331373565051,-0.022239467075892704,0.0967697615351102,-0.0002784399515112022,-0.003278239105425588,0.0004593367300512347,0.0033219528398990374
10,1790995684.103269,0.04086196588010201,-0.034801100127551006,-0.003079310825892702,0.05376150091689137,-0.0002058965378185363,-0.004088146270854036,0.0004886777649717758,0.00412239484695016
11,1790995684.123269,-0.045358737244897994,0.022679368622448997,0.0256609235491073,0.056835304195172125,-0.00016251454037589458,-0.004665970785544123,0.0005428246649964473,0.004700250308687116
12,1790995684.1484973,-0.04056869818239799,-0.025221022002551004,0.0400310407366073,0.06232498251522881,-0.00027858525792501753,-0.005290324587877481,0.0007251781441201253,0.0053470578201234836
13,1790995684.1684973,0.021701809630102008,-0.063541334502551,0.0017107282366072985,0.06716692878705853,-0.00038509944629949966,-0.005844186812492298,0.0009106690477228366,0.005927237062690296
14,1790995684.178052,0.016911770567602007,-0.063541334502551,-0.022239467075892704,0.06941255700459395,-0.00040068149882598026,-0.006160161754782179,0.0009712808677045578,0.006249121940925094
15,1790995684.198052,-0.011828463807397993,-0.053961256377551,0.0017107282366072985,0.05526894550275262,-0.00042078077925748774,-0.0068986111787550045,0.0010483308496067032,0.006990485693431692
16,1790995684.2231944,0.0025416533801020076,-0.04438117825255101,0.011290806361607298,0.04586536049443635,-0.00045976992720442425,-0.007873127113890365,0.0011551797069906298,0.007970693764841311
17,1790995684.2431943,0.03128188775510201,-0.0012708266900510038,-0.012659388950892702,0.03377027732502254,-0.0004353970660009929,-0.008600521249394312,0.0012253723877924806,0.008698279936581118
18,1790995684.267755,0.03607192681760201,-0.0012708266900510038,-0.027029506138392702,0.045093160311692394,-0.00028588672292688655,-0.009364479157727963,0.001225532637633551,0.009448657648564283
19,1790995684.287755,-0.007038424744897993,-0.025221022002551004,0.0017107282366072985,0.026240540483044167,-0.00013885108744875554,-0.00993299976074072,0.0011876654258992805,0.010004714540417304
20,1790995684.2987044,0.0025416533801020076,-0.07312141262755101,-0.003079310825892702,0.07323034303972377,-7.412099203996533e-05,-0.010278319246640749,0.0011689200799861294,0.01034483999928087
21,1790995684.3187044,0.045652004942602006,-0.03959113919005101,-0.012659388950892702,0.061739970734163256,9.866929511312483e-05,-0.010983530533382666,0.0011162080512200996,0.011040543420554806
22,1790995684.3435957,0.05044204400510201,-0.025221022002551004,-0.022239467075892704,0.060622550672876876,0.0004608549497078339,-0.011850557422784078,0.0009952937701550152,0.011901206165943114
23,1790995684.3635957,0.03607192681760201,-0.04438117825255101,-0.007869349888392703,0.057730404078657614,0.0008379865602149985,-0.012547111204984229,0.0008675501479967193,0.012604953959639476
24,1790995684.3876882,0.021701809630102008,-0.020430982940051006,0.0256609235491073,0.03933035217883223,0.001328535994310804,-0.01337744438323155,0.0007688978609025552,0.013465222984976271
25,1790995684.4076881,0.03128188775510201,-0.006060865752551004,0.006500767299107299,0.032520002624083374,0.0017541504969079782,-0.014003077652726376,0.0007475298189418589,0.014132304431489386
26,1790995684.4179606,0.06002212213010201,-0.006060865752551004,-0.007869349888392703,0.06083844102487566,0.002010310091088332,-0.014285556784290119,0.0007371465132968038,0.014445132892485783
27,1790995684.4379606,0.07918227838010201,-0.04438117825255101,-0.007869349888392703,0.09111228709792452,0.0026430354724305202,-0.014828695008279632,0.0006963551346921814,0.015078486085503261
28,1790995684.4635367,0.012121731505102007,-0.030011061065051005,0.0352410016741073,0.047849016290060095,0.003505939183393181,-0.015561778437803764,0.0007045200187486471,0.01596737004524425
29,1790995684.4835367,-0.059728854432398,0.046629563934949,0.0496111188616073,0.09057105166260693,0.00400808515670842,-0.01602411808877813,0.0008372251298730907,0.016538985853571067
30,1790995684.5077796,-0.03577865911989799,0.022679368622448997,0.0208708844866073,0.04722351139828644,0.0043518045763084635,-0.01637445880228045,0.001102105792766928,0.01697868491127653
31,1790995684.5277796,-0.0022483856823979926,-0.025221022002551004,0.0017107282366072985,0.025378766324025675,0.004535792565575131,-0.016623942871808177,0.0013217220909033606,0.01728224059804314
32,1790995684.553325,-0.054938815369897996,-0.010850904815051004,0.006500767299107299,0.05637619661727971,0.00462597935387787,-0.016963912704731455,0.001575887265061402,0.01765382224642687
33,1790995684.573325,-0.078889010682398,0.022679368622448997,0.011290806361607298,0.08285717878286553,0.004485255516681062,-0.017172413929006227,0.0017717170223283895,0.017836712096298835
34,1790995684.5833752,-0.06930893255739799,0.060999681122449,-0.007869349888392703,0.09266399460929985,0.0043134395169837254,-0.017198397782908464,0.0018579423562052654,0.01782814058068898
35,1790995684.6033752,-0.059728854432398,0.022679368622448997,0.011290806361607298,0.06487967417623816,0.0038292578512826624,-0.017116830775857,0.0020089238884891335,0.017654599590210974
36,1790995684.6286612,-0.078889010682398,0.0035192123724489964,0.0256609235491073,0.08303218568460687,0.0030460485191941764,-0.016979490222737828,0.0022412538355192344,0.017395537317385867
37,1790995684.6486611,-0.074098971619898,0.022679368622448997,0.0256609235491073,0.08163022941063257,0.002290007901651693,-0.01684785706721544,0.0024744341005304283,0.017181887209058735
38,1790995684.6735244,0.021701809630102008,-0.015640943877551005,-0.007869349888392703,0.027884302649839297,0.001393400965563838,-0.01669563692593943,0.0027540098007697634,0.01697852845791891
39,1790995684.6935244,0.021701809630102008,-0.14018195950255102,0.016080845424107298,0.14276044235274027,0.0008454606683648651,-0.016825292120246724,0.002957484008581303,0.017104150675622647
40,1790995684.7033076,-0.050148776307397995,-0.08270149075255101,0.0879314313616073,0.1307148536285176,0.0005967601413627227,-0.0170427409999192,0.003118404902291762,0.017335962407414345
41,1790995684.7233076,-0.030988620057397994,0.0035192123724489964,0.059191196986607304,0.06690498658165561,4.289745023335035e-05,-0.01753936631016874,0.003618714275926957,0.017908833121237023
42,1790995684.7485769,0.08397231744260202,-0.020430982940051006,-0.012659388950892702,0.08734434892531837,-0.0004515061644225773,-0.018104765684563026,0.004244205885950387,0.01860106668747194
43,1790995684.7685769,0.107922512755102,-0.08270149075255101,0.0352410016741073,0.1404590101455363,-0.0004962758382333331,-0.018639838521135117,0.004698879793849275,0.0192293874348262
44,1790995684.8076925,0.05044204400510201,-0.068331373565051,0.0927214704241073,0.1257411925118726,-0.00010611157600649954,-0.019972434286219257,0.005830137943083021,0.02080624664420004
45,1790995684.8276925,-0.0022483856823979926,0.041839524872449,0.0927214704241073,0.10174906465092294,0.00013574737051599595,-0.020591328864143436,0.006599955983865241,0.02162361372964443
46,1790995684.822791,-0.007038424744897993,0.060999681122449,0.0544011579241073,0.08203649494836866,0.00013574737051599595,-0.020591328864143436,0.006599955983865241,0.02162361372964443
47,1790995684.842791,0.045652004942602006,0.022679368622448997,0.1214617047991073,0.1317247321086582,0.00035657010243523863,-0.02078184187918242,0.007607524733093831,0.022133380372051745
48,1790995684.8685043,0.03607192681760201,0.046629563934949,0.1885222516741073,0.19752503515598568,0.0007554917110331998,-0.020856375228334282,0.009306409308453889,0.022851004564504226
49,1790995684.8885043,-0.06930893255739799,0.166380540497449,0.1789421735491073,0.25398132581539934,0.0009693785874043681,-0.020586137225029204,0.010980803009527373,0.023351804543278804
50,1790995684.913194,-0.06930893255739799,0.214280931122449,0.1837322126116073,0.2906502563668344,0.0009371304415743939,-0.019597692617920985,0.013409338121061171,0.023764640082609804
51,1790995684.933194,0.04086196588010201,0.209490892059949,0.1933122907366073,0.2879683591325519,0.0008722556909592459,-0.01828144561851407,0.015647063187109116,0.024079091973628976
52,1790995684.943737,0.07918227838010201,0.195120774872449,0.2220525251116073,0.3060216886181924,0.000938109406709187,-0.01737171851307816,0.016978191374540503,0.024308756358709514
53,1790995684.963737,0.107922512755102,0.223861009247449,0.2699529157366073,0.3669272365679024,0.0013249505839027895,-0.015276378595827648,0.019862544827362997,0.025092706591195977
54,1790995684.9880788,0.06960220025510201,0.319661790497449,0.2603728376116073,0.4181173772402993,0.002049244388904813,-0.012116414797957695,0.02381467253051626,0.026798237588642873
55,1790995685.0080788,0.06960220025510201,0.410672532684949,0.2795329938616073,0.5016324252273324,0.0027638873342885465,-0.008814040358935748,0.027384640565726308,0.028900604138315376
56,1790995685.032892,0.136662747130102,0.391512376434949,0.3370134626116073,0.5343563617440636,0.0039013784997501085,-0.0038386286253825584,0.03229677509803946,0.032757251191991986
57,1790995685.052892,0.218093411192602,0.46815300143494903,0.3370134626116073,0.6166928268916723,0.005212829314902574,0.0008596185275778177,0.03667321240943337,0.03705181563576447
58,1790995685.063047,0.34263442681760203,0.568743821747449,0.2939031110491073,0.726117706643258,0.0062058963097032845,0.0036770413543302737,0.039042542944145504,0.03970332406327825
59,1790995685.083047,0.347424465880102,0.6118541733099491,0.3274333844866073,0.7760682380855628,0.008903434187214877,0.010164462414829939,0.043940940620366215,0.045971661913738845
60,1790995685.1083748,0.242043606505102,0.554373704559949,0.38012381417410734,0.7144294407845954,0.012926915616308855,0.019363126355033504,0.050557831836892574,0.0556608495231583
61,1790995685.1283748,0.294734036192602,0.44899284518494903,0.3034831891741073,0.616899321793228,0.01643262350452738,0.02704227558676161,0.05602446825302572,0.064343273363936
62,1790995685.1536384,0.33305434869260203,0.46815300143494903,0.14541190011160732,0.5926525564187443,0.02138622055285272,0.0370251688649164,0.06274455685962499,0.07592834104944969
63,1790995685.1736383,0.318684231505102,0.492103196747449,0.0831413922991073,0.5921466767385342,0.02569713086744656,0.045183096947706905,0.0676093719749613,0.0852811934921952
64,1790995685.1982334,0.40011489556760205,0.501683274872449,0.0639812360491073,0.6448811026136445,0.0315291959345968,0.0555436580534248,0.07296589816796473,0.09697015232377319
65,1790995685.2182333,0.495915676817602,0.381932298309949,0.016080845424107298,0.626149528942835,0.0369043412266915,0.06403025973192819,0.07678840126872777,0.10657515250808426
66,1790995685.2282588,0.486335598692602,0.276551438934949,-0.12762032645089272,0.5738379219397363,0.039933172863915026,0.06814138891451947,0.0783332415403189,0.11123850011750903
67,1790995685.2482588,0.495915676817602,0.185540696747449,-0.31443184988839273,0.6158125501215658,0.04654246002751908,0.07580566213404764,0.08028970969578755,0.11982961436985616
68,1790995685.28801,0.548606106505102,-0.010850904815051004,-0.3575422014508927,0.6549220014996774,0.0608223939663297,0.08927465673771223,0.08159163308054476,0.13537548719093132
69,1790995685.3080099,0.630036770567602,-0.14018195950255102,-0.3479621233258927,0.7332632223879033,0.06869733057524663,0.0948082743307016,0.08109015974655673,0.14242031497455823
70,1790995685.3185291,0.7306275908801021,-0.173712232940051,-0.3958625139508927,0.8489403667983996,0.07329146176473866,0.09703453928387282,0.08027912974740847,0.14571231538427645
71,1790995685.338529,0.7354176299426021,-0.159342115752551,-0.4581330217633927,0.8809738168146376,0.08291501460508743,0.10013278223451734,0.07768744767359544,0.1514490450647503
72,1790995685.3486917,0.7497877471301021,-0.159342115752551,-0.4293927873883927,0.8786067046523756,0.08820354400310683,0.10122804677550902,0.07589160559694254,0.1542287859926756
73,1790995685.3686917,0.759367825255102,-0.212032545440051,-0.5251935686383927,0.9473254873049604,0.09931392717982712,0.10250314383914673,0.07145564280262412,0.159612216064827
74,1790995685.3932998,0.8360084502551021,-0.37489387356505105,-0.5970441545758928,1.093580023522645,0.11387812788813437,0.10275346260055573,0.06474509223252235,0.16648852529801542
75,1790995685.4132998,0.9318092315051021,-0.47548469387755105,-0.5587238420758928,1.1859706867094164,0.12659120653847367,0.1016508231237791,0.058375607039458634,0.17252806992438538
76,1790995685.4379978,0.960549465880102,-0.480274732940051,-0.3671222795758927,1.1349439914216854,0.14344101658071412,0.09872301672371282,0.049974777452613174,0.18116025405749847
77,1790995685.4579978,1.032400051817602,-0.24556281887755102,-0.33359200613839274,1.112400373771743,0.15802839236937508,0.0956190123052829,0.04314130129509549,0.18967640914600112
78,1790995685.4680338,0.960549465880102,-0.27909309231505103,-0.4677130998883927,1.1042208902152397,0.1657504383898113,0.09390015296061348,0.03962347649695687,0.1945776617244285
79,1790995685.4880338,0.9174391143176021,-0.39884406887755103,-0.6018341936383927,1.1674654240666151,0.18164780579269918,0.08997166934748263,0.03206030752701041,0.2052283848623318
80,1790995685.5133893,0.941389309630102,-0.5425452407525511,-0.6305744280133927,1.256261628727671,0.2023138917943905,0.08394807384257258,0.02156650537250805,0.2200983963341232
81,1790995685.5333893,0.9365992705676021,-0.504224928252551,-0.7215851702008927,1.28535836627491,0.21898672390710858,0.07833932045088424,0.012502558834602575,0.23291317771583303
82,1790995685.5582237,0.840798489317602,-0.513805006377551,-0.7599054827008928,1.2443448183105332,0.2398948222680305,0.0705233282825124,0.00017650646222286577,0.2500461892082824
83,1790995685.5782237,0.768947903380102,-0.451534498565051,-0.7742755998883928,1.1809601966576084,0.2566217407384091,0.0637250091517375,-0.01056236312168793,0.26462645016270514
84,1790995685.587944,0.821638333067602,-0.403634107940051,-0.7503254045758927,1.1836377216913314,0.26469144491616936,0.060293088013846134,-0.016110214270937416,0.27194917995447315
85,1790995685.607944,1.0036598174426021,-0.394054029815051,-0.6976349748883928,1.284253154853017,0.281542583643095,0.05309443244286587,-0.02798485047006207,0.287868714897418
86,1790995685.6330159,1.027610012755102,-0.37489387356505105,-0.6209943498883927,1.2578401080202748,0.3033179777889766,0.04397794719867726,-0.043117465581493736,0.3095076272533119
87,1790995685.6530159,0.883908840880102,-0.30783332669005103,-0.5204035295758928,1.070922980238129,0.320950067628794,0.03677242108309131,-0.055090236207498144,0.327713428148188
88,1790995685.6787648,0.8886988799426021,-0.24077277981505102,-0.5347736467633927,1.0647723155603364,0.3436686425760278,0.02782772883048645,-0.07023015375506307,0.35187326252270495
89,1790995685.6987648,0.883908840880102,-0.23598274075255102,-0.6209943498883927,1.105719980606482,0.36132680921946786,0.02120713149440367,-0.08195948049079554,0.37111206114765893
90,1790995685.7088208,0.879118801817602,-0.29825324856505103,-0.6449445452008927,1.130379730167349,0.3702032557454708,0.0179746910707628,-0.08792714722057819,0.3809261389061993
91,1790995685.7288208,0.9365992705676021,-0.36531379544005105,-0.5778839983258928,1.1595784916458654,0.38793271375724153,0.011514809641891773,-0.09984989740510455,0.4007422903262854
92,1790995685.7536926,0.907859036192602,-0.30783332669005103,-0.6976349748883928,1.1856069942460497,0.4101143300151545,0.0034306887244874313,-0.1148322201162122,0.4259013642684437
93,1790995685.7736926,0.8934889190051021,-0.274303053252551,-0.7982257952008928,1.2291171764859017,0.4279775648829848,-0.0029680411072459155,-0.1273164812797208,0.44652333837844715
94,1790995685.7987697,0.9174391143176021,-0.31741340481505104,-0.6449445452008927,1.1655038671838613,0.4504217692838461,-0.010900556499559448,-0.14333622169696145,0.4728042563547317
95,1790995685.8187697,1.065930325255102,-0.30783332669005103,-0.6736847795758928,1.298006162370476,0.4686119388384959,-0.017215945770369407,-0.1561740829176585,0.49425082922127117
96,1790995685.8434706,1.1234107940051021,-0.360523756377551,-0.7742755998883928,1.411216459506579,0.49176366681945793,-0.025083943799738977,-0.17233356292428392,0.5216891460922352
97,1790995685.8634706,1.113830715880102,-0.39884406887755103,-0.7790656389508928,1.4165587614747026,0.5110533306520814,-0.03163801766773003,-0.18578507501561564,0.5446949284058804
98,1790995685.8729472,1.142570950255102,-0.41800422512755103,-0.7790656389508928,1.4446934548149977,0.5204261434713316,-0.034858301283927896,-0.19231022714673499,0.5559151872741677
99,1790995685.8929472,1.147360989317602,-0.470694654815051,-0.7886457170758927,1.4696777758888087,0.5406747296046724,-0.04196814728379366,-0.20636712490887205,0.5802395012946584
100,1790995685.9184768,1.142570950255102,-0.609605787627551,-0.7359552873883928,1.4895360947995806,0.5670292307592854,-0.0517508761179635,-0.22453818640961956,0.612060208533903
101,1790995685.9384768,1.152151028380102,-0.633555982940051,-0.6736847795758928,1.4773951258714373,0.5880205743644981,-0.06012986248090021,-0.23875261755358035,0.6374845948151315
102,1790995685.9631445,1.209631497130102,-0.489854811065051,-0.6976349748883928,1.4798177769442822,0.6143969657745585,-0.07099262412898255,-0.2561917940067028,0.6694459048721382
103,1790995685.9831445,1.271902004942602,-0.413214186065051,-0.7646955217633927,1.5405323478419402,0.6362967780808236,-0.07983339137641118,-0.27040364518081816,0.6959634268420791
104,1790995685.9934554,1.228791653380102,-0.44674445950255104,-0.7503254045758927,1.507480597641246,0.6478273922315004,-0.08437255233405348,-0.27780305640370095,0.7099109774190471
105,1790995686.0134554,1.247951809630102,-0.480274732940051,-0.6257843889508927,1.4763650089711304,0.6705534996479635,-0.09324698036031807,-0.29206693143766466,0.7373195288854504
106,1790995686.0386648,1.291062161192602,-0.432374342315051,-0.5730939592633927,1.4772358518868531,0.6997028204822494,-0.10448060932587783,-0.30961599859075895,0.7722449749265284
107,1790995686.0586648,1.3245924346301021,-0.32699348294005104,-0.6688947405133927,1.5195032180456367,0.7232831509681777,-0.11319506068768079,-0.32331319801199915,0.8003018569560424
108,1790995686.0827973,1.271902004942602,-0.31741340481505104,-0.7072150530133927,1.4895096880994196,0.7521673787391563,-0.12329921492536589,-0.33985215314776057,0.8345405610512372
109,1790995686.1027973,1.2000514190051021,-0.394054029815051,-0.6401545061383928,1.4160507682985557,0.7762226213682907,-0.13148422416678238,-0.3535239704543936,0.8630115044508042
110,1790995686.1131282,1.171311184630102,-0.39884406887755103,-0.5826740373883927,1.3676825349345014,0.7886217962375855,-0.1356923219691253,-0.3604742480691132,0.8776550730573834
111,1790995686.1331282,1.180891262755102,-0.303043287627551,-0.6736847795758928,1.392907244169429,0.8125534937795731,-0.14366976528846917,-0.37379577740748327,0.9058738681069785
112,1790995686.1585548,1.137780911192602,-0.312623365752551,-0.7790656389508928,1.4139384853955577,0.8428365681765252,-0.15346452539712785,-0.3909618475221921,0.941687850313953
113,1790995686.1785548,1.1569410674426022,-0.41800422512755103,-0.6976349748883928,1.4141904836150045,0.866525603538367,-0.16110914277095192,-0.4046539562946581,0.9698286455951078
114,1790995686.203943,1.257531887755102,-0.42758430325255103,-0.6832648577008927,1.4936752159950641,0.8966835441896722,-0.17096779496631553,-0.42205715527352283,1.0056856405725274
115,1790995686.223943,1.300642239317602,-0.350943678252551,-0.7646955217633927,1.5490613096348136,0.9207145798517501,-0.17873694622297204,-0.43588228796696926,1.0342415590470238
116,1790995686.23375,1.2000514190051021,-0.40842414700255103,-0.7167951311383928,1.4562722795324459,0.9325701204669902,-0.18253368867255187,-0.4427343243565961,1.0483411940068539
117,1790995686.25375,1.2000514190051021,-0.441954420440051,-0.6209943498883927,1.421647319343292,0.9567210759301632,-0.19039066014403233,-0.4566185638164819,1.0770628270536848
118,1790995686.278724,1.348542629942602,-0.36531379544005105,-0.6736847795758928,1.551087546253771,0.9871282887272594,-0.20024202051635057,-0.4737801491571026,1.1130978191162737
119,1790995686.298724,1.310222317442602,-0.35573371731505105,-0.7599054827008928,1.5558551800853202,1.0118149519805704,-0.20802951863582275,-0.4876126098253396,1.1422836052994785
120,1790995686.3233876,1.0803004424426021,-0.42758430325255103,-0.7167951311383928,1.3651639617105915,1.042113634999055,-0.21764139729571483,-0.5048434675251883,1.1782340738455286
121,1790995686.3433876,1.1617311065051021,-0.379683912627551,-0.6497345842633927,1.384172701406027,1.0663607069278758,-0.22547749537980727,-0.5187700044633292,1.2070988260011493
122,1790995686.3685422,1.329382473692602,-0.370103834502551,-0.6066242327008927,1.5073909809251549,1.0969822719493894,-0.23526938682415627,-0.5360287022872924,1.2434020102218175
123,1790995686.3885422,1.334172512755102,-0.350943678252551,-0.6593146623883928,1.5290106550109497,1.1216722768731084,-0.24296851639347689,-0.5495913877207721,1.272490899818539
124,1790995686.3979511,1.2000514190051021,-0.31741340481505104,-0.6688947405133927,1.4100690946542023,1.1333336646846783,-0.24651889083120374,-0.5559521243643915,1.2861957563409738
125,1790995686.417951,1.262321926817602,-0.30783332669005103,-0.6209943498883927,1.4400874926680236,1.1580968821698894,-0.2538715356161055,-0.5693794617541659,1.3152308225384477
126,1790995686.4434457,1.3629127471301021,-0.32699348294005104,-0.6114142717633927,1.5291446321034996,1.1899480290354654,-0.263052124913741,-0.5862847370691905,1.3523692266342475
127,1790995686.4634457,1.2814820830676021,-0.312623365752551,-0.6257843889508927,1.4599780133592342,1.215153213148159,-0.27013323853926263,-0.5994131040486247,1.3816169394203346
128,1790995686.473216,1.228791653380102,-0.31741340481505104,-0.6784748186383928,1.439099814640836,1.2274589442310422,-0.2735352931642339,-0.6058202893241939,1.3958851096476665
129,1790995686.493216,1.262321926817602,-0.451534498565051,-0.6162043108258928,1.4754822272732766,1.252606952520835,-0.2806081146301447,-0.6189104802127603,1.4250667612491028
130,1790995686.5190454,1.3150123565051022,-0.47548469387755105,-0.6209943498883927,1.530025220205941,1.2852059101910416,-0.29016810308548097,-0.6356768967961345,1.462886487995078
131,1790995686.5390453,1.372492825255102,-0.350943678252551,-0.7167951311383928,1.5876691345194904,1.3106926981859164,-0.29769980631375087,-0.6487186688089986,1.4924397592594623
132,1790995686.5630727,1.291062161192602,-0.31741340481505104,-0.7024250139508927,1.503660092522079,1.341518731434763,-0.3065953184203096,-0.6645939542201245,1.528187920399035
133,1790995686.5830727,1.2383717315051022,-0.384473951690051,-0.6209943498883927,1.437713026828517,1.3671231123507341,-0.31394195850166695,-0.6778112656113209,1.5578874379816539
134,1790995686.608443,1.291062161192602,-0.403634107940051,-0.6209943498883927,1.488420632667117,1.3995437619335,-0.32336300313575556,-0.6944259441550712,1.5954666293218451
135,1790995686.628443,1.295852200255102,-0.384473951690051,-0.6162043108258928,1.4855170470629295,1.425148320124413,-0.33085794837432414,-0.7074147819384934,1.6251001169346426
136,1790995686.6384437,1.305432278380102,-0.341363600127551,-0.6018341936383927,1.477459622988419,1.4379821367352634,-0.33458794451670704,-0.7138490261841224,1.6399152875589789
137,1790995686.6584437,1.2766920440051022,-0.29825324856505103,-0.6305744280133927,1.454827029158432,1.463671247365285,-0.34188790880562886,-0.7266350702642845,1.6694967468939008
138,1790995686.6837656,1.262321926817602,-0.29825324856505103,-0.6641047014508927,1.4572050993917394,1.4961394269242958,-0.35087686964010234,-0.7428539967715242,1.7068625670994209
139,1790995686.7037656,1.2048414580676021,-0.360523756377551,-0.6066242327008927,1.3962855287121585,1.5216377906280323,-0.3578998034624021,-0.7556487195186983,1.7362254526691034
140,1790995686.728608,1.171311184630102,-0.31741340481505104,-0.5443537248883927,1.3300534344889021,1.5529860659751356,-0.3665777089566272,-0.7713018185937043,1.7723011688713555
141,1790995686.7486079,1.214421536192602,-0.23598274075255102,-0.6209943498883927,1.384247631059845,1.5780168211496943,-0.37334624112614384,-0.7837615217200712,1.8010570858591264
142,1790995686.758171,1.252741848692602,-0.27909309231505103,-0.6976349748883928,1.4608044536594431,1.5899597886522387,-0.3764666543694664,-0.7897713769389835,1.8147832099772438
143,1790995686.778171,1.2048414580676021,-0.33657356106505104,-0.7120050920758927,1.4394012478209388,1.6148765110262155,-0.3829371390221567,-0.8025692213174469,1.8435249803875102
144,1790995686.8036683,1.104250637755102,-0.379683912627551,-0.6353644670758928,1.3293672745006733,1.6462927209476237,-0.3913184548450481,-0.8190139355568048,1.8799451275991255
145,1790995686.8236682,1.1234107940051021,-0.34615363919005104,-0.5683039202008927,1.3056965572932298,1.6705806314382357,-0.39799536270406005,-0.8317837735289034,1.9081677601239606
146,1790995686.848944,1.224001614317602,-0.250352857940051,-0.5970441545758928,1.3846726067356463,1.7011210943751716,-0.4062986054682624,-0.8477104955305134,1.9435803607688118
147,1790995686.868944,1.2814820830676021,-0.24077277981505102,-0.6497345842633927,1.4568194434146846,1.7254202796329043,-0.4126199042089982,-0.8602926871684354,1.9716576361816522
148,1790995686.878266,1.209631497130102,-0.269513014190051,-0.5587238420758928,1.3594182415176965,1.7367891265702227,-0.4154811277376554,-0.866122565314949,1.9847491871333414
149,1790995686.898266,1.1952613799426022,-0.293463209502551,-0.5395636858258928,1.3438375619009368,1.7611287905800372,-0.4215433433749142,-0.8784014115182635,2.0126754450509114
150,1790995686.9237535,1.228791653380102,-0.350943678252551,-0.5730939592633927,1.400545279120324,1.7921276313047807,-0.42934185574614037,-0.8938289686256837,2.048166521827773
151,1790995686.9437535,1.257531887755102,-0.29825324856505103,-0.6497345842633927,1.4465463971087966,1.8165331849768565,-0.43551721900393364,-0.9059533132181681,2.0761068050324525
152,1790995686.9688234,1.300642239317602,-0.23598274075255102,-0.6593146623883928,1.4771776848675018,1.84734666499379,-0.44310140314719554,-0.9213328219991671,2.111369868835785
153,1790995686.9888234,1.291062161192602,-0.293463209502551,-0.6449445452008927,1.472723879679839,1.8721288993166119,-0.4490384215057392,-0.9337180841106257,2.139703619719332
154,1790995686.9983828,1.219211575255102,-0.293463209502551,-0.6018341936383927,1.3909715731099397,1.8839970433050206,-0.4518712807064877,-0.9396437849486088,2.153267971271093
155,1790995687.0183828,1.224001614317602,-0.341363600127551,-0.5683039202008927,1.3920051742216482,1.9087676198542158,-0.45786134624742086,-0.9519369836970191,2.1815624813242476
156,1790995687.0433455,1.257531887755102,-0.44674445950255104,-0.6257843889508927,1.4739651156902525,1.9396930031376285,-0.46569178767100045,-0.9672145848828273,2.2169307252901125
157,1790995687.0633454,1.1617311065051021,-0.537755201690051,-0.5874640764508927,1.4085147716252664,1.9643825879227887,-0.4725011949255159,-0.9794387530833256,2.2452965510109557
158,1790995687.0881636,1.089880520567602,-0.743726881377551,-0.5826740373883927,1.442386306452878,1.9946155816544522,-0.48206888305304635,-0.9945105372511509,2.2803361452405024
159,1790995687.1081636,1.089880520567602,-0.9017981704400511,-0.8557062639508928,1.6532733287289567,2.018594247191965,-0.4910908531159303,-1.006991991842734,2.308663213300291
160,1790995687.1333473,0.9557594268176021,-1.026339186065051,-1.0329377092633927,1.741783143224692,2.0481225437650536,-0.5043889529588815,-1.0239182091589223,2.3447009764984545
161,1790995687.1533473,0.9892897002551021,-1.2466809829400511,-0.7263752092633927,1.7494366318582788,2.070972888969652,-0.5167752261162962,-1.0379830457317942,2.373477226434142
162,1790995687.1644146,1.109040676817602,-1.433492506377551,-0.2904816545758927,1.8355521186612451,2.0834626092514053,-0.5248259793058407,-1.0454426925448645,2.3893951485885427
163,1790995687.1844146,1.0371900908801022,-1.380802076690051,-0.041399623325892705,1.7274523404201223,2.1058666954224012,-0.5414137174507574,-1.0573988496758207,2.4178287118050488
164,1790995687.209003,0.725837551817602,-1.136510084502551,-0.007869349888392703,1.348538931759937,2.1325303387585337,-0.5633902394996637,-1.069983960485228,2.4515219524582537
165,1790995687.229003,0.6539869658801021,-0.9017981704400511,-0.23300118582589271,1.1380810359312545,2.153034883920483,-0.5816419097205898,-1.0790464073522874,2.477540649866674
166,1790995687.2539752,1.0467701690051021,-0.767677076690051,-0.30485177176339273,1.333413095609021,2.177982131731252,-0.6041395490425884,-1.0896719120797191,2.50917827920486
167,1790995687.2739751,1.065930325255102,-0.748516920440051,-0.0653498186383927,1.3041302225159788,2.1981341766088773,-0.6217292485140876,-1.0974605936641268,2.5343166478322114
168,1790995687.283679,0.649196926817602,-0.552125318877551,0.0687712751116073,0.855002050182064,2.207693436954456,-0.629930100723123,-1.1006702731689462,2.5460159649158967
169,1790995687.303679,0.08876235650510202,-0.30783332669005103,0.0879314313616073,0.33222289140681377,2.225547012408775,-0.6455869126030858,-1.1060581794252928,2.567724023807777
170,1790995687.3286595,0.103132473692602,-0.04438117825255101,-0.13720040457589272,0.17728493204113144,2.2448612152419396,-0.6628692337409212,-1.1118706878003422,2.5913421084695476
171,1790995687.3486595,0.5917164580676021,-0.10186164700255101,-0.30485177176339273,0.6733786190735642,2.2590473615865063,-0.6748497174184068,-1.1164893455836413,2.6086903959252132
172,1790995687.3734336,0.7354176299426021,-0.250352857940051,-0.3862824358258927,0.8676000023840078,2.276449832249322,-0.6881183929011638,-1.122636492321546,2.62983715375855
173,1790995687.3934336,0.237253567442602,0.051419602997449,-0.29527169363839273,0.3822546322816003,2.2898504227364365,-0.6975217650215167,-1.1278769980635073,2.6461402256769606
174,1790995687.4030757,-0.23217026068239802,0.616644212372449,-0.24258126395089272,0.7021387214915464,2.2953455357082295,-0.7008920625969782,-1.1304134617890862,2.652865508521141
175,1790995687.4230757,-0.256120455994898,0.841776048309949,-0.23300118582589271,0.9102055570494065,2.3043015081685976,-0.704646590096922,-1.1355988620489246,2.6638162536049865
176,1790995687.4488475,0.7306275908801021,1.282459642059949,-0.41502267020089273,1.5332198886162656,2.3150281987532306,-0.7046530303329284,-1.1425310148848602,2.6760546657633575
177,1790995687.4688475,1.688635403380102,1.105228196747449,-0.5108234514508927,2.081816392236957,2.3257327759064625,-0.7010757501867518,-1.148492464059117,2.6869267002332013
178,1790995687.4939957,1.391652981505102,0.707654954559949,-0.2665314592633927,1.5838284548594135,2.342983568917888,-0.6938330622294179,-1.1563302242751283,2.703345318311004
179,1790995687.5139956,0.414485012755102,1.0573278061224491,-0.1180402483258927,1.141785188038077,2.357354194264086,-0.6862895818940405,-1.1622053548807263,2.7164008309423355
180,1790995687.5240476,0.16061294244260202,1.440530931122449,-0.37191231863839275,1.4964105898968925,2.363927018902123,-0.6811838102999963,-1.165084637239606,2.7220552062811003
181,1790995687.5440476,1.3150123565051022,1.1770787826849491,-0.8125959123883928,1.9429575587846761,2.377256480745869,-0.6686224680787418,-1.1717308686813672,2.7333784239817094
182,1790995687.5686398,1.7125855986926022,0.559163743622449,-0.8173859514508928,1.978315778297401,2.396772143947994,-0.6522914103720305,-1.18168365434048,2.7507048284004716
183,1790995687.5886397,1.310222317442602,0.602274095184949,-0.8125959123883928,1.655212591689006,2.4147970713916576,-0.639259978410529,-1.1910087519156471,2.7673814451822185
184,1790995687.6136618,0.9940797393176021,0.923206712372449,-0.7551154436383928,1.552644355643785,2.438289824893627,-0.622539070823904,-1.2038674573825345,2.789643170698857
185,1790995687.6336617,1.7509059111926022,0.9279967514349491,-0.8461261858258927,2.1547108861430315,2.458368291841194,-0.6084020725094252,-1.215005530606894,2.808908360835094
186,1790995687.6439342,2.2442799346301023,0.5926940170599491,-0.8461261858258927,2.4706290990721835,2.4702122267368116,-0.6010585189615121,-1.2211719856021082,2.8203689132373513
187,1790995687.6639342,1.8035963408801021,0.5926940170599491,-0.6641047014508927,2.011288396323096,2.495884584824699,-0.5871275784430623,-1.2336422073934081,2.845352658282705
188,1790995687.6888738,1.4060230986926021,0.9519469467474491,-0.7311652483258927,1.8487040227787686,2.5290990033345655,-0.5694725407654461,-1.249469590224559,2.87781427480122
189,1790995687.7088737,1.889817044005102,0.8274059311224491,-0.9083966936383927,2.2541503028152214,2.556683298435141,-0.5547689941187741,-1.2627176335257155,2.904970558774999
190,1790995687.7339468,2.402351223692602,0.132850267059949,-0.9946173967633928,2.6034984849966074,2.5941486122933903,-0.5372950694782241,-1.2804134017860058,2.942405732359585
191,1790995687.7539468,2.2969703643176023,0.223861009247449,-1.0952082170758928,2.5545386363813685,2.626599750485456,-0.5249123651367484,-1.2955461891536522,2.975398993169532
192,1790995687.7636118,1.741325833067602,0.6118541733099491,-0.9802472795758927,2.0898482996192134,2.642856754594828,-0.5192202133718757,-1.303266632328822,2.9921205474083346
193,1790995687.7836118,1.9185572783801021,0.420252610809949,-0.9706672014508928,2.1908147122224535,2.676941344111624,-0.5076600149438347,-1.3197726433672936,3.027463208821474
194,1790995687.8084123,2.387981106505102,0.089739915497449,-1.1383185686383928,2.646937132076578,2.720877652034066,-0.49452668264093846,-1.3410931725075521,3.0734773034022287
195,1790995687.8284123,2.4837818877551023,0.022679368622448997,-1.1670588030133928,2.7443966676470923,2.7583022366864873,-0.4853555706603918,-1.3591657825349315,3.1130584452102
196,1790995687.853942,2.440671536192602,-0.116231764190051,-1.0712580217633927,2.667954482329094,2.8083372437550667,-0.47558394913018553,-1.3830604992434836,3.166353503937882
197,1790995687.873942,2.249069973692602,-0.212032545440051,-1.1431086077008927,2.531792020662697,2.848689783850259,-0.46956949590969493,-1.402293357994728,3.2096659729600914
198,1790995687.8832114,2.0909986846301023,-0.23119270169005102,-1.2963898577008928,2.471103443320272,2.867604054384988,-0.4675082183327265,-1.411566167803975,3.230206803445046
199,1790995687.9032114,2.277810208067602,-0.312623365752551,-1.3682404436383928,2.6754877357968234,2.908845553955301,-0.4645436108553087,-1.4325692074690901,3.2755820486351164
200,1790995687.9279304,2.402351223692602,-0.628765943877551,-1.2963898577008928,2.8012969634273537,2.9608488299530795,-0.4631743824486017,-1.459574153936205,3.3333936181059913
201,1790995687.9479303,2.2107496611926023,-0.667086256377551,-1.3011798967633927,2.6505635743464473,3.003532658255588,-0.464176500217929,-1.4820426014042847,3.3812894766552635
202,1790995687.9739096,2.038308254942602,-0.49464485012755105,-1.2436994280133928,2.4384754124587156,3.058939807002198,-0.46754652933207674,-1.5118090342817263,3.444020768823696
203,1790995687.9939096,2.225119778380102,-0.509014967315051,-1.2149591936383928,2.5858035709031553,3.101591552578357,-0.4712572534590375,-1.5349751900374353,3.492578186954966
204,1790995688.0185964,2.2873902861926023,-0.5617053970025511,-1.1862189592633927,2.63719219885582,3.15469632378141,-0.47713296074821604,-1.5637267099235337,3.553168442508824
205,1790995688.0385964,2.182009426817602,-0.556915357940051,-1.1478986467633927,2.527645378187297,3.197969747981585,-0.4828570556247381,-1.5870269297523656,3.602612374504259
206,1790995688.048643,2.119738919005102,-0.547335279815051,-1.2580695452008928,2.524996628480347,3.2196882802756708,-0.4861332214780802,-1.5987887048315361,3.627512019810005
207,1790995688.068643,2.273020169005102,-0.8203675063775511,-1.5071515764508927,2.8480044607799537,3.2630271855186987,-0.4937283504695828,-1.6228385479039185,3.6775969123946135
208,1790995688.1085012,2.2442799346301023,-1.112559889190051,-1.6269025530133927,2.986870243083782,3.3499458593900684,-0.5123724900167881,-1.6729470931237689,3.779340525245368
209,1790995688.1285012,2.119738919005102,-1.332901686065051,-1.3921906389508927,2.864980761653116,3.3935637926052227,-0.5239926396568056,-1.6988476554169256,3.831047749273198
210,1790995688.1382573,2.110158840880102,-1.179620436065051,-1.0377277483258927,2.630808542363409,3.4147443212987794,-0.5306491795509609,-1.7113649003213511,3.856272442871779
211,1790995688.1582572,2.392771145567602,-0.6383460220025511,-1.2101691545758928,2.756328859471291,3.4584057810854807,-0.544975147403006,-1.7365480417060228,3.908090014199446
212,1790995688.1840005,2.464621731505102,-0.394054029815051,-1.3921906389508927,2.857942202530202,3.5155536835481236,-0.56264233091312,-1.7691251288654821,3.975611627916821
213,1790995688.2040005,2.455041653380102,-0.647926100127551,-1.1383185686383928,2.7825899652598407,3.560671746295703,-0.5758721202013083,-1.794433714279816,4.028647954169947
214,1790995688.2141693,2.507732083067602,-0.7772571548150511,-1.1622687639508928,2.8711874833966693,3.5839555065330178,-0.5826766207263832,-1.8071259917772409,4.055854221653724
215,1790995688.2341692,2.550842434630102,-0.714986647002551,-1.5215216936383928,3.05500103042762,3.6304686918879034,-0.5962906139722757,-1.8323703726379752,4.110163816882623
216,1790995688.257945,2.1676393096301023,-0.6766663345025511,-1.5167316545758929,2.7307530860360316,3.685882947962019,-0.6125287648922976,-1.8632969129216101,4.175260468473898
217,1790995688.277945,2.158059231505102,-0.571285475127551,-1.5311017717633928,2.7070019165625103,3.731993324491231,-0.6260111568009504,-1.8899814931976944,4.229857466524867
218,1790995688.2883906,2.3736109893176023,-0.528175123565051,-1.5358918108258928,2.8761018313551214,3.756013681446852,-0.6328578446138677,-1.9042305406959492,4.258431845036907
219,1790995688.3083906,2.440671536192602,-0.509014967315051,-1.2724396623883927,2.7991206617347855,3.8023277194119203,-0.6455564673469381,-1.9316330562264283,4.313426190657302
