imu_index,t_imu,ax,ay,az,mag,vx,vy,vz,velocity
0,1791353547.3270442,-0.03166215820312507,-0.018154248046874964,0.0009101074218752615,0.03650886576910513,0.0,0.0,0.0,0.0
1,1791353547.3470442,-0.012502001953125065,-0.013364208984374962,-0.02783012695312474,0.033307928498197414,-0.00010661539026690325,-7.042428464474491e-05,-3.9219604931217665e-05,0.000133658515330857
2,1791353547.3878481,0.006658154296874935,-0.027734326171874962,-0.032620166015624744,0.043331271591494545,-0.0003093882541926356,-0.0003183253789255622,-0.0002922286012656707,0.0005314599647180962
3,1791353547.4078481,0.040188427734374935,-0.042104443359374966,-0.00866997070312474,0.05884778896744492,-0.000323598966284153,-0.0005263655613241855,-0.00045957396187212883,0.0007700553366863593
4,1791353547.4173942,0.035398388671874934,-0.018154248046874964,0.034440380859375265,0.05261903150430849,-0.0002752477373831681,-0.0006539113484642345,-0.0005090167658797932,0.0008731892329452943
5,1791353547.4373941,0.025818310546874935,0.001005908203125038,0.039230419921875266,0.04697470444882709,-9.731691660302367e-05,-0.0009067726237542994,-0.0004865604515189272,0.0010336577027380382
6,1791353547.448173,0.021028271484374937,0.010585986328125038,0.015280224609375262,0.028066645190916277,2.2065489007806958e-05,-0.0010132382549625468,-0.0004322057521660759,0.0011017896620181841
7,1791353547.468173,0.035398388671874934,-0.003784130859374962,0.010490185546875261,0.03711346871061594,0.0002949897516643077,-0.0011709481014542695,-0.00030782448117488455,0.001246151804996853
8,1791353547.5233347,0.021028271484374937,-0.003784130859374962,0.02007026367187526,0.02931421723055292,0.0011682709474552775,-0.0015719900112186153,0.00011020438221220154,0.001961671381220088
9,1791353547.5433347,0.016238232421874936,-0.008574169921874963,0.02007026367187526,0.027203162792120542,0.0014933023528618942,-0.0017141223332909625,0.0002992451196918727,0.002292970765668225
10,1791353547.5973063,0.040188427734374935,-0.022944287109374965,-0.02783012695312474,0.05400061111640818,0.002467264330097936,-0.002167726789654572,0.0007014544067324212,0.0033583434895620885
11,1791353547.6173062,0.021028271484374937,-0.027734326171874962,-0.06136040039062474,0.07054416904270902,0.002865868404849232,-0.002386621234167836,0.0006943568598858265,0.003793585912848738
12,1791353547.598308,-0.007711962890625066,-0.08042475585937496,0.0009101074218752615,0.08079878725690008,0.002865868404849232,-0.002386621234167836,0.0006943568598858265,0.003793585912848738
13,1791353547.618308,-0.022082080078125066,-0.018154248046874964,0.039230419921875266,0.048540919129852284,0.003126147104289907,-0.002830543533245105,0.0006723655658517592,0.004270462254299762
14,1791353547.6124992,0.021028271484374937,0.0057959472656250385,0.029650341796875264,0.036809291965453655,0.003126147104289907,-0.002830543533245105,0.0006723655658517592,0.004270462254299762
15,1791353547.6324992,0.021028271484374937,0.010585986328125038,0.005700146484375262,0.02422277808392675,0.0033759396142508833,-0.003142461335841557,0.0007973254252016371,0.00468057254617429
16,1791353547.658085,0.016238232421874936,0.001005908203125038,-0.01346000976562474,0.021115489726517306,0.0037190765775649247,-0.0034593970065720063,0.0009183162199639268,0.005161614371368731
17,1791353547.678085,0.0018681152343749347,-0.008574169921874963,0.005700146484375262,0.01046412511017642,0.003974225908761599,-0.003681330349267226,0.0009870661182748073,0.005506447515063955
18,1791353547.6874177,0.05455854492187494,-0.05168452148437497,0.0009101074218752615,0.07515818571905801,0.004114923703690176,-0.0038115356386106162,0.0010189618030704937,0.005700761718201067
19,1791353547.7074177,0.06892866210937494,-0.07084467773437497,0.005700146484375262,0.09900818397192811,0.004556443652464862,-0.004232505860528943,0.0010869770416962684,0.006313224509446338
20,1791353547.7629054,0.040188427734374935,-0.06126459960937496,-0.00866997070312474,0.07378095473122548,0.006051746433773723,-0.0057750313827130235,0.0012350132507429488,0.00845576017277713
21,1791353547.7829053,-0.007711962890625066,-0.008574169921874963,0.010490185546875261,0.01558957197242548,0.006558583404442622,-0.0063523795904177486,0.0012830980580440655,0.009220308203110273
22,1791353547.77743,0.011448193359374935,0.02016606445312504,0.0009101074218752615,0.023206886526214197,0.006558583404442622,-0.0063523795904177486,0.0012830980580440655,0.009220308203110273
23,1791353547.79743,0.05455854492187494,-0.027734326171874962,-0.01346000976562474,0.06266577642613956,0.007028546818054024,-0.006766086400803695,0.001313549855429422,0.009844074805659325
24,1791353547.8081431,0.025818310546874935,-0.06126459960937496,-0.02304008789062474,0.07036179343080741,0.0073071059446314,-0.007025959173626994,0.0012980875872106842,0.01021973243189915
25,1791353547.8281431,-0.046032275390625065,-0.042104443359374966,-0.0038799316406247387,0.06250446702258233,0.0077188139856059655,-0.00759338928286757,0.001233171439904146,0.010897722787158315
26,1791353547.8530521,-0.050822314453125066,-0.008574169921874963,0.039230419921875266,0.0647722925599224,0.00797372078981732,-0.008288766872771679,0.0012304899274006734,0.011567107891195475
27,1791353547.8730521,0.025818310546874935,-0.008574169921874963,0.015280224609375262,0.031202352691055465,0.008110184395048662,-0.00878907278224443,0.00131042572936518,0.01203079826468148
28,1791353547.897991,0.07850874023437494,-0.027734326171874962,-0.01825004882812474,0.08524012801272327,0.008449956827666442,-0.009387259317997143,0.0013895949669950746,0.012706430736640757
29,1791353547.917991,0.021028271484374937,-0.003784130859374962,-0.02304008789062474,0.031422181623642284,0.008830874020526581,-0.009842301266421334,0.0013816269156345276,0.01329526694427066
30,1791353547.9431937,-0.046032275390625065,0.03453618164062504,0.039230419921875266,0.06964728327220854,0.009191618535023231,-0.010271577142201106,0.0014036952610325213,0.013855017454605245
31,1791353547.9631937,0.035398388671874934,0.015376025390625039,0.04402045898437526,0.05854288075055185,0.009419000317421222,-0.010486267883437088,0.0015434571968460215,0.014179620630372343
32,1791353547.9729345,0.09287885742187493,-0.008574169921874963,0.010490185546875261,0.09386182684483628,0.009606847620175593,-0.01057017759032899,0.0016411400492377997,0.014377535120791008
33,1791353547.9929345,0.05934858398437494,-0.018154248046874964,-0.01346000976562474,0.06350592890422581,0.010163025235097184,-0.010756711882137759,0.0018071643212792543,0.014908379366270853
34,1791353548.0332904,-0.007711962890625066,-0.042104443359374966,-0.00866997070312474,0.043674098894221434,0.011273229439521493,-0.011259026742520994,0.0020249365632316945,0.016060876478885253
35,1791353548.0532904,-0.03166215820312507,-0.04689448242187497,0.0009101074218752615,0.056589866930525756,0.011681843270094618,-0.011604125787983052,0.0021050336177713016,0.01659976999907937
36,1791353548.0468087,-0.022082080078125066,-0.042104443359374966,-0.01825004882812474,0.0509260904979803,0.011681843270094618,-0.011604125787983052,0.0021050336177713016,0.01659976999907937
37,1791353548.0668087,0.006658154296874935,-0.05168452148437497,-0.03741020507812474,0.06414938989341334,0.011885407057616822,-0.01210761668358303,0.0020573050342306944,0.017090634472883004
38,1791353548.0930316,0.016238232421874936,-0.07084467773437497,-0.02783012695312474,0.07782778759351518,0.012157304853197283,-0.012909726027662523,0.0018758031448317643,0.0178319860038371
39,1791353548.1130316,-0.03166215820312507,-0.018154248046874964,0.04881049804687526,0.06094697452549386,0.012310436688300196,-0.013563221041107791,0.0017896084258397838,0.018404089621180217
40,1791353548.1682243,-0.026872119140625067,0.02016606445312504,0.039230419921875266,0.051650815965308905,0.01242733696517037,-0.015087791487006558,0.0019518633885316757,0.01964408121263929
41,1791353548.1882243,0.044978466796874936,0.010585986328125038,-0.00866997070312474,0.04701376366480217,0.012490503079175841,-0.01551124853856832,0.002047680397529167,0.02002010223267015
42,1791353548.212292,0.05934858398437494,-0.013364208984374962,-0.00866997070312474,0.06144936854615754,0.012743432106442854,-0.015949407356475164,0.002114389426121103,0.02052435868716963
43,1791353548.232292,0.0018681152343749347,-0.027734326171874962,0.04881049804687526,0.056170698965927655,0.013013911447959948,-0.016320545050679567,0.002221719544507201,0.02099185841370529
44,1791353548.213293,-0.012502001953125065,0.001005908203125038,0.058390576171875264,0.059722452141825394,0.013013911447959948,-0.016320545050679567,0.002221719544507201,0.02099185841370529
45,1791353548.233293,0.04976850585937494,-0.003784130859374962,0.015280224609375262,0.052198746018927204,0.013251674282118969,-0.016626938065162487,0.0025464528901055017,0.02141369568812561
46,1791353548.2578752,0.08329877929687494,-0.05168452148437497,-0.01825004882812474,0.0997147966735491,0.013745406138342246,-0.017049305193326234,0.002880240193197109,0.022088702566100744
47,1791353548.2778752,0.025818310546874935,-0.06605463867187497,-0.0038799316406247387,0.07102713790589309,0.014250525891467596,-0.01751800518238932,0.003077878574078155,0.022791036182463857
48,1791353548.31807,-0.012502001953125065,-0.03252436523437496,-0.0038799316406247387,0.03505978117830861,0.015153554531091556,-0.01861585217530719,0.003392107038071577,0.024242247364825515
49,1791353548.33807,0.0018681152343749347,-0.027734326171874962,0.0009101074218752615,0.02781206569559702,0.015519531015123662,-0.01917056397842873,0.0035205522199302703,0.02491506881615362
50,1791353548.333095,0.030608349609374936,-0.06126459960937496,-0.0038799316406247387,0.06859501512969196,0.015519531015123662,-0.01917056397842873,0.0035205522199302703,0.02491506881615362
51,1791353548.353095,-0.0029219238281250654,-0.013364208984374962,0.005700146484375262,0.014819965943913271,0.0158668860770895,-0.019796759884471504,0.003612297661217171,0.02562651888376554
52,1791353548.408016,-0.017292041015625065,0.010585986328125038,0.010490185546875261,0.022828091944645315,0.016594399057299706,-0.021269833097528345,0.0038931335399807147,0.02725685911527123
53,1791353548.428016,0.011448193359374935,0.02495610351562504,0.0009101074218752615,0.027471740559993303,0.016810824545848424,-0.021672488786230574,0.003997162698108833,0.02771782642516802
54,1791353548.4525676,0.025818310546874935,0.015376025390625039,-0.0038799316406247387,0.030299524515146115,0.017105274204594213,-0.022018371497420933,0.004100242879291609,0.028181750844863705
55,1791353548.4725676,0.025818310546874935,-0.027734326171874962,0.0009101074218752615,0.03790258966379704,0.01738661122501134,-0.022276404250687245,0.004167162691691624,0.028563922719555757
56,1791353548.4681995,0.006658154296874935,-0.08042475585937496,0.0009101074218752615,0.08070502257728705,0.01738661122501134,-0.022276404250687245,0.004167162691691624,0.028563922719555757
57,1791353548.4881995,0.011448193359374935,-0.027734326171874962,0.0009101074218752615,0.030018032495833853,0.017658444171032267,-0.02276297408132168,0.004220563347524943,0.02911677857419768
58,1791353548.5130296,0.05934858398437494,0.010585986328125038,0.010490185546875261,0.06119118825695025,0.01807714599083768,-0.023308376305584137,0.004298146295512926,0.029808349077974885
59,1791353548.5330296,0.06413862304687494,0.03453618164062504,0.015280224609375262,0.07443114988213148,0.018549041733263827,-0.023614103933261688,0.004389919207395151,0.030347392712401257
60,1791353548.542304,0.035398388671874934,0.0057959472656250385,0.005700146484375262,0.03631983748882098,0.018804283511608053,-0.023706556863808338,0.004440686615749508,0.030583028207507666
61,1791353548.562304,0.030608349609374936,-0.013364208984374962,0.015280224609375262,0.036728169185255184,0.019371147767420317,-0.023887374041242776,0.00456521301884615,0.031091625469262855
62,1791353548.5729737,0.044978466796874936,0.001005908203125038,0.0009101074218752615,0.04499891801177055,0.019688686448159378,-0.023979257406757295,0.00463463709824904,0.03137083073279899
63,1791353548.5929737,0.044978466796874936,0.001005908203125038,-0.00866997070312474,0.045817493588188964,0.02032955424369927,-0.024122636914191434,0.004733610294318519,0.03189983469957016
64,1791353548.6185725,0.044978466796874936,-0.022944287109374965,-0.0038799316406247387,0.05064145195283141,0.02119949439314312,-0.024320746092376673,0.0048171933875154685,0.03262089215744236
65,1791353548.6385725,0.05455854492187494,-0.022944287109374965,0.0009101074218752615,0.05919377864665364,0.02192652173156025,-0.024521141988611665,0.004868245679367493,0.0332529483755188
66,1791353548.6631925,0.06892866210937494,0.001005908203125038,-0.00866997070312474,0.06947906665676026,0.022915268895472,-0.024771336221890237,0.00490733579749702,0.03410000867154015
67,1791353548.6831925,0.016238232421874936,0.02016606445312504,-0.01346000976562474,0.029180853493431903,0.02372574240625549,-0.02491233573465222,0.0049011323230660694,0.03474991255431045
68,1791353548.6931462,0.006658154296874935,0.0057959472656250385,-0.0038799316406247387,0.00964250449223756,0.024085693295768623,-0.024952601927690395,0.004885563249430587,0.03502315937724349
69,1791353548.7131462,0.044978466796874936,-0.013364208984374962,0.010490185546875261,0.048080230344534534,0.02477790813030943,-0.025032724924039275,0.004868888206348826,0.0355568294537434
70,1791353548.7682245,0.08329877929687494,-0.013364208984374962,-0.0038799316406247387,0.0844531975928884,0.02692816107024003,-0.02533069075008835,0.004857160888427332,0.037287555087421195
71,1791353548.7882245,0.044978466796874936,-0.013364208984374962,-0.03741020507812474,0.06000989919307463,0.02778425530662709,-0.025462750904078374,0.004791606089481482,0.037990472693344254
72,1791353548.7977748,-0.017292041015625065,-0.018154248046874964,-0.01825004882812474,0.03101057379124837,0.028151566096898464,-0.025538928621385223,0.004725130035183887,0.038302407270113574
73,1791353548.8177748,0.0018681152343749347,-0.008574169921874963,0.024860302734375263,0.026363628286388715,0.028782258475286548,-0.02571462066575129,0.004616715308297611,0.03887125131970358
74,1791353548.8577745,0.08808881835937495,0.001005908203125038,0.0009101074218752615,0.08809926257797746,0.03012429806272409,-0.0260359999890936,0.0045097220670637815,0.04007098978470692
75,1791353548.8777745,0.06413862304687494,-0.003784130859374962,-0.01346000976562474,0.06564491203132734,0.03092300923140602,-0.026176754345647073,0.004445424832939684,0.04075802706146719
76,1791353548.8728018,0.016238232421874936,0.0057959472656250385,-0.01346000976562474,0.021873387021297135,0.03092300923140602,-0.026176754345647073,0.004445424832939684,0.04075802706146719
77,1791353548.8928018,0.0018681152343749347,-0.042104443359374966,0.005700146484375262,0.04252958587942109,0.0316297179393514,-0.02633034699698613,0.004353007305294367,0.04138447658850563
78,1791353548.9482176,0.05934858398437494,-0.03252436523437496,0.005700146484375262,0.06791598062895625,0.03354857004234706,-0.027002256345548935,0.0041827294858617714,0.043268043930699045
79,1791353548.9682176,0.07850874023437494,-0.022944287109374965,-0.00866997070312474,0.08225102428626062,0.034344004090027636,-0.027291581575521754,0.004126038449731418,0.04406092639877032
80,1791353548.9482176,0.040188427734374935,0.02016606445312504,0.010490185546875261,0.04617167824648072,0.034344004090027636,-0.027291581575521754,0.004126038449731418,0.04406092639877032
81,1791353548.9682176,0.030608349609374936,-0.008574169921874963,0.0009101074218752615,0.03179961872693226,0.035176238999049016,-0.02748677345947116,0.004104500370984633,0.04483009512175853
82,1791353548.9931726,0.07371870117187494,-0.022944287109374965,-0.00866997070312474,0.07769205625685723,0.03625416037847977,-0.027752782826411724,0.004067133726699688,0.045838004713440184
83,1791353549.0131726,0.06892866210937494,-0.03252436523437496,0.005700146484375262,0.07642961771480174,0.037202437804002106,-0.028017197856122708,0.004037223916477274,0.04674702055983406
84,1791353549.0224156,0.05934858398437494,0.001005908203125038,0.005700146484375262,0.059630176439508,0.03766387317639545,-0.02814291698871204,0.004033377472615168,0.04718960958852846
85,1791353549.0424156,0.044978466796874936,-0.027734326171874962,-0.06615043945312474,0.08466484490889387,0.03866904737605894,-0.0284142354307865,0.003935627641424332,0.04814720308616064
86,1791353549.0978127,0.016238232421874936,-0.06126459960937496,-0.05178032226562474,0.08184273413942017,0.04128994733185789,-0.0294227918439899,0.0032155116890299957,0.05080255845904461
87,1791353549.1178126,0.016238232421874936,-0.04689448242187497,0.039230419921875266,0.06325977016279018,0.042142951558990824,-0.02989453140886697,0.0029757010226364776,0.05175486615609493
88,1791353549.0988126,0.0018681152343749347,0.02495610351562504,0.07276069335937527,0.07694423601120835,0.042142951558990824,-0.02989453140886697,0.0029757010226364776,0.05175486615609493
89,1791353549.1188126,0.025818310546874935,0.04411625976562504,0.039230419921875266,0.06443489258507108,0.042823862283406074,-0.03015972620480742,0.003113212859144172,0.05247079530484951
90,1791353549.1580808,0.08808881835937495,0.02016606445312504,-0.02783012695312474,0.09455594133477592,0.044295705917953246,-0.030412991342985893,0.0033762819195393297,0.053837337274409675
91,1791353549.1780808,0.08329877929687494,-0.013364208984374962,-0.00866997070312474,0.08480835516693253,0.04518997651850755,-0.030512431924364078,0.0034354194868187176,0.05463464639523743
92,1791353549.2028875,0.04976850585937494,-0.05647456054687496,0.024860302734375263,0.07927367038608765,0.04638036710956779,-0.0307472062768228,0.0035278896761091597,0.055758184624452825
93,1791353549.2228875,0.025818310546874935,-0.042104443359374966,0.0009101074218752615,0.0493983563048108,0.047309518361722924,-0.031055964807942475,0.0036299148004914827,0.056708374683367424
94,1791353549.232024,0.06892866210937494,-0.06126459960937496,-0.06615043945312474,0.11349181585174735,0.047735230605465646,-0.03124668730391606,0.0036248262339066903,0.05716771006128994
95,1791353549.252024,0.09766889648437493,-0.07084467773437497,-0.05657036132812474,0.13326059989568403,0.04877724075964922,-0.03179972447377696,0.003431277016642702,0.05832851236486196
96,1791353549.2780917,0.044978466796874936,-0.013364208984374962,0.010490185546875261,0.048080230344534534,0.05021054971158112,-0.032577058263562345,0.003126757328285257,0.05993446953829391
97,1791353549.2980917,0.006658154296874935,0.04890629882812504,0.029650341796875264,0.057578640591615105,0.0512227321204863,-0.03303068076303848,0.0029883765843155604,0.06102232830830486
98,1791353549.3219876,0.040188427734374935,0.001005908203125038,0.005700146484375262,0.0406031186612251,0.05233464277544587,-0.033401918155592306,0.0029111949474878067,0.06215366462992101
99,1791353549.3419876,0.07850874023437494,-0.06126459960937496,-0.02304008789062474,0.10221457385565574,0.05330371948316278,-0.03375641035909758,0.0028302768022400193,0.06315688575166445
100,1791353549.39739,0.05934858398437494,-0.04689448242187497,-0.0038799316406247387,0.07573903070479492,0.056158327370158356,-0.03504051685411548,0.002527889728109804,0.06624187331963756
101,1791353549.4173899,0.025818310546874935,0.001005908203125038,0.015280224609375262,0.030018032495833985,0.057162003432201874,-0.03550337296490749,0.0024522037991437976,0.06733496440736356
102,1791353549.3983924,0.04976850585937494,0.02016606445312504,-0.00866997070312474,0.05439432620223613,0.057162003432201874,-0.03550337296490749,0.0024522037991437976,0.06733496440736356
103,1791353549.4183924,0.06413862304687494,0.02016606445312504,-0.02783012695312474,0.07276640081867283,0.05815439301645157,-0.035750294129897935,0.002351198686888124,0.06830479553260775
104,1791353549.44193,0.07371870117187494,-0.027734326171874962,-0.02783012695312474,0.08353535608892312,0.05939049307085149,-0.03601066225884303,0.002151899865913517,0.06948833813347559
105,1791353549.46193,0.04976850585937494,-0.04689448242187497,-0.00866997070312474,0.06892869539664317,0.0604684931001223,-0.03631065543117078,0.0019532068219869966,0.07056002673277702
106,1791353549.487829,0.016238232421874936,-0.027734326171874962,0.02007026367187526,0.03789048065482114,0.061783266707097044,-0.03678582012263442,0.0017566484092134587,0.07192672952893586
107,1791353549.507829,0.04976850585937494,0.0057959472656250385,-0.01346000976562474,0.051881297623240466,0.06274529025229239,-0.03713062436683076,0.0016375434160530236,0.0729269241306293
108,1791353549.5170693,0.06892866210937494,-0.008574169921874963,-0.032620166015624744,0.07673820483256358,0.06320535375737744,-0.03726796021056716,0.0015588339664277047,0.07339105916381458
109,1791353549.5370693,0.035398388671874934,-0.03252436523437496,0.005700146484375262,0.0484083869221799,0.06420824494054406,-0.03758227125145004,0.0013736484499912072,0.07441110630024682
110,1791353549.5467172,0.006658154296874935,-0.008574169921874963,0.024860302734375263,0.027127146192236398,0.06464989590843437,-0.03774088784539524,0.001319829307299607,0.07487139377446174
111,1791353549.5667171,0.025818310546874935,-0.013364208984374962,0.02007026367187526,0.03532708203533824,0.06547682148022706,-0.03805328569176048,0.0012923930926043172,0.07574257048053015
112,1791353549.683013,0.07850874023437494,-0.027734326171874962,-0.01346000976562474,0.0843444544963522,0.07047392460286973,-0.03995580512069115,0.0012144433581988017,0.08102169638093176
113,1791353549.703013,0.08808881835937495,-0.03252436523437496,-0.02304008789062474,0.09668671006843538,0.07145429129095207,-0.04032430109794974,0.001148298664503721,0.08205536906719292
114,1791353549.6974423,0.05934858398437494,0.001005908203125038,0.010490185546875261,0.0602769463814433,0.07145429129095207,-0.04032430109794974,0.001148298664503721,0.08205536906719292
115,1791353549.7174423,0.044978466796874936,0.001005908203125038,0.024860302734375263,0.051401449189254204,0.0725070791587364,-0.04062770771417808,0.0011375336949332037,0.0831214842573631
116,1791353549.6984427,0.05455854492187494,0.015376025390625039,0.015280224609375262,0.05870725887757279,0.0725070791587364,-0.04062770771417808,0.0011375336949332037,0.0831214842573631
117,1791353549.7184427,0.07850874023437494,-0.03252436523437496,-0.0038799316406247387,0.08506768185758622,0.07359422869950158,-0.04085175453422511,0.0011980355511184006,0.08418082700699055
118,1791353549.7719169,0.04976850585937494,-0.042104443359374966,-0.0038799316406247387,0.06530499364989918,0.07657940881986698,-0.04166023931361638,0.0013044139772151243,0.0871876303766312
119,1791353549.7919168,0.030608349609374936,-0.037314404296874965,-0.00866997070312474,0.04903472469417367,0.0776489928640857,-0.042036392939188434,0.0013194079164979785,0.08830722089045041
120,1791353549.7729173,0.021028271484374937,-0.042104443359374966,-0.01825004882812474,0.05047808073265393,0.0776489928640857,-0.042036392939188434,0.0013194079164979785,0.08830722089045041
121,1791353549.7929173,0.044978466796874936,-0.008574169921874963,-0.0038799316406247387,0.04595250520681857,0.07858661397813997,-0.04248544071528336,0.0012627231064145515,0.0893446307226378
122,1791353549.817645,0.04976850585937494,-0.027734326171874962,0.029650341796875264,0.06422802964714171,0.0797477077984696,-0.043024697276067655,0.0012509446030641847,0.09062221767981231
123,1791353549.837645,0.006658154296874935,-0.003784130859374962,0.005700146484375262,0.009546849477456093,0.08063058123781978,-0.04344270522312637,0.0012958727512455874,0.09159824536550647
124,1791353549.8920002,0.016238232421874936,-0.03252436523437496,-0.032620166015624744,0.04884249949554966,0.08276344373180682,-0.04455636016091975,0.0012899179632854753,0.09400383363187671
125,1791353549.9120002,0.021028271484374937,-0.09000483398437496,-0.02304008789062474,0.09525704169342647,0.08348641235951243,-0.045088457814589145,0.0012045652569404408,0.0948915225624437
126,1791353549.893002,0.016238232421874936,-0.027734326171874962,0.010490185546875261,0.03380705596769185,0.08348641235951243,-0.045088457814589145,0.0012045652569404408,0.0948915225624437
127,1791353549.913002,0.030608349609374936,0.02974614257812504,0.04881049804687526,0.0648395618713751,0.08412654174622887,-0.045619997933669915,0.0012158477569380525,0.09570756251945865
128,1791353549.9070249,0.044978466796874936,0.02495610351562504,0.039230419921875266,0.06469076769776999,0.08412654174622887,-0.045619997933669915,0.0012158477569380525,0.09570756251945865
129,1791353549.9270248,0.06413862304687494,0.0057959472656250385,0.02007026367187526,0.0674549587125633,0.0848490838058132,-0.045888162340269885,0.0014252023671047895,0.09647342466938798
130,1791353549.9526327,0.08329877929687494,-0.06126459960937496,0.005700146484375262,0.103559304109239,0.08591861691862945,-0.0462865470295812,0.001702544327956251,0.09760815450729764
131,1791353549.9726326,0.04976850585937494,-0.07563471679687496,-0.0038799316406247387,0.0906232223547256,0.08682823680277325,-0.04675636705641503,0.001889390595077588,0.09863503618599959
132,1791353549.9826221,0.025818310546874935,-0.07084467773437497,-0.00866997070312474,0.07589941972620977,0.08727105029366972,-0.047065575295648344,0.0019593144107196703,0.09917279622069061
133,1791353550.0026221,0.09287885742187493,-0.06126459960937496,-0.0038799316406247387,0.11133232769876825,0.0882026693411284,-0.04778994504198553,0.002059484892923573,0.10033858282854412
134,1791353550.027633,0.08329877929687494,-0.05168452148437497,0.0009101074218752615,0.09803471165325908,0.089523420187446,-0.04877179315848234,0.00216039138174266,0.10196959282489122
135,1791353550.047633,0.0018681152343749347,0.015376025390625039,0.034440380859375265,0.037763101634808435,0.09054889144179545,-0.04949362298446763,0.0022820037147197833,0.1032178666628054
136,1791353550.1024778,0.016238232421874936,0.010585986328125038,0.05360053710937526,0.05699790239245296,0.09301364922463932,-0.05106935113367602,0.002927615311072655,0.10615172395542416
137,1791353550.1224778,0.025818310546874935,-0.07563471679687496,0.029650341796875264,0.08524281971585572,0.09384072253144314,-0.05165534465222727,0.00325260848427481,0.10716779039578853
138,1791353550.103476,-0.022082080078125066,-0.05168452148437497,0.04402045898437526,0.07139123777355741,0.09384072253144314,-0.05165534465222727,0.00325260848427481,0.10716779039578853
139,1791353550.123476,0.030608349609374936,-0.05168452148437497,0.0009101074218752615,0.06007486264984626,0.0944558360770135,-0.05239611025995978,0.0036487420186662595,0.10807668878023736
140,1791353550.148254,0.07850874023437494,-0.10916499023437497,-0.05657036132812474,0.14587948165130812,0.09530636518297764,-0.053475095206030436,0.003962459141840105,0.10935533884605664
141,1791353550.168254,0.06413862304687494,-0.11395502929687497,-0.08052055664062474,0.15356780818295482,0.09610387971738692,-0.054550060999597194,0.003972062683543704,0.11057776509658597
142,1791353550.2072144,-0.007711962890625066,-0.05647456054687496,-0.00866997070312474,0.057654303851335034,0.09758930166176483,-0.05682801303072055,0.0037273466526364617,0.11299109689227553
143,1791353550.2272143,0.0018681152343749347,-0.07084467773437497,0.015280224609375262,0.07249788605145191,0.09822868407283893,-0.058012952011682294,0.003630482769007224,0.11413832564448897
144,1791353550.2222338,0.04976850585937494,-0.09000483398437496,-0.01825004882812474,0.10445495966328489,0.09822868407283893,-0.058012952011682294,0.003630482769007224,0.11413832564448897
145,1791353550.2422338,0.08808881835937495,-0.08521479492187496,-0.03741020507812474,0.12814337531653952,0.09896326028306937,-0.059336982549991736,0.003473221789580565,0.11544118698970561
146,1791353550.2680368,0.11203901367187494,-0.08521479492187496,-0.02783012695312474,0.14348804070155402,0.10015611402898364,-0.06111877799241599,0.0031745091568799524,0.11737474050689152
147,1791353550.2880368,0.10724897460937494,-0.08521479492187496,-0.0038799316406247387,0.13703633714411473,0.10127093975210048,-0.06254833171712822,0.0029301417127033133,0.11906587575508777
148,1791353550.3127172,0.07850874023437494,-0.09958491210937497,-0.00866997070312474,0.12710604000209252,0.10278414215496512,-0.06438988436627652,0.002650590327323546,0.12131637447730559
149,1791353550.3327172,0.06413862304687494,-0.06605463867187497,-0.02783012695312474,0.09618468808832369,0.10404041544133674,-0.06590681542336416,0.00240328364440694,0.12318235318717859
150,1791353550.3873,0.09766889648437493,-0.03252436523437496,-0.02783012695312474,0.10663753392029283,0.10761707735053092,-0.06982930473559268,0.0016017312798755146,0.12829704860369684
151,1791353550.4073,0.09766889648437493,-0.07563471679687496,-0.032620166015624744,0.12776501460222178,0.10902404560060955,-0.0712132140027774,0.0012614100924387497,0.13022732249090613
152,1791353550.402342,0.09287885742187493,-0.09479487304687496,-0.03741020507812474,0.13788427595615632,0.10902404560060955,-0.0712132140027774,0.0012614100924387497,0.13022732249090613
153,1791353550.422342,0.10245893554687494,-0.07084467773437497,-0.01346000976562474,0.12529155478154475,0.11057653472584836,-0.07267884505736048,0.0008499341470283204,0.13232576067759008
154,1791353550.4624448,0.08329877929687494,-0.018154248046874964,-0.01825004882812474,0.08718559305714381,0.11378125055150602,-0.07544450103437826,5.325355637554293e-05,0.1365212384551655
155,1791353550.4824448,0.11682905273437494,-0.003784130859374962,-0.00866997070312474,0.1172114141249276,0.1154399562668093,-0.07664980053044501,-0.0003248480911206379,0.13857013008048363
156,1791353550.5069406,0.14556928710937495,-0.03252436523437496,-0.04220024414062474,0.15501326488065137,0.11764886706826766,-0.07797131226768991,-0.0008119381083139747,0.14114333389389758
157,1791353550.5269406,0.10245893554687494,-0.042104443359374966,-0.05657036132812474,0.12438176475993609,0.11955388149099296,-0.07900037754810217,-0.0012981317776115235,0.14330343812490026
158,1791353550.5079405,0.06892866210937494,-0.05647456054687496,-0.04699028320312474,0.10074037504725152,0.11955388149099296,-0.07900037754810217,-0.0012981317776115235,0.14330343812490026
159,1791353550.5279405,0.10724897460937494,-0.07084467773437497,-0.06136040039062474,0.14243036773858156,0.12141303959308156,-0.0800605439986051,-0.001943972269927087,0.14544619595152708
160,1791353550.5523548,0.17430952148437495,-0.08521479492187496,-0.07094047851562474,0.2065863549359318,0.12385767239931382,-0.08144633823390025,-0.0028563545445221637,0.14826458709068271
161,1791353550.5723548,0.14077924804687494,-0.06605463867187497,-0.01346000976562474,0.15608710335452514,0.1260325335717944,-0.08263818806626516,-0.003618258371642397,0.1507526498574564
162,1791353550.6122296,0.09766889648437493,-0.027734326171874962,0.0009101074218752615,0.10153440049659448,0.13043133317758063,-0.08493847863492317,-0.004946973619020984,0.1557284507573476
163,1791353550.6322296,0.08808881835937495,-0.04689448242187497,-0.05657036132812474,0.11471241511868314,0.13258532777557488,-0.0860311140610746,-0.005596940545580513,0.15815039510357545
164,1791353550.642282,0.07850874023437494,-0.09958491210937497,-0.04699028320312474,0.13523632547703435,0.133631180627614,-0.08660835551476742,-0.005952703213161301,0.1593541162205932
165,1791353550.662282,0.04976850585937494,-0.07084467773437497,-0.032620166015624744,0.09251998578495893,0.13559226909493866,-0.08784018980104392,-0.0066737595733993805,0.16169632478643792
166,1791353550.7178407,0.07850874023437494,-0.04689448242187497,-0.01346000976562474,0.09243314685595647,0.1407574004152295,-0.09123946128448077,-0.008568362710572111,0.16796041767831918
167,1791353550.7378407,0.17909956054687495,-0.042104443359374966,-0.00866997070312474,0.18418633263811834,0.14272425224832458,-0.09241307710370951,-0.009181273037980662,0.1702782569038616
168,1791353550.7324684,0.21741987304687493,-0.018154248046874964,-0.00866997070312474,0.21834868057732734,0.14272425224832458,-0.09241307710370951,-0.009181273037980662,0.1702782569038616
169,1791353550.7524683,0.18388959960937495,-0.07084467773437497,0.005700146484375262,0.1971467597444275,0.14525282812833262,-0.0934713425527325,-0.009650663885821828,0.17299829846367362
170,1791353550.762152,0.13598920898437494,-0.09958491210937497,-0.01346000976562474,0.16908989190048782,0.14652579167648516,-0.094030653706981,-0.009849479222519431,0.17438057146350264
171,1791353550.782152,0.12161909179687494,-0.09479487304687496,-0.01825004882812474,0.15527503253163005,0.1491469449244565,-0.09530411741339148,-0.0102460729688618,0.17729260556359255
172,1791353550.7927566,0.16472944335937495,-0.07563471679687496,-0.02783012695312474,0.1833873383324488,0.15055603655526684,-0.09601361398151681,-0.01046146619935214,0.1788719555661612
173,1791353550.8127565,0.16472944335937495,-0.08042475585937496,-0.02783012695312474,0.1854142573556754,0.15330910166985262,-0.09738507801495742,-0.01089024765041185,0.18195090428102811
174,1791353550.8371277,0.13598920898437494,-0.06605463867187497,-0.05178032226562474,0.15980451190188566,0.15671032136803503,-0.09907334613619107,-0.011479883495198203,0.18575640086672027
175,1791353550.8571277,0.09287885742187493,-0.09479487304687496,-0.04220024414062474,0.13926022661727377,0.15942612860161826,-0.10049226398775092,-0.012032152034710733,0.1888389744858564
176,1791353550.8821814,0.14077924804687494,-0.11395502929687497,-0.00866997070312474,0.1813276420590314,0.16275692995964028,-0.10239535378233323,-0.012715785945371151,0.19270785645194888
177,1791353550.9021814,0.14556928710937495,-0.09958491210937497,-0.00866997070312474,0.176586354119894,0.1654465368793733,-0.10400698740838528,-0.013205669314544262,0.1958683223423097
178,1791353550.9277298,0.15993940429687495,-0.13790522460937496,-0.0038799316406247387,0.21121912292909772,0.1689523360265248,-0.10621197913985576,-0.013761637121949761,0.20003814390735863
179,1791353550.9477298,0.15993940429687495,-0.10916499023437497,0.039230419921875266,0.19757690651226695,0.17176491799139657,-0.10804978903905112,-0.014078553284553154,0.203411281954961
180,1791353550.957774,0.14556928710937495,-0.037314404296874965,0.05360053710937526,0.15954873768217595,0.1731956796426815,-0.10894464734901947,-0.014143906492968539,0.20509931673161277
181,1791353550.977774,0.09766889648437493,-0.03252436523437496,0.04881049804687526,0.11392766298822503,0.1759821502498013,-0.11056398410549778,-0.014100902656876819,0.20830973871512373
182,1791353551.0023768,0.15514936523437495,-0.07563471679687496,0.034440380859375265,0.1760058969219832,0.17936225478966472,-0.11245677814516626,-0.013902320905085724,0.21215706427213715
183,1791353551.0223768,0.21262983398437493,-0.08042475585937496,0.09671088867187527,0.24704773555522982,0.18224949105230542,-0.1139987406355368,-0.013568379147448144,0.21539426818743726
184,1791353551.0334558,0.21262983398437493,-0.07084467773437497,0.10629096679687526,0.24804875384916716,0.18396233936552475,-0.11485048509384005,-0.013242458553504656,0.21727434026978001
185,1791353551.0534558,0.10724897460937494,-0.09000483398437496,0.12545112304687528,0.18799254498261225,0.18707039088015512,-0.11639869537451208,-0.012394745711469951,0.22067536597951862
186,1791353551.0928776,0.06892866210937494,-0.03252436523437496,0.19251166992187527,0.20705008536631048,0.1927986002189902,-0.11935488425894387,-0.010034364066336749,0.22697483804396398
187,1791353551.1128776,-0.017292041015625065,0.30756840820312503,0.43680366210937527,0.5345042372509796,0.19534624856868038,-0.12021712509574635,-0.008072517265749455,0.22951575007207853
188,1791353551.1230295,0.05455854492187494,0.47042973632812507,0.4415937011718753,0.6475227938539438,0.19647381748429063,-0.11999678306613432,-0.006557266719267197,0.23031323594161682
189,1791353551.1430295,0.12640913085937494,0.29319829101562506,0.0009101074218752615,0.31928879484664835,0.19863345941890417,-0.11848236443380478,-0.0033561217558493147,0.23131058219585732
190,1791353551.152931,0.24616010742187494,0.0057959472656250385,-0.15237114257812476,0.2895606267799856,0.19981894470461975,-0.11762303673619984,-0.0021215085713579282,0.23187774846356354
191,1791353551.172931,0.07371870117187494,0.09201665039062504,0.034440380859375265,0.12283179834764911,0.20233412908346704,-0.1160009332275283,-0.00017868994482280647,0.23322810343463965
192,1791353551.1980197,-0.11788286132812507,0.21655766601562504,0.11108100585937526,0.27043036362023315,0.20493290407746453,-0.11369069402304255,0.0021667095835923985,0.23436672910522943
193,1791353551.2180197,-0.13225297851562506,0.11117680664062504,0.19251166992187527,0.25867329919643883,0.20631861213873978,-0.11163369111965918,0.004211324211764989,0.2346213672270107
194,1791353551.2428741,-0.17057329101562507,0.24050786132812504,0.2835224121093753,0.4090528537204553,0.2072178619778535,-0.10880528138089766,0.0072584455002588835,0.2341591693915258
195,1791353551.2628741,-0.04124223632812507,0.36025883789062507,0.19730170898437527,0.41281390081222274,0.20751520993867842,-0.10596955006974416,0.010063857938693244,0.23322390343720772
196,1791353551.2719297,0.06413862304687494,0.22613774414062504,0.12545112304687528,0.2664395364150789,0.2076451990227607,-0.10447991562218228,0.011362764532333265,0.2327266505225336
197,1791353551.2919297,-0.050822314453125066,0.14470708007812505,0.18772163085937527,0.24240968908773589,0.2079092002335241,-0.10112717811497367,0.014270943170357707,0.23163894645377062
198,1791353551.3173609,-0.06998247070312506,0.23092778320312504,0.2547821777343753,0.35091187690343867,0.2079641239846651,-0.09678699287219787,0.01825817959316817,0.23010901758950783
199,1791353551.3373609,-0.03166215820312507,0.28361821289062505,0.19251166992187527,0.34424195851386374,0.20784837210730261,-0.09311388777122687,0.021594470608667496,0.22877382508581912
200,1791353551.362386,0.035398388671874934,0.30277836914062506,0.13982124023437525,0.33537705043830984,0.20773227447145134,-0.08810668824188998,0.025766596896175886,0.22711099463840584
201,1791353551.382386,0.035398388671874934,0.32672856445312504,0.12545112304687528,0.3517706426407514,0.2077596024941016,-0.08376095537749484,0.02899869937667495,0.22587800831377225
202,1791353551.3930514,0.006658154296874935,0.17344731445312506,0.15898139648437526,0.23537923939414104,0.2078056310495089,-0.08139102497783986,0.03069126821771835,0.2252767923858112
203,1791353551.4130514,0.06413862304687494,0.15428715820312505,0.12066108398437526,0.20610043023009367,0.20798519265176088,-0.07712190810573367,0.03380857669710123,0.22438504613842497
204,1791353551.4372008,0.030608349609374936,0.06806645507812505,0.05360053710937526,0.09188542295231411,0.20834109224228028,-0.07233756644210787,0.037323653869050864,0.22367786965547
205,1791353551.4572008,0.025818310546874935,0.18302739257812506,0.034440380859375265,0.1880206143676294,0.20867626768435332,-0.0685929885031533,0.03993015385141835,0.22326038599147754
206,1791353551.482358,0.16472944335937495,0.18781743164062506,0.034440380859375265,0.2521850847518727,0.20939415521403076,-0.06388964432383769,0.042846941830912866,0.22307769793030793
207,1791353551.502358,0.25095014648437497,0.13512700195312505,0.10629096679687526,0.3041924593082208,0.21050278641559655,-0.06022694387457231,0.045029057775776836,0.22353148302057005
208,1791353551.5121932,0.2892704589843749,0.06327641601562504,0.06318061523437526,0.3027756486347731,0.21136468238064354,-0.058549590608447735,0.04606618795800109,0.22410974363304476
209,1791353551.5321932,0.34675092773437494,0.02016606445312504,-0.01346000976562474,0.3475975372511549,0.21380848020911672,-0.05552516181585126,0.04793342362626599,0.22604141855983784
210,1791353551.5578406,0.32280073242187496,0.02495610351562504,-0.02304008789062474,0.3245827561728892,0.2177601775400827,-0.052141692223203626,0.04989852971393204,0.22940818263043666
211,1791353551.5778406,0.2988505371093749,0.0057959472656250385,0.034440380859375265,0.3008843239004096,0.22131197503874026,-0.04985288367907741,0.05121817032726833,0.2325674123310071
212,1791353551.602157,0.32759077148437493,-0.16185541992187497,-0.01346000976562474,0.36564198662449193,0.22612506236848035,-0.04777211666615724,0.05262022140142703,0.23703081374000567
213,1791353551.622157,0.409021435546875,-0.286396435546875,-0.13800102539062475,0.5180402841861292,0.23059486522482037,-0.046989805272878334,0.053373220356128646,0.24131045215410782
214,1791353551.6327324,0.43776166992187493,-0.27202631835937496,-0.20506157226562474,0.5546925688640462,0.23327544365961067,-0.047081106449943046,0.05343955697111804,0.24390541086332718
215,1791353551.6527324,0.47608198242187494,-0.21454584960937498,-0.18590141601562474,0.5542953292676795,0.23895528782440778,-0.04795773235642993,0.052959750397875135,0.24940791654280298
216,1791353551.692746,0.567092724609375,-0.40135737304687497,-0.18111137695312474,0.7179716081195897,0.25174488779098675,-0.05129683836859799,0.0510423906989089,0.26193926739565154
217,1791353551.712746,0.710793896484375,-0.525898388671875,-0.11884086914062475,0.8921436154931638,0.25909544978669424,-0.05410635876215147,0.049777861644913865,0.2693246844769492
218,1791353551.7228944,0.634153271484375,-0.540268505859375,-0.04220024414062474,0.8341590320576677,0.26328953304796726,-0.056129642306962206,0.04910987942629079,0.2736488538536001
219,1791353551.7428944,0.523982373046875,-0.449257763671875,-0.07094047851562474,0.6938462488010687,0.27205232190372863,-0.06100317027421075,0.047821219039025996,0.2828793411104686
220,1791353551.7679884,0.547932568359375,-0.583378857421875,-0.22422172851562475,0.8311656719898194,0.2834152134526991,-0.0681442513813616,0.045891355353796584,0.2950827658623486
221,1791353551.7879884,0.706003857421875,-0.731870068359375,-0.32481254882812477,1.0675103912989075,0.29299392149280246,-0.07495485728116764,0.04376041613831512,0.3055791921619815
222,1791353551.7980573,0.792224560546875,-0.770190380859375,-0.3822930175781248,1.169171043257139,0.29822433516809593,-0.07900361531825496,0.04231454397957515,0.31139981687857016
223,1791353551.8180573,0.725164013671875,-0.832460888671875,-0.36792290039062475,1.1637101179094906,0.3093312718289191,-0.08824337793889708,0.03874805885525542,0.3239971320033775
224,1791353551.842419,0.6772636230468749,-0.818090771484375,-0.37750297851562475,1.127149956429333,0.32339345918664253,-0.10082570293451255,0.033693446071193074,0.34041797855738115
225,1791353551.862419,0.682053662109375,-0.760610302734375,-0.41582329101562476,1.1030114414517884,0.3352452884388586,-0.11197393214064069,0.028976255210221288,0.35463669898291433
226,1791353551.8875618,0.753904248046875,-0.832460888671875,-0.4828838378906248,1.2225136184466294,0.3506176641297412,-0.12689073004379015,0.022240876504661222,0.37353535355912115
227,1791353551.9075618,0.8353349121093749,-0.808510693359375,-0.5212041503906247,1.2740202993083145,0.36339531182069496,-0.13943794450280828,0.016180725064960384,0.3895650252320608
228,1791353551.9178476,0.706003857421875,-0.703129833984375,-0.4733037597656248,1.1031089969453327,0.37017009957847835,-0.14608908816703384,0.012764332288888122,0.3981593305225901
229,1791353551.9378476,0.768274365234375,-0.703129833984375,-0.5834746582031247,1.1937670377759764,0.38357857031718984,-0.15919117793826398,0.005532710382292307,0.4153371661964839
230,1791353551.9624302,0.773064404296875,-0.861201123046875,-0.6457451660156248,1.3252481907026425,0.4004289996023155,-0.1757639024904379,-0.004288925948606253,0.43732679774623
231,1791353551.9824302,0.6197831542968749,-0.751030224609375,-0.5595244628906247,1.123051726858578,0.41417109411342573,-0.1896430271334111,-0.012888929276556872,0.455706371951646
232,1791353552.0073037,0.691633740234375,-0.511528271484375,-0.5164141113281248,1.0033453730083177,0.43114466371703086,-0.20667030871842945,-0.02398738038866736,0.47872093329554033
233,1791353552.0273037,0.8544950683593749,-0.573798779296875,-0.5259941894531248,1.1558878614777155,0.4450645729483736,-0.21993572584390744,-0.03313631412696432,0.49754619173512465
234,1791353552.0376573,0.8976054199218749,-0.703129833984375,-0.6792754394531247,1.327215949254776,0.4525502445312537,-0.2267644240425735,-0.03809800428415013,0.5076172630704089
235,1791353552.0576572,0.782644482421875,-0.909101513671875,-0.6265850097656248,1.3533686572729866,0.4673616773929164,-0.24039511506017197,-0.04820361502717569,0.5277692084064795
236,1791353552.0980313,0.6197831542968749,-0.865991162109375,-0.45893364257812475,1.1596085285525264,0.49702321605618754,-0.26915907023359426,-0.06883082400970741,0.56940000414621
237,1791353552.1180313,0.643733349609375,-0.822880810546875,-0.46851372070312475,1.1450024280553617,0.5114078427786792,-0.28380379104006703,-0.07890733245155959,0.5901770417246652
238,1791353552.1275258,0.7155839355468749,-0.928261669921875,-0.5978447753906247,1.315731154955589,0.5181802625198506,-0.2909601786365255,-0.08373273367661847,0.6001497985555769
239,1791353552.1475258,0.7778544433593749,-1.086332958984375,-0.6265850097656248,1.4757322275035736,0.5325464386445626,-0.30679558301398335,-0.09420925973792736,0.6217753804150379
240,1791353552.157307,0.648523388671875,-1.1629735839843751,-0.5691045410156248,1.4480918897999944,0.5395647988157238,-0.3150283860357142,-0.0994414705356231,0.6326623603404953
241,1791353552.177307,0.514402294921875,-1.124653271484375,-0.4733037597656248,1.3241869773901551,0.5535073779290978,-0.33276876581642933,-0.11009887429827923,0.655154356657027
242,1791353552.2020552,0.624573193359375,-1.191713818359375,-0.42540336914062477,1.4111135762963956,0.570286330184336,-0.3557276484396421,-0.12297649528638997,0.6832948680126602
243,1791353552.2220552,0.682053662109375,-1.2539843261718748,-0.4924639160156248,1.5100313231383597,0.5837719743704459,-0.3751669817724059,-0.13319911961620995,0.7065988874454295
244,1791353552.247454,0.643733349609375,-1.3641552246093749,-0.5355742675781248,1.6006723269677041,0.6008545120688948,-0.4011380206046423,-0.14619221678688843,0.737095665770207
245,1791353552.267454,0.648523388671875,-1.3737353027343748,-0.4733037597656248,1.59114666723135,0.6142266500800638,-0.4226278955557552,-0.15640212589704205,0.7618072858378145
246,1791353552.2780168,0.629363232421875,-1.392895458984375,-0.45414360351562477,1.5945225776381973,0.6212420814319236,-0.4344669789000315,-0.16172033423250737,0.7751494991294667
247,1791353552.2980168,0.46171186523437496,-1.436005810546875,-0.35834282226562475,1.550387084792661,0.63416936611875,-0.45776421226688063,-0.1714982163014622,0.8007062489767132
248,1791353552.3230236,0.47608198242187494,-1.512646435546875,-0.24338188476562475,1.6043653059049476,0.6496671790072395,-0.48805447098569055,-0.18301857910373082,0.8329228118052089
249,1791353552.3430235,0.591042919921875,-1.632397412109375,-0.14758110351562476,1.7423642633978838,0.6618035140359183,-0.5133638113941029,-0.19143674109150238,0.8591707163766145
250,1791353552.3681235,0.5383524902343749,-1.5318065917968748,-0.07573051757812474,1.6254199302661947,0.6768760442817009,-0.5463191805438995,-0.20083720536824393,0.8927269512077739
251,1791353552.3881235,0.543142529296875,-1.421635693359375,0.005700146484375262,1.5218687011152903,0.6887067650968053,-0.5730696944492936,-0.20730909490623242,0.9196210870881301
252,1791353552.4122164,0.6772636230468749,-1.4120556152343748,-0.17153129882812473,1.5754396408923992,0.7030260643112127,-0.6055812676737796,-0.21423563633918374,0.9522978666026457
253,1791353552.4322164,0.7970145996093749,-1.5749169433593748,-0.5212041503906247,1.8404481565247475,0.7153411916854421,-0.6330019215082923,-0.22016211323084098,0.9802427297651374
254,1791353552.4433715,0.720373974609375,-1.8096288574218748,-0.7080156738281248,2.0724337044390113,0.7224492122848682,-0.648833501101168,-0.22400022476454767,0.9965409560960321
255,1791353552.4633715,0.547932568359375,-1.828789013671875,-0.6888555175781248,2.029586480072647,0.7351840183999585,-0.6784178368790547,-0.23194466288886692,1.0269102341241887
256,1791353552.4880044,0.667683544921875,-1.785678662109375,-0.7128057128906248,2.035323459502612,0.7507619080620227,-0.7160673143376854,-0.24285122637695034,1.065538624082911
257,1791353552.5080044,0.7155839355468749,-1.991650341796875,-0.8038164550781248,2.263813673040855,0.7635876137884222,-0.7477164269312198,-0.25265313036869774,1.0981709809128035
258,1791353552.5476887,0.6581034667968749,-2.159301708984375,-0.7702861816406248,2.385167676508174,0.7893077823597052,-0.8134498899772621,-0.2738699030958219,1.1660669889072972
259,1791353552.5676887,0.653313427734375,-2.130561474609375,-0.6361650878906248,2.3175022440115565,0.8022929279805029,-0.848043621282242,-0.2850684325700219,1.2017137500806738
260,1791353552.5627153,0.706003857421875,-2.015600537109375,-0.6601152832031247,2.23536108023033,0.8022929279805029,-0.848043621282242,-0.2850684325700219,1.2017137500806738
261,1791353552.5827153,0.7778544433593749,-2.020390576171875,-0.5403643066406247,2.231373836726882,0.8156336089057579,-0.8843779245699591,-0.2966128436795494,1.2390971214876452
262,1791353552.6073313,0.763484326171875,-1.9293798339843748,-0.5116240722656248,2.1370947689368753,0.8324359974953129,-0.9296822539545482,-0.31063256988669335,1.2859826502400555
263,1791353552.6273313,0.792224560546875,-1.7377782714843748,-0.5786846191406247,1.9955873730826321,0.8463734056254133,-0.9664704724625013,-0.3219501522946935,1.324411196137524
264,1791353552.6529467,0.6389433105468749,-1.6084472167968749,-0.5164141113281248,1.8061103337540123,0.8642959750728771,-1.0129488855838475,-0.3363749857153918,1.3733976512094974
265,1791353552.6729467,0.42339155273437495,-1.555756787109375,-0.30565239257812477,1.6410554447222196,0.8777839905175521,-1.0485411083640397,-0.34718128713483476,1.410843023186778
266,1791353552.6824007,0.5575126464843749,-1.4982763183593748,-0.19069145507812474,1.6099737600924888,0.8838989306820622,-1.065007382084053,-0.35187514767639616,1.428052577150683
267,1791353552.7024007,0.682053662109375,-1.397685498046875,-0.32002250976562474,1.5878086648598564,0.896754021191805,-1.0989605901206123,-0.3610816084708671,1.4636468430389298
268,1791353552.7269871,0.6197831542968749,-1.316254833984375,-0.36792290039062475,1.5006749171520353,0.9125871871411051,-1.1394435941312255,-0.37197022597968316,1.5064889403364952
269,1791353552.746987,0.571882763671875,-1.2875145996093749,-0.29128227539062473,1.4386066535189563,0.925322327564625,-1.1713407079866736,-0.38048783028581223,1.5404646873823307
270,1791353552.7875094,0.514402294921875,-1.321044873046875,-0.27212211914062473,1.4435441542779044,0.9505562093570588,-1.234201817637015,-0.3968691413300749,1.6075808997203977
271,1791353552.8075094,0.5766728027343749,-1.316254833984375,-0.40624321289062476,1.4933559044716873,0.9627789715275961,-1.2645293383412344,-0.404758997386855,1.640063304115749
272,1791353552.8023567,0.653313427734375,-1.4168456542968748,-0.5403643066406247,1.651140099097948,0.9627789715275961,-1.2645293383412344,-0.404758997386855,1.640063304115749
273,1791353552.8223567,0.605413037109375,-1.507856396484375,-0.43019340820312474,1.6808397384588047,0.975066236040717,-1.2943127207416716,-0.41312217700813963,1.6723245847849826
274,1791353552.8469486,0.49524213867187494,-1.464746044921875,-0.40624321289062476,1.598680487167547,0.9899384073611774,-1.330923703330352,-0.4234057375617,1.711901975305692
275,1791353552.8669486,0.591042919921875,-1.503066357421875,-0.5164141113281248,1.695648472526678,1.001848716016651,-1.360683975970996,-0.4318985751793766,1.7440464762988472
276,1791353552.891783,0.706003857421875,-1.665927685546875,-0.45893364257812475,1.86664849086703,1.0168354562396027,-1.3979973394017668,-0.4426791119180066,1.7844651025360332
277,1791353552.911783,0.5575126464843749,-1.641977490234375,-0.32481254882812477,1.7642033956725656,1.0289896602555557,-1.428501452967803,-0.4512343724630006,1.8174291130429396
278,1791353552.9224901,0.49045209960937497,-1.546176708984375,-0.32002250976562474,1.6533662885681704,1.0353620308749538,-1.4449426692768361,-0.45564530243327467,1.8350603516244057
279,1791353552.94249,0.6581034667968749,-1.512646435546875,-0.44456352539062477,1.708460166375111,1.04720242876008,-1.4756350143968289,-0.4637955200516478,1.8679501885582812
280,1791353552.9670627,0.691633740234375,-1.5653368652343749,-0.44456352539062477,1.7681271052727263,1.062055286396522,-1.513360721151964,-0.47394570649701534,1.9086242784779162
281,1791353552.9870627,0.667683544921875,-1.517436474609375,-0.41582329101562476,1.7091880469934941,1.0743698611495136,-1.544084521066851,-0.4822584536287317,1.9419167909158845
282,1791353553.0124078,0.6197831542968749,-1.4886962402343749,-0.3535527832031248,1.6508625698551722,1.0900820391548327,-1.5828934935734942,-0.4926751651731713,1.9840764810015947
283,1791353553.0324078,0.6581034667968749,-1.392895458984375,-0.31523247070312477,1.572459679373355,1.1025376659935067,-1.6132466379948427,-0.5006652554591086,2.017131556929296
284,1791353553.0575032,0.6389433105468749,-1.3641552246093749,-0.34876274414062475,1.5462223263884638,1.1182635659476339,-1.6508092423664988,-0.5104368967022962,2.058210480763239
285,1791353553.0775032,0.6006229980468749,-1.388105419921875,-0.42540336914062477,1.5711628397704345,1.1307758370922416,-1.6803830125097678,-0.5182175780879051,2.0906674821028703
286,1791353553.0870273,0.5958329589843749,-1.4168456542968748,-0.4828838378906248,1.6111006560758376,1.1366951288918725,-1.6943573323853252,-0.5220157997112923,2.1060444157240954
287,1791353553.1070273,0.46171186523437496,-1.507856396484375,-0.41103325195312473,1.6296493773595015,1.1488470404077522,-1.7236877394151804,-0.5301362814529487,2.1382220235926455
288,1791353553.1326087,0.41381147460937495,-1.555756787109375,-0.36792290039062475,1.6513589488015983,1.1637384867436367,-1.7614538713056749,-0.540459447738528,2.1792437727147353
289,1791353553.1526086,0.562302685546875,-1.546176708984375,-0.43977348632812474,1.703011287354307,1.175098703851473,-1.7912040892754628,-0.5485312073686124,2.2113696069829256
290,1791353553.1772375,0.662893505859375,-1.550966748046875,-0.45893364257812475,1.7480119398755998,1.1892529051000673,-1.828065421836673,-0.5586402076808822,2.251271760681411
291,1791353553.1972375,0.586252880859375,-1.5270165527343749,-0.40145317382812473,1.6842317665384907,1.2008965034079233,-1.8581257790097168,-0.5669084835040205,2.2838933975093214
292,1791353553.2218208,0.5958329589843749,-1.469536083984375,-0.41582329101562476,1.6393481102240832,1.2152411239686405,-1.8950575231084,-0.5770539735260977,2.3240149082216677
293,1791353553.2418208,0.686843701171875,-1.5270165527343749,-0.49725395507812475,1.7466526036980254,1.2270847949098787,-1.925091556802603,-0.5854394438702092,2.3567889040834245
294,1791353553.267792,0.6772636230468749,-1.560546826171875,-0.45893364257812475,1.761991061290527,1.2428146143224374,-1.9642564745982702,-0.5965576230341555,2.3997442907890867
295,1791353553.287792,0.605413037109375,-1.4599560058593748,-0.37750297851562475,1.6249630713757852,1.2550349149125462,-1.9944234534233447,-0.6050899171172345,2.4328936181040848
296,1791353553.2975354,0.6581034667968749,-1.3641552246093749,-0.40624321289062476,1.5681368555897208,1.261018631982918,-2.0089792565428337,-0.6091958449304232,2.4489355281239966
297,1791353553.3175354,0.5958329589843749,-1.507856396484375,-0.41582329101562476,1.673785182388106,1.2733396840102997,-2.038683650452058,-0.6175928014263903,2.481742501926756
298,1791353553.327158,0.591042919921875,-1.627607373046875,-0.46851372070312475,1.7938624809258403,1.2792350587812453,-2.053094395189319,-0.6216650387625668,2.4976201375694655
299,1791353553.347158,0.6006229980468749,-1.5270165527343749,-0.46851372070312475,1.7064678856030886,1.2914377813457318,-2.0832854636583122,-0.6302649082672293,2.5308345897688205
300,1791353553.3721454,0.586252880859375,-1.464746044921875,-0.40624321289062476,1.629173706039319,1.3066209585076711,-2.1209541540391945,-0.6410370412144546,2.5722817382543077
301,1791353553.3921454,0.523982373046875,-1.474326123046875,-0.3727129394531248,1.6084495576790876,1.3186160421556097,-2.150990298729843,-0.6495341940724677,2.6052643246184046
302,1791353553.4320009,0.591042919921875,-1.522226513671875,-0.43498344726562477,1.6898863546139702,1.3422670189655064,-2.21082448678725,-0.6663415119156098,2.6708494289425295
303,1791353553.4520009,0.686843701171875,-1.5318065917968748,-0.46851372070312475,1.7428972462537553,1.3542719508974883,-2.240927247583821,-0.6748657612259746,2.7039325512346646
304,1791353553.4473732,0.5575126464843749,-1.5365966308593748,-0.42540336914062477,1.6890581942119662,1.3542719508974883,-2.240927247583821,-0.6748657612259746,2.7039325512346646
305,1791353553.4673731,0.504822216796875,-1.4886962402343749,-0.38708305664062476,1.618917928431804,1.3661255678237905,-2.2711266376161765,-0.68338300303172,2.7370289731722397
306,1791353553.4919713,0.586252880859375,-1.436005810546875,-0.37750297851562475,1.5963438310804074,1.380530469709982,-2.3080933824422165,-0.6936976614208364,2.7774765319138077
307,1791353553.5119712,0.49524213867187494,-1.436005810546875,-0.35834282226562475,1.5607008176168722,1.3921080683442768,-2.3379494466222877,-0.701929982539161,2.8101028787747473
308,1791353553.537867,0.528772412109375,-1.4503759277343748,-0.3727129394531248,1.5881138280347238,1.4068389006149504,-2.3764141490704223,-0.7124101084633631,2.8520287626225587
309,1791353553.557867,0.667683544921875,-1.4455858886718749,-0.42540336914062477,1.6481771458683956,1.4183040151593425,-2.406009227229083,-0.7204872289998039,2.8843662264144645
310,1791353553.5669167,0.6006229980468749,-1.469536083984375,-0.40624321289062476,1.6386939421181264,1.4235744506093346,-2.419370373227309,-0.7241582342138562,2.899020932566277
311,1791353553.5869167,0.509612255859375,-1.421635693359375,-0.3918730957031248,1.5602298609792795,1.43514043646042,-2.448806347697641,-0.7322514755034726,2.9312920059702474
312,1791353553.6121867,0.581462841796875,-1.440795849609375,-0.40624321289062476,1.605934389899474,1.4496298795531322,-2.4858448802161925,-0.7424560465636606,2.971883668192486
313,1791353553.6321867,0.610203076171875,-1.474326123046875,-0.40624321289062476,1.6465171907052005,1.4611649209256383,-2.5151346472966316,-0.7505397391948089,3.0040331423415076
314,1791353553.6577837,0.528772412109375,-1.4455858886718749,-0.3918730957031248,1.5883586964131156,1.4759002188262684,-2.5526039236830633,-0.7608660167516557,3.045157687638052
315,1791353553.6777837,0.509612255859375,-1.4168456542968748,-0.3727129394531248,1.5511515704978056,1.4872440540970748,-2.5817823078829116,-0.7688709599596453,3.0771183459226235
316,1791353553.6868362,0.648523388671875,-1.426425732421875,-0.4637236816406248,1.634109117740939,1.4923946964535375,-2.5949385802254046,-0.7725186089479492,3.0915583718111743
317,1791353553.7068362,0.6197831542968749,-1.474326123046875,-0.4924639160156248,1.6734065208508235,1.503969696975381,-2.623996254004273,-0.7808029161192109,3.123609191987522
318,1791353553.7328598,0.48087202148437497,-1.4886962402343749,-0.3822930175781248,1.6104665001245513,1.5189199353637308,-2.6619173355477006,-0.7916727287785913,3.165385818636722
319,1791353553.7528598,0.547932568359375,-1.3737353027343748,-0.31523247070312477,1.5122004801061273,1.5302294126646079,-2.690982997982987,-0.7998197419711162,3.197296228137787
320,1791353553.7769792,0.682053662109375,-1.3689452636718749,-0.3535527832031248,1.5697795716077925,1.5440474571529104,-2.7257388485627283,-0.8093808387759758,3.2355574732466335
321,1791353553.7969792,0.6772636230468749,-1.421635693359375,-0.38708305664062476,1.6215940775897708,1.5558257594342741,-2.754421571503059,-0.8172307088933838,3.267307457041501
322,1791353553.8070288,0.610203076171875,-1.4982763183593748,-0.32960258789062474,1.6510050230905837,1.561826749732651,-2.7688729731339,-0.8211236275652796,3.283322151309217
323,1791353553.8270288,0.6006229980468749,-1.436005810546875,-0.34876274414062475,1.595147681378656,1.5737943289861922,-2.797720543718643,-0.8287264790780787,3.3152460553961283
324,1791353553.852437,0.45213178710937496,-1.436005810546875,-0.37750297851562475,1.5521096416256401,1.5887236990667957,-2.8343446256570655,-0.8383204232313038,3.3556420519737036
325,1791353553.872437,0.43297163085937496,-1.464746044921875,-0.4637236816406248,1.5962409160767799,1.6000401900092749,-2.863199930362902,-0.8460013101494462,3.3872940037217942
326,1791353553.896939,0.720373974609375,-1.5653368652343749,-0.49725395507812475,1.793454672077643,1.6139439270005989,-2.8988162862309674,-0.8557656502346027,3.4264100322263626
327,1791353553.916939,0.7155839355468749,-1.5653368652343749,-0.40624321289062476,1.7684381296766452,1.6257445407621998,-2.928223602024239,-0.8638955808107809,3.458880505281196
328,1791353553.9419682,0.48566206054687494,-1.507856396484375,-0.28170219726562473,1.6089918201836086,1.6405523059959288,-2.9652743410222455,-0.8738351268080766,3.499693074410549
329,1791353553.9619682,0.46650190429687494,-1.4599560058593748,-0.30086235351562474,1.5619262855590945,1.6520380812082525,-2.994891158712799,-0.8814599772036245,3.532077938793275
330,1791353553.97252,0.562302685546875,-1.4455858886718749,-0.44935356445312474,1.6148750718204832,1.6580031529558108,-3.0104724711552096,-0.8854731149278463,3.549081795627538
331,1791353553.99252,0.629363232421875,-1.4934862792968748,-0.5212041503906247,1.7024256551041947,1.6694008473200674,-3.039983788366789,-0.8933944289056979,3.5814179075005463
332,1791353554.0178099,0.6149931152343749,-1.4886962402343749,-0.3918730957031248,1.6577085240203102,1.6840114881497088,-3.077359440741146,-0.903640251003247,3.622513150144809
333,1791353554.0378098,0.6006229980468749,-1.344995068359375,-0.32960258789062474,1.5094361813730495,1.695656297589059,-3.106734179422038,-0.9116097852240832,3.6548707147666466
334,1791353554.0624123,0.653313427734375,-1.440795849609375,-0.45414360351562477,1.6458911044549078,1.710145891415263,-3.1425887991180987,-0.9213889121267298,3.694512262485688
335,1791353554.0824122,0.672473583984375,-1.541386669921875,-0.5643145019531247,1.7738501753204077,1.7221467122743843,-3.1718371973613637,-0.9296738617436299,3.7270140856149143
336,1791353554.092663,0.567092724609375,-1.680297802734375,-0.3631328613281248,1.8102100262552971,1.7283279779543534,-3.1870564107915236,-0.933996311729274,3.743901077121432
337,1791353554.112663,0.5191923339843749,-1.507856396484375,-0.20027153320312474,1.6072648441058237,1.7402084425952413,-3.217078249045698,-0.9420097878737929,3.7769432514419274
338,1791353554.1372278,0.514402294921875,-1.6132372558593748,-0.19069145507812474,1.703968132258755,1.754515927256761,-3.254171290255468,-0.9510961705037098,3.8173997499433314
339,1791353554.1572278,0.389861279296875,-1.704247998046875,-0.20027153320312474,1.7597050158913874,1.765773788922643,-3.28481768214096,-0.9579708282759426,3.850414573312831
340,1791353554.197171,0.34196088867187496,-1.7281981933593749,-0.26733208007812476,1.7818733641734372,1.7870773541674612,-3.3471253623635393,-0.9710419870090673,3.916607741616455
341,1791353554.217171,0.35154096679687497,-1.900639599609375,-0.31523247070312477,1.958413503202366,1.7971844833865138,-3.3790869967195785,-0.9774789672806702,3.9501349508846753
342,1791353554.2126718,0.40423139648437495,-2.087451123046875,-0.47809379882812475,2.179318447013028,1.7971844833865138,-3.3790869967195785,-0.9774789672806702,3.9501349508846753
343,1791353554.2326717,0.428181591796875,-2.1114013183593747,-0.6984355957031247,2.2647664965882446,1.8066991113831385,-3.4135623610195482,-0.9849059679646808,3.9858009781440944
344,1791353554.2575703,0.35633100585937494,-2.1880419433593747,-0.5738945800781248,2.2899463575987253,1.818232371980859,-3.458072530817263,-0.9951410708712275,4.0316919944170815
345,1791353554.2775702,0.38507124023437495,-2.240732373046875,-0.19548149414062474,2.2819672307523113,1.8272190456250723,-3.495105921594037,-1.0032833613032026,4.069529745182428
346,1791353554.3022168,0.6964237792968749,-2.034760693359375,0.08234077148437527,2.152216801871761,1.838631521381581,-3.5418007904299587,-1.0120213718051976,4.11692919146039
347,1791353554.3222167,0.7155839355468749,-1.800048779296875,0.3410028808593753,1.966855089073752,1.8486213074767723,-3.5797608724503704,-1.017413416053197,4.155384302510274
348,1791353554.3472166,0.5000321777343749,-1.436005810546875,0.4224335449218753,1.5781618949174483,1.8615146717609208,-3.6261608349129704,-1.0217110006408896,4.20216285294472
349,1791353554.3672166,0.14077924804687494,-1.3402050292968748,0.41764350585937526,1.4108133878085332,1.871243417503004,-3.6618772721283017,-1.0233732577210548,4.237710455929798
350,1791353554.3769503,-0.11788286132812507,-1.4120556152343748,0.3122626464843753,1.4509670533472705,1.8752847361748375,-3.678661728470992,-1.0235280526950223,4.254039801048079
351,1791353554.3969502,-0.2328437988281251,-1.277934521484375,0.13024116210937528,1.3054867430050032,1.8818168583502026,-3.7120109646912933,-1.0231346488988378,4.285681346079846
352,1791353554.4223914,-0.2903242675781251,-0.851621044921875,0.029650341796875264,0.900236484079196,1.8878814697506803,-3.7521332300491164,-1.0224041937343045,4.322951602231084
353,1791353554.4423914,-0.16578325195312507,-0.497158154296875,-0.07573051757812474,0.5295143324827755,1.891249728747022,-3.7809664008454353,-1.021985218216252,4.349366189120007
354,1791353554.4524446,-0.20889360351562508,-0.454047802734375,-0.07094047851562474,0.5048054043388234,1.8924063483698716,-3.794002847046571,-1.021916794898235,4.361189439412505
355,1791353554.4724445,-0.4196553222656251,-0.430097607421875,-0.08052055664062474,0.6062821962235103,1.8934193804700632,-3.817373816235976,-1.022028281764187,4.381999727515911
356,1791353554.4977074,-0.4340254394531251,-0.28160639648437497,-0.13800102539062475,0.5354666447522732,1.8928895645087185,-3.8438150321422757,-1.0225620175865415,4.404949260157214
357,1791353554.5177073,-0.2472139160156251,0.05369633789062504,-0.21464165039062474,0.33176656711768876,1.891511180209253,-3.8619498438830786,-1.0234501451077862,4.420398323799144
358,1791353554.5425072,-0.2328437988281251,0.42252934570312506,-0.11405083007812475,0.4957366987368725,1.889165471092185,-3.8801780443770153,-1.0249975894247174,4.435690238458822
359,1791353554.5625072,-0.38133500976562507,0.8392627441406251,0.0009101074218752615,0.9218346769735456,1.8866362480988135,-3.890780572362465,-1.026228054993881,4.4441775184807915
360,1791353554.5869908,-0.3478047363281251,1.126665087890625,-0.10447075195312475,1.183746802697907,1.8826655444821594,-3.8982031253594847,-1.0276985910075578,4.449334956249269
361,1791353554.6069908,-0.19931352539062508,1.2176758300781252,-0.29607231445312476,1.2689046945873124,1.8790878519698462,-3.8998403882102255,-1.0293204561037608,4.4496322106765165
362,1791353554.6328878,-0.15141313476562507,1.3422168457031252,-0.4828838378906248,1.4344506959685925,1.8744689470652502,-3.8966703795236386,-1.032618469402793,4.445669216610765
363,1791353554.6528878,-0.09393266601562507,1.3326367675781252,-0.3727129394531248,1.3869603582228534,1.8710688698096636,-3.890577165290827,-1.0360668290239525,4.439698623651944
364,1791353554.6619403,0.030608349609374936,1.5386084472656252,-0.18111137695312474,1.5495335284932703,1.8697177570931824,-3.88628350995005,-1.0377695369205129,4.435764829503414
365,1791353554.6819403,0.24616010742187494,1.5960889160156253,-0.22422172851562475,1.6304508609131454,1.8675956151392277,-3.8735182869484635,-1.041575101155174,4.424583143343319
366,1791353554.7076979,0.34675092773437494,1.6391992675781253,-0.31044243164062474,1.703990888495668,1.866417907998547,-3.8532942534350862,-1.0467739137515757,4.407621585091479
367,1791353554.7276978,0.49045209960937497,1.4284375488281253,-0.27691215820312476,1.5354665207271891,1.866896424629085,-3.8353449404799376,-1.0510861611097488,4.39317142743535
368,1791353554.7369783,0.729954052734375,1.4715479003906253,-0.29128227539062473,1.66827201205443,1.8679346040288851,-3.826246900345712,-1.0531824765259952,4.386175823675465
369,1791353554.7569783,0.729954052734375,1.3996973144531253,-0.32481254882812477,1.6116726352044488,1.8720262087245405,-3.80527418009914,-1.0579466638092174,4.370794533645549
370,1791353554.7822978,0.993406201171875,1.0260742675781251,-0.45893364257812475,1.500101453703298,1.8797017214049263,-3.7780993288698594,-1.0645616339463775,4.352080487850622
371,1791353554.8022978,1.577790966796875,0.7817822753906251,-0.5834746582031247,1.8550068834875018,1.8887119800996004,-3.7571419004459075,-1.070566645659559,4.3392927011964515
372,1791353554.8273807,1.774182568359375,0.7578320800781251,-0.47809379882812475,1.987613374865372,1.904622879239678,-3.7319044975487143,-1.0789651504543116,4.326530398233954
373,1791353554.8473806,1.625691357421875,0.6907715332031251,-0.40145317382812473,1.8114089409784444,1.9205063593532363,-3.7126268457335794,-1.0859765891097846,4.318713688596688
374,1791353554.8571517,1.913093701171875,0.3794189941406251,-0.6696953613281248,2.062129520559413,1.9296956710415665,-3.703837095733338,-1.0896732200098307,4.316193037964535
375,1791353554.8771517,2.425627880859375,0.12075688476562504,-0.8325566894531248,2.5673728756792977,1.9521915082368435,-3.6877942375729695,-1.0983580734454705,4.314773282689519
376,1791353554.9021266,2.770510693359375,-0.037314404296874965,-0.8086064941406248,2.88634133968127,1.9858022350619597,-3.6706095536700536,-1.110650528024444,4.318602737885475
377,1791353554.9221265,2.784880810546875,-0.018154248046874964,-0.7798662597656247,2.8920722827749645,2.017013627108319,-3.6589954024872173,-1.1214005225537593,4.3259831783476805
378,1791353554.9477115,2.981272412109375,-0.267236279296875,-0.9618877441406248,3.1439828969803303,2.062016171700486,-3.6469142568796706,-1.1364318453250064,4.340895256563481
379,1791353554.9677114,3.292624951171875,-0.660019482421875,-1.1439092285156247,3.5476094922270183,2.101329077871641,-3.6402777875415464,-1.1495781430561756,4.357606702189832
380,1791353554.9777915,3.2974149902343752,-0.774980419921875,-1.2876104003906248,3.623738513231709,2.1231530277019255,-3.6385195640053496,-1.1570483246602064,4.368679917582487
381,1791353554.9977915,3.192034130859375,-0.664809521484375,-1.4552617675781248,3.5705518347451637,2.1696930597212285,-3.6377140208916505,-1.1737610136695054,4.395252687662523
382,1791353555.022203,3.465066357421875,-0.736660107421875,-1.6995537597656247,3.9291011640752114,2.2301659521639037,-3.639444172105101,-1.1968762335654284,4.433024562816529
383,1791353555.042203,3.704568310546875,-0.818090771484375,-1.8767852050781249,4.232661288586198,2.2830333620715173,-3.6429811633724833,-1.218338040667232,4.46854569970535
384,1791353555.0678155,3.460276318359375,-0.822880810546875,-1.9630059082031248,4.0625161197717565,2.3543447215639977,-3.6499835217610825,-1.249076020647256,4.519459003292283
385,1791353555.0878155,3.0914433105468753,-1.004902294921875,-1.9390557128906247,3.785074295487216,2.4115041634831695,-3.65737290676708,-1.2753309921285039,4.562696357323596
386,1791353555.097124,3.306995068359375,-1.306674755859375,-1.9630059082031248,4.061650833761287,2.438584315884071,-3.6619100693455358,-1.288442047533264,4.584360558627748
387,1791353555.117124,3.594397412109375,-1.388105419921875,-2.0109062988281248,4.346294232522884,2.498392092671877,-3.674238324350146,-1.3183472508765277,4.634655303983505
388,1791353555.1426094,3.4842265136718753,-1.3354149902343748,-1.9342656738281248,4.202921756548236,2.576701461578437,-3.6927970948508597,-1.3582791186980077,4.703303410384072
389,1791353555.1626093,3.460276318359375,-1.5318065917968748,-1.6995537597656247,4.148304065085458,2.639354561519709,-3.7094775725744706,-1.3903664415337509,4.760203273452837
390,1791353555.1877708,3.805159130859375,-1.661137646484375,-1.5750127441406248,4.4406395300604515,2.7200642885933686,-3.733340537280404,-1.430858977150852,4.835694232876523
391,1791353555.2077708,3.762048779296875,-1.594077099609375,-1.469631884765625,4.342109014525995,2.7859453757046526,-3.754345999919628,-1.462784098798458,4.898606214345083
392,1791353555.232416,3.4842265136718753,-1.5749169433593748,-1.3977812988281249,4.071116595776661,2.868344251013918,-3.7822049962558633,-1.5015230986400179,4.978658955158199
393,1791353555.252416,3.354895458984375,-1.756938427734375,-1.3977812988281249,4.036824090658071,2.9354410018148998,-3.806419684854581,-1.532438287250308,5.045196903651548
394,1791353555.2623897,3.4842265136718753,-1.7760985839843748,-1.4983721191406247,4.188016187411808,2.9689982186898405,-3.819326763538371,-1.5477092004891277,5.079134878947657
395,1791353555.2823896,3.316575146484375,-1.800048779296875,-1.6133330566406248,4.103984632253805,3.03639668610437,-3.8466907098741454,-1.5784055696587809,5.148601596079028
396,1791353555.3079836,3.153713818359375,-1.857529248046875,-1.6516533691406248,4.015505523250346,3.122129131902682,-3.8834766322894825,-1.6180627221543298,5.23900830717411
397,1791353555.3279836,3.268674755859375,-1.8096288574218748,-1.6468633300781248,4.083031972586347,3.1887077088464335,-3.913411222966858,-1.649351472932527,5.310650104626017
398,1791353555.3522978,3.398005810546875,-1.704247998046875,-1.2876104003906248,4.013582597948024,3.269663989163781,-3.9507519957878703,-1.6870349934163902,5.39863232710542
399,1791353555.3722978,3.398005810546875,-1.479116162109375,-1.0193682128906247,3.84361023817131,3.336461028331429,-3.9816349679567473,-1.7168430309116192,5.471100365047249
400,1791353555.3829622,3.292624951171875,-1.4455858886718749,-0.8852471191406248,3.703344446922757,3.3720875246540474,-3.9979716479784635,-1.7318766066384363,5.5094598784806985
401,1791353555.4029622,3.273464794921875,-1.589287060546875,-0.9523076660156248,3.7614219405919838,3.438728056764768,-4.028565892011384,-1.7585976255102822,5.580937143805606
402,1791353555.4284608,3.398005810546875,-1.747358349609375,-1.1199590332031248,3.98170979938433,3.523704419595268,-4.068101643612273,-1.7915179968476764,5.672343479767883
403,1791353555.4484608,3.283044873046875,-1.5653368652343749,-1.2205498535156247,3.8364573612928585,3.590379887423234,-4.099429241850282,-1.8169768304863012,5.744349627893005
404,1791353555.4728296,3.077073193359375,-1.464746044921875,-1.2445000488281248,3.6280353891518673,3.671058012534859,-4.13741235538359,-1.8478491338936611,5.831757398204141
405,1791353555.4928296,3.192034130859375,-1.2875145996093749,-1.3307207519531248,3.6902023598248843,3.736743832860042,-4.168038284166274,-1.873248904343005,5.902953419121276
406,1791353555.5022538,3.6375077636718753,-1.210873974609375,-1.2924004394531248,4.0457357067730095,3.7678801553903103,-4.182070765987485,-1.8852763196534168,5.936404935527663
407,1791353555.5222538,3.771628857421875,-0.765400341796875,-1.4935820800781248,4.128172640683855,3.835159512519291,-4.210347850574752,-1.9111510999264834,6.007326862761577
408,1791353555.5477939,3.522546826171875,-0.846831005859375,-1.785774462890625,4.039114918812121,3.9221603403396017,-4.244129620516441,-1.9455186670772688,6.097624197589091
409,1791353555.5677938,3.239934521484375,-1.167763623046875,-1.8815752441406248,3.9244328229924643,3.9902134533403077,-4.269637296200093,-1.973895390743722,6.168295474271652
