imu_index,t_imu,ax,ay,az,mag,vx,vy,vz,velocity
0,1791341475.3960726,0.07015998391544122,-0.03691147748161764,-0.017610437729778643,0.08120965478270023,0.0,0.0,0.0,0.0
1,1791341475.4160726,0.03662971047794122,-0.0033812040441176354,-0.008030359604778643,0.03765175833699955,0.00024963828300841526,-0.00010750105355657386,-6.091444601470564e-05,0.0002785432077657638
2,1791341475.44093,-0.04001091452205879,0.030149069393382365,0.015919835707721357,0.05256691768726145,0.0005070614663951543,-0.00017116575533549395,-0.00011055831014138568,0.000546472493766789
3,1791341475.4609299,-0.035220875459558786,0.03493910845588237,0.02070987477022136,0.05376011793911833,0.0005702665174713204,-0.00011707409709327198,-8.95654116311538e-05,0.0005890095144560322
4,1791341475.4707708,0.06057990579044122,-0.008171243106617635,0.011129796645221358,0.062133457757074496,0.0006154182882262627,-7.469410248785941e-05,-5.728532933983943e-05,0.0006225756880792761
5,1791341475.4907708,0.17075080422794123,-0.03691147748161764,-0.008030359604778643,0.17487933265468147,0.00104041240457208,-6.910790002652306e-05,3.1267333004133827e-06,0.0010427097630187727
6,1791341475.5159378,0.08932014016544122,-0.008171243106617635,0.011129796645221358,0.09038102138416834,0.0019858754549553076,-0.00014822763176602547,7.35936184374379e-05,0.001992759085812339
7,1791341475.5359378,-0.016060719209558785,0.05409926470588237,0.02549991383272136,0.06192675309364794,0.002734412868522805,-0.000132780047721728,0.00017613762547056473,0.002743295233787736
8,1791341475.560418,0.03662971047794122,0.03493910845588237,0.011129796645221358,0.051830004464148836,0.0035509600881357163,4.676685322196474e-05,0.00035007740269847,0.003568481311983181
9,1791341475.5804179,0.09411017922794122,-0.05607163373161764,0.0015497185202213572,0.10955891370007198,0.004314113455828781,0.00013975279252708436,0.0004898875387099153,0.004344087424691787
10,1791341475.6052635,0.03662971047794122,-0.07044175091911764,0.006339757582721357,0.079649033192227,0.005363580195805761,2.192701008411999e-06,0.0006522199232986271,0.00540309061122661
11,1791341475.6252635,0.06057990579044122,-0.046491555606617635,-0.017610437729778643,0.078367832975886,0.006227465989710927,-0.00026732916195547156,0.0007463858149073115,0.0062777296308883
12,1791341475.6353116,0.07974006204044122,-0.041701516544117634,-0.03198055491727864,0.09549999931471102,0.006702132392604433,-0.0004488909159912606,0.0007492267262476085,0.0067588033223182934
13,1791341475.6553116,0.06536994485294122,-0.041701516544117634,-0.017610437729778643,0.07951335541398252,0.0077228624698239086,-0.0008811709520611896,0.0006796467095791943,0.0078026269053705815
14,1791341475.6805782,0.022259593290441217,-0.06086167279411764,-0.012820398667278644,0.06606054291891685,0.008985014505690397,-0.0015397248468536507,0.0005472629633856147,0.009132400288126827
15,1791341475.7005782,0.007889476102941217,-0.07523178998161764,0.0015497185202213572,0.0756602120305582,0.009879443102023964,-0.0021869551140906206,0.0004412861178406004,0.010128223048243696
16,1791341475.7106276,0.017469554227941216,-0.07523178998161764,0.015919835707721357,0.07885714119673655,0.010280564429763531,-0.0025767900468594645,0.00040919048899851006,0.010606473909664795
17,1791341475.7306275,0.031839671415441216,-0.0033812040441176354,0.02070987477022136,0.038132612415483325,0.011033085591379142,-0.003354174175019217,0.00040984039180871895,0.011538952777866015
18,1791341475.7562864,0.03662971047794122,0.044519186580882365,0.015919835707721357,0.05980915341719905,0.011985474815160801,-0.0041227466277957685,0.00048103981935980375,0.01268384979450896
19,1791341475.7762864,0.07974006204044122,0.06367934283088236,0.03507999195772136,0.10790802580596245,0.012791024225397121,-0.004469658143339508,0.0006047118790025441,0.01356295768295485
20,1791341475.8003545,0.17075080422794123,0.010988913143382366,0.006339757582721357,0.1712214527527704,0.014067180721322348,-0.004689728204129845,0.0008059826822320302,0.014850209835521249
21,1791341475.8203545,0.17554084329044123,-0.06086167279411764,0.02070987477022136,0.18694285167241814,0.015488002696033124,-0.004919978906667285,0.0009887202854588662,0.016280724423601615
22,1791341475.8452656,0.04620978860294122,-0.041701516544117634,0.04466007008272136,0.07660863466086193,0.017406568194914672,-0.005355373846032943,0.0013043223640354243,0.01825842003526898
23,1791341475.8652656,-0.0016906020220587837,0.006198874080882365,0.0015497185202213572,0.006609523625764682,0.018782622573859088,-0.005705751833220263,0.0015890114993695088,0.019694351278462204
24,1791341475.8754797,0.08453010110294122,-0.008171243106617635,-0.041560633042278645,0.09454836553455513,0.019443426512472318,-0.005859361602645431,0.0016819442083830722,0.020376650589745617
25,1791341475.8954797,0.13243049172794122,-0.012961282169117636,-0.022400476792278644,0.13493558216902318,0.020868686640742064,-0.006146723224181093,0.0017406766680422522,0.021824624710790337
26,1791341475.9208636,0.07015998391544122,0.001408835018382365,0.011129796645221358,0.07105125285656806,0.02279197514325799,-0.006478727869876398,0.0017825812760038362,0.023761852658165415
27,1791341475.9408636,0.031839671415441216,0.001408835018382365,0.006339757582721357,0.032495261472404835,0.02423302753312604,-0.006696849496481641,0.0018368496809760238,0.025208360385996408
28,1791341475.9656847,0.09411017922794122,-0.05607163373161764,-0.022400476792278644,0.11181473652506327,0.02598765247499179,-0.007028704058525073,0.0018641988829967704,0.026985848131541836
29,1791341475.9856846,0.15638068704044122,-0.11834214154411764,-0.027190515854778646,0.19798764076814837,0.027565134674167484,-0.0075176123490530355,0.001808543990095675,0.028629040787279906
30,1791341475.9957533,0.09411017922794122,-0.11355210248161764,0.0015497185202213572,0.14748968587600603,0.028429326048983468,-0.00790193986299685,0.0017653656202349867,0.029559833371839837
31,1791341476.0157533,0.04620978860294122,-0.05607163373161764,0.011129796645221358,0.07350676870482867,0.030098912238816545,-0.008805276343738996,0.0017114822292998936,0.031407110355312844
32,1791341476.0403285,0.12764045266544122,-0.027331399356617637,0.0015497185202213572,0.13054306636095836,0.03216313966361636,-0.009902488377757084,0.0016785739602771207,0.033694872601525386
33,1791341476.0603285,0.17554084329044123,-0.03212143841911764,0.011129796645221358,0.178802256257007,0.03404584604222689,-0.010750666922483774,0.0016748288313549642,0.035742153315427724
34,1791341476.0855947,0.14201056985294122,-0.03212143841911764,0.02070987477022136,0.14706354976359204,0.03666926924689368,-0.01178319016045066,0.0017311422547216008,0.038554840564637365
35,1791341476.1055946,0.04620978860294122,-0.008171243106617635,0.006339757582721357,0.04735299676729695,0.03871673253950825,-0.012538347713518758,0.001809606351249674,0.040736595550774746
36,1791341476.1158164,0.04141974954044122,-0.0033812040441176354,-0.017610437729778643,0.045134861358103774,0.03967337805951765,-0.012875262344068673,0.0018350525689164847,0.04175064939629917
37,1791341476.1358163,0.12285041360294122,-0.046491555606617635,-0.022400476792278644,0.13324965375436576,0.04151080285273741,-0.013510402100363087,0.0018173564606279175,0.04369188143004732
38,1791341476.1602132,0.13722053079044122,-0.07523178998161764,-0.017610437729778643,0.15747832806860462,0.04389184110622176,-0.014391684266371467,0.0017257972529105816,0.04622329140027672
39,1791341476.1802132,0.07974006204044122,-0.022541360294117636,-0.008030359604778643,0.08325309059431187,0.045876411236077004,-0.015152429443459523,0.0016235367879847491,0.048341256682492346
40,1791341476.2060356,0.017469554227941216,0.020568991268382367,-0.003240320542278643,0.027180294404926558,0.04824264778685726,-0.0159911314373937,0.0014894830229425647,0.0508457265638952
41,1791341476.2260356,0.03662971047794122,-0.012961282169117636,-0.003240320542278643,0.03899012955072086,0.04988159066788851,-0.01653187304318338,0.00139150878119436,0.052568167274148495
42,1791341476.2355907,0.09411017922794122,-0.05607163373161764,0.02070987477022136,0.1114883530089406,0.05064084505015543,-0.016800935227970826,0.0013642414583048233,0.053372537570223144
43,1791341476.2555907,0.12764045266544122,-0.051281594669117636,0.0015497185202213572,0.137565579764483,0.05232430011272759,-0.017440667611018864,0.0013491180871335947,0.055170910710426534
44,1791341476.2805088,0.11327033547794123,-0.03212143841911764,-0.012820398667278644,0.11843275867506624,0.054557339215772646,-0.01827402485979,0.0013120388662305426,0.05755140913016471
45,1791341476.3005087,0.07015998391544122,-0.022541360294117636,-0.017610437729778643,0.07576716824561021,0.05635594167712294,-0.018924564392191152,0.0012410959160123183,0.059461513761610664
46,1791341476.3254392,0.07495002297794122,-0.008171243106617635,-0.012820398667278644,0.07647638707659589,0.05853296886870165,-0.019671267128881696,0.0011090294310356662,0.06175999628658604
47,1791341476.3454392,0.09411017922794122,-0.017751321231617635,0.0015497185202213572,0.09578223670010644,0.06027106429083826,-0.020219324282457773,0.001002067866000914,0.06358007868190804
48,1791341476.3553798,0.12285041360294122,-0.022541360294117636,0.006339757582721357,0.12506210286306008,0.06116712379357857,-0.020480905868289916,0.000962761045860737,0.06451210310628654
49,1791341476.3753798,0.10369025735294123,-0.027331399356617637,0.011129796645221358,0.1078079182345809,0.06303933291048651,-0.02100305934983322,0.0009217446939128086,0.06645250641723396
50,1791341476.400335,0.09890021829044122,-0.03691147748161764,0.02070987477022136,0.10757606267553736,0.06540417562942563,-0.021677095272811583,0.0009378353230826852,0.06890923148841906
51,1791341476.420335,0.06536994485294122,-0.06086167279411764,0.04945010914522136,0.10209155792644718,0.06726155433622485,-0.022282920338628213,0.0010540364266485355,0.0708643508636838
52,1791341476.445898,0.05099982766544122,-0.027331399356617637,0.05903018727022136,0.08265924522915163,0.06950257074588283,-0.023110191993606886,0.001388261779130498,0.0732571879410834
53,1791341476.465898,0.07015998391544122,-0.012961282169117636,0.05903018727022136,0.09260119431000802,0.07117463772405898,-0.023720785628064026,0.0017876197154054953,0.07504465544068088
54,1791341476.4911056,0.09890021829044122,-0.05607163373161764,0.04945010914522136,0.12397820204255226,0.07328557665149647,-0.02450543831115703,0.002420549039315483,0.07731203858142675
55,1791341476.5111055,0.18033088235294123,-0.17582261029411764,-0.003240320542278643,0.25187956863954686,0.07512804284699684,-0.025382450130197458,0.002916712011099677,0.07935363133208113
56,1791341476.5204754,0.08932014016544122,-0.10397202435661763,0.011129796645221358,0.13752142255427383,0.0760512421398301,-0.0259283154450045,0.0031198377799428714,0.08041021303665279
57,1791341476.5404754,0.07015998391544122,0.07325942095588237,0.09256046070772136,0.13732008224666842,0.07796544864989519,-0.026964763164395247,0.0036439098371944265,0.08257716218539465
58,1791341476.5660734,0.14201056985294122,0.13552992876838238,0.09256046070772136,0.21703180050016987,0.0804552850309675,-0.02769148842305519,0.004569462411696356,0.0852100428777637
59,1791341476.5860734,0.12764045266544122,0.044519186580882365,0.04945010914522136,0.14394219820794896,0.08251329258059735,-0.027904042317829218,0.005397149074401996,0.08727089003956465
60,1791341476.6106853,0.16596076516544123,-0.13271225873161765,0.0015497185202213572,0.21250393130349018,0.08520794411559102,-0.028289170837575713,0.006357057054828552,0.09000601702931627
61,1791341476.6306853,0.15638068704044122,-0.22372300091911765,0.02070987477022136,0.273744039811818,0.08755270748312871,-0.02908983946589649,0.0070534747449874135,0.0925280868372199
62,1791341476.641247,0.10369025735294123,-0.28120346966911763,-0.003240320542278643,0.2997291452313009,0.08881121759475089,-0.029849204213466547,0.007379915876224582,0.0939833523618921
63,1791341476.661247,0.04141974954044122,-0.26683335248161766,-0.027190515854778646,0.27139446899489506,0.09105456406842768,-0.031893522382723805,0.007859705106699224,0.09679827153432534
64,1791341476.6857986,0.05099982766544122,-0.17582261029411764,-0.07509090647977865,0.19787171841497897,0.09356555218248046,-0.034841750915599934,0.00817200073736506,0.10017605381591291
65,1791341476.7057986,0.09890021829044122,-0.13750229779411763,-0.08467098460477865,0.18936026697937927,0.09552905471277336,-0.037353143521104075,0.008148597159188347,0.10289537045410244
66,1791341476.7315657,0.11806037454044123,-0.18540268841911764,-0.06551082835477864,0.22935578811400192,0.09809857401432348,-0.040727399381670165,0.007832736748754551,0.1065054132380747
67,1791341476.7515657,0.10848029641544123,-0.16624253216911763,-0.008030359604778643,0.19866816777673307,0.10013363976687434,-0.043481051331787215,0.007514034357871903,0.10942489821887409
68,1791341476.7606149,0.09890021829044122,-0.16145249310661763,0.06382022633272136,0.19980285783091073,0.10105705323796739,-0.04476248220268316,0.007429328408122434,0.11077636364623383
69,1791341476.7806149,0.09411017922794122,-0.23330307904411765,0.08777042164522136,0.2664407991309908,0.10308131346844819,-0.04776193928893725,0.007497583698065763,0.11385593437467416
70,1791341476.8051977,0.13722053079044122,-0.27641343060661766,0.04466007008272136,0.3118146573686417,0.10562271306337451,-0.05183546189933612,0.007813059005610032,0.11791571785055042
71,1791341476.8251977,0.06057990579044122,-0.13271225873161765,0.15004092945772138,0.2092719501408717,0.10767688782580281,-0.055266145522925726,0.008323273389309027,0.12131750035639914
72,1791341476.8502398,-0.030430836397058784,-0.017751321231617635,0.30811221852022136,0.31011979042096827,0.10991974688094179,-0.05919997625798731,0.009726770954091152,0.12522618742303834
73,1791341476.8702397,-0.04959099264705879,-0.051281594669117636,0.3847528435202214,0.3913103871614249,0.11132229554451947,-0.06197403533262876,0.01171884215481046,0.1279482934710761
74,1791341476.880572,-0.059171070772058784,-0.07044175091911764,0.16920108570772135,0.1925935183061327,0.1118539073527766,-0.06328652094161698,0.013022883937543,0.12917459436370596
75,1791341476.900572,-0.1645519301470588,0.07325942095588237,0.18836124195772136,0.2606227886155947,0.11239299308225932,-0.06544174923963834,0.015704788946257646,0.13100170927655483
76,1791341476.926233,-0.1789220473345588,0.3510816865808824,0.21710147633272137,0.449893877154062,0.11231987508990503,-0.06697555051382524,0.019409999431937157,0.1322052449216355
77,1791341476.946233,0.07974006204044122,0.44688246783088237,0.2841620232077214,0.535546891487887,0.11212266278974896,-0.06679472347288663,0.022616534805785068,0.13245578221242152
78,1791341476.9705112,0.12764045266544122,0.3606617647058824,0.3033221794577214,0.4882349211479881,0.11229678597196867,-0.06513771513887806,0.026994839427640912,0.13259793146528298
79,1791341476.9905112,0.13243049172794122,0.3223414522058824,0.3608026482077214,0.501617780688849,0.11280881603375034,-0.06295294583891292,0.031056789170761986,0.13286619780188938
80,1791341477.0005636,-0.06875114889705879,0.2744410615808824,0.30811221852022136,0.41830342570645995,0.11307558020569244,-0.061569614418965364,0.03329648989447914,0.13298706891215853
81,1791341477.0205636,0.06536994485294122,0.45646254595588237,0.12609073414522137,0.4780482808126011,0.11352164120877982,-0.05813386725457188,0.03773541803347127,0.13300628300523232
82,1791341477.045631,0.09411017922794122,0.5187330537683824,0.10214053883272137,0.5370040936335825,0.11429668844153937,-0.052640134811805524,0.04289357182061153,0.13294576068922748
83,1791341477.065631,0.07495002297794122,0.4420924287683824,0.10214053883272137,0.45988684607385744,0.11507589454202197,-0.04747319743232375,0.04669811332083762,0.1329544274058624
84,1791341477.0907447,0.15159064797794122,0.32713149126838237,0.06861026539522136,0.36701785467664994,0.11633426878363654,-0.040509465307127006,0.051080461988114195,0.13335626145709056
85,1791341477.1107447,0.04141974954044122,0.33671156939338237,0.19315128102022136,0.3903814723768278,0.11747559959141927,-0.034799829846373115,0.054439592234966604,0.13407167433656308
86,1791341477.1209085,0.017469554227941216,0.3894019990808824,0.17878116383272136,0.42883773942424064,0.11801350061690209,-0.031779984060498645,0.056174124356709154,0.13450905531593077
87,1791341477.1409085,0.12285041360294122,0.30797133501838236,0.10214053883272137,0.34694561099465876,0.11912367566724126,-0.025682919519657656,0.05949669152713838,0.13560943463565786
88,1791341477.165983,0.3384021714154412,0.30797133501838236,-0.017610437729778643,0.45790009863367004,0.1211741772490678,-0.018027148838719243,0.0631964061910768,0.1378475428968881
89,1791341477.185983,0.30008185891544126,0.26007094439338235,0.0015497185202213572,0.39710001233354864,0.12352210034012083,-0.011984630946084202,0.06568064569199579,0.14041113869585348
90,1791341477.2103496,0.38151252297794125,0.11636977251838238,0.030289952895221357,0.40001401274376497,0.12719917894848617,-0.005039162846502119,0.06831146682759591,0.144469653517617
91,1791341477.2303495,0.5060535386029412,0.030149069393382365,0.05903018727022136,0.5103760508948307,0.13109593321260965,2.629584053261049e-05,0.07028090549182428,0.14874659684546393
92,1791341477.2559505,0.5204236557904413,0.11157973345588237,0.04945010914522136,0.5345429185003274,0.13730666291797108,0.005809845071395416,0.07263202256015472,0.15544222297240148
93,1791341477.2759504,0.5683240464154412,0.13552992876838238,0.05424014820772136,0.5867730200031175,0.1430639450443653,0.010021007163921033,0.07434878947878376,0.16154087858247224
94,1791341477.2860677,0.6545447495404413,-0.03691147748161764,0.04945010914522136,0.6574470317944323,0.14646740102963532,0.011906576494570921,0.07516565393024158,0.16505860068156983
95,1791341477.3060677,0.8700965073529413,-0.14708237591911763,-0.041560633042278645,0.8834186117762488,0.15447315329819347,0.014798888995001917,0.0765500571838639,0.17303431295620647
96,1791341477.3309617,1.0090076401654413,-0.36742417279411765,-0.017610437729778643,1.0739679083579308,0.1664515882126747,0.016898334549491786,0.07790427490436125,0.18455557693400287
97,1791341477.3509617,1.0281677964154412,-0.30036362591911764,-0.06072078929227864,1.0728626844164826,0.17768735997059434,0.017330354364258456,0.0787115664833378,0.19511189039618076
98,1791341477.3755596,0.8365662339154413,-0.5254954618566177,-0.09425106272977865,0.9924070772546201,0.1928734979862909,0.016258413740457642,0.07926961954373914,0.20916069139643043
99,1791341477.3955595,1.1239685776654413,-0.8176878446691176,-0.3241729377297787,1.4272374954629161,0.20630967611546858,0.013502805685553794,0.07902766338452823,0.22133996430891026
100,1791341477.4063342,1.406580882352941,-0.8128978056066176,-0.33854305491727865,1.6594830583629216,0.2145073172106849,0.010923283977736595,0.07838132836794011,0.22864019748615186
101,1791341477.4263341,1.3107801011029412,-0.37700425091911766,-0.07988094554227865,1.3662568002097009,0.23151744098152394,0.005068511054032706,0.07673391755597564,0.24395513806113112
102,1791341477.451042,1.2628797104779412,-0.11355210248161764,-0.027190515854778646,1.2682659686624465,0.25414867937029606,-0.0019885245035684935,0.07480558822409751,0.26493656124612186
103,1791341477.471042,1.4832215073529411,-0.5542356962316176,-0.23795223460477866,1.6011697326658045,0.2738390548235075,-0.007845737437837716,0.07308110418296425,0.2835317113325716
104,1791341477.4959335,1.7466736557904412,-1.1865208524816175,-0.49661434397977866,2.1691764335462698,0.300699195524793,-0.017291819747538323,0.06988544062416868,0.3091973286279706
105,1791341477.5159335,1.6700330307904412,-1.2056810087316177,-0.5876250861672787,2.1419571098974646,0.3241686593376375,-0.027331417945258465,0.06607657181573598,0.33196150295867105
106,1791341477.5254798,1.5071717026654412,-0.7697874540441176,-0.4535039924172787,1.7520859387762864,0.3359654128568755,-0.03281903456525785,0.06378582969127505,0.343538177987965
107,1791341477.5454798,1.607762522977941,-0.6212962431066176,-0.35770321116727866,1.7603581849357177,0.36164542951605416,-0.04467798770687387,0.05848967402299653,0.3690590484498426
108,1791341477.5858247,1.7514636948529412,-0.8703782743566176,-0.5205645392922786,2.0238999121568493,0.41584256928976915,-0.06952570135500509,0.04675103093331106,0.4241986851414667
109,1791341477.6058247,1.8664246323529412,-1.2008909696691177,-0.8606573127297786,2.3804224497432993,0.44410621798453825,-0.08310257909887359,0.03973293734688079,0.45355824081988183
110,1791341477.6154163,1.928695140165441,-1.3493821806066177,-0.9899883674172787,2.553580658733534,0.4583577722749734,-0.09047167774914848,0.03554076789906399,0.46855108372778015
111,1791341477.6354163,1.804154124540441,-1.2631614774816176,-0.9756182502297787,2.4088129843288466,0.4892163001094621,-0.10745137883458794,0.025162217176297255,0.5015092464546118
112,1791341477.6615906,1.7514636948529412,-1.4787132352941177,-0.9804082892922787,2.4930740703667285,0.5305235447661429,-0.13172225314510874,0.009777199961332098,0.5467189197054934
113,1791341477.6815906,1.770623851102941,-1.6655247587316178,-0.9851983283547787,2.622917705578212,0.5626353658034355,-0.15220232659735713,-0.003163641510004608,0.582867147557673
114,1791341477.6909535,1.765833812040441,-1.6894749540441176,-0.9372979377297787,2.6174457198116152,0.5778968393511835,-0.16270781168386142,-0.009663143642715512,0.6004431407386533
115,1791341477.7109535,1.8616345932904412,-1.5888841337316177,-0.8654473517922787,2.5960037111075183,0.6110478066898946,-0.1866998192493725,-0.024168197362819333,0.6393906054455659
116,1791341477.751058,1.8616345932904412,-1.5122435087316177,-0.7696465705422787,2.518912390732173,0.6787509408929097,-0.23692067342639866,-0.053809423965843164,0.7209228109633958
117,1791341477.771058,1.8328943589154412,-1.9146067899816177,-0.7600664924172786,2.75733965337665,0.7129914666240094,-0.26334910341177337,-0.06866863544759445,0.7631677163249736
118,1791341477.7655773,1.8616345932904412,-1.9625071806066177,-0.7648565314797787,2.811071558430251,0.7129914666240094,-0.26334910341177337,-0.06866863544759445,0.7631677163249736
119,1791341477.7855773,1.928695140165441,-1.9289769071691176,-0.8654473517922787,2.861785451569316,0.7481262555645589,-0.2932241802392399,-0.08379414423716128,0.8078952733804426
120,1791341477.8117738,1.8137342026654413,-2.053517922794118,-0.8893975471047787,2.8805547406621366,0.7945965094885216,-0.33431019134016254,-0.10408195834845928,0.8683202007202693
121,1791341477.8317738,1.7227234604779411,-2.259489602481618,-0.6259453986672787,2.9094461718884523,0.8300576687953999,-0.36744211553186323,-0.11952057581218078,0.9155842996879425
122,1791341477.8548896,1.7466736557904412,-2.2882298368566176,-0.3720733283547787,2.9026372849162896,0.8709104786853871,-0.4078761024917839,-0.13641812370888629,0.9713176006560116
123,1791341477.8748896,1.7466736557904412,-2.173268899356618,-0.40081356272977864,2.8168454130127922,0.9061946593593863,-0.4443044961978085,-0.1500043267208558,1.0203413860213844
124,1791341477.9007304,1.6939832261029413,-2.1828489774816178,-0.5061944221047787,2.809028590417097,0.9516131110941298,-0.4927537763455232,-0.1666829806401954,1.084507728577405
125,1791341477.9207304,1.6652429917279412,-2.3169700712316175,-0.43913387522977865,2.886905452704746,0.9865315994932287,-0.5313770579303667,-0.17907343748784377,1.1347570094549375
126,1791341477.9307005,1.732303538602941,-2.240329446231618,-0.4822442267922787,2.8727184115021127,1.0038682926679596,-0.5511508173792241,-0.18501266137352643,1.1600639884895945
127,1791341477.9507005,1.684403147977941,-2.2786497587316177,-0.6451055549172787,2.906134866944545,1.0385538233735188,-0.5916451520106535,-0.19683054546557238,1.2113547348195484
128,1791341477.97595,1.6556629136029413,-2.326550149356618,-0.6403155158547786,2.926441395414549,1.082100124371709,-0.643820701584023,-0.2119465799913896,1.2768583036983618
129,1791341477.99595,1.564652171415441,-2.3648704618566176,-0.5732549689797787,2.892986342576991,1.1162494684945186,-0.6859866068441095,-0.22394426554136435,1.3291882992084496
130,1791341478.0209134,1.5071717026654412,-2.2882298368566176,-0.5349346564797787,2.791723018907758,1.1582312640056704,-0.7394340799179401,-0.2387479572358319,1.3947268573267477
131,1791341478.0409133,1.526331858915441,-2.2642796415441175,-0.5445147346047786,2.7844474379763637,1.1913709878416257,-0.7826604013965296,-0.2504483980131254,1.4472893748840447
132,1791341478.0659082,1.5023816636029412,-2.4223509306066178,-0.5109844611672787,2.8958659868328684,1.2322523928068516,-0.8373645730567973,-0.2648562206553871,1.5131999885701357
133,1791341478.0859082,1.492801585477941,-2.575632180606618,-0.6690557502297787,3.0512248852382853,1.2645502199257996,-0.8820680061230811,-0.2764256079372074,1.5663787354480367
134,1791341478.095068,1.646082835477941,-2.556472024356618,-0.8127569221047787,3.1473340666351826,1.2792798734486057,-0.9029963755869828,-0.2819474614840706,1.5910543108175847
135,1791341478.115068,1.607762522977941,-2.369660500919118,-0.7121661017922787,2.9508256092915164,1.3114978907451065,-0.9492272243394215,-0.2944830355050505,1.6455331352045923
136,1791341478.140697,1.5886023667279412,-2.2259593290441178,-0.6786358283547786,2.817640680012079,1.3527348785376585,-1.0084171015184846,-0.3108105956196162,1.7156339727915906
137,1791341478.160697,1.6317127182904412,-2.1780589384191176,-0.7600664924172786,2.8256199686358565,1.384918225403014,-1.054284320538547,-0.3237988700426652,1.7704122762305299
138,1791341478.1707594,1.5981824448529411,-2.2355394071691177,-0.6738457892922787,2.8294684511033354,1.4011191388369733,-1.0772305295927869,-0.3304355188150863,1.7979844513222614
139,1791341478.1907594,1.5790222886029412,-2.216379250919118,-0.5972051642922787,2.786090877926818,1.4332555219080145,-1.122674799477371,-0.343554358113499,1.8527411296347227
140,1791341478.2158334,1.6029724839154411,-2.360080422794118,-0.6594756721047786,2.9282091025649364,1.4734854390006782,-1.1797085775438567,-0.35989765143870606,1.9215613407821952
141,1791341478.2358334,1.5886023667279412,-2.3313401884191176,-0.6163653205422787,2.887682593720939,1.505548372945749,-1.2254141672604657,-0.37289203903403895,1.9767054048029553
142,1791341478.2601445,1.5550720932904412,-2.1588987821691177,-0.4918243049172787,2.7057317520200295,1.5444084342037256,-1.2808253420982711,-0.3883387120798205,2.0436530830599824
143,1791341478.2801445,1.526331858915441,-2.1541087431066175,-0.4439239142922787,2.6771144656792725,1.576204186613385,-1.3260421850142903,-0.400543718532639,2.0983905224697783
144,1791341478.2904603,1.5407019761029412,-2.2738597196691175,-0.39602352366727867,2.775073915267677,1.5925172098007718,-1.349292307090645,-0.4065445709150396,2.1264945994820033
145,1791341478.3104603,1.4832215073529411,-2.1588987821691177,-0.23316219554227866,2.6296681541509614,1.6239359862265126,-1.3942562619150327,-0.417377397718035,2.1806701959206567
146,1791341478.336569,1.607762522977941,-2.0726780790441177,-0.18047176585477864,2.6293468405505482,1.664851597867138,-1.4524353676735908,-0.43020770664778835,2.250861615259595
147,1791341478.356569,1.5838123276654412,-2.1876390165441175,-0.24753231272977866,2.712102173926434,1.6962800224253534,-1.4967075499358862,-0.439203812316394,2.3044303836887097
148,1791341478.3808196,1.5407019761029412,-2.2020091337316177,-0.3433330939797787,2.7093328362581635,1.7343544803372941,-1.5503204055239652,-0.4495502854844368,2.36929826793276
149,1791341478.4008195,1.5502820542279412,-2.1062083524816178,-0.3433330939797787,2.6376818771690917,1.765681740642512,-1.5943661733289147,-0.45783332280476075,2.4226528549018957
150,1791341478.410791,1.6365027573529412,-2.130158547794118,-0.39123348460477864,2.7145497514394763,1.7813409825623272,-1.6162002497030563,-0.4618928902230079,2.449208848860158
151,1791341478.430791,1.7083533432904412,-2.1062083524816178,-0.5540948127297787,2.767960590595359,1.8130553542588004,-1.6597792238790803,-0.47023194727515105,2.502629591822435
152,1791341478.4552028,1.5981824448529411,-2.173268899356618,-0.5636748908547786,2.755905335552547,1.8520131669096596,-1.7128280024505544,-0.480930298667401,2.5680783649573113
153,1791341478.4752028,1.4401111557904411,-2.1780589384191176,-0.48703426585477866,2.656136904674945,1.8837000656243637,-1.7562971251172996,-0.48995648463252256,2.6216336292018347
154,1791341478.500083,1.416160960477941,-2.1253685087316176,-0.48703426585477866,2.5999818345531893,1.9225358946866573,-1.81029198559409,-0.5013184726634407,2.687865612432739
155,1791341478.520083,1.4401111557904411,-2.0726780790441177,-0.4822442267922787,2.5695279828514375,1.9533558265717053,-1.8534823553595534,-0.5105357445691735,2.740737596581188
156,1791341478.5306745,1.3874207261029412,-2.043937844669118,-0.42955379710477865,2.507415930534419,1.9694751813001112,-1.8761941331958714,-0.515409101139349,2.7684984119072533
157,1791341478.5506744,1.4401111557904411,-1.9625071806066177,-0.5014043830422786,2.485309021087443,1.9995889755764014,-1.9186575174552647,-0.524627557401497,2.820432026218562
158,1791341478.5756083,1.4257410386029412,-1.9720872587316176,-0.5588848517922786,2.4968415934478214,2.036859453601304,-1.9710132962269613,-0.5363790254194891,2.884682357996879
159,1791341478.5956082,1.3203601792279411,-1.9481370634191177,-0.43913387522977865,2.3940400124334653,2.0663897759275027,-2.0125900253556193,-0.5458882542169184,2.935724663913604
160,1791341478.6207182,1.3059900620404412,-1.9768772977941176,-0.27148250804227864,2.3848179479480387,2.102849910996718,-2.0643515099270147,-0.5573745463372036,2.9990317253442744
161,1791341478.6407182,1.3203601792279411,-2.0295677274816177,-0.21400203929227865,2.4306980553221726,2.131473683846422,-2.105404747067104,-0.5658792252944657,3.0489553147795387
162,1791341478.6657639,1.3778406479779413,-2.0583079618566176,-0.21400203929227865,2.48613623719294,2.167010346097001,-2.1567822301717117,-0.5757359219205207,3.1111276541256836
163,1791341478.6857638,1.444901194852941,-1.9960374540441177,-0.27627254710477867,2.4795627641013933,2.1953653334810452,-2.1977367428628054,-0.5831616683251649,3.1606570946218357
164,1791341478.695101,1.444901194852941,-2.010407571231618,-0.38644344554227866,2.505756692489408,2.2086411631769356,-2.2167944250597973,-0.586572526072357,3.1837620261254878
165,1791341478.715101,1.4257410386029412,-2.0247776884191175,-0.4343438361672787,2.5141831207557193,2.2371180953386682,-2.257545045131861,-0.5940137696829367,3.233273783932326
166,1791341478.7407897,1.411370921415441,-1.9960374540441177,-0.39602352366727867,2.4764829955123537,2.273674433265976,-2.309781990110949,-0.6037377118580162,3.2968450820515978
167,1791341478.7607896,1.3874207261029412,-2.053517922794118,-0.34812313304227865,2.5026110057729416,2.3020645145196825,-2.3504251748029286,-0.6112889466613306,3.346292531693611
168,1791341478.785863,1.3538904526654412,-2.0822581571691177,-0.37686336741727866,2.512139404694145,2.337472461418566,-2.4015125094642684,-0.6206989967983194,3.40827039502883
169,1791341478.805863,1.3826306870404412,-2.139738625919118,-0.4726641486672787,2.5910539171216644,2.365584241338977,-2.4424833090123603,-0.6283534109091317,3.4578232353138603
170,1791341478.8153858,1.3970008042279412,-2.1349485868566176,-0.5014043830422786,2.6001967369544543,2.378947025465757,-2.462118247082498,-0.6321470359411565,3.481526258358273
171,1791341478.8353858,1.492801585477941,-2.096628274356618,-0.4726641486672787,2.616814493209717,2.407136512680434,-2.5035172299930433,-0.6403803877338924,3.531570720309247
172,1791341478.860741,1.5407019761029412,-2.0774681181066175,-0.4822442267922787,2.631006623935303,2.443281910371381,-2.556066073647714,-0.6510684732293682,3.5954124135117085
173,1791341478.880741,1.4353211167279412,-2.1780589384191176,-0.45829403147977865,2.6484185595639045,2.4719805586184695,-2.597682091122753,-0.6596453829591818,3.6460625556875637
174,1791341478.9051197,1.2676697495404412,-2.1349485868566176,-0.35770321116727866,2.5085740271517554,2.5066573699003274,-2.648686343362289,-0.6700238865636403,3.707802924125737
175,1791341478.9251196,1.3203601792279411,-2.0151976102941176,-0.36728328929227866,2.4370616377144256,2.5347204945176265,-2.69047820869729,-0.6783485780491941,3.7581428618593016
176,1791341478.9356961,1.454481272977941,-1.9960374540441177,-0.41039364085477864,2.5036182280540493,2.549536005650346,-2.712445556537121,-0.6827074178226831,3.7846511278631234
177,1791341478.955696,1.5359119370404413,-2.0583079618566176,-0.41518367991727867,2.6015446627446774,2.5778351182011168,-2.7538360113953537,-0.6909519093614891,3.8348743415318216
178,1791341478.9804807,1.449691233915441,-2.0295677274816177,-0.39602352366727867,2.525387983147148,2.613193613042407,-2.805033157270705,-0.7011441097553679,3.8972547947598106
179,1791341479.0004807,1.4305310776654412,-2.0295677274816177,-0.4439239142922787,2.522425968444292,2.641766691620189,-2.846238494814899,-0.7093949630457353,3.9475620369938103
180,1791341479.0256598,1.3922107651654412,-2.019987649356618,-0.37686336741727866,2.482061021791549,2.6776737333871914,-2.897980262782161,-0.719774327569277,4.010773155960639
181,1791341479.0456598,1.3778406479779413,-2.053517922794118,-0.28585262522977867,2.4893959977889613,2.706071848234103,-2.9390245498703447,-0.7277761448986712,4.060830982647429
182,1791341479.0553935,1.368260569852941,-2.1157884306066177,-0.21400203929227865,2.52873378253314,2.7198243522673122,-2.959047519892073,-0.7314512567856903,4.0851472033721254
183,1791341479.0753934,1.3491004136029412,-2.1972190946691175,-0.09904110179227865,2.580242782337823,2.7479193035458285,-3.000487382962374,-0.7383394481594676,4.135109451371828
184,1791341479.1008193,1.3826306870404412,-2.3552903837316177,-0.22358211741727865,2.7402644711183166,2.7834880273737514,-3.0539487696108067,-0.7463980674213406,4.198990207298737
185,1791341479.1208193,1.3874207261029412,-2.551681985294118,-0.4630840705422787,2.941167129165657,2.8114246566613175,-3.097053966262564,-0.7528161282007536,4.250009881506755
186,1791341479.1451278,1.2724597886029412,-2.719333352481618,-0.5109844611672787,3.0454938704723693,2.845135579150684,-3.151196131250513,-0.7612225464983998,4.313269442853623
187,1791341479.1651278,1.2006092026654414,-2.829504250919118,-0.5205645392922786,3.1174579713386494,2.8724207381821083,-3.1973834224452857,-0.7686488536300983,4.366335157480864
188,1791341479.176035,1.1527088120404412,-2.906144875919118,-0.5061944221047787,3.167119896397454,2.886994021827306,-3.223485764993092,-0.7729312855033138,4.395795460583842
189,1791341479.196035,1.1143884995404412,-2.819924172794118,-0.3720733283547787,3.0548768600206437,2.9131086695590414,-3.2727581239257217,-0.7809233092025925,4.450504361669336
190,1791341479.2204611,1.2437195542279411,-2.551681985294118,-0.11820125804227864,2.8411073230425945,2.944538663303842,-3.333749122718858,-0.7901181189162001,4.517574326423374
191,1791341479.240461,0.9323670151654413,-2.412770852481618,0.06861026539522136,2.5875623289248493,2.9696772079324436,-3.3836438655226795,-0.7965918419584734,4.571934720736669
192,1791341479.2653422,1.0425379136029413,-2.369660500919118,0.09735049977022137,2.590685876504778,2.9999452709277783,-3.4453294216474815,-0.8031277758337471,4.638424374348187
193,1791341479.2853422,1.0137976792279413,-2.1588987821691177,0.07819034352022136,2.3863661529361058,3.0237103712524016,-3.4942687999301802,-0.8073301299441785,4.690897653338913
194,1791341479.3108728,0.9084168198529413,-2.087048196231618,0.21710147633272137,2.2865092046635693,3.0531773496601042,-3.5555006096239623,-0.8113244737767857,4.756230010760944
195,1791341479.3308728,0.8078259995404412,-1.9385569852941176,0.3129022575827214,2.1233214202203334,3.0753728175676702,-3.602311289681493,-0.8131891730676188,4.805813274149886
196,1791341479.339823,0.5156336167279413,-1.7038450712316175,0.27937198414522135,1.8019474906293609,3.084704042389249,-3.622562409703387,-0.8135009027832502,4.827021976349159
197,1791341479.359823,0.43899299172794126,-1.6655247587316178,0.19794132008272136,1.7337440223200056,3.1038596159010465,-3.666081234163123,-0.813377029809301,4.871927577799756
198,1791341479.3848314,0.6641248276654412,-1.6032542509191177,0.05903018727022136,1.736367053022209,3.126288347478878,-3.718466669282849,-0.8127633859759987,4.925571796627562
199,1791341479.4048314,1.0185877182904413,-1.4068626493566176,-0.07509090647977865,1.7385114604864713,3.144058789631353,-3.7585918802620975,-0.8123703404487453,4.9670981634220945
200,1791341479.430667,0.9323670151654413,-1.2679515165441175,0.006339757582721357,1.5738645087177134,3.1673512137243383,-3.8078326689473387,-0.8120719889696815,5.019080021383682
201,1791341479.450667,0.42941291360294126,-0.9997093290441176,0.030289952895221357,1.0884537997513728,3.184720491037535,-3.8436350067134373,-0.81182072669417,5.0571758485500204
202,1791341479.4604003,0.11327033547794123,-0.9565989774816176,-0.03198055491727864,0.963812496552612,3.192301829617717,-3.859873535062352,-0.8117180207969346,5.074278354933029
203,1791341479.4804003,0.6114343979779413,-0.7889476102941176,-0.33854305491727865,1.0539932423180758,3.2066301090226976,-3.8908533321950745,-0.8120944242031136,5.106928006401326
204,1791341479.5057356,0.9706873276654413,-0.5829759306066177,-0.4822442267922787,1.2307129307971907,3.225064375460084,-3.926817742279136,-0.8140593348748234,5.146224869517148
205,1791341479.5257356,0.8030359604779412,-0.20456284466911764,-0.31938289866727865,0.8880980504431728,3.2400943430015046,-3.9521311535903374,-0.8165802286633962,5.175360400645892
206,1791341479.5503,0.5874842026654412,0.18822035845588236,-0.3720733283547787,0.7204187347589684,3.2583471462832683,-3.978588015276522,-0.8204858807945693,5.207608453174791
207,1791341479.5702999,0.7647156479779412,0.11157973345588237,-0.5205645392922786,0.9317872604564792,3.2730075071907985,-3.9964480918899152,-0.8245277879300424,5.231063139206664
208,1791341479.595877,1.2389295151654411,0.14511000689338238,-0.7265362189797787,1.4435574582045931,3.292787259820029,-4.0153700645735135,-0.8313137364549832,5.2589663644413
209,1791341479.615877,1.2628797104779412,0.6480641084558825,-0.6930059455422787,1.5795915587146299,3.309686725982024,-4.026756930781484,-0.837953377526878,5.279295735857865
210,1791341479.626043,0.7982459214154413,0.9594166475183825,-0.5588848517922786,1.3674900848469345,3.3185598838542405,-4.030451125375826,-0.8417766377853917,5.288285533581863
211,1791341479.646043,1.0856482651654413,1.0216871553308824,-0.6498955939797787,1.6262967386363327,3.3362235194156904,-4.033656947331527,-0.8499831066437035,5.303135583957664
212,1791341479.670621,1.9143250229779412,0.8109254365808825,-1.0905791877297788,2.347680413089212,3.360204212813749,-4.033627493687435,-0.8617635401604712,5.320127771848375
213,1791341479.690621,2.0149158432904413,0.8636158662683825,-1.2582305549172788,2.527619898113789,3.382685007480086,-4.031095311665255,-0.8734350283949487,5.33433932370143
214,1791341479.7000191,1.8520545151654413,0.9115162568933824,-1.3205010627297786,2.450447075616222,3.3943900931558075,-4.028832663901524,-0.8799145723301551,5.341125948040648
215,1791341479.720019,2.1011365464154412,0.8492457490808825,-1.2486504767922788,2.5874932158767376,3.4214926307445697,-4.022098730601742,-0.8954888258905781,5.355911711206826
216,1791341479.7457342,2.8675427964154414,0.6432740693933825,-1.3684014533547788,3.2417781779713866,3.460695574530221,-4.011860736155263,-0.9175571576453959,5.377113683327107
217,1791341479.7657342,3.2267957261029414,0.4708326631433824,-1.3636114142922786,3.5345905199707484,3.4957537171243778,-4.00342134988736,-0.9362443092648695,5.396686943130359
218,1791341479.7898142,3.2124256089154413,0.3654518037683824,-1.3205010627297786,3.4924141178221952,3.5432615633128988,-3.993274127953962,-0.9602163035040973,5.424293144415419
219,1791341479.8098142,3.068724437040441,0.3462916475183824,-1.2678106330422787,3.3383126541540764,3.586222786793329,-3.9850427955381837,-0.9810224745347128,5.450134406996648
220,1791341479.8209238,3.7345398667279412,0.20259047564338237,-1.5647930549172788,4.054184038955201,3.6121758852554695,-3.9806989665209027,-0.9932064556643879,5.466281912932696
221,1791341479.8409238,4.1991736557904416,-0.42969468060661764,-1.6126934455422788,4.518680898151707,3.663790081869569,-3.974392660793446,-1.0166167056971533,5.500242204892177
222,1791341479.8661432,4.304554515165441,-0.5207054227941177,-1.5887432502297787,4.617838111769302,3.735196028833004,-3.9694310324316437,-1.0477638325782586,5.550304599199964
223,1791341479.8861432,3.9117713120404414,-0.40574448529411766,-1.4019317267922786,4.175164182596412,3.7956540059519415,-3.967476159056603,-1.073245574308641,5.594614595157976
224,1791341479.9099207,4.381195140165441,-0.6644065946691176,-1.5839532111672787,4.7058702441117335,3.871538397658106,-3.9674090859418425,-1.1043207599018086,5.652315345104614
225,1791341479.9299207,5.1236511948529415,-1.1769407743566176,-1.8713555549172787,5.5802296337857715,3.940050064175131,-3.9701231496735647,-1.1317212761735351,5.706721070695873
226,1791341479.9403608,4.941629710477942,-1.2440013212316177,-1.8186651252297787,5.4106179240851375,3.978330242133268,-3.9732230115661604,-1.146768343242752,5.738352572661839
227,1791341479.9603608,4.630277171415441,-1.1769407743566176,-1.6462237189797788,5.05318798417452,4.055020988737508,-3.9819020305206942,-1.1764673164391886,5.8036897183099105
228,1791341480.000427,4.8841492417279415,-1.2919017118566176,-1.8186651252297787,5.369494081037498,4.21420183801707,-4.004099603908646,-1.2374511111280002,5.943365714980001
229,1791341480.020427,5.281722483915442,-1.6176243681066176,-2.158757898667279,5.930728172699252,4.296990577592538,-4.017882251229102,-1.2692924771718104,6.018189860852335
230,1791341480.0301943,5.238612132352942,-1.9146067899816177,-2.3072491096047787,6.035907113868735,4.339063683425047,-4.0261910968009325,-1.2857817192175183,6.057303280029091
231,1791341480.0501943,5.094910960477942,-1.8954466337316176,-2.3168291877297786,5.909190563997696,4.427792231469047,-4.046367724606806,-1.3214173705205496,6.14203383863283
232,1791341480.0755444,5.233822093290442,-1.8475462431066176,-2.4605303596047787,6.071287382027748,4.543024172370195,-4.0752220117404985,-1.3688934975451421,6.254628085133084
233,1791341480.0955443,5.305672679227942,-2.2020091337316177,-2.5132207892922787,6.270190231553919,4.636108897498384,-4.100646263969297,-1.4081920028338137,6.347583021002101
234,1791341480.105801,5.233822093290442,-2.642692727481618,-2.738352625229779,6.471112242590311,4.684793327472709,-4.115455850124421,-1.4293625456197967,6.397448136739902
235,1791341480.125801,5.118861155790442,-2.824714211856618,-2.810203211167279,6.486832200618411,4.781013894461438,-4.148202963929753,-1.4727742912261297,6.498826494213055
236,1791341480.150688,5.348783030790442,-2.791183938419118,-2.781462976792279,6.643547544785603,4.902323616215231,-4.193321473450401,-1.5291274670597017,6.629853137763931
237,1791341480.170688,5.741566233915442,-2.772023782169118,-2.920374109604779,7.012722980939647,5.001824717506692,-4.232486330110439,-1.5761745683238768,6.7391777917683395
238,1791341480.1955502,5.779886546415442,-2.867824563419118,-3.040125086167279,7.132591868004778,5.128446114896886,-4.284386275292378,-1.6370011825015307,6.880167016928155
239,1791341480.2155502,5.731986155790442,-2.997155618106618,-2.944324304917279,7.106873623601869,5.232293291450997,-4.3286711458945595,-1.6875690079177317,6.9972977736800415
240,1791341480.2253654,5.660135569852942,-2.882194680606618,-2.8485235236672786,6.961197246948072,5.283999048187852,-4.3514724823918485,-1.7129275826404087,7.056208586034989
241,1791341480.2453654,5.593075022977942,-2.886984719669118,-2.886843836167279,6.924668679343417,5.390433374387714,-4.399618226731414,-1.7654517532765772,7.178456129130242
242,1791341480.2706401,5.468534007352942,-3.088166360294118,-2.987434656479779,6.954595709684662,5.525731249657268,-4.462661863889931,-1.8330073851275632,7.33545996027438
243,1791341480.29064,5.420633616727942,-3.399518899356618,-2.9730645392922788,7.055431263124962,5.633067324259188,-4.514796993145595,-1.8873865366146763,7.4617067288621985
244,1791341480.315584,5.540384593290442,-3.447419289981618,-2.7766729377297787,7.091577666896724,5.767361502164274,-4.582875323202725,-1.9557911564536332,7.621700858229039
245,1791341480.335584,5.846947093290442,-2.863034524356618,-2.1539678596047787,6.857356235431106,5.875968082194214,-4.638738463650248,-2.0098069558376337,7.751401127334771
246,1791341480.3454778,6.043338694852942,-2.259489602481618,-1.8761455939797786,6.719163499591235,5.930459253462093,-4.666029534474708,-2.0355106218762558,7.815720188526166
247,1791341480.3654778,6.196619944852942,-1.9002366727941176,-2.1635479377297786,6.833003573278424,6.042447527905954,-4.719161448943485,-2.0857349612028977,7.945561480290439
248,1791341480.3906035,5.765516429227942,-2.1588987821691177,-2.465320398667279,6.631728908469768,6.184575468995704,-4.783547260143178,-2.1480895547771737,8.108365239496155
249,1791341480.4106035,5.521224437040442,-2.3505003446691175,-2.5802813361672787,6.531969299394738,6.2976688017667595,-4.833874553355813,-2.1978468368256374,8.237566767709485
250,1791341480.435016,5.731986155790442,-2.546891946231618,-2.6138116096047788,6.795169976274139,6.43561010447643,-4.895057295049947,-2.2589814141253455,8.395335631648361
251,1791341480.455016,5.8421570542279415,-2.369660500919118,-2.125227625229779,6.653020546708191,6.54902906548429,-4.945037755249606,-2.308662064668544,8.52485194183698
252,1791341480.4659157,5.626605296415442,-2.163688821231618,-2.4365801642922786,6.50208884696261,6.61094492518521,-4.971896701844648,-2.3354053914153785,8.595258458004494
253,1791341480.4859157,5.506854319852942,-2.987575539981618,-3.217356531479779,7.042899627130509,6.724212956063053,-5.0215144883852645,-2.385596857773256,8.724776215088097
