imu_index,t_imu,ax,ay,az,mag,vx,vy,vz,velocity
0,1790648610.5298705,0.04368515625000002,0.09254355468749997,-0.049624804687500614,0.11373356422383762,0.0,0.0,0.0,0.0
1,1790648610.5498705,0.014944921875000022,0.07338339843749997,-0.059204882812500616,0.0954656587728208,0.0001436435544169509,0.0003668831120267276,-0.00022651594120392371,0.0004544734978361789
2,1790648610.5599356,0.07721542968750003,0.04464316406249997,-0.03525468750000061,0.09590686977510657,0.0002746595092367383,0.0006129193249203262,-0.00039471754282750657,0.0007790442115122471
3,1790648610.5799356,0.07721542968750003,0.06380332031249997,-0.02567460937500061,0.10340344206690413,0.0007275923816315822,0.0011911456684630972,-0.0007702050057915497,0.001594187701700486
4,1790648610.6049106,0.048475195312500025,0.09733359374999997,-0.02567460937500061,0.11172671390242321,0.0014437887890277098,0.0021067292119879184,-0.00126494658185395,0.0028500743665577097
5,1790648610.6249106,0.03889511718750002,0.10691367187499998,0.0030656249999993905,0.11381019915396486,0.002062343527142151,0.0030363177209547267,-0.0016356199095345135,0.004018424892292318
6,1790648610.63419,0.053265234375000026,0.12607382812499998,0.022225781249999393,0.138657061425982,0.0023704284048496273,0.0035650779904048396,-0.0017642037169972684,0.0046304564197553934
7,1790648610.65419,0.08200546875000003,0.10212363281249998,0.007855664062499391,0.13120916409150848,0.003137744400499731,0.004876060332302924,-0.0019546465590935314,0.006118990722178102
8,1790648610.6793566,0.11553574218750003,0.09254355468749997,-0.049624804687500614,0.156126354204815,0.004331305261851508,0.006645689940822175,-0.0022371787545598042,0.008241988160677092
9,1790648610.6993566,0.10595566406250002,0.07338339843749997,-0.04483476562500061,0.1364620171396091,0.005469792664985798,0.008089965302530531,-0.0025697185318259335,0.010098000976772084
10,1790648610.7244253,0.09637558593750002,0.09254355468749997,0.007855664062499391,0.13384421742031888,0.007063178200141286,0.009940698664084103,-0.002993540679318669,0.01255656250794023
11,1790648610.7444253,0.12511582031250001,0.11170371093749998,0.03659589843749939,0.1716710438953702,0.008475944239163214,0.011502114882655859,-0.0032142716977599335,0.014644856437201356
12,1790648610.7549975,0.15385605468750002,0.12607382812499998,0.01743574218749939,0.19967548875043223,0.009331927345780696,0.012392225705821797,-0.0032706077977668075,0.015853990074986585
13,1790648610.7749975,0.12511582031250001,0.12128378906249998,0.007855664062499391,0.17442888934946993,0.011126797023814973,0.014194551068855945,-0.003323258609297346,0.018339436737255757
14,1790648610.8001895,0.10116562500000002,0.07817343749999997,0.01743574218749939,0.12903323261019223,0.013476032270492298,0.01650108711010431,-0.0033318442055696464,0.02156363854688694
15,1790648610.8201895,0.08679550781250002,0.06380332031249997,0.007855664062499391,0.10800942235375609,0.015343275610840219,0.018270539839856062,-0.003299700831489061,0.024085613093448574
16,1790648610.844847,0.10116562500000002,0.03027304687499997,-0.04004472656250061,0.11293591622775288,0.017647641203952423,0.02029880414125718,-0.0033255439743238653,0.027102397169876336
17,1790648610.864847,0.09637558593750002,0.03027304687499997,-0.059204882812500616,0.11708940635571746,0.019532686266962543,0.02178800004628928,-0.0034922356741831405,0.02946928042597454
18,1790648610.8749285,0.09158554687500002,0.02548300781249997,-0.04004472656250061,0.10315462281948494,0.02048248306616415,0.022468226965008654,-0.0036387013936640153,0.03062014832327067
19,1790648610.8949285,0.09158554687500002,0.07338339843749997,-0.0065144531250006105,0.11753924307288834,0.022358834718573074,0.023763559376270654,-0.00395551798101223,0.032867466691245316
20,1790648610.9193094,0.11074570312500003,0.10691367187499998,-0.0065144531250006105,0.15407005579918387,0.02467306857421264,0.025435455774213585,-0.004307624476137757,0.035697035618342254
21,1790648610.9393094,0.053265234375000026,0.14523398437499999,0.01264570312499939,0.15520956548482134,0.02653272091243696,0.026979433110444227,-0.004543939433894119,0.038111972863617304
22,1790648610.9640484,0.053265234375000026,0.12128378906249998,0.02701582031249939,0.13519170547610504,0.02868563683960112,0.029097290062925642,-0.004718814198692531,0.0411313172332384
23,1790648610.9840484,0.08679550781250002,0.10691367187499998,0.022225781249999393,0.13949185912589215,0.030375152785013095,0.030894919390384034,-0.004765121029611444,0.043587295503140146
24,1790648611.0096502,0.12032578125000003,0.10691367187499998,-0.01609453125000061,0.16176483178792375,0.0326111835486651,0.033261462752429416,-0.00480373372077151,0.04682830398953236
25,1790648611.0296502,0.11074570312500003,0.12128378906249998,-0.02567460937500061,0.16623343170543795,0.034442545106946054,0.03517517540976642,-0.0048920267210018934,0.04947235393622226
26,1790648611.0394623,0.07242539062500003,0.09254355468749997,-0.02567460937500061,0.12028687496124009,0.03534104820582477,0.03613058038390099,-0.00496663459697913,0.05078460383210517
27,1790648611.0594623,0.06763535156250003,0.10691367187499998,0.01264570312499939,0.12714160539455116,0.03710784076641266,0.03808505293662602,-0.005115439821851536,0.0534193862572571
28,1790648611.084807,0.08200546875000003,0.12607382812499998,0.01743574218749939,0.1514051258994497,0.03929538012411166,0.04063318041076194,-0.005218544729696741,0.05676632327787139
29,1790648611.104807,0.08679550781250002,0.14044394531249998,-0.02088457031250061,0.16641552580365818,0.0410158808364534,0.042742121888207696,-0.005292875935724606,0.05947441466687605
30,1790648611.1294212,0.09158554687500002,0.12607382812499998,-0.04004472656250061,0.16089158666614703,0.043145018991751743,0.045440318887055665,-0.005483114623579881,0.06289975985909042
31,1790648611.1494212,0.10116562500000002,0.12128378906249998,-0.0065144531250006105,0.15807175355045394,0.04490464286632522,0.04767487501350815,-0.005684342402292402,0.06573912386891337
32,1790648611.1599958,0.12990585937500002,0.10691367187499998,0.0030656249999993905,0.16827199288768485,0.04587871438852723,0.04886011124117372,-0.005777513442880507,0.06727218270597878
33,1790648611.1799958,0.11553574218750003,0.10691367187499998,-0.00172441406250061,0.1574230432956706,0.04781282055075357,0.05108627023750026,-0.0059252859501785,0.07022095007466682
34,1790648611.2042396,0.10595566406250002,0.13565390624999998,-0.01609453125000061,0.17288036026098047,0.05020838860520162,0.05382108150498965,-0.006109945359592604,0.07385744737665177
35,1790648611.2242396,0.11074570312500003,0.12128378906249998,-0.01609453125000061,0.16502545920604153,0.052213233321847255,0.056124160922415026,-0.006287713677425346,0.07691344821587497
36,1790648611.2500079,0.12511582031250001,0.11170371093749998,-0.01130449218750061,0.16810555931704224,0.054864675852686895,0.059096661666256815,-0.006535349102480681,0.08090277414531424
37,1790648611.2700078,0.14427597656250002,0.10212363281249998,-0.02088457031250061,0.1779914578540868,0.0570179866259984,0.061378436034291585,-0.006747003981385405,0.08404692303483208
38,1790648611.2794511,0.12990585937500002,0.07338339843749997,-0.030464648437500613,0.15227852859354357,0.05807638443784522,0.06241850535563487,-0.006868317422866145,0.08553426228374834
39,1790648611.299451,0.09158554687500002,0.06380332031249997,-0.0065144531250006105,0.1118088287158493,0.060313969771524874,0.06449663846985647,-0.0071421768637884835,0.08859233608989787
40,1790648611.3245633,0.07721542968750003,0.10212363281249998,0.022225781249999393,0.12994400452818286,0.06301999352134328,0.06702707108237763,-0.0074048672451226105,0.09229832013763924
41,1790648611.3445632,0.10116562500000002,0.12607382812499998,0.02701582031249939,0.16388699877320936,0.06511944129164815,0.06908237478584792,-0.0075088364350305034,0.09523286599066946
42,1790648611.3693821,0.15864609375000002,0.13565390624999998,-0.01130449218750061,0.20904151952814265,0.06781756551562391,0.07173750217003555,-0.007589258228992189,0.0990105461581145
43,1790648611.3893821,0.15385605468750002,0.08296347656249997,-0.01609453125000061,0.1755381951129062,0.07013442893077967,0.07388408740036119,-0.007685442540406853,0.10216047435027253
44,1790648611.399265,0.12032578125000003,0.09733359374999997,-0.02567460937500061,0.15687991481471347,0.07131079794204363,0.07491934613088898,-0.007756802438533115,0.1037222556247277
45,1790648611.419265,0.13469589843750002,0.08775351562499997,-0.02567460937500061,0.16279695982109527,0.07371684542164657,0.07697776290451148,-0.007956574961707891,0.10687869930825035
46,1790648611.444471,0.15385605468750002,0.07338339843749997,-0.030464648437500613,0.17316149553136914,0.07683981280199305,0.07948746067211714,-0.008276709042564568,0.1108653108421294
47,1790648611.4644709,0.14427597656250002,0.10212363281249998,-0.02088457031250061,0.1779914578540868,0.0793932831157739,0.08144337645636729,-0.008569645930676963,0.1140603165167104
48,1790648611.4900115,0.12032578125000003,0.12128378906249998,0.02701582031249939,0.17296793249020787,0.08267187055192765,0.08399442314468741,-0.008875877247265953,0.11818833485954532
49,1790648611.5100114,0.11074570312500003,0.14523398437499999,0.03180585937499939,0.18538914118327054,0.08520072666911888,0.08609219276894944,-0.0089914743772462,0.12145730151863465
50,1790648611.5198658,0.15864609375000002,0.10212363281249998,-0.00172441406250061,0.18868172419398513,0.08645893442220055,0.08715357279563622,-0.009017655072737704,0.12309431625983999
51,1790648611.5398657,0.19696640625000003,0.07817343749999997,-0.04483476562500061,0.21660334191848285,0.08916292542161623,0.0892550373578606,-0.009132658895879883,0.12649068907236724
52,1790648611.5644484,0.16822617187500002,0.05901328124999997,-0.03525468750000061,0.18172920859985978,0.09266125831202689,0.09170349951966894,-0.009400471252721287,0.13070581270890494
53,1790648611.5844483,0.12032578125000003,0.08775351562499997,0.01743574218749939,0.14994325007681714,0.09551333941907436,0.09361687055083312,-0.009612403862770885,0.13408696717703686
54,1790648611.6250925,0.17780625000000003,0.11649374999999998,0.02701582031249939,0.21427951576219845,0.10134876357310943,0.09754459667823402,-0.009842989504504898,0.14100852690991125
55,1790648611.6450925,0.18259628906250003,0.12128378906249998,-0.0065144531250006105,0.2193025316047922,0.10433011344331966,0.09954408823202092,-0.009908683105674625,0.14454058279226978
56,1790648611.654666,0.12511582031250001,0.12128378906249998,-0.01609453125000061,0.17499359964862723,0.10576408269527716,0.10053179202213997,-0.009951645485229943,0.1462590771317115
57,1790648611.674666,0.09637558593750002,0.12128378906249998,-0.00172441406250061,0.15492251178577113,0.10864267733432834,0.10264954905710581,-0.010054663932140695,0.1498040637859549
58,1790648611.6847134,0.12990585937500002,0.10691367187499998,0.01743574218749939,0.16914511710179927,0.1100424006534556,0.10372582604926002,-0.010086815109257755,0.15155896796371154
59,1790648611.7047133,0.13948593750000002,0.13565390624999998,-0.02088457031250061,0.19568973994125363,0.11281478115774447,0.10591070801243674,-0.010146387250149262,0.15507160311802867
60,1790648611.72982,0.17780625000000003,0.13086386718749998,-0.030464648437500613,0.2228643288611945,0.11637046783446826,0.10874390529102898,-0.0103066433612709,0.15960435338465465
61,1790648611.74982,0.12990585937500002,0.11170371093749998,0.01743574218749939,0.1722128231079056,0.11923962762594968,0.11102614336668054,-0.010434697765270968,0.1632598426579739
62,1790648611.7750762,0.10116562500000002,0.11649374999999998,0.01743574218749939,0.15527164124956003,0.12275704676007075,0.11390812394536035,-0.010506095810426948,0.16779371644726046
63,1790648611.7950761,0.07721542968750003,0.11649374999999998,-0.03525468750000061,0.14413850755995242,0.12539220189788144,0.1161974733569494,-0.01058088240961887,0.17128050730863745
64,1790648611.8046536,0.010154882812500023,0.11170371093749998,-0.049624804687500614,0.12265179135429186,0.12652758704795725,0.11729325816159615,-0.010672293978272848,0.17286074323888556
65,1790648611.8246536,-0.01379531249999998,0.12128378906249998,-0.03525468750000061,0.12705495317795504,0.1285374230379028,0.11958774551340004,-0.010961867662380316,0.17590696558365745
66,1790648611.8496304,-0.009005273437499978,0.1548140625,-0.030464648437500613,0.15803981682430082,0.13062817685741235,0.12254057310974663,-0.011392362677943434,0.17947060643610238
67,1790648611.8696303,-0.06169570312499998,0.21708457031249997,-0.01130449218750061,0.2259642936294762,0.13194516127709655,0.12510821206366363,-0.011748025389307235,0.18220759152887522
68,1790648611.8942378,-0.06648574218749999,0.27456503906249996,-0.01130449218750061,0.2827262034782629,0.13308591901135597,0.12870085798339104,-0.01216170942452865,0.1855361955546272
69,1790648611.9142377,-0.05211562499999998,0.30330527343749997,-0.049624804687500614,0.31172543769222594,0.133696107186544,0.13204963442383524,-0.012538896019228517,0.18833209748124566
70,1790648611.924854,0.014944921875000022,0.3416255859375,-0.06399492187500061,0.34788897896135984,0.13394182383735134,0.13407408845213284,-0.012799546682327372,0.1899476289992046
71,1790648611.944854,0.029315039062500024,0.4182662109375,0.007855664062499391,0.419365838123603,0.13440168207072933,0.13845570210014163,-0.01330113781662194,0.19341849408653078
72,1790648611.9699821,0.04368515625000002,0.4278462890625,0.0940763671874994,0.44023993776614184,0.13503036286492784,0.14472962215481133,-0.013644708182081073,0.19840877119190745
73,1790648611.9899821,0.10116562500000002,0.32246542968749997,0.1946671874999994,0.3900176289789277,0.1356729615634677,0.15009959692897556,-0.013444029641727568,0.20277520418101116
74,1790648612.015121,0.053265234375000026,0.27456503906249996,0.2186173828124994,0.35498831802779474,0.1366506816500542,0.1569625403050481,-0.012450411650593626,0.20848419749397687
75,1790648612.035121,-0.047325585937499984,0.22666464843749998,0.1467667968749994,0.2741478918404635,0.13732076783183403,0.16235540401532308,-0.011230408333721869,0.21293753206573374
76,1790648612.045275,-0.05211562499999998,0.1500240234375,-0.030464648437500613,0.16171376188171704,0.13753421118109235,0.16496953914506693,-0.010615351062102978,0.21504253944071802
77,1790648612.065275,-0.01379531249999998,0.07817343749999997,-0.15500566406250063,0.1741498000831349,0.13779269471243336,0.16968845663931956,-0.009863818771253738,0.21881109193434467
78,1790648612.090073,-0.07127578124999998,-0.031997460937500034,-0.10231523437500062,0.12873415119717066,0.1379068958824874,0.17474771129143543,-0.009550343177311738,0.2228144600072951
79,1790648612.110073,-0.05211562499999998,-0.060737695312500034,-0.09273515625000062,0.1224945517389518,0.13780009775992874,0.17807690089328687,-0.009628020236711233,0.22537290952570577
80,1790648612.1349506,0.07242539062500003,0.07817343749999997,-0.15500566406250063,0.18810443755851974,0.13772507473391485,0.18162937431990056,-0.010172386758848538,0.22816858521425026
81,1790648612.1549506,0.10116562500000002,0.20750449218749997,-0.059204882812500616,0.23832292400957739,0.1379341942919563,0.18448546084319226,-0.010865693192808296,0.23060526990087718
82,1790648612.164534,0.14427597656250002,0.17876425781249997,0.0030656249999993905,0.22974249789918633,0.13819578199554558,0.18592637388718555,-0.011188426196992809,0.23193074731256189
83,1790648612.184534,-0.009005273437499978,-0.07031777343750004,0.12281660156249939,0.1418083277887919,0.13886271448096296,0.18864505815826477,-0.01157209442121022,0.23452872917800485
84,1790648612.2091494,-0.004215234374999978,-0.21880898437500004,0.15634687499999939,0.26896000662983455,0.13953601939102467,0.19095544131251035,-0.011458092514917691,0.23678169092737808
85,1790648612.2291493,0.27360703125,-0.22359902343750004,0.1994572265624994,0.40575918481242834,0.1404051092902975,0.1918874430548644,-0.01084565407038026,0.23801683497006798
86,1790648612.2550027,0.32150742187500003,-0.04636757812500004,0.2760978515624994,0.42631795441819614,0.14251396920508935,0.1923880324417963,-0.009250621350850906,0.23960167036310837
87,1790648612.2750027,0.048475195312500025,0.07338339843749997,0.6209806640624994,0.6271777681537546,0.14445563025794486,0.192757720303739,-0.006856185938150797,0.2409771257516635
88,1790648612.2843149,-0.21018691406249998,0.1500240234375,0.8461124999999994,0.8846423622615759,0.14511113406502787,0.19306006081798405,-0.004883913034102332,0.24156423766610585
89,1790648612.3043149,-0.157496484375,-0.05594765625000003,0.6976212890624994,0.7173637471907652,0.1457562773592597,0.19375311890568334,0.0010322070271284673,0.24245871592222903
90,1790648612.3294291,-0.12396621093749999,-0.3481400390625001,0.6161906249999994,0.7185123482519488,0.14591472130479355,0.19373173206359953,0.009821488891456343,0.24273349901870342
91,1790648612.3494291,-0.18623671874999997,-0.22359902343750004,0.6832511718749994,0.7426390796083453,0.1455566687898105,0.1928596474359124,0.01772015506506181,0.2422717303645245
92,1790648612.374044,-0.3203578125,0.10212363281249998,0.5922404296874995,0.6810338398090373,0.14424686950073132,0.19172307610768458,0.028337889211974703,0.24159456375908828
93,1790648612.394044,-0.349098046875,0.32725546875,0.36710859374999943,0.6031038946680946,0.14233808631589998,0.1915821820269519,0.03710994792627874,0.24153884060616804
94,1790648612.4193046,-0.33951796875,0.43263632812499997,0.2569376953124994,0.6070120450123765,0.13898423593596293,0.1928705750847705,0.047709744458346144,0.242470402912426
95,1790648612.4393046,-0.37783828125,0.5236470703125,0.2042472656249994,0.6772628489295035,0.13565112215349892,0.1951720639581598,0.055534991920861795,0.24408501965266466
96,1790648612.4496222,-0.406578515625,0.6912984375,0.1611369140624994,0.8180248921220888,0.13358256684196618,0.19712140552183843,0.05924907918565004,0.24538052910396305
97,1790648612.4696221,-0.4592689453125,0.7248287109375,0.2042472656249994,0.8820553099681806,0.1288754917191184,0.2024574739748988,0.06591676060898082,0.24888338727870746
98,1790648612.4944878,-0.5359095703125,0.7918892578125,0.1323966796874994,0.9653064513322361,0.1220451706569459,0.2109251394282678,0.07359091549339045,0.25455856097698343
99,1790648612.5144877,-0.511959375,0.7823091796875,0.1323966796874994,0.9442663475238299,0.11580365556435845,0.21907555785587113,0.07923472560295586,0.26015904449644917
100,1790648612.5392141,-0.4880091796875,0.777519140625,0.1276066406249994,0.9268076543863366,0.1073901972927674,0.23053327871624826,0.08564782185792481,0.268353864252501
101,1790648612.559214,-0.3826283203125,0.720038671875,0.041385937499999394,0.8164391687832186,0.10029978894249987,0.240657069818417,0.09031046720477887,0.2759200126888985
102,1790648612.5687504,-0.22934707031249998,0.5332271484375,-0.030464648437500613,0.5812567120439427,0.09698840822688026,0.24565651912749473,0.09220800981321103,0.27974308533712566
103,1790648612.5887504,-0.1527064453125,0.21708457031249997,0.1611369140624994,0.3104997168780152,0.09051224058798168,0.2556943371006161,0.09578670391809752,0.28765804763481495
104,1790648612.613629,-0.04253554687499998,-0.08947792968750004,0.2856779296874994,0.30236972758471103,0.08330037799793537,0.2665459004901134,0.10040434136626217,0.29676034406213586
105,1790648612.633629,0.34066757812500004,-0.35293007812500005,0.15155683593749938,0.5134038501513771,0.07881961119658731,0.2732973109084801,0.10421548776249435,0.3029270855314232
106,1790648612.6588416,0.6759703125000001,-0.602012109375,-0.01130449218750061,0.9052525806420559,0.07594072067191222,0.27872593472726037,0.10856446707547884,0.3086120270779108
107,1790648612.6788416,0.7669810546875001,-0.6547025390625001,0.06054609374999939,1.010228282306934,0.07616400371894255,0.2805012084517037,0.11157070424640322,0.31133567969541104
108,1790648612.6891763,0.9202623046875,-0.5876419921875,0.03659589843749939,1.0924948879483558,0.07756986590010143,0.28031800846666516,0.11296641834804426,0.3120203224805436
109,1790648612.7091763,1.2172447265625002,-0.506211328125,-0.2939167968750006,1.3506745413131738,0.08308867862235278,0.2783758775501426,0.1148762996464021,0.3123994589263409
110,1790648612.7339635,1.3657359375,-0.6499125000000001,-0.4615681640625006,1.5813494486391304,0.09370436959496398,0.2741806477934489,0.11548380041194689,0.3119167271295518
111,1790648612.7539635,1.3226255859375,-0.8175638671875001,-0.5573689453125006,1.6517897138273578,0.10501754743215856,0.26910218927963364,0.11437204303697426,0.31068575405417115
112,1790648612.7787392,1.4232164062500001,-0.8989945312500001,-0.6914900390625006,1.8198611431532987,0.12203225622007488,0.26056504850721984,0.1108807900217481,0.30835136720562606
113,1790648612.7987392,1.3753160156250002,-0.9804251953125,-0.7968708984375007,1.8675467692175125,0.1379047670382021,0.2518881254588912,0.10625271235465068,0.30619436866437477
114,1790648612.8088236,1.3369957031250002,-1.253457421875,-0.7585505859375007,1.9834596063581333,0.1467589198241624,0.24647975807370678,0.10309276754149374,0.30482547532545967
115,1790648612.8288236,1.3992662109375,-1.3157279296875002,-0.8447712890625007,2.098267009904951,0.16578939199051115,0.2335087091985362,0.09536084040679911,0.30183791950522204
116,1790648612.8537207,1.5381773437500001,-1.3636283203125001,-0.9453621093750006,2.2625607736867637,0.19141109830189124,0.21478056837936077,0.08383678958180371,0.29966232394794173
117,1790648612.8737206,1.5238072265625,-1.5216996093750002,-0.9693123046875006,2.3615936375495936,0.21349882387782976,0.19766482183918585,0.0730960454385344,0.29999360234625994
118,1790648612.899954,1.3801060546875001,-1.8378421875000002,-0.7585505859375007,2.4202800705220064,0.2438383873236406,0.1719721748204736,0.05772136972846688,0.30391338333217194
119,1790648612.919954,1.3130455078125,-1.7851517578125,-0.6100593750000006,2.2984837926409303,0.2675389784460466,0.1498881505039309,0.04570524601678247,0.3100524667905383
120,1790648612.9296272,1.356155859375,-1.655820703125,-0.5908992187500006,2.2203744734917747,0.2792189420568137,0.13831286283133618,0.03989404612714369,0.31414200697188044
121,1790648612.9496272,1.356155859375,-1.89532265625,-0.4711482421875006,2.3776852929536476,0.30381431133847336,0.11264320959982557,0.02808810632657257,0.3252392506448659
122,1790648612.9737396,1.3226255859375,-2.1300345703125,-0.39929765625000063,2.538862802435298,0.33386357135934647,0.07905784976709501,0.014415463019616773,0.34339894214263955
123,1790648612.9937396,1.2172447265625002,-2.3312162109375003,-0.4328279296875006,2.6652567912303646,0.3588589705863319,0.048687329948028595,0.003527666863060693,0.36216385973927157
124,1790648613.0344694,1.2555650390625002,-2.6952591796875005,-0.3801375000000006,2.9975606969521076,0.40968019036623426,-0.01923907657582636,-0.017802679498601377,0.41051788736099476
125,1790648613.0544693,1.3226255859375,-2.8629105468750002,-0.3322371093750006,3.171116008100379,0.43475947800149656,-0.055927773795100784,-0.02777420305105424,0.4392210445196484
126,1790648613.0637472,1.1837144531250001,-2.9203910156250004,-0.42803789062500064,3.180106920606749,0.446392438496486,-0.07441864405495702,-0.032235079205537205,0.4536997289631158
127,1790648613.0837471,0.9681626953125001,-3.1072025390625004,-0.4424080078125006,3.284474306297408,0.470935616959593,-0.11734131196544242,-0.04171452227521301,0.4871236395244364
128,1790648613.0936952,1.1118638671875,-3.4808255859375006,-0.21727617187500062,3.660545991206632,0.4828641633379496,-0.14040396709057495,-0.04621453708091112,0.5049820369561993
129,1790648613.1136951,1.1358140625000002,-3.4520853515625003,0.05575605468749939,3.6345667687744383,0.5066201547947575,-0.19021467899330466,-0.054146811170445404,0.5438542842606996
130,1790648613.138982,1.1837144531250001,-3.1407328125000005,-0.01130449218750061,3.35641330851771,0.5365496245195828,-0.25624939466128194,-0.062587281867193,0.5978849552279285
131,1790648613.158982,1.164554296875,-3.0545121093750005,-0.12147539062500061,3.2712363423048534,0.5601931241499276,-0.30993632767419066,-0.06846084384301983,0.6438662521803095
132,1790648613.1840303,1.0735435546875,-3.0593021484375003,-0.1645857421875006,3.24636933600858,0.5895673899935067,-0.3785743825943457,-0.07525095529107122,0.7046779241417064
133,1790648613.2040303,1.0208531250000001,-2.9826615234375002,-0.20290605468750061,3.1590475990788143,0.6126449825392648,-0.4342212343055981,-0.08041056858472163,0.7552137541733013
134,1790648613.2146604,0.9873228515625001,-2.8293802734375006,-0.20290605468750061,3.0035595569196922,0.6246720381041014,-0.4639951313024132,-0.08306512146296077,0.7825640238760865
135,1790648613.2346604,1.00169296875,-2.6713089843750004,-0.21727617187500062,2.861204192033564,0.6468895415318767,-0.5198613539056647,-0.08794062475240354,0.834539070211692
136,1790648613.2593603,1.0256431640625001,-2.4653373046875005,-0.22685625000000062,2.679793962982234,0.6739679474703709,-0.5880224110934587,-0.09388142681509633,0.8993424667313489
137,1790648613.2793603,1.0352232421875,-2.3839066406250002,-0.23643632812500062,2.6097126603590683,0.695696241462448,-0.6422088336781054,-0.09866518444401545,0.9519245059670125
138,1790648613.3039339,0.9106822265625001,-2.2018851562500004,-0.1933259765625006,2.3906098159893774,0.7219751200915384,-0.7072516074055817,-0.10445329260157225,1.016052853223827
139,1790648613.3239338,0.8627818359375,-2.1300345703125,-0.12626542968750062,2.3016043808361615,0.7428150331641655,-0.7587460500809639,-0.1089368905565758,1.0673972962923788
140,1790648613.334955,0.9011021484375,-2.1683548828125003,-0.1837458984375006,2.3553153790794332,0.7540344235677312,-0.7864189696753751,-0.11129325316998673,1.09517528094436
141,1790648613.354955,0.9346324218750001,-2.249785546875,-0.23164628906250062,2.447188749194471,0.774093809927444,-0.8357313501588426,-0.11555100444590932,1.1449978824586386
142,1790648613.3793564,0.781351171875,-2.24020546875,-0.22206621093750062,2.38292752681402,0.798037062931086,-0.8950884905980265,-0.12079689723839174,1.2052545167702755
143,1790648613.3993564,0.762191015625,-2.1491947265625,-0.20290605468750061,2.2893544906834276,0.8170331576446809,-0.9430255125965991,-0.12508906321157082,1.2539886649543786
144,1790648613.4244764,0.9777427734375,-2.2641556640625002,-0.14063554687500063,2.470255079776254,0.8405914616350046,-1.002517925384813,-0.1303186204974089,1.3147696143963363
145,1790648613.4444764,1.0256431640625001,-2.3312162109375003,-0.1885359375000006,2.553832163994912,0.8595396295713691,-1.0496724913992503,-0.13435148229297772,1.3633308603557377
146,1790648613.4542837,1.0256431640625001,-2.27852578125,-0.23164628906250062,2.509438909207691,0.8689462925283351,-1.072717814171467,-0.13634149580626775,1.3872203039237279
147,1790648613.4742837,1.0352232421875,-2.1587748046875,-0.2508064453125006,2.407259788956947,0.8883430280977694,-1.1193203480830882,-0.14051464869292757,1.43588848581638
148,1790648613.4993303,1.0735435546875,-2.0486039062500003,-0.22206621093750062,2.323485986735012,0.9129517896679136,-1.1768313939913713,-0.14584517895237972,1.4965573548531883
149,1790648613.5193303,1.087913671875,-2.0581839843750003,-0.1885359375000006,2.3356419397500336,0.932896788966577,-1.2220263034441952,-0.15007909661001306,1.5447227713777356
150,1790648613.5445063,1.0735435546875,-2.0054935546875003,-0.1693757812500006,2.281049827815742,0.9583188719541178,-1.2780571421547255,-0.1552851270363536,1.6049668500111813
151,1790648613.5645063,0.9681626953125001,-1.9959134765625002,-0.06399492187500061,2.219257749911974,0.9785475457373941,-1.3218937529783452,-0.1591505252710507,1.652358097727579
152,1790648613.5741563,0.8484117187500001,-1.9192728515625002,-0.049624804687500614,2.099017233015835,0.9881585762383787,-1.3427058589659986,-0.16081805412672756,1.6748668132207367
153,1790648613.5941563,0.9154722656250001,-1.8378421875000002,-0.08794511718750062,2.055112580595156,1.0077357466691959,-1.3850053352778096,-0.16396202405052637,1.7206552993536108
154,1790648613.619777,0.8867320312500001,-1.8234720703125,-0.07836503906250061,2.029158733515388,1.0325159805794246,-1.4380998277402894,-0.16770500604000518,1.7782984377627449
155,1790648613.639777,0.7717710937500001,-1.8138919921875,-0.09752519531250062,1.9736630776783435,1.051446046817835,-1.4787854114928236,-0.17045240465689576,1.8224706046644952
156,1790648613.6643226,0.8292515625000001,-1.9001126953125,-0.08315507812500061,2.0748496754739607,1.0741411025296421,-1.5280654898685015,-0.1736510876516994,1.875877914394558
157,1790648613.6843226,0.857991796875,-1.9623832031250001,-0.06878496093750061,2.142855368489227,1.0923902399523149,-1.5679899139125941,-0.17609436012258203,1.919093022795321
158,1790648613.6942687,0.762191015625,-1.9528031250000002,-0.049624804687500614,2.0968638035288576,1.1013129210776387,-1.5877869316104303,-0.17721548452045782,1.9404542814194945
159,1790648613.7142687,0.7574009765625,-1.9480130859375002,0.0030656249999993905,2.09007670202273,1.1188430397959082,-1.6274754045262794,-0.17920155989079165,1.98307819792993
160,1790648613.7393775,0.8532017578125001,-1.9288529296875,0.050966015624999396,2.1097451027664644,1.1405829030174404,-1.677128754053662,-0.18121920152536103,2.0363031737270285
161,1790648613.7593775,0.857991796875,-1.8617923828125,0.05575605468749939,2.05073877854732,1.1578687182034795,-1.716432637737457,-0.1824251677515277,2.07848019242756
162,1790648613.7990026,0.7909312500000001,-1.7755716796875,0.06054609374999939,1.9447089400224489,1.191879676347682,-1.7934330149637403,-0.18411046387741342,2.161220906099546
163,1790648613.8190026,0.7717710937500001,-1.81868203125,0.041385937499999394,1.976094063490514,1.2088151039795394,-1.8318590811069575,-0.1846805914769168,2.2025096071325896
164,1790648613.8288996,0.781351171875,-1.85700234375,-0.04004472656250061,2.015085839017508,1.2170913711908407,-1.8507503210014216,-0.18491940450095345,2.2227872913697913
165,1790648613.8488996,0.7669810546875001,-1.8761625000000002,-0.13105546875000063,2.0311132909183285,1.2336299427799708,-1.8887993888239185,-0.18558626169748813,2.2635918862453477
166,1790648613.8591387,0.7382408203125,-1.81868203125,-0.13105546875000063,1.9671754816122993,1.2419828320182165,-1.908194340777355,-0.1860777373926949,2.284371231117197
167,1790648613.8791387,0.7526109375000001,-1.770781640625,-0.10710527343750062,1.9270605547354545,1.2580873815557747,-1.9457799049368063,-0.18725097361638346,2.324630341625532
168,1790648613.919725,0.7574009765625,-1.66540078125,-0.09273515625000062,1.83188859123328,1.2904628128074598,-2.0210714942911747,-0.18988301596993587,2.4054271587452285
169,1790648613.939725,0.7669810546875001,-1.6797708984375002,-0.08794511718750062,1.8486818420496804,1.3063101840689284,-2.05762594554032,-0.19125649559810054,2.444759676506335
170,1790648613.9495904,0.7957212890625001,-1.8665824218750002,-0.06399492187500061,2.030122572049731,1.3141110163536465,-2.075576679436854,-0.19194479773224088,2.4640919465191637
171,1790648613.9695904,0.857991796875,-1.9288529296875,-0.10231523437500062,2.1135496102656437,1.3300337529414454,-2.112202014233556,-0.1933803251251118,2.503554090296691
172,1790648613.9796631,0.9490025390625001,-1.78036171875,-0.11668535156250062,2.0208684123432654,1.3382152247592243,-2.130683109998608,-0.194160305443596,2.523554779912786
173,1790648613.999663,1.030433203125,-1.7085111328125002,-0.1597957031250006,2.0015837588729366,1.3549924683067178,-2.167107462842291,-0.19589142065224704,2.5633440645687497
174,1790648614.0247688,1.0256431640625001,-1.7564115234375002,-0.20769609375000062,2.044520238836286,1.3767651297874373,-2.2124962270100457,-0.1984304708321993,2.613426185850099
175,1790648614.0447688,0.9873228515625001,-1.9384330078125,-0.1597957031250006,2.181252760624439,1.394527629262477,-2.248772855624563,-0.20070099033423056,2.6536705810050005
176,1790648614.0690875,0.9681626953125001,-2.106084375,-0.07357500000000061,2.3191256283002235,1.4164525953811227,-2.2936432066998873,-0.20347332092995102,2.7034308770399003
177,1790648614.0890875,0.9777427734375,-2.153984765625,-0.04483476562500061,2.3659335277565368,1.4346980983658466,-2.3313999232359524,-0.20558893311194038,2.7451868870693095
178,1790648614.0997114,0.9681626953125001,-2.2162552734375,-0.10231523437500062,2.420660002730558,1.4444867504477394,-2.351929927779692,-0.20666141747911917,2.7678195929069034
179,1790648614.1197114,0.9298423828125001,-2.3503763671875,-0.09752519531250062,2.5295033283292354,1.4629971583628343,-2.3916311471411955,-0.20867732371033892,2.811370920882648
180,1790648614.1439009,0.8819419921875,-2.5228177734375006,-0.10231523437500062,2.674490531436037,1.4853138069935201,-2.4412871261637004,-0.21111233585437575,2.8654159132607773
181,1790648614.1639009,0.7574009765625,-2.6234085937500002,-0.15021562500000063,2.7346834593885494,1.5034566116953156,-2.4839039059452426,-0.21320242033910486,2.911291065705874
182,1790648614.1895304,0.666390234375,-2.6377787109375004,-0.07357500000000061,2.7216476173396273,1.5259555957844615,-2.540437602441458,-0.21590923016606045,2.9713600400953286
183,1790648614.2095304,0.5705894531250001,-2.7479496093750004,0.05575605468749939,2.8071174035504853,1.542734572005953,-2.586014818025961,-0.217731377373516,3.0190908484848884
184,1790648614.2196298,0.3837779296875,-2.6569388671875003,0.12281660156249939,2.687320889083807,1.5506594255393633,-2.609671679845803,-0.218378228297322,3.043455270116116
185,1790648614.2396297,0.19217636718750003,-2.5084476562500004,0.1467667968749994,2.520075771264914,1.5648629837334318,-2.6572405167372435,-0.21906267502310847,3.0915549125379274
186,1790648614.2647455,-0.09522597656249998,-2.4557572265625005,0.1850871093749994,2.4645625941499274,1.5802067618263391,-2.717367391201805,-0.21916816034436257,3.151059128514938
187,1790648614.2847455,-0.18623671874999997,-2.345586328125,0.1659269531249994,2.358811372677144,1.590170250611382,-2.7652672395089617,-0.21871303918516688,3.197370751936752
188,1790648614.3094218,0.0005748046875000218,-2.35516640625,0.3527384765624994,2.381435190043307,1.6002757979159936,-2.8242017496876572,-0.2172758265972894,3.2533378147923755
189,1790648614.3294218,-0.19102675781249998,-2.2928958984375,0.3718986328124994,2.3307019149517325,1.6069520221912663,-2.871774930918022,-0.21519874914012146,3.2978320995928954
190,1790648614.3389356,-0.693980859375,-2.0486039062500003,0.2713078124999994,2.179907183117015,1.6090199939629928,-2.894108463983456,-0.21389995229323888,3.3182167397360285
191,1790648614.3589356,-0.7993617187500001,-1.6749808593750002,0.1419767578124994,1.8613697742346944,1.610475170635131,-2.9396008662161974,-0.21095925013049827,3.358479914054407
192,1790648614.3843434,-0.29640761718749997,-1.387578515625,0.0844962890624994,1.4213976345189911,1.6099584363125403,-2.9945609900426198,-0.20735222189180427,3.4062232213497725
193,1790648614.4043434,-0.1527064453125,-1.3253080078125001,0.1994572265624994,1.348904651648856,1.6089390264359367,-3.0354033360393693,-0.20451288185259628,3.4415379878872767
194,1790648614.4288921,-0.598180078125,-1.2869876953125001,0.2952580078124994,1.4495978838729098,1.6064929514892068,-3.082824770939812,-0.20063968241097638,3.4820804777693732
195,1790648614.448892,-0.9861732421875,-1.0810160156250002,0.1946671874999994,1.4761533130178301,1.6024225207349738,-3.1192160419465162,-0.19722261081823678,3.512287489587531
196,1790648614.4745765,-0.7945716796875,-1.0283255859375,0.0797062499999994,1.3019795509700527,1.5945489981133192,-3.163003532345104,-0.19296404972948392,3.5474516173585506
197,1790648614.4945765,-0.483219140625,-0.9421048828125,-0.08794511718750062,1.062448441912661,1.5874209798806904,-3.1949412765090197,-0.19015774799353272,3.572634195776056
198,1790648614.504074,-0.56943984375,-0.7217630859375,-0.1981160156250006,0.9404539560867257,1.58379392054858,-3.209018164807716,-0.18922875173752207,3.58357479136639
199,1790648614.524074,-0.828101953125,-0.4966312500000001,-0.20769609375000062,0.9876907970640464,1.5752054777542794,-3.2360422043641255,-0.1881746439133452,3.6039771284214375
200,1790648614.5492015,-0.9861732421875,-0.5110013671875001,-0.10710527343750062,1.115854650244476,1.562614639568185,-3.266800547993104,-0.18764220606960821,3.626149463226733
201,1790648614.5692015,-0.4736390625,-0.49184121093750005,-0.15021562500000063,0.6991469604428572,1.5519065746125666,-3.2891144093669187,-0.18766796550658232,3.641690113053029
202,1790648614.5946271,-0.1670765625,-0.22359902343750004,-0.04483476562500061,0.2827034793342113,1.539113727149888,-3.314590883164011,-0.1880677475029471,3.6593378178990297
203,1790648614.6146271,-0.6029701171875,0.05901328124999997,0.007855664062499391,0.6059020061386675,1.5294051696586766,-3.331871711813331,-0.18839051630648396,3.67095903867025
204,1790648614.624136,-0.847262109375,0.25540488281249996,-0.1693757812500006,0.9009844013195175,1.5244474320891601,-3.33863111986891,-0.18863614598245138,3.6750484790450697
205,1790648614.644136,-0.30119765625,-0.036787500000000035,-0.3801375000000006,0.486392708819729,1.5138612669707276,-3.3503877100296915,-0.18989955353181284,3.6814311868597787
206,1790648614.6692567,0.06763535156250003,0.11170371093749998,-0.6867000000000006,0.6990058296024378,1.502119091290509,-3.362798278714137,-0.1932583888655137,3.6881055885927507
207,1790648614.6892567,0.12990585937500002,0.336835546875,-0.7968708984375007,0.8748353826378579,1.4944691068717828,-3.3705240887823713,-0.1977567715606136,3.69228632220667
208,1790648614.713873,0.33108750000000003,0.3416255859375,-0.5094685546875006,0.6970546476702965,1.4873168543253583,-3.3773541765190895,-0.20487472777344407,3.6960257457019234
209,1790648614.733873,0.49873886718750005,0.03027304687499997,-0.3130769531250006,0.589638951892258,1.4836222449191991,-3.381513189756804,-0.21102420757002255,3.698688637111655
210,1790648614.7439938,0.5178990234375,0.20271445312499997,-0.6148494140625006,0.8290671564814786,1.482804749890854,-3.3831252839111987,-0.2143736849541174,3.700027390403876
211,1790648614.7639937,1.202874609375,0.05422324218749997,-0.8639314453125007,1.4819666082851293,1.484012764656918,-3.3854477060208286,-0.22221795827066104,3.7030974706108317
212,1790648614.7889853,2.026761328125,-0.4870511718750001,-0.6244294921875007,2.1759808169929635,1.4913493572744836,-3.388725720943291,-0.2333394062721907,3.7097213097138577
213,1790648614.8089852,1.9932310546875,-0.4870511718750001,-0.4711482421875006,2.105271846463498,1.5023699126598242,-3.3924166781237197,-0.24254791716328217,3.7181226129052964
214,1790648614.8339365,2.0507115234375,-0.31939980468750007,-0.5669490234375006,2.151479765828743,1.5216240138670067,-3.3978398170369664,-0.25425551296044746,3.731661952493731
215,1790648614.8539364,2.6446763671875,-0.8654642578125,-0.6483796875000006,2.8572255227534304,1.5417854621219855,-3.40331205201314,-0.26405522615853894,3.7455787933309095
216,1790648614.86441,3.3488121093750003,-0.9852152343750001,-0.7393904296875007,3.5681773792028184,1.5554677568747208,-3.407201604161867,-0.26950742085044505,3.7551480615248094
217,1790648614.88441,3.5643638671875,-0.8989945312500001,-0.5956892578125006,3.723939666106642,1.5880458478343356,-3.41634121998744,-0.2803597364694455,3.7778139880150743
218,1790648614.909518,3.5787339843750003,-1.1145462890625002,-0.3418171875000006,3.7638264241399293,1.6362609937128132,-3.42988577405523,-0.29370561598794803,3.811525869186165
219,1790648614.929518,3.779915625,-1.339678125,-0.23643632812500062,4.017262967242734,1.6799440693937657,-3.4427377416970684,-0.3036091130467418,3.8427638137051496
220,1790648614.95416,3.933196875,-1.4977494140625,-0.4711482421875006,4.235005505421534,1.7399477090654007,-3.461441412083345,-0.31528862485280557,3.8869527391684415
221,1790648614.97416,3.9140367187500003,-1.6510306640625,-0.5956892578125006,4.289572400749419,1.7931137794688148,-3.4790678409795723,-0.32494632566843257,3.927436846446371
222,1790648614.9849157,4.0529478515625,-1.8713724609375002,-0.5908992187500006,4.503063741694062,1.8238439387591245,-3.4899667151031,-0.3303182643792989,3.9516306180181457
223,1790648615.0049157,4.2732896484375,-2.0486039062500003,-0.6387996093750007,4.781824685732791,1.884903664604628,-3.513072828625197,-0.34065339856648164,4.001323188898829
224,1790648615.0296838,4.0529478515625,-2.0677640625,-0.6435896484375007,4.595241249513185,1.9646448218087043,-3.5450419835578315,-0.3539148119641613,4.068465021992327
225,1790648615.0496838,3.712855078125,-2.0438138671875,-0.5382087890625007,4.272251941949427,2.03102510970588,-3.57315187574534,-0.3647896871244839,4.126202714267757
226,1790648615.0740402,3.9188267578125,-2.173144921875,-0.5142585937500006,4.5104571731105105,2.1136794351900265,-3.6099529666172208,-0.3779693471710752,4.200269277479079
227,1790648615.0940402,4.22059921875,-2.3599564453125,-0.7058601562500006,4.886828291363059,2.1835787055782307,-3.642438626617331,-0.3889985154873687,4.264586141371754
228,1790648615.1044416,4.1104283203125,-2.5707181640625003,-0.6387996093750007,4.890018179557778,2.220977761875847,-3.6606458317476007,-0.39492309432875233,4.299887716519156
229,1790648615.1244416,3.9092466796875,-2.5276078125000003,-0.43761796875000064,4.675737411685097,2.294131535741406,-3.698050806900885,-0.4062207328307875,4.370770476413179
230,1790648615.149786,3.9571470703125002,-2.5323978515625005,-0.4519880859375006,4.719782309017082,2.3878808203114663,-3.7479592830724577,-0.42008082333213326,4.46381468003677
231,1790648615.169786,3.789495703125,-2.5228177734375006,-0.5094685546875006,4.5808782356869475,2.462384017474056,-3.7890186948957045,-0.43081979737344006,4.539339535393856
232,1790648615.1948178,3.54999375,-2.5994583984375006,-0.5286287109375006,4.431601054277535,2.555423497253023,-3.842316348589377,-0.4441933928380632,4.635826996684741
233,1790648615.2148178,3.4398228515625,-2.6904691406250003,-0.5094685546875006,4.3966536883182386,2.629094612234719,-3.8864475532637517,-0.4548330187477481,4.714179264654095
234,1790648615.239728,3.4685630859375003,-2.6329886718750006,-0.7298103515625006,4.4154481512750365,2.7199958183228623,-3.9431142322585395,-0.4684123335958871,4.813100582223319
235,1790648615.259728,3.3727623046875004,-2.6473587890625003,-0.8878816406250006,4.378626260564648,2.7922933608666467,-3.989706943511544,-0.4801060780883752,4.89337976806027
236,1790648615.2691486,2.9368687500000004,-2.9826615234375002,-0.5142585937500006,4.217336804117831,2.825697709624534,-4.0123394841078355,-0.48577866658441654,4.931472051509225
237,1790648615.2891486,2.8937583984375004,-2.9682914062500005,-0.2843367187500006,4.1551701421933,2.8947233884169226,-4.062107407922456,-0.49721301590050654,5.012719907607778
238,1790648615.3297117,3.1093101562500003,-2.6042484375000003,-0.34660722656250065,4.070633383330651,3.031981813511941,-4.164856972118661,-0.5188445541880816,5.1776584463522894
239,1790648615.3497117,2.850648046875,-2.2018851562500004,-0.27954667968750063,3.6128435995197257,3.0984467003262273,-4.215128472115056,-0.528849554295698,5.25807586882086
240,1790648615.3741207,2.5536656250000003,-1.8043119140625001,-0.1597957031250006,3.130859989567042,3.1772899984060023,-4.274613476781851,-0.540032894858919,5.3534220492490165
241,1790648615.3941207,2.7308970703125,-1.694141015625,-0.1837458984375006,3.218955598428923,3.240128208973013,-4.321290206312575,-0.5483369803514497,5.4288721942753995
242,1790648615.3896534,2.8650181640625,-1.7276712890625001,-0.24122636718750062,3.3543057886372583,3.240128208973013,-4.321290206312575,-0.5483369803514497,5.4288721942753995
243,1790648615.4096534,2.6063560546875,-1.770781640625,-0.08794511718750062,3.152220462819484,3.3008706547285,-4.364624624316254,-0.5553722779974154,5.500375765127651
244,1790648615.434793,2.5680357421875,-1.6606107421875,0.022225781249999393,3.0582559728664305,3.3755260222807895,-4.417394315622032,-0.5630129321259586,5.58789155482868
245,1790648615.454793,2.7596373046875002,-1.6462406250000001,0.1084464843749994,3.215193133980691,3.4340012845374366,-4.458038726065719,-0.5679837185370694,5.655888931885917
246,1790648615.4795263,2.6446763671875,-1.464219140625,-0.01609453125000061,3.0229968264734985,3.5054935095638617,-4.506532663523847,-0.5730375298355466,5.738091442596723
247,1790648615.4995263,2.3764341796875,-1.425898828125,0.03180585937499939,2.7715768961235465,3.5621640385421935,-4.544199255307245,-0.5764876074199214,5.80268019719568
248,1790648615.5090635,2.409964453125,-1.6031302734375001,0.06533613281249939,2.8952070995334283,3.588558101060773,-4.561633377970043,-0.5778165502423495,5.832676939916461
249,1790648615.5290635,2.448284765625,-1.6989310546875,-0.04483476562500061,2.980348163953616,3.642892577562849,-4.597662586223489,-0.5801546233536857,5.894552313400943
