imu_index,t_imu,ax,ay,az,mag,vx,vy,vz,velocity
0,1790596876.1290724,0.10723822146045932,0.018866888552295985,0.04873131576849526,0.11929265175263759,0.0,0.0,0.0,0.0
1,1790596876.1490724,0.08328802614795931,-0.00029326769770401495,0.015201042330995255,0.08466435491701557,0.00042251770083004983,5.19156646753821e-05,0.00015803081404399495,0.0004540816908231446
2,1790596876.1740465,0.06891790896045931,-0.04819365832270402,-0.027909309231504746,0.08860720297914527,0.001156068794998003,1.620015326892651e-05,0.0003019614915011847,0.0011949637007389353
3,1790596876.1940465,0.054547791772959306,-0.09609404894770401,-0.03269934829400475,0.11523356806643839,0.001840598590519488,-0.00022454290522258287,0.00030902283021536065,0.00187981855435636
4,1790596876.2196329,0.04496771364795931,-0.04819365832270402,0.0008309251434952536,0.06591975735577685,0.0027759391052838843,-0.0007632169754826,0.00025554669564330993,0.0028902668011038905
5,1790596876.2396328,0.04496771364795931,-0.009873345822704015,-0.003959113919004747,0.04620879582377396,0.003532297043245684,-0.0012082209097206444,0.0002153240334089714,0.003739423031400953
6,1790596876.249417,0.04496771364795931,-0.014663384885204016,-0.003959113919004747,0.04746350924700103,0.003912809337522808,-0.001411272274990434,0.00019278772392897426,0.00416400449717097
7,1790596876.269417,0.04496771364795931,-0.014663384885204016,0.024781120455995256,0.05339676074511488,0.00470884852043711,-0.0018080620319982715,0.00018486409961861747,0.005047426813268745
8,1790596876.294611,0.06412786989795931,-0.005083306760204015,0.029571159518495257,0.07080026257392147,0.0057673429133646426,-0.002270234156609902,0.000279080998038696,0.006204360854241306
9,1790596876.314611,0.07370794802295931,-0.00029326769770401495,-0.027909309231504746,0.07881546262934415,0.00668833148909382,-0.0025901566178808816,0.0003451480434063023,0.007180655721103977
10,1790596876.339633,0.09765814333545932,-0.009873345822704015,-0.06143958266900475,0.11579904246583946,0.007989339637937427,-0.002949453289207984,0.0002477294044956007,0.008519987817678478
11,1790596876.359633,0.09286810427295931,-0.029033502072704016,-0.018329231106504747,0.09901206869273368,0.0091590345408764,-0.003251919903539268,6.189000968990873e-05,0.009719399526375135
12,1790596876.369217,0.08807806521045931,-0.029033502072704016,0.010411003268495254,0.0933224453327293,0.009765536068286899,-0.0034168584252037134,-1.949736272217892e-05,0.01034606187619478
13,1790596876.389217,0.1263983777104593,-0.005083306760204015,0.015201042330995255,0.12741060231944193,0.011163061139303295,-0.0037606010781826484,-0.00012544402457379447,0.011780143915604476
14,1790596876.4143052,0.1455585339604593,0.004496771364795985,0.015201042330995255,0.14641919085070149,0.013164898571786678,-0.004128221765020835,-0.00018120482807529908,0.013798173956590795
15,1790596876.4343052,0.1263983777104593,-0.019453423947704017,0.015201042330995255,0.12878686764990346,0.014929290145763479,-0.004399758621192771,-0.0001733855867835499,0.015565077665815063
16,1790596876.4743633,0.09765814333545932,-0.024243463010204015,-0.03748938735650475,0.10737929326840583,0.01860626460273664,-0.00499332381322459,-0.00022703576096742232,0.01926597805478674
17,1790596876.4943633,0.08807806521045931,-0.029033502072704016,-0.07101966079400475,0.11680959735021403,0.020445313353951413,-0.005325138040958635,-0.00041256738894281065,0.021131449196563585
18,1790596876.4897375,0.10244818239795932,-0.043403619260204016,-0.07101966079400475,0.13199733505198424,0.020445313353951413,-0.005325138040958635,-0.00041256738894281065,0.021131449196563585
19,1790596876.5097375,0.09765814333545932,-0.019453423947704017,-0.04706946548150475,0.11014119685082774,0.02231710601308307,-0.005751516537011268,-0.0009048474729546074,0.02306408273103474
20,1790596876.5341709,0.08807806521045931,0.009286810427295986,-0.018329231106504747,0.09044308227877972,0.024601174002120786,-0.006212906590723731,-0.0015358839766174315,0.025420010034956954
21,1790596876.5541708,0.06891790896045931,-0.00029326769770401495,0.034361198580995254,0.07700945493474982,0.026425851375068178,-0.0065204371727693175,-0.0019508916676672964,0.027288233730313114
22,1790596876.5795596,0.08328802614795931,-0.019453423947704017,0.005620964205995254,0.08571421259929614,0.02868454105770551,-0.006889870030094558,-0.0023225617129445037,0.02959167953383559
23,1790596876.5995595,0.10723822146045932,-0.038613580197704014,-0.02311927016900475,0.11629937820484884,0.030482721940713393,-0.0072243383066122975,-0.002597674994703306,0.031434619709189135
24,1790596876.6091073,0.1168182995854593,-0.043403619260204016,-0.013539192044004746,0.1253542939197829,0.03137282633503593,-0.007418788936836569,-0.0027355602625163265,0.032353917096504876
25,1790596876.6291072,0.1407684948979593,-0.029033502072704016,0.010411003268495254,0.14410795393557957,0.033344063638148826,-0.007873669674579134,-0.0029857613820227047,0.034390929401219794
26,1790596876.6541946,0.1407684948979593,-0.029033502072704016,0.015201042330995255,0.14453298961272204,0.035975550213127414,-0.008467925808639632,-0.003204338847095401,0.03709735527075861
27,1790596876.6741946,0.1407684948979593,-0.019453423947704017,-0.008749152981504747,0.14237539301796387,0.03818103356623765,-0.00894334282100785,-0.0033427760041472507,0.039356687569130376
28,1790596876.6996925,0.10244818239795932,-0.009873345822704015,-0.008749152981504747,0.10329404974282895,0.04103614667480756,-0.009514617196078688,-0.003526257910968596,0.04227206842773257
29,1790596876.7196925,0.04017767458545931,-0.029033502072704016,-0.013539192044004746,0.05138579082689311,0.043153647946693595,-0.009953857799498976,-0.003682021561419127,0.04443955331659595
30,1790596876.744784,0.025807557397959306,-0.029033502072704016,-0.02311927016900475,0.045204810746225954,0.04553591882943904,-0.010531537011534475,-0.003917113897291769,0.04690177988894385
31,1790596876.764784,0.030597596460459307,-0.03382354113520401,-0.027909309231504746,0.05347124821679129,0.047234552239021226,-0.011017209182079482,-0.004152935425593363,0.04867985924416452
32,1790596876.7743814,0.02101751833545931,-0.019453423947704017,-0.04227942641900475,0.0510658562896042,0.04796455295610418,-0.011253656548516448,-0.004299645339474024,0.04945432312787377
33,1790596876.7943814,0.03538763552295931,-0.038613580197704014,-0.013539192044004746,0.05409808725634182,0.049342232453230904,-0.011759583180587205,-0.004643244794126742,0.05093626824049842
34,1790596876.8196347,0.08328802614795931,-0.043403619260204016,-0.04706946548150475,0.10505381499604131,0.051045620523110014,-0.01245791742898669,-0.005126811067706794,0.052793363910445805
35,1790596876.8396347,0.10244818239795932,-0.043403619260204016,-0.06622962173150475,0.12948307625411323,0.05247090933123373,-0.013058231983840943,-0.0056222861070861045,0.05436289037257209
36,1790596876.864661,0.08807806521045931,-0.08651397082270403,0.019991081393495255,0.12506820560802398,0.054344487382384996,-0.013940590307642624,-0.006236071650010421,0.056449552315353264
37,1790596876.884661,0.10244818239795932,-0.029033502072704016,0.06789147201849526,0.12628470331789743,0.05590296837915027,-0.014713283386960343,-0.006521182744268901,0.05817343385093774
38,1790596876.89421,0.12160833864795931,0.028446966677295987,0.04873131576849526,0.13406177336729785,0.056695926603218524,-0.015027292346390858,-0.006553368352741977,0.05901859237077888
39,1790596876.91421,0.1120282605229593,0.023656927614795986,-0.003959113919004747,0.1145672551953454,0.05845805547981341,-0.015508155161210947,-0.006543508966993929,0.060833088336745375
40,1790596876.9392917,0.10244818239795932,-0.05777373644770402,-0.03748938735650475,0.123445894480701,0.060739889332441,-0.016084918628306924,-0.006610968864832759,0.06318040576577696
41,1790596876.9592917,0.07370794802295931,-0.05298369738520402,-0.06143958266900475,0.10961275522904994,0.06255071859335362,-0.016641976894102163,-0.006805085560876634,0.06508346165485972
42,1790596876.9842618,0.08328802614795931,-0.04819365832270402,-0.03748938735650475,0.10327138115913213,0.06476643676634948,-0.017422623216704902,-0.007196357332686636,0.06745388565546483
43,1790596877.0042617,0.08328802614795931,-0.024243463010204015,0.005620964205995254,0.0869266129384745,0.06652479442368484,-0.018062754397621714,-0.007510543551207306,0.06934132702780438
44,1790596877.014546,0.07370794802295931,-0.014663384885204016,0.0008309251434952536,0.07515694841224592,0.0674144275716252,-0.01837255123667377,-0.007642891096482858,0.07028989591731374
45,1790596877.034546,0.05933783083545931,0.004496771364795985,-0.02311927016900475,0.06384120749259264,0.06908457913318518,-0.018899902104381777,-0.00789509697394305,0.07205704635767764
46,1790596877.0591888,0.06412786989795931,-0.00029326769770401495,-0.013539192044004746,0.06554219575812634,0.07106196438911312,-0.019444441446421316,-0.008226991713606557,0.074132128518333
47,1790596877.0791888,0.07370794802295931,-0.04819365832270402,0.010411003268495254,0.08867851652648136,0.07263282104035473,-0.019892823305945502,-0.008460642233507188,0.0757814857228675
48,1790596877.1046658,0.09286810427295931,-0.06735381457270402,-0.02311927016900475,0.11702786754399515,0.07465198705451555,-0.02059910266791884,-0.008737914736681573,0.07793326219180444
49,1790596877.1246657,0.09765814333545932,-0.029033502072704016,-0.03748938735650475,0.10856109508797745,0.07628510434803194,-0.02121496228595347,-0.009013843161742389,0.07969153743484336
50,1790596877.1339684,0.07370794802295931,-0.04819365832270402,-0.018329231106504747,0.08995249311295642,0.07705033762460581,-0.02151233060362243,-0.009161879093398434,0.08052002809604171
51,1790596877.1539683,0.06412786989795931,-0.043403619260204016,0.0008309251434952536,0.0774399657743238,0.07865550995698906,-0.022193149498596812,-0.0094586534850864,0.08227205635580047
52,1790596877.179151,0.08328802614795931,-0.009873345822704015,-0.003959113919004747,0.08396459277803661,0.08065189763433962,-0.02302243178537028,-0.009782189484415026,0.08444200488169987
53,1790596877.199151,0.08328802614795931,0.014076849489795986,0.015201042330995255,0.0858261305147228,0.08224945357285188,-0.023575946253201186,-0.009983734542758404,0.08614216627289341
54,1790596877.2240126,0.08328802614795931,0.023656927614795986,0.010411003268495254,0.08720627565061742,0.08424806050571364,-0.024090440470993506,-0.010148933978225694,0.08821046356275004
55,1790596877.2440126,0.06891790896045931,0.07634735730229598,0.10142174545599526,0.1444471100225522,0.08584298762035072,-0.02429223786975643,-0.010094145992773305,0.08978320069830402
56,1790596877.2548566,0.07849798708545931,0.172148138552296,0.21638268295599528,0.28743413344055746,0.0866979351165969,-0.024183139016978994,-0.009810425691417147,0.09054060204374054
57,1790596877.2748566,0.08328802614795931,0.205678411989796,0.16848229233099526,0.27861584177389187,0.088280903833546,-0.023445366897196993,-0.008788344199755235,0.0917629457045999
58,1790596877.2995899,0.07370794802295931,0.157778021364796,-0.008749152981504747,0.1743654590377322,0.09023609466058562,-0.02199563467588783,-0.007417661778444381,0.0931739364342233
59,1790596877.3195899,0.04496771364795931,0.148197943239796,0.07747155014349526,0.17316629791292174,0.0917579725574919,-0.020540224299552774,-0.006372464844838317,0.09424454705889393
60,1790596877.3441765,0.06891790896045931,0.296689154177296,0.4031942063934953,0.5053114885406842,0.09355824090289958,-0.018199043189199602,-0.004393954156501167,0.09541308320653294
61,1790596877.3641765,0.1168182995854593,0.435600286989796,0.31697350326849527,0.5512407159471564,0.0950816057608837,-0.015481845569842228,-0.0019457005825595074,0.09635343816944743
62,1790596877.3742363,0.03538763552295931,0.426020208864796,-0.013539192044004746,0.4277017802515144,0.09584774772673096,-0.013670043937924259,-0.0006700286911738469,0.0968199864903876
63,1790596877.3942363,-0.03167291135204069,0.267948919802296,-0.04227942641900475,0.2731068414284994,0.09714801329975767,-0.00956735087312842,0.0014019850460085634,0.0976280505433181
64,1790596877.4198213,0.04017767458545931,0.196098333864796,0.034361198580995254,0.2030997145432919,0.09857819068020801,-0.00421579671419191,0.003639817557064062,0.09873540849952236
65,1790596877.4398212,0.10244818239795932,0.181728216677296,-0.013539192044004746,0.2090552188646823,0.09974241470094838,-9.32020053746362e-05,0.005157984731332306,0.09987573671056663
66,1790596877.46489,0.030597596460459307,0.306269232302296,-0.06143958266900475,0.313866018999726,0.10123295306534848,0.0052166183224508994,0.0066345035635397755,0.10158415491890357
67,1790596877.48489,-0.0747832629145407,0.382909857302296,-0.003959113919004747,0.39016428567263,0.10217745969012987,0.009851156802175593,0.0075376835490303645,0.10292762132855537
68,1790596877.50983,-0.1370537707270407,0.416440130739796,-0.013539192044004746,0.43862219310276934,0.102782349607169,0.016258728268659477,0.00846228002109951,0.10440386879249217
69,1790596877.52983,-0.1466338488520407,0.358959661989796,-0.12850012954400475,0.4084921148049467,0.10276913265971033,0.02178945116293289,0.008879458462597287,0.10542826751967409
70,1790596877.53968,-0.041252989477040695,0.311059271364796,-0.07580969985650475,0.3228107650545811,0.1026247979390637,0.024599735912791118,0.008903166128348378,0.10590685778608337
71,1790596877.55968,0.16471869021045932,0.426020208864796,0.005620964205995254,0.45678995228054087,0.1025608915785944,0.03055557469517519,0.008838799765202321,0.10738018442728604
72,1790596877.5841184,0.34195013552295933,0.44518036511479603,0.09184166733099526,0.5688148596213451,0.10342317881810151,0.03833830546011614,0.008950583959034614,0.11066296822154148
73,1790596877.6041183,0.4233807995854593,0.378119818239796,0.04394127670599526,0.5693476391466572,0.10517100391724425,0.04498712775018109,0.009232018220179477,0.11476067222088691
74,1790596877.6287012,0.42817083864795935,0.430810247927296,0.010411003268495254,0.6074834366274785,0.10856710209387734,0.053425071816652826,0.009626263142300124,0.1213825312710264
75,1790596877.6487012,0.4425409558354593,0.449970404177296,-0.04706946548150475,0.6328754986630116,0.11222169947748625,0.060581400490171675,0.009843910845976774,0.12790902430911336
76,1790596877.6590154,0.42817083864795935,0.44518036511479603,-0.018329231106504747,0.6179415710770685,0.1144972644982033,0.06441087221706444,0.009888727540538716,0.13174282132133627
77,1790596877.6790154,0.3946405652104593,0.411650091677296,-0.08538977798150475,0.5766180606530528,0.11948208351584484,0.07200788028556664,0.009807016382555149,0.1398473477576015
78,1790596877.7046108,0.34195013552295933,0.421230169802296,-0.06622962173150475,0.5465812967258755,0.12631860436185977,0.08187080072299485,0.009427073199422887,0.1508246913739911
79,1790596877.7246108,0.3275800183354593,0.459550482302296,-0.003959113919004747,0.5643677779426785,0.13186358262291173,0.08974273009133617,0.009069439334434997,0.159762375909464
80,1790596877.7498662,0.3179999402104593,0.449970404177296,-0.008749152981504747,0.5510661251494494,0.1390381560105986,0.09991489927694411,0.00866149894971412,0.1714340033027443
81,1790596877.7698662,0.34195013552295933,0.440390326052296,-0.06622962173150475,0.561480095158605,0.14485744063590555,0.10809754609158728,0.008274437402603127,0.18093430822521564
82,1790596877.7799182,0.35153021364795933,0.387699896364796,-0.08059973891900475,0.5295101686110147,0.14786630416380628,0.11221754113672865,0.007998386967958232,0.18579880150293182
83,1790596877.7999182,0.38985052614795934,0.320639349489796,0.010411003268495254,0.5048776229623738,0.15406699395669685,0.12024782534248092,0.00742624474080609,0.19557946527536835
84,1790596877.8246086,0.43775091677295935,0.248788763552296,-0.12371009048150475,0.5184842336005877,0.16210617681511205,0.12972879947803811,0.006616066655773453,0.20772998414677413
85,1790596877.8446085,0.43775091677295935,0.186518255739796,-0.27699134048150476,0.5505807184796097,0.16895461752179375,0.13690965987466183,0.005457186124987222,0.2175309141922912
86,1790596877.869192,0.40901068239795935,0.167358099489796,-0.27699134048150476,0.5215579301307015,0.17767103707826873,0.14506463177052406,0.0032249901037364726,0.22939299328522322
87,1790596877.8891919,0.43775091677295935,0.004496771364795985,-0.20514075454400477,0.4834550809156496,0.1849687966856365,0.15096177739015337,0.0009581742227796077,0.2387547529955535
88,1790596877.899395,0.5287616589604593,-0.34038604113520404,-0.13808020766900475,0.6438304844726052,0.18887295564406575,0.15326194122424025,-0.00028743670618375846,0.2432330130171638
89,1790596877.919395,0.6006122448979594,-0.43139678332270404,-0.20514075454400477,0.767411872828031,0.19707194855943816,0.1559366973912419,-0.0028776484420003734,0.25132028840278164
90,1790596877.9436662,0.6245624402104594,-0.25895537707270405,-0.2626212232940048,0.725331673071671,0.20775968739392914,0.15743910798165076,-0.006401014804921614,0.26075301229058484
91,1790596877.9636662,0.5575018933354593,-0.316435845822704,-0.31531165298150476,0.7143958595205327,0.21701865081842875,0.15762833513598914,-0.009735737224698188,0.268400021274409
92,1790596877.9892,0.49044134646045934,-0.5224075255102041,-0.39674231704400476,0.8190523812071414,0.2290732645820206,0.15622726138316054,-0.01471816705678902,0.2776655221432044
93,1790596878.0092,0.5000214245854593,-0.575097955197704,-0.21951087173150477,0.7930599636379192,0.23858468475243128,0.1536481970726317,-0.018959750852654958,0.28441148432241975
94,1790596878.019255,0.5718720105229593,-0.46971709582270404,-0.04227942641900475,0.7412552167951381,0.24345753281422639,0.15175817654500892,-0.020969728369545877,0.2876488205088781
95,1790596878.039255,0.6341425183354593,-0.393076470822704,-0.14287024673150475,0.7596431747053293,0.25350521678182886,0.14726847554529574,-0.024645779218748026,0.2942113411449951
96,1790596878.0637708,0.6485126355229593,-0.373916314572704,-0.2817813795440048,0.7998642351013643,0.2663325586865858,0.14118028025779003,-0.029256752507122764,0.30285452104512955
97,1790596878.0837708,0.6389325573979593,-0.297275689572704,-0.2530411451690048,0.7487572835455188,0.2771585600623993,0.13595176937066103,-0.03325636257482368,0.3104927320608071
98,1790596878.1086378,0.6054022839604594,-0.22542510363520402,-0.17161048110650476,0.6684149609330189,0.290920751038791,0.12945116028442957,-0.03827534207228224,0.32071402852807906
99,1790596878.1286378,0.5814520886479594,-0.25895537707270405,-0.18119055923150476,0.6617963715997287,0.30210934230362213,0.12428054826455882,-0.04223569170916983,0.3293927185567685
100,1790596878.1538093,0.5622919323979594,-0.29248565051020403,-0.08059973891900475,0.6389181410071405,0.31623802451517496,0.11770803079789402,-0.04696666076831472,0.3406868589882861
101,1790596878.1738093,0.5383417370854593,-0.27811553332270406,-0.09496985610650475,0.6133346144906971,0.3274310028698869,0.11241327601438769,-0.05042514983417192,0.34984353931502793
102,1790596878.1835642,0.4664911511479593,-0.297275689572704,-0.18119055923150476,0.5820797612569092,0.33280657985050877,0.10979719201560427,-0.05206102598796338,0.3542964766875673
103,1790596878.2035642,0.4042206433354593,-0.24937529894770402,-0.19077063735650476,0.5118357200325084,0.3434807338686364,0.10441813287417738,-0.05546982979459538,0.36326170047131
104,1790596878.2291121,0.3659003308354593,-0.36912627551020405,-0.15245032485650475,0.5416441275656808,0.35654625382886446,0.097392492965074,-0.05982872089831554,0.37441955698077206
105,1790596878.2491121,0.40901068239795935,-0.512827447385204,-0.18598059829400476,0.6818141330663838,0.3664025988239438,0.0913946046573186,-0.0632368338586909,0.3828873663910565
106,1790596878.2737694,0.47128119021045933,-0.575097955197704,-0.24346106704400475,0.7823790062910513,0.37835931707784465,0.08309731936273963,-0.06760247542007779,0.39323152466175487
107,1790596878.2937694,0.5096015027104593,-0.637368463010204,-0.31052161391900474,0.8731299570600081,0.38807422004020514,0.07555804360207473,-0.07144334786404784,0.4017645705718835
108,1790596878.3037813,0.5670819714604594,-0.752329400510204,-0.26741126235650475,0.9793315436881546,0.3930164502228575,0.07130651681503054,-0.07351163054830467,0.4061409968372296
109,1790596878.3237813,0.6676727917729594,-0.7427493223852041,-0.16682044204400476,1.0125673175949017,0.40326036811207333,0.061844911046127715,-0.07767487153902297,0.4153036277000143
110,1790596878.3485322,0.6916229870854593,-0.694848931760204,-0.26741126235650475,1.016201838941659,0.41655940165558447,0.04922344982996624,-0.08286032603478555,0.42756346517378296
111,1790596878.3685322,0.6006122448979594,-0.814599908322704,-0.41590247329400476,1.094204252711894,0.4276320837951902,0.03829033253508375,-0.08744688217168037,0.43815785495436643
112,1790596878.3939996,0.6437225964604594,-0.953511041135204,-0.35842200454400475,1.2050014191285745,0.44199351889945876,0.023079516574759644,-0.0938902137193354,0.4524448110728128
113,1790596878.4139996,0.7491034558354593,-0.9822512755102041,-0.22909094985650474,1.2563662758496053,0.45366929424101615,0.010022359312717862,-0.09907253188711407,0.46446920543547143
114,1790596878.4235528,0.8592743542729594,-0.910400689572704,-0.30573157485650476,1.2886635043136376,0.4595621749285649,0.003364942722572056,-0.1015598055158903,0.47066241570899253
115,1790596878.4435527,0.8257440808354594,-0.9247708067602041,-0.34405188735650477,1.286633604902456,0.47257612760727025,-0.011234736972658019,-0.106960602724607,0.4846596602094494
116,1790596878.4691248,0.7395233777104594,-1.054101861447704,-0.23867102798150475,1.309576045934542,0.48972190272624255,-0.0308971572018791,-0.11394786983079973,0.5037522142600922
117,1790596878.4891248,0.8305341198979593,-1.0684719786352042,-0.07580969985650475,1.3554211168620767,0.5034752816434175,-0.04715234375122599,-0.11906463746448918,0.5195065838290238
118,1790596878.5140405,0.9215448620854594,-0.953511041135204,-0.018329231106504747,1.326184074371203,0.5213130528421942,-0.06814368772820022,-0.12465879036558396,0.5403246017499642
119,1790596878.5340405,0.8305341198979593,-0.9630911192602041,-0.05185950454400475,1.2728003914691808,0.5361118836480743,-0.08534098640058292,-0.1285809650065056,0.5578817977945821
120,1790596878.5443509,0.7778436902104593,-1.1163723692602041,-0.10454993423150476,1.3646460207671727,0.5438403540790071,-0.09448472997072531,-0.13042058253015143,0.5671853517765817
121,1790596878.5643508,0.7826337292729594,-1.0253616270727042,-0.02311927016900475,1.2901226767722636,0.5589239029854055,-0.11277368961161771,-0.13364527917644092,0.5856405852083728
122,1790596878.6030304,0.7251532605229594,-0.8864504942602041,-0.013539192044004746,1.1453493090504938,0.5880935609035179,-0.14838473751559664,-0.13905265329473718,0.6222601602963657
123,1790596878.6230304,0.6006122448979594,-0.8433401426977041,-0.11892005141900475,1.0421610449619814,0.6029024979286186,-0.16663075246715356,-0.14162792479213868,0.6413389889576849
124,1790596878.6343355,0.5383417370854593,-0.8577102598852041,-0.07101966079400475,1.015146545095746,0.6109834012506389,-0.1768396495696496,-0.14302630408571249,0.6519428670705235
125,1790596878.6543355,0.6101923230229593,-0.670898736447704,0.05831139389349526,0.908757395733913,0.6248578226405807,-0.19448414387488303,-0.1451481730268738,0.6703278100056067
126,1790596878.663894,0.5718720105229593,-0.40744658801020406,0.17806237045599527,0.7244008049920546,0.6313414868724511,-0.20242498572898168,-0.1458406961324989,0.6788500987273314
127,1790596878.683894,0.5479218152104594,-0.23500518176020402,0.15411217514349526,0.6157891794803889,0.6445525760513642,-0.2175116985776201,-0.14657410883713767,0.6958759456210368
128,1790596878.7240307,0.5096015027104593,-0.18231475207270403,-0.07580969985650475,0.5465157554731823,0.6702716876089624,-0.24450310010953896,-0.14758946523747538,0.7285798181547617
129,1790596878.7440307,0.5910321667729593,-0.326015923947704,-0.15245032485650475,0.691987359983308,0.6828159894149529,-0.2566978278377411,-0.14836191006633762,0.7444076212505267
130,1790596878.754074,0.7491034558354593,-0.354756158322704,-0.09496985610650475,0.8342824419711838,0.689179913614907,-0.2624158703554779,-0.1488779938041298,0.7523268567476614
131,1790596878.774074,0.7730536511479593,-0.26853545519770405,-0.10454993423150476,0.8250175313284203,0.7022350764420554,-0.27302948124487914,-0.15005082502295547,0.7682411407263326
132,1790596878.7843225,0.6916229870854593,-0.25895537707270405,-0.24346106704400475,0.7776075711733298,0.709047158862056,-0.2780577745497309,-0.15082915377132108,0.7764106085733731
133,1790596878.8043225,0.7538934948979593,-0.345176080197704,-0.29615149673150476,0.8804587650801267,0.7225152475926143,-0.28730485490876223,-0.15292965600413153,0.7924391726457645
134,1790596878.8289282,0.7826337292729594,-0.354756158322704,-0.19556067641900476,0.8812556179821165,0.7394349951257763,-0.29826662368960394,-0.15603366763483006,0.8124491345674689
135,1790596878.8489282,0.8113739636479593,-0.31164580676020404,-0.12850012954400475,0.8786143073327707,0.7535157688352407,-0.30683965399637436,-0.1586643036662844,0.8289215574503329
136,1790596878.8738842,0.8544843152104593,-0.306855767697704,-0.23867102798150475,0.9387586306968277,0.771568252307009,-0.31709012024161715,-0.1621416703949536,0.8497962306349689
137,1790596878.8938842,0.8401141980229594,-0.38828643176020405,-0.33926184829400474,0.9857265444922827,0.7864074739377741,-0.325115435698413,-0.16537734619474187,0.8668831687309284
138,1790596878.9190922,0.8592743542729594,-0.45055693957270404,-0.20993079360650477,0.9926857054539415,0.8055182020448476,-0.3352992011701622,-0.1698821613718013,0.8889010501080914
139,1790596878.9390922,0.8832245495854594,-0.31164580676020404,-0.07580969985650475,0.9396572909598421,0.8210200038740301,-0.3433103188953275,-0.1733487674192285,0.9066342244737342
140,1790596878.9486275,0.8640643933354594,-0.20147490832270404,-0.22909094985650474,0.916341681808687,0.8285516982451047,-0.34692379124371886,-0.17497166281720525,0.9151333872090889
141,1790596878.9686275,0.8161640027104593,-0.32122588488520404,-0.33447180923150477,0.9387124903884241,0.8444998815348067,-0.35415010253004253,-0.17871037697656522,0.9330271935337406
142,1790596878.9943883,0.7491034558354593,-0.38828643176020405,-0.2626212232940048,0.8836810779676902,0.8649847729509574,-0.3634325738212641,-0.1839572899607476,0.9560973683056923
143,1790596879.0143883,0.7395233777104594,-0.35954619738520405,-0.2530411451690048,0.860347671225353,0.8807359876049712,-0.3706799589405701,-0.1881932966463626,0.9739179784382834
144,1790596879.0388925,0.7347333386479593,-0.345176080197704,-0.24825110610650475,0.8488864570391801,0.8998491662902317,-0.3795227432118369,-0.19352607803615188,0.995599506613135
145,1790596879.0588925,0.7395233777104594,-0.335596002072704,-0.19556067641900476,0.8353223814485805,0.9153204773641102,-0.3866786561571107,-0.19789145691625676,1.0131599025474558
146,1790596879.0689447,0.7107831433354593,-0.34038604113520404,-0.18119055923150476,0.8086441446051276,0.9230235249848118,-0.39024543193550976,-0.20004046860312583,1.021900246550943
147,1790596879.0889447,0.7107831433354593,-0.383496392697704,-0.22430091079400477,0.8382082430070751,0.9381830336829838,-0.39736327793683734,-0.20428304883632914,1.0391422151876908
148,1790596879.1145396,0.7059931042729594,-0.42181670519770403,-0.16203040298150476,0.8382180191067031,0.957393014846396,-0.40665187013743465,-0.20963967970884237,1.061091854492989
149,1790596879.1345396,0.6916229870854593,-0.393076470822704,-0.09975989516900476,0.8017502758737138,0.9722485700115504,-0.4140436256923189,-0.2135902009553736,1.078109539801083
150,1790596879.1585438,0.6245624402104594,-0.37870635363520405,-0.14287024673150475,0.7442503956374071,0.9897734661216261,-0.42297400297262433,-0.21805725622334265,1.0982292513044605
151,1790596879.1785438,0.6101923230229593,-0.37870635363520405,-0.16203040298150476,0.7362112637349258,1.0040368699263762,-0.4304346865011925,-0.22167821149826783,1.1146772111100172
152,1790596879.1893783,0.6533026745854593,-0.34996611926020404,-0.07580969985650475,0.7450018656640367,1.0116313612939842,-0.434462176341696,-0.2235387990361568,1.1234433623906503
153,1790596879.2093782,0.6485126355229593,-0.27811553332270406,-0.09017981704400475,0.7113714133351136,1.0255003462314403,-0.4417236982884063,-0.22670716910211153,1.1393712855222762
154,1790596879.233895,0.5910321667729593,-0.326015923947704,-0.027909309231504746,0.6755622357485609,1.0422305827023313,-0.45040081011591515,-0.23022564036024037,1.1584944206824634
155,1790596879.253895,0.5718720105229593,-0.364336236447704,-0.05185950454400475,0.6800499230350656,1.055575697037761,-0.4574530538488851,-0.2327850043318583,1.1737513394642876
156,1790596879.27942,0.5287616589604593,-0.326015923947704,-0.12850012954400475,0.6343402540805039,1.0721595888404696,-0.4664249651299052,-0.2359066952075545,1.1927826293515296
157,1790596879.2994199,0.5143915417729593,-0.35954619738520405,-0.08538977798150475,0.6333747235921662,1.0847694688469678,-0.47342875159335185,-0.23830662854652143,1.207331616660055
158,1790596879.308763,0.5239716198979594,-0.30206572863520403,0.07268151108099526,0.6091572579617066,1.0905042706756438,-0.47667345942882167,-0.23926850914837222,1.2139466918920876
159,1790596879.328763,0.5958222058354593,-0.24937529894770402,-0.08538977798150475,0.6515240247877433,1.1026185098856096,-0.4834044103023926,-0.241037726392793,1.2278218876477047
160,1790596879.3533006,0.6293524792729593,-0.38828643176020405,-0.26741126235650475,0.7863584929859865,1.1175065232888681,-0.49159726504366946,-0.24353201589962484,1.2449082469642991
161,1790596879.3733006,0.6245624402104594,-0.47929717394770405,-0.24346106704400475,0.8240614745527816,1.1297020279373344,-0.49857476914859555,-0.2460264040194588,1.259099862533567
162,1790596879.3993673,0.5670819714604594,-0.40265654894770403,-0.08538977798150475,0.7007179696209358,1.1455423611388629,-0.5080289488173013,-0.24943269118394432,1.277723515253311
163,1790596879.4193673,0.5479218152104594,-0.35954619738520405,-0.06622962173150475,0.6586942738724719,1.157545462508279,-0.5153379884865634,-0.25188159991074693,1.2918703806978782
164,1790596879.4443352,0.6006122448979594,-0.345176080197704,-0.16682044204400476,0.7125381778864731,1.1724331361786067,-0.524413540046202,-0.25491663586594704,1.309424114271081
165,1790596879.4643352,0.6149823620854593,-0.354756158322704,-0.018329231106504747,0.7102050395886036,1.1843931466196587,-0.5316427386107853,-0.25726083521386905,1.3234856495678862
166,1790596879.4743717,0.6006122448979594,-0.30206572863520403,0.13016197983099526,0.6847780035389626,1.1904097136541967,-0.5352207684731644,-0.25817657375232106,1.330485513112322
167,1790596879.4943717,0.5766620495854593,-0.24937529894770402,-0.06622962173150475,0.6317543208811933,1.2023666126012977,-0.5421084722958263,-0.25963177271685906,1.3442379715799329
168,1790596879.518688,0.6101923230229593,-0.345176080197704,-0.23867102798150475,0.7405707643531141,1.2168878944374395,-0.5503108270622602,-0.26169169406781434,1.360933759135402
169,1790596879.538688,0.6485126355229593,-0.28290557238520403,-0.04706946548150475,0.7090978323900371,1.2289280474458852,-0.5569873669400045,-0.2635604336087773,1.3747593152599338
170,1790596879.564458,0.6724628308354593,-0.07693389269770402,0.12058190170599525,0.6875064201299473,1.2446678207583557,-0.5649951511668867,-0.2654650408909773,1.3924400140791329
171,1790596879.5844579,0.6628827527104594,-0.05777373644770402,-0.013539192044004746,0.6655333636906036,1.2570540898854363,-0.5704798073600136,-0.266560913031156,1.4059469818806198
172,1790596879.5944095,0.6197724011479593,-0.15357451769770403,-0.18119055923150476,0.6637265856249958,1.2632501107346366,-0.5729572483948524,-0.26716974484768713,1.4126077032641617
173,1790596879.6144094,0.6006122448979594,-0.18231475207270403,-0.12371009048150475,0.6397483286665469,1.2756651491637916,-0.5776932146855984,-0.26866714320346946,1.425914814048151
174,1790596879.63949,0.6341425183354593,-0.11046416613520402,0.09663170639349526,0.6509045646185798,1.2912211993699052,-0.5832921018807794,-0.27031418512795535,1.4424117375077563
175,1790596879.6594899,0.6245624402104594,-0.14399443957270402,-0.04227942641900475,0.6423396221998303,1.303653431093938,-0.5874688178351144,-0.2713490520045846,1.4554250885412723
176,1790596879.6839504,0.6772528698979593,-0.23979522082270402,-0.20993079360650477,0.748494579685577,1.3189658969788318,-0.5925149034908961,-0.2728875633938113,1.4714661295819933
177,1790596879.7039504,0.7491034558354593,-0.354756158322704,-0.3009415357940048,0.8818014103972424,1.3317475297850923,-0.5969137383364496,-0.2747231301993293,1.4850354515532644
178,1790596879.7141373,0.7155731823979593,-0.37870635363520405,-0.2913614576690048,0.860438830287094,1.338400302235032,-0.5993785667735119,-0.27597035836928113,1.4922230644339884
179,1790596879.7341373,0.7443134167729594,-0.436186822385204,-0.33926184829400474,0.9270167248321914,1.3516923206807234,-0.6047142273586447,-0.2789976750395621,1.5068480776888835
180,1790596879.7593772,0.7538934948979593,-0.589468072385204,-0.46380286391900477,1.063457148450495,1.3687867505317382,-0.6123793437749948,-0.28376527173758026,1.5261416574347977
181,1790596879.7793772,0.7586835339604594,-0.484087213010204,-0.3009415357940048,0.9489504425778895,1.3825693092289377,-0.619152398683816,-0.2881235300690494,1.5420320217807266
182,1790596879.8039777,0.7970038464604593,-0.42181670519770403,-0.17640052016900476,0.9188370952309824,1.399849586618204,-0.627905207046121,-0.2935609013950684,1.5620569186232214
183,1790596879.8239777,0.7826337292729594,-0.393076470822704,-0.2817813795440048,0.9200138107484336,1.4141604388992632,-0.6351761042102558,-0.29800562577462597,1.578640485766408
184,1790596879.849307,0.7682636120854593,-0.474507134885204,-0.40632239516900476,0.9901938636082528,1.4325122911563486,-0.6446513635792289,-0.3040975564086187,1.60004442709953
185,1790596879.869307,0.7874237683354594,-0.5224075255102041,-0.32968177016900474,1.0008176073746295,1.4471628029990586,-0.6525061253871641,-0.3092902064440634,1.6173140863339048
186,1790596879.8789427,0.8592743542729594,-0.445766900510204,-0.18598059829400476,0.9857227442052261,1.4543524679305142,-0.6564224614487812,-0.3117893424217558,1.6258056903941027
187,1790596879.8989427,0.8592743542729594,-0.35954619738520405,-0.17640052016900476,0.9480205838911235,1.4696148214453357,-0.664539916565787,-0.3167420721244473,1.6436868814876993
188,1790596879.9242098,0.8209540417729594,-0.536777642697704,-0.23867102798150475,1.0094848369347655,1.489188448252928,-0.6749554410351006,-0.3228471545700988,1.6665765409986006
189,1790596879.9442098,0.7874237683354594,-0.455346978635204,-0.20514075454400477,0.9324482779579293,1.5047703522436569,-0.6834512996761254,-0.32762043453839584,1.6848663570585092
190,1790596879.9541476,0.7778436902104593,-0.39786650988520406,-0.14287024673150475,0.8852968278998741,1.5125180968947243,-0.687675498457358,-0.3298958386388991,1.6939421031912152
191,1790596879.9741476,0.7203632214604594,-0.512827447385204,-0.20993079360650477,0.9088377741537661,1.528019044858713,-0.6962676421190575,-0.33431744807528235,1.712132876560851
192,1790596879.999239,0.6916229870854593,-0.536777642697704,-0.27699134048150476,0.9182574784159714,1.5472061919781899,-0.707405388564799,-0.3399489073659293,1.7348875017952763
193,1790596880.019239,0.6964130261479593,-0.474507134885204,-0.16682044204400476,0.8590559841647578,1.5622879596154333,-0.7164683832937011,-0.3444300623515233,1.7529126278483813
194,1790596880.043642,0.6820429089604594,-0.34996611926020404,-0.018329231106504747,0.7668081735390204,1.5804526459084098,-0.7273768874609489,-0.34941648087362814,1.7745420759952077
195,1790596880.063642,0.6772528698979593,-0.29248565051020403,-0.003959113919004747,0.7377228342151427,1.5951456943912683,-0.7359397802847314,-0.35292361344451134,1.7918292952921802
196,1790596880.0741994,0.6724628308354593,-0.26853545519770405,-0.06622962173150475,0.727120287399668,1.6028070384034785,-0.7402260886841736,-0.3545528063184656,1.8007311729385649
197,1790596880.0941994,0.6533026745854593,-0.27811553332270406,-0.09496985610650475,0.7163601804014352,1.6171322981712213,-0.7479480556777591,-0.35741799913969746,1.8172206222387255
198,1790596880.1187618,0.6628827527104594,-0.273325494260204,-0.10933997329400476,0.7253106916442874,1.63451110111436,-0.7570248785816823,-0.3607853523495462,1.837084450134962
199,1790596880.1387618,0.6628827527104594,-0.23979522082270402,-0.11413001235650475,0.7141014994319095,1.6485278824775695,-0.764076766712799,-0.3634511536057438,1.8529852200688517
200,1790596880.164401,0.6676727917729594,-0.32122588488520404,-0.16203040298150476,0.7584371282344561,1.6663601520782862,-0.7728398193651761,-0.3668870420850002,1.8731373800340028
201,1790596880.184401,0.7107831433354593,-0.393076470822704,-0.19077063735650476,0.8343351993303862,1.6802514152453183,-0.7797215622792646,-0.369694388742187,1.8888844523116208
202,1790596880.1945612,0.7107831433354593,-0.364336236447704,-0.18119055923150476,0.8190137903560226,1.6873330467116283,-0.7832703227488181,-0.371190067199144,1.8969415581433944
203,1790596880.2145612,0.7012030652104594,-0.34996611926020404,-0.12371009048150475,0.7933890658293277,1.701299956929739,-0.7902795347967966,-0.3741499757707363,1.9128385951085929
204,1790596880.2390046,0.6916229870854593,-0.335596002072704,-0.12371009048150475,0.7786342012518702,1.7183628155666346,-0.7988178291162183,-0.37767844599276534,1.9322323096883434
205,1790596880.2590046,0.6964130261479593,-0.34038604113520404,-0.12371009048150475,0.7849572895866355,1.73231181175656,-0.8057700477897952,-0.3805035702831289,1.9480637951732156
206,1790596880.2840912,0.6628827527104594,-0.345176080197704,-0.15724036391900476,0.7637307131620601,1.7497415105859833,-0.8144722708741837,-0.3840442782900429,1.9678542734608142
207,1790596880.3040912,0.6293524792729593,-0.306855767697704,-0.17640052016900476,0.7220541176755823,1.7634911117978516,-0.8213473865760477,-0.38694410292642867,1.983491409009594
208,1790596880.3445442,0.6533026745854593,-0.30206572863520403,-0.20514075454400477,0.7484188788448051,1.7910216851101104,-0.8350148958273448,-0.39308721861899887,2.0148265717499934
209,1790596880.3645442,0.6772528698979593,-0.26853545519770405,-0.18598059829400476,0.7519119120116773,1.80458698716058,-0.8416144420488549,-0.3962554880498708,2.030238280376012
210,1790596880.358847,0.6676727917729594,-0.273325494260204,-0.12850012954400475,0.7328069772998265,1.80458698716058,-0.8416144420488549,-0.3962554880498708,2.030238280376012
211,1790596880.378847,0.6341425183354593,-0.26853545519770405,-0.12850012954400475,0.7005428663200436,1.8180554175782337,-0.8478862768946359,-0.3993310252802714,2.0454099607861513
212,1790596880.4042556,0.6293524792729593,-0.287695611447704,-0.18119055923150476,0.7153204364254627,1.835007394334837,-0.8557190450175632,-0.40324237780123656,2.06448822629825
213,1790596880.4242556,0.6676727917729594,-0.316435845822704,-0.21951087173150477,0.7707811778992484,1.8482948259483745,-0.8618658359489608,-0.4064603602750626,2.0794750556999877
214,1790596880.4488335,0.6772528698979593,-0.306855767697704,-0.14766028579400475,0.7580471436230972,1.8646534981049643,-0.869435465007,-0.410498556647705,2.0979417915702205
215,1790596880.4688334,0.6820429089604594,-0.306855767697704,-0.10933997329400476,0.7558427227886277,1.878007387752833,-0.875591783929463,-0.4136771917854234,2.1129840367457757
216,1790596880.4791143,0.6772528698979593,-0.287695611447704,-0.15724036391900476,0.7524391979932142,1.8848902921737356,-0.8787401408945399,-0.4152716036842496,2.120718310756201
217,1790596880.4991143,0.6724628308354593,-0.30206572863520403,-0.16203040298150476,0.7547872645729425,1.8982961495298667,-0.8848307747679581,-0.41838696287068367,2.135767174107828
218,1790596880.5236864,0.6580927136479593,-0.29248565051020403,-0.11892005141900475,0.7299149636364574,1.9147482043202346,-0.8922870300976747,-0.42215815088606456,2.1542178010562516
219,1790596880.5436864,0.6628827527104594,-0.26853545519770405,-0.15724036391900476,0.732290493304819,1.928111854271254,-0.8982870962127089,-0.4251814496139628,2.169173643325823
220,1790596880.5842843,0.6676727917729594,-0.24937529894770402,-0.16682044204400476,0.7319863772522761,1.9552210040659266,-0.9102166459352495,-0.43138460322005256,2.1994263327453156
221,1790596880.6042843,0.6485126355229593,-0.24937529894770402,-0.13808020766900475,0.7083945383104722,1.9685469741150112,-0.9159601544685261,-0.4344394642229307,2.214248821145826
222,1790596880.5988064,0.6533026745854593,-0.24937529894770402,-0.09975989516900476,0.706360008090706,1.9685469741150112,-0.9159601544685261,-0.4344394642229307,2.214248821145826
223,1790596880.6188064,0.6628827527104594,-0.24937529894770402,-0.15724036391900476,0.7254833668745506,1.981809076671066,-0.9214938709730615,-0.4373353471604208,2.2288966724576236
224,1790596880.6443765,0.6485126355229593,-0.27811553332270406,-0.20514075454400477,0.7348466625651847,1.998736379394675,-0.9285191426830346,-0.4411773581044717,2.2476059205182333
225,1790596880.6643765,0.6676727917729594,-0.31164580676020404,-0.17161048110650476,0.7565449246216129,2.0119645522749767,-0.9340744441937757,-0.4442967953267456,2.26227674461914
226,1790596880.688736,0.7155731823979593,-0.254165338010204,-0.15724036391900476,0.7754801934661938,2.0281865265987022,-0.940859441178579,-0.4481270780776012,2.280257650538146
227,1790596880.708736,0.6916229870854593,-0.24458525988520402,-0.12850012954400475,0.7447661303462666,2.041618310681066,-0.946342680225057,-0.45122876622967995,2.2950767295227656
228,1790596880.7200656,0.6724628308354593,-0.254165338010204,-0.09975989516900476,0.7257811754139202,2.0492449535896387,-0.9494067183277118,-0.4529162199988866,2.303456337540713
229,1790596880.7400656,0.6533026745854593,-0.28290557238520403,-0.16682044204400476,0.73121064502021,2.062677271709965,-0.9548098705419676,-0.45584809106719654,2.318209847758145
230,1790596880.779036,0.6245624402104594,-0.25895537707270405,-0.24346106704400475,0.7186163233622761,2.0886594279106494,-0.9653425660868048,-0.4619031572320647,2.3468572607553377
231,1790596880.799036,0.6054022839604594,-0.273325494260204,-0.15724036391900476,0.6826003833008787,2.1018384995469273,-0.9707356361588614,-0.46514559407736683,2.3614430285687633
232,1790596880.8243313,0.6149823620854593,-0.25895537707270405,-0.056649543606504746,0.6696792992036581,2.118321899346236,-0.9775432669221888,-0.46903715411824537,2.3796794657890574
233,1790596880.8443313,0.6054022839604594,-0.23500518176020402,-0.07101966079400475,0.6532864250066602,2.1312303427665418,-0.9828593576446135,-0.47184402773496353,2.3939072825294483
234,1790596880.8395529,0.5766620495854593,-0.263745416135204,-0.11892005141900475,0.6451687706282236,2.1312303427665418,-0.9828593576446135,-0.47184402773496353,2.3939072825294483
235,1790596880.8595529,0.5814520886479594,-0.30206572863520403,-0.09496985610650475,0.6620796850665948,2.1438009932763253,-0.9881848555051901,-0.47443500138047595,2.4077957924120694
236,1790596880.884526,0.5527118542729593,-0.34038604113520404,-0.013539192044004746,0.6492583157532558,2.1592672534730224,-0.9950404297615355,-0.47738819331283927,2.4249618586475643
237,1790596880.904526,0.6101923230229593,-0.393076470822704,0.11579186264349527,0.7350180531422597,2.171539960716892,-1.0008074199097903,-0.47924514181654837,2.438621987658517
238,1790596880.9285808,0.6676727917729594,-0.5224075255102041,0.24512291733099525,0.8824861609025095,2.1863921052615183,-1.0083548098748165,-0.4804924241917169,2.4551909966952072
239,1790596880.9485807,0.7299432995854593,-0.675688775510204,0.24991295639349526,1.025587162426248,2.19898483485051,-1.0154858439767263,-0.4806313504775958,2.469362731208513
240,1790596880.9743283,0.7730536511479593,-0.934350884885204,0.23554283920599525,1.2353558000593092,2.2156670838776225,-1.026398222344305,-0.4798459266861022,2.488559030999177
241,1790596880.9943283,0.8209540417729594,-1.140322564572704,0.16369225326849526,1.4146010899745354,2.229072659549443,-1.0367152002985784,-0.4787284933109416,2.50454073602102
242,1790596881.0043795,0.9119647839604593,-1.255283502072704,0.11100182358099527,1.555550655748075,2.2361055840371002,-1.0429283047435425,-0.47804407331753224,2.51324367458294
243,1790596881.0243795,1.0221356823979593,-1.3510842833227041,0.04873131576849526,1.6948642526790443,2.250901729788469,-1.0573462640872313,-0.47664689360948154,2.532139802722495
244,1790596881.0495784,1.0652460339604595,-1.566636041135204,-0.04227942641900475,1.894963099416607,2.2706927331524374,-1.078301520253557,-0.4751383823119348,2.5582291021951926
245,1790596881.0695784,0.9838153698979594,-1.7055471739477042,-0.18119055923150476,1.9772743520723381,2.28711794678262,-1.0973468558870274,-0.474455898480592,2.5807338150656527
246,1790596881.094522,0.9838153698979594,-1.8971487364477042,-0.24346106704400475,2.1508926754765763,2.308211357874894,-1.1242766973920473,-0.4745268201284684,2.6109411077124407
247,1790596881.114522,0.9023847058354594,-1.7103372130102041,-0.31052161391900474,1.9585645795439384,2.3254165989387996,-1.1480416090559773,-0.4754061290964418,2.636583562553327
248,1790596881.124102,0.9263349011479594,-1.489995416135204,-0.25783118423150475,1.7733188119317236,2.3337357720871292,-1.1600171102481522,-0.476172512396897,2.6492834147274538
249,1790596881.144102,0.8640643933354594,-1.533105767697704,-0.17640052016900476,1.7686542099274345,2.3511837704116396,-1.1858023265872748,-0.4781838091882471,2.676350506820187
250,1790596881.1840434,0.7634735730229594,-1.604956353635204,-0.14287024673150475,1.7830279586084945,2.385677325476935,-1.2389732939708837,-0.4825544072088782,2.7311847027223473
251,1790596881.2040434,0.6101923230229593,-1.5139456114477041,-0.34884192641900474,1.6691484880398268,2.4024191100735446,-1.26628248665092,-0.48515220653654023,2.758706504859238
252,1790596881.2147741,0.5239716198979594,-1.3846145567602042,-0.4925430982940048,1.5602251225152752,2.41096710029894,-1.281069813856597,-0.4870141026924519,2.7732805416906148
253,1790596881.234774,0.5383417370854593,-1.322344048947704,-0.47817298110650475,1.5056742707291904,2.426102565833969,-1.3085568002941546,-0.49141985032060775,2.7999621477497465
254,1790596881.244221,0.6245624402104594,-1.2361233458227041,-0.47817298110650475,1.4651718560188909,2.433003267150888,-1.3214053139845277,-0.4938663072671091,2.8123870343974873
255,1790596881.264221,0.6628827527104594,-1.125952447385204,-0.47817298110650475,1.391341747190103,2.4473525083596592,-1.3480698148139012,-0.49970331744267465,2.838402707730162
256,1790596881.2894073,0.5718720105229593,-1.020571588010204,-0.5260733717315048,1.2827147598426532,2.4650446234837777,-1.3806667222493705,-0.5078483565336763,2.8706437513085903
257,1790596881.3094072,0.5048114636479594,-0.828970025510204,-0.4494327467315048,1.0695867009548166,2.478601284749905,-1.405442949408179,-0.5148092670465146,2.8954728101368885
258,1790596881.3494387,0.6389325573979593,-0.589468072385204,-0.40632239516900476,0.9595860097357096,2.5050996697568655,-1.4518543327502453,-0.5292214081953516,2.9433791223411716
259,1790596881.3694386,0.6676727917729594,-0.45055693957270404,-0.4302725904815048,0.9131938538944968,2.5183125359124,-1.4731236997527422,-0.536596644087975,2.966467161752044
260,1790596881.3639548,0.7059931042729594,-0.445766900510204,-0.44464270766900477,0.9459606389034735,2.5183125359124,-1.4731236997527422,-0.536596644087975,2.966467161752044
261,1790596881.3839548,0.7443134167729594,-0.34996611926020404,-0.2722013014190048,0.8663557557449967,2.531785711763833,-1.4908272276096308,-0.5441160329498759,2.9880707773054547
262,1790596881.4086,0.8209540417729594,-0.19189483019770404,-0.22430091079400477,0.8724104900463908,2.548791125944076,-1.5103719644283342,-0.5529097818442374,3.0138461973832404
263,1790596881.4286,0.7586835339604594,-0.12004424426020402,-0.31052161391900474,0.8285137283072613,2.5628906637070297,-1.524321543522082,-0.5597778130358179,3.0340263548837814
264,1790596881.469391,0.7395233777104594,-0.206264947385204,-0.32489173110650477,0.8336634162787098,2.5919174189770438,-1.5495031083077662,-0.573628311168617,3.073767269789014
265,1790596881.489391,0.7970038464604593,-0.08172393176020402,-0.19077063735650476,0.8235820349986521,2.606319335639673,-1.5604297059323229,-0.5801741077618539,3.092643422996341
266,1790596881.4829047,0.8305341198979593,0.07634735730229598,-0.10454993423150476,0.8405632231007578,2.606319335639673,-1.5604297059323229,-0.5801741077618539,3.092643422996341
267,1790596881.5029047,0.7826337292729594,0.10029755261479599,0.015201042330995255,0.7891807302159414,2.6212195788226507,-1.5680660607297783,-0.5854140023801877,3.1100374282954517
268,1790596881.5434818,0.6868329480229594,0.10987763073979599,0.11579186264349527,0.7051385308443655,2.651387527948693,-1.5805955715651467,-0.5940517166082929,3.1434114630793233
269,1790596881.5634818,0.7299432995854593,0.224838568239796,0.08226158920599526,0.7682034700758158,2.666151684219869,-1.5853427909834366,-0.5973734447810191,3.158881384401943
270,1790596881.5736594,0.7107831433354593,0.368539740114796,-0.027909309231504746,0.8011324150447897,2.673637640935919,-1.5869432576112796,-0.5987687665335101,3.1662677040457816
271,1790596881.5936594,0.6820429089604594,0.387699896364796,-0.16203040298150476,0.8010914996396279,2.6882309053907285,-1.5884822086464412,-0.6013843253440346,3.1798622980647497
272,1790596881.6040852,0.7059931042729594,0.373329779177296,-0.23867102798150475,0.8335257925819011,2.695782494279797,-1.5885690374251111,-0.6028565947309129,3.186570400437075
273,1790596881.6240852,0.7682636120854593,0.378119818239796,-0.31531165298150476,0.9124828837332909,2.710307255043105,-1.5875834443158934,-0.6060882030377338,3.1989888276245537
274,1790596881.649377,0.7586835339604594,0.411650091677296,-0.2626212232940048,0.9022341212817753,2.728816487806653,-1.585025912993537,-0.6106581608008045,3.2142884062166934
275,1790596881.669377,0.6916229870854593,0.406860052614796,-0.24346106704400475,0.8385408456628296,2.7434329409195723,-1.5820791022517413,-0.6144889842285557,3.22598749204682
276,1790596881.6949985,0.6676727917729594,0.387699896364796,-0.3009415357940048,0.8286519018751031,2.761960990571888,-1.57734345598762,-0.6197065378822139,3.2404439641323495
277,1790596881.7149985,0.7012030652104594,0.411650091677296,-0.30573157485650476,0.8686848292117852,2.776307790238484,-1.573002298419273,-0.6240784292635475,3.251414317315354
