imu_index,t_imu,ax,ay,az,mag,vx,vy,vz,velocity
0,1790648551.2646053,-0.038085506663602955,0.39959257238051465,-0.006715446920956309,0.4014596205683062,0.0,0.0,0.0,0.0
1,1790648551.2846053,0.07208539177389706,0.2558914005055147,-0.006715446920956309,0.2659357249171651,2.4408043416127584e-06,0.0014927050655583595,-2.8708508208495168e-05,0.001492983103960985
2,1790648551.309798,-0.004555233226102951,0.2750515567555146,-0.10730626723345632,0.2952774017952512,0.0001326493721464451,0.004094125981636996,-0.0002748854230780864,0.004105487231165963
3,1790648551.329798,-0.07640581916360295,0.33253202550551464,-0.049825798483456314,0.34481590361144226,9.907226055058671e-05,0.0067609315206549865,-0.0006767027409587813,0.006795435007372072
4,1790648551.3545425,0.033765079273897054,0.46665311925551467,0.012444709329043692,0.4680385508476396,-1.537318210991286e-05,0.0110486165124322,-0.001168644249185901,0.011110260687970958
5,1790648551.3745425,0.11519574333639705,0.5193435489430147,-0.03066564223345631,0.5328490993941352,0.00012944148407633706,0.015473337194004264,-0.001533949477864979,0.015549724113880538
6,1790648551.3851898,0.10561566521139705,0.47144315831801464,-0.06898595473345631,0.4880290792702798,0.00037129999534504744,0.018266760001529853,-0.0017788304583253593,0.018356923011210242
7,1790648551.4051898,0.00981488396139705,0.33732206456801467,-0.049825798483456314,0.3411233169780652,0.0009306085277052509,0.023940019218372605,-0.0023480366108727595,0.024072885750027688
8,1790648551.4295154,-0.028505428538602953,0.30379179113051463,-0.06898595473345631,0.31282754636531307,0.0014747442962471293,0.030974919377417604,-0.003153266965997128,0.03116991488175229
9,1790648551.4495153,0.11998578239889705,0.29900175206801466,-0.14562657973345633,0.3535615030549603,0.0019922346891946665,0.036795458000544214,-0.004037921746791524,0.037069927711823984
10,1790648551.4751205,0.24931683708639707,0.30379179113051463,-0.07377599379595631,0.39986402047900266,0.0032645842821160146,0.04428709559816517,-0.0054219611763212435,0.0447370317528286
11,1790648551.4951205,0.27326703239889705,0.2654714786305147,0.0938753733915437,0.39238063496020464,0.00489320653848219,0.050114889878298555,-0.006310713229274994,0.050747125625047795
12,1790648551.5054042,0.28284711052389705,0.22236112706801464,0.1992562327665437,0.41127850060389787,0.006033927658726386,0.053038228798431425,-0.00647306345087694,0.053771391534017256
13,1790648551.5254042,0.34990765739889707,0.20799100988051464,0.0747152171415437,0.41385745440913385,0.008868783341700232,0.058516323734719926,-0.006330487584770542,0.05952218522911856
14,1790648551.549526,0.2876371495863971,0.29421171300551463,-0.1647867359834563,0.4432271767930166,0.012928411655357932,0.06504088534530174,-0.006347273528301453,0.06661642797144078
15,1790648551.569526,0.34990765739889707,0.23673124425551464,-0.1839468922334563,0.46077490152513173,0.016745780038462676,0.07043553047417568,-0.006882203485499842,0.07272516639438463
16,1790648551.5951643,0.3978080480238971,0.10740018956801464,-0.07377599379595631,0.4186035607259089,0.02234306564355063,0.07697542267323158,-0.007960648579835772,0.08054688202460918
17,1790648551.6151643,0.4073881261488971,0.04033964269301464,0.0795052562040437,0.4170293249446379,0.027262244025001187,0.08153343047557465,-0.00866713795480854,0.08640630483200726
18,1790648551.6240563,0.4073881261488971,0.16488065831801466,0.03639490464154369,0.4409935440551921,0.02966464281104067,0.08339282267114403,-0.008856835057481664,0.0889539062290293
19,1790648551.6440563,0.4073881261488971,0.22715116613051464,-0.025875603170956312,0.4671533842765384,0.035479751135503536,0.08753568611845823,-0.009203722129590497,0.09490003996787999
20,1790648551.6698527,0.3451176183363971,0.20320097081801464,-0.01629552504595631,0.40082708137561524,0.04331103329531247,0.09291032434823093,-0.009665621080343472,0.10296406269407749
21,1790648551.6898527,0.29242718864889705,0.24152128331801465,-0.0019254078584563096,0.3792754911038937,0.04942820926742053,0.09711932438526846,-0.009997346500432694,0.10943152186406178
22,1790648551.7142313,0.30200726677389705,0.16967069738051466,-0.04024572035845631,0.34873521867027,0.056853005366637496,0.10223204188343392,-0.010418148796628127,0.11744016532355438
23,1790648551.7342312,0.3067973058363971,0.19841093175551464,-0.10730626723345632,0.3807966907631173,0.06294377420236963,0.10634943560276058,-0.01093291632015487,0.12406308807670444
24,1790648551.7449143,0.30200726677389705,0.22236112706801464,-0.08814611098345632,0.3852565338793171,0.06619696100831665,0.1085559927846038,-0.011323238667526266,0.1276505266346728
25,1790648551.7649143,0.29242718864889705,0.30858183019301466,-0.05940587660845631,0.4292615342212569,0.0722654174147335,0.1128637072865575,-0.01216568751815662,0.13456786737323598
26,1790648551.789313,0.36906781364889707,0.29900175206801466,0.0028646312040436907,0.47499611042960627,0.07976858067893268,0.1184424159131062,-0.013142730383458555,0.14340280231849345
27,1790648551.809313,0.33074750114889706,0.28463163488051463,0.007654670266543691,0.43642602015448595,0.08604616772726663,0.1232048572148971,-0.013807710760021246,0.15091067788040874
28,1790648551.8350573,0.32116742302389706,0.33732206456801467,0.03639490464154369,0.46718227485651226,0.09417338821466567,0.12961646241273816,-0.014450233849682921,0.1608659803517618
29,1790648551.8550572,0.32116742302389706,0.30379179113051463,0.06034509995404369,0.4461832550181154,0.10050363694292556,0.1348119863302509,-0.014729409148797369,0.16879635123703304
30,1790648551.8641536,0.3546976964613971,0.27026151769301465,-0.006715446920956309,0.4459785208371601,0.10341198480476087,0.13721219438555923,-0.014800749701545204,0.1724537244627914
31,1790648551.8841536,0.4073881261488971,0.16488065831801466,-0.049825798483456314,0.44230456363122184,0.10999044436020743,0.1423505903282415,-0.015018887899972085,0.180519127549151
32,1790648551.9093492,0.3882279698988971,0.17446073644301466,-0.04503575942095631,0.42800201494698625,0.11853820248416702,0.14849409966281504,-0.015431730358631738,0.19063037896596896
33,1790648551.9293492,0.3978080480238971,0.19841093175551464,-0.01150548598345631,0.44469148532481506,0.12548460197047148,0.1531985575660069,-0.015795095365201538,0.19865967987890396
34,1790648551.9548352,0.4169682042738971,0.16967069738051466,-0.006715446920956309,0.45021742097828327,0.13456603785215557,0.15899778743360446,-0.016223504639219805,0.20892945473242452
35,1790648551.9748352,0.4840287511488971,0.08344999425551464,0.026814826516543693,0.4919011774748244,0.1419751443562232,0.16324574257360774,-0.016479118483123157,0.21697390495024932
36,1790648551.9844022,0.4457084386488971,0.12177030675551465,0.007654670266543691,0.46210671264012093,0.1456547896741432,0.16512020723118345,-0.01655831799126115,0.22080348386243273
37,1790648552.0044022,0.4361283605238971,0.18883085363051466,0.022024787454043692,0.4757626818052116,0.153516036847106,0.16891691175035092,-0.01665453128287147,0.22886124629733623
38,1790648552.0300477,0.4361283605238971,0.15530058019301465,0.04118494370404369,0.4647821173942201,0.16376199089686772,0.17371697775576217,-0.01663781911318277,0.239316516454558
39,1790648552.0500476,0.4169682042738971,0.16488065831801466,0.04118494370404369,0.4502713786714469,0.1718335118648943,0.1773791353302879,-0.016503186172722513,0.24751256251793544
40,1790648552.074088,0.35948773552389707,0.17446073644301466,0.03160486557904369,0.4008326933779327,0.181480327583512,0.18173268123597774,-0.016234386390251373,0.25734302405642223
41,1790648552.094088,0.3546976964613971,0.19841093175551464,0.026814826516543693,0.4073038038568081,0.18937325898836113,0.1853705569181765,-0.015956677717867216,0.26547898251240093
42,1790648552.1198053,0.3882279698988971,0.15530058019301465,-0.03066564223345631,0.41926078809458944,0.1994330617365372,0.19002893552638836,-0.01566057386777191,0.2759162844501383
43,1790648552.1398053,0.4073881261488971,0.10740018956801464,-0.049825798483456314,0.42424343983244944,0.20727635700373465,0.1935023332332663,-0.01558557618326252,0.28398864647098476
44,1790648552.1494596,0.42175824333639705,0.19362089269301466,-0.04024572035845631,0.46582054904932485,0.21109488047424105,0.19514545487373136,-0.015620022273769036,0.2879006464323112
45,1790648552.1694596,0.4169682042738971,0.27026151769301465,-0.03066564223345631,0.49783948511013104,0.2190769103893047,0.19873460918280142,-0.0157870444661617,0.2962083191366185
46,1790648552.1942186,0.41217816521139705,0.2558914005055147,-0.10251622817095632,0.49586371693047576,0.22901575361553797,0.20348836423591934,-0.01621010465892901,0.30678738122119104
47,1790648552.2142186,0.4361283605238971,0.14572050206801465,-0.1599966969209563,0.48686892959176703,0.23711238941716806,0.20735478983450784,-0.01689435392786799,0.3154420917966905
48,1790648552.2401073,0.4457084386488971,0.03554960363051464,-0.12646642348345633,0.464664979172975,0.24773309436223298,0.21196086526501076,-0.018203424311893136,0.32654319638121065
49,1790648552.2601073,0.4361283605238971,0.07386991613051465,-0.06419591567095631,0.4469740786121989,0.25603000851288155,0.2151496060474596,-0.019349027774883665,0.33498522820762777
50,1790648552.2691765,0.3355375402113971,0.20799100988051464,-0.06898595473345631,0.40075524080505515,0.2597528636564904,0.21657039831719843,-0.019881179970896598,0.33877654718420586
51,1790648552.2891765,0.3978080480238971,0.14572050206801465,0.012444709329043692,0.42384027485105974,0.26783127454876976,0.21976420263239171,-0.020963496982956135,0.347086969779656
52,1790648552.314295,0.517559024586397,0.07386991613051465,0.06992517807904369,0.5274596088510835,0.2781797646611674,0.22358740501720276,-0.021963738687972186,0.3575719717293606
53,1790648552.334295,0.8384916417738971,0.10740018956801464,0.01723474839154369,0.8455176347043571,0.2872175824950851,0.22644681105036424,-0.022509951457873694,0.3664407125905038
54,1790648552.3593433,0.7810111730238971,0.054709759880514644,0.06034509995404369,0.7852471848423341,0.29988123764107305,0.2297953400151202,-0.02294568030325472,0.3784985590809899
55,1790648552.3793433,0.531929141773897,0.15051054113051465,0.11782556870404369,0.5652299527627197,0.3104453337397565,0.23237578102045767,-0.022974149069088023,0.38846186475779726
56,1790648552.3897197,0.2972172277113971,0.21278104894301464,0.1848861155790437,0.4096299927637691,0.3157493667448275,0.23379648057313454,-0.022751123259584612,0.3935429716533081
57,1790648552.4097197,0.4552885167738971,0.30858183019301466,-0.03066564223345631,0.5508636501395205,0.32556784432929203,0.2369060891079842,-0.022154404424111672,0.4032489726621128
58,1790648552.4343247,0.6708402745863972,0.20320097081801464,-0.02108556410845631,0.7012573775457255,0.3379133067337493,0.24110228601283568,-0.021625907097618566,0.4156722206813284
59,1790648552.4543247,0.6181498448988971,-0.03151094324448536,0.045974982766543694,0.6206576103884265,0.34837645296352293,0.24425903542401486,-0.02122342637176668,0.4260035952813939
60,1790648552.4799306,0.2972172277113971,0.02596952550551464,0.0890853343290437,0.31136585152509505,0.36152090909870366,0.2476837339109529,-0.020526049966908117,0.4387093781615215
61,1790648552.4999306,0.16309613396139705,0.09303007238051464,0.0747152171415437,0.20208242613544056,0.37093809353829227,0.25013591928624945,-0.019817355309520477,0.447834539675608
62,1790648552.509928,0.536719180836397,0.02117948644301464,0.1992562327665437,0.5729040897218294,0.37546407061342985,0.25126345937116834,-0.01931081456923127,0.4521940975909578
63,1790648552.529928,0.555879337086397,-0.041091021369485364,0.16093592026654369,0.5801643559103222,0.3847991462603795,0.2531509130795427,-0.01790918169947667,0.4609517399304053
64,1790648552.5542445,0.6421000402113971,0.04512968175551464,-0.03066564223345631,0.6444140993401852,0.39663132496102627,0.25510887576012226,-0.016223078867058423,0.471868768536189
65,1790648552.5742445,0.8863920323988972,-0.15605195886948536,-0.04503575942095631,0.9011499700903692,0.40719607528772733,0.25631132709450877,-0.015157856666758595,0.48138747464532844
66,1790648552.599982,1.0444633214613972,-0.4386642635569854,0.06992517807904369,1.13499757556109,0.42247944091994594,0.2564786342237914,-0.013944623420571288,0.4944336359266762
67,1790648552.619982,1.068413516773897,-0.5200949276194854,0.03639490464154369,1.1888358867583664,0.4357436234942236,0.2551510054371794,-0.012983786430340727,0.5051169366607577
68,1790648552.6300504,1.226484805836397,-0.4434543026194854,-0.049825798483456314,1.3051434050148638,0.4431524242619891,0.2538552961782944,-0.012582778574157667,0.5108668210440895
69,1790648552.6500504,1.2073246495863972,-0.3811837948069854,-0.07856603285845631,1.2685056233385357,0.459312499444328,0.2504306043165401,-0.012098285785380315,0.5232875196706759
70,1790648552.674898,1.2025346105238972,-0.045881060431985365,-0.1743668141084563,1.2159762937971108,0.4808687879469546,0.24601819867153346,-0.012058007984765353,0.5402824639535508
71,1790648552.694898,1.2312748448988973,0.12656034581801465,-0.31327794692095634,1.2767922058194858,0.4992677205941453,0.24312037044293566,-0.012761917461169385,0.5554625440917411
72,1790648552.7195039,1.0444633214613972,0.04033964269301464,-0.22226720473345632,1.0686129453412017,0.5227082657087462,0.2403979559440731,-0.014486356078870392,0.5755214702987
73,1790648552.7395039,0.7331107823988972,0.24631132238051465,-0.05940587660845631,0.7756608440407315,0.5415694165542521,0.23894704836887606,-0.016100259311820013,0.5921590523001559
74,1790648552.7646573,0.6900004308363972,0.6343044864430146,-0.22226720473345632,0.9632473651021187,0.5644170788987882,0.23905728451900746,-0.018356932527306188,0.6132307895124435
75,1790648552.7846572,1.0540433995863971,0.5480837833180147,-0.14083654067095633,1.1963437018415735,0.5824747887018903,0.24090536859462777,-0.020426765548009682,0.6306580125882637
76,1790648552.794545,0.8959721105238971,0.43312284581801463,-0.05940587660845631,0.9969405602049509,0.5915092210145181,0.24240962467002258,-0.021445061404218403,0.6396135359234465
77,1790648552.814545,0.5798295323988971,0.6247244083180147,-0.05940587660845631,0.8544073566899084,0.6092558841047914,0.24658267204166487,-0.023374042060090007,0.6576793233101866
78,1790648552.8396578,0.6852103917738972,0.8546462833180147,-0.24142736098345632,1.1217043822753257,0.6305795184923438,0.2538228996525978,-0.025999447914923347,0.6802444890052177
79,1790648552.8596578,0.5606693761488971,0.9504470645680146,-0.2893277516084563,1.14079372357493,0.6468832248098194,0.2614317596512494,-0.02857283036056327,0.6982985594496909
80,1790648552.884634,0.26368695427389705,0.8785964786305147,-0.12646642348345633,0.9259893835162916,0.6657336751066847,0.27293470118535024,-0.03208332824442743,0.7202249768186527
81,1790648552.904634,0.3355375402113971,0.9552371036305147,-0.14083654067095633,1.0222026688635144,0.6794629921245168,0.28351487857802804,-0.034873688192917536,0.7370663594074092
82,1790648552.9148715,0.45049847771139706,1.1851589786305148,-0.31327794692095634,1.3060221112507324,0.6860400374538055,0.2897616476586329,-0.03643642549156317,0.7456140815100442
83,1790648552.9348714,0.05771527458639705,1.2091091739430146,-0.23184728285845632,1.2324890303781983,0.6977239838677133,0.3037262270309757,-0.03984914303871459,0.7620080923793557
84,1790648552.960211,-0.13388628791360296,1.1085183536305148,-0.20310704848345632,1.1348968902815146,0.7101620642860395,0.32316974194509024,-0.044351032956346806,0.7814959077206739
85,1790648552.980211,0.05292523552389705,1.0079275333180147,-0.1935269703584563,1.0277021364344439,0.7183851561579458,0.33938878862400296,-0.04796623808862192,0.7959665460483366
86,1790648553.0049343,-0.014135311351102952,0.8833865176930147,-0.6294205250459564,1.0847772785313634,0.7270974210956141,0.35993776723912607,-0.053290829738979605,0.8130595110957433
87,1790648553.0249343,-0.368598201976103,1.0031374942555147,-0.5575699391084563,1.2054184766622156,0.7325139623567347,0.37689723489919363,-0.05873255650126668,0.8258799815441685
88,1790648553.0350037,-0.8715523035386029,0.5672439395680147,0.1848861155790437,1.0561969421059663,0.7338953987505213,0.3853409725064182,-0.06134278794936208,0.8311757088803662
89,1790648553.0550036,-1.661908748851103,0.3564822208180147,0.5345589671415437,1.7817894243200054,0.7324274714706523,0.40098201022863883,-0.06467044036204884,0.8375075159952385
90,1790648553.0793045,-0.6799507410386029,0.7923757755055146,0.2423665843290437,1.0718833616799164,0.7266432355301317,0.4192297120354427,-0.06669119751303605,0.8415531231127013
91,1790648553.0993044,-0.08598589728860295,1.2474294864430147,-0.049825798483456314,1.2513818395575842,0.7214478862065556,0.4350548593130812,-0.06781603634443144,0.845197490477404
92,1790648553.1248405,-0.550619686351103,1.4534011661305146,-0.025875603170956312,1.554421608041521,0.7145902288992949,0.45740227519500787,-0.06918178914685165,0.8512591594464496
93,1790648553.1448405,-0.359018123851103,0.7827956973805147,-0.025875603170956312,0.8615872932735679,0.7086604622538855,0.47563379199746036,-0.0701686311330784,0.8563590319759955
94,1790648553.1544418,0.7426908605238971,0.5480837833180147,-0.32285802504595634,0.9778664797294622,0.7065170571251925,0.4840316759812022,-0.07082244350232036,0.8593420936190974
95,1790648553.1744418,0.7283207433363972,0.4043826114430147,-0.11688634535845631,0.8412127075495297,0.7049284982981124,0.5003295148202296,-0.07263968771585567,0.867485063470568
96,1790648553.2144487,-0.062035701976102954,0.6582546817555147,0.1896761546415437,0.6878406050912701,0.7042266802190601,0.5312290898667297,-0.07551112991271108,0.885348233066338
97,1790648553.2344487,0.05292523552389705,0.6630447208180147,0.2279964671415437,0.7031442038365416,0.7039147933974242,0.5463410868983838,-0.07610477360347291,0.8943022733742109
98,1790648553.2451985,0.8672318761488972,0.3948025333180147,-0.1599966969209563,0.9662086267202723,0.7045141664318484,0.554098144346593,-0.07632116632271164,0.8995498233563046
99,1790648553.2651985,1.1881644933363973,0.23673124425551464,-0.3899185719209563,1.2727187583912558,0.7085451190157082,0.5673126159276572,-0.07748824638154186,0.9109798121796949
100,1790648553.2746634,0.9199223058363971,0.25110136144301465,-0.4378189625459563,1.0492827962273596,0.7116630928811352,0.5729745950829234,-0.07854530722758611,0.9170243233780984
101,1790648553.2946634,0.8768119542738971,0.15530058019301465,-0.40428868910845633,0.9779400889149251,0.7199583630485397,0.5837536391104268,-0.08170704719289838,0.9304753609092408
102,1790648553.3197758,0.9103422277113972,0.07865995519301465,-0.40428868910845633,0.9991795155258891,0.7321776977374791,0.595698519635337,-0.08660439979832561,0.9478613977920588
103,1790648553.3397758,1.0061430089613972,0.21757108800551464,-0.2701675953584563,1.0642609935535399,0.7433243749558522,0.6042290244843805,-0.09093137555919588,0.9622330047831149
104,1790648553.3649297,0.9678226964613972,0.27026151769301465,-0.03066564223345631,1.0053170849762436,0.7589645933641209,0.614268797588338,-0.0961246229823653,0.98111841936358
105,1790648553.3849297,0.9726127355238972,0.23673124425551464,0.11782556870404369,1.0079186871719732,0.7724455219007589,0.6218145617385288,-0.09950368521670755,0.9966074537481244
106,1790648553.4098365,1.2121146886488972,0.28463163488051463,0.1082454905790437,1.2497816898338145,0.7907967711016342,0.6307759925837857,-0.10265826412175641,1.016748053943219
107,1790648553.4298365,1.3653959386488972,0.29421171300551463,0.1800960765165437,1.4082972690895894,0.8071885290324775,0.6377608084130407,-0.10437888432220295,1.0340150490402051
108,1790648553.4400187,1.3558158605238972,0.20799100988051464,0.2711068187040437,1.3982116488525975,0.8163600046931833,0.6411669402708648,-0.10477890211255407,1.0433203347423403
109,1790648553.4600186,1.542627383961397,0.12177030675551465,0.1657259593290437,1.5562751514274227,0.8360202522538186,0.6473484190717622,-0.1047915185224484,1.062530517306439
110,1790648553.4842148,1.5282572667738972,0.15051054113051465,0.0747152171415437,1.5374674175770786,0.8618103859474403,0.6541991751647175,-0.1043681611765494,1.087008010633062
111,1790648553.5042148,1.1594242589613972,0.17446073644301466,0.050765021829043695,1.173574986215081,0.8839618074495351,0.6594999077998299,-0.10388249414610387,1.1077545657804568
112,1790648553.530266,0.9917728917738972,0.24152128331801465,-0.025875603170956312,1.0210854743813564,0.912690539533964,0.6661815409200569,-0.10329614294595486,1.1346682156317462
113,1790648553.550266,1.1690043370863972,0.31337186925551463,-0.10730626723345632,1.215025803658128,0.9346788780729733,0.6713740357533933,-0.10311328715302125,1.1554220228933894
114,1790648553.55983,1.106733829273897,0.3852224551930147,-0.05940587660845631,1.1733648908245964,0.9452487883196046,0.6739857117910082,-0.10315854394383855,1.1655014786377258
115,1790648553.57983,0.7858012120863972,0.5001833926930147,0.007654670266543691,0.9315178823936956,0.9668757261637465,0.6799561037275663,-0.10331661514961354,1.1865341528194704
116,1790648553.6045427,0.8049613683363972,0.5145535098805146,-0.07856603285845631,0.9585931047965438,0.9925388067118077,0.6881075511189282,-0.10361406793284274,1.212172083414471
117,1790648553.6245427,0.9534525792738971,0.5768240176930147,-0.1647867359834563,1.1264778900039005,1.0128301080659599,0.695352012340151,-0.1041837150852402,1.2329612708270135
118,1790648553.6648593,0.9534525792738971,0.7205251895680147,-0.12167638442095631,1.2012632984703342,1.0533643596970463,0.7116879318764993,-0.1060259716554086,1.2756636285965397
119,1790648553.6848593,0.8959721105238971,0.7013650333180147,0.0028646312040436907,1.137843196099428,1.073230261072971,0.7207090070708974,-0.10698099931307473,1.2971852606200474
120,1790648553.6801126,0.8959721105238971,0.6726247989430146,0.01723474839154369,1.120485242893407,1.073230261072971,0.7207090070708974,-0.10698099931307473,1.2971852606200474
121,1790648553.7001126,1.1115238683363973,0.7827956973805147,0.11782556870404369,1.3646015089979149,1.0928793426165695,0.7311616979267903,-0.10744278982875562,1.319290202767912
122,1790648553.724716,0.8863920323988972,0.7061550723805147,-0.07377599379595631,1.1356886539054436,1.1171119479135985,0.7448389824791404,-0.10784437576272442,1.3469798155041253
123,1790648553.744716,0.7858012120863972,0.5528738223805146,-0.09772618910845632,0.9657657150819517,1.136364037147587,0.7561780035845876,-0.10837910928487823,1.3692605410793515
124,1790648553.7700124,0.8241215245863972,0.5049734317555147,-0.1743668141084563,0.9821294415339977,1.1601163606093887,0.7703755702020286,-0.10947022538914462,1.3969009340552478
125,1790648553.7900124,0.6756303136488971,0.44270292394301464,-0.1599966969209563,0.823444680968077,1.178328270224583,0.7813382800913504,-0.11070503339538826,1.4181687575058342
126,1790648553.8000379,0.5846195714613971,0.45707304113051467,-0.09293615004595632,0.7478856438315749,1.1870356750968691,0.7866858705485407,-0.11142134898167119,1.428405779140609
127,1790648553.8200378,0.6516801183363972,0.4858132755055147,0.026814826516543693,0.8132776587448164,1.2036550446311367,0.7971679698311198,-0.112735168729222,1.4480923509428048
128,1790648553.8444223,0.7235307042738972,0.5385037051930147,0.03639490464154369,0.9026668874050682,1.2233934352404245,0.8099043206370166,-0.1139811352287281,1.4716073542775951
129,1790648553.8644223,0.6612601964613971,0.5528738223805146,-0.049825798483456314,0.8633754230300514,1.239231506225738,0.8204207050037002,-0.11486992398751573,1.4906307251154383
130,1790648553.8901253,0.7666410558363972,0.45228300206801464,-0.07856603285845631,0.8935720698257739,1.2592852396490322,0.833846219189515,-0.11608831968697159,1.5147855722914427
131,1790648553.9101253,0.8384916417738971,0.45707304113051467,-0.10730626723345632,0.9609883626977803,1.2749565150466209,0.8440899133873643,-0.11717297717828591,1.5335355893238787
132,1790648553.9196997,0.7953812902113971,0.5337136661305146,-0.1599966969209563,0.9711233790092985,1.2825066131052678,0.8489696703530764,-0.11780628354051471,1.542546930981286
133,1790648553.9396996,0.7426908605238971,0.5241335880055147,-0.11688634535845631,0.9164977632883332,1.298219401607497,0.8592207606259897,-0.11934608369959797,1.5613703653826865
134,1790648553.9643242,0.7235307042738972,0.5049734317555147,-0.07377599379595631,0.8854025886943205,1.3173714385484563,0.8718495972804216,-0.12130967884358441,1.5843942898036447
135,1790648553.9843242,0.7714310948988972,0.5145535098805146,-0.08814611098345632,0.9314724824646061,1.3328357995138036,0.8820974091554789,-0.12290816163464867,1.6030138876194482
136,1790648554.0096264,0.8241215245863972,0.5049734317555147,-0.09772618910845632,0.9714550232013889,1.3524931177995603,0.895052043661816,-0.1249798023950197,1.626645550070779
137,1790648554.0296264,0.8001713292738971,0.5145535098805146,-0.07377599379595631,0.9541919974422828,1.3681368832040004,0.9052852723064616,-0.126628946197193,1.645410236218662
138,1790648554.0396998,0.7810111730238971,0.4858132755055147,-0.006715446920956309,0.9198032878137091,1.3760289002220594,0.9104221152487463,-0.12739579095669315,1.6548575919799906
139,1790648554.0596998,0.8816019933363972,0.5145535098805146,0.03160486557904369,1.0212669860096992,1.3918414438657356,0.9205916381265321,-0.12865258975042254,1.6736974212503997
140,1790648554.0848289,0.9055521886488972,0.49060331456801465,0.0028646312040436907,1.0299148434428282,1.4120972490103152,0.9333469554045578,-0.1299298704064462,1.6976563112271263
141,1790648554.1048288,0.8911820714613972,0.45707304113051467,-0.025875603170956312,1.001893605260551,1.428495530021756,0.9433975225906107,-0.13082847539346285,1.7168909269071282
142,1790648554.1304967,0.9055521886488972,0.43312284581801463,-0.04024572035845631,1.004609319060636,1.4498430826402204,0.9560752658633079,-0.13193604161815164,1.7417037628004248
143,1790648554.1504967,0.9582426183363971,0.4235427676930147,-0.04503575942095631,1.048639886370853,1.4667773642122135,0.9657567965234669,-0.13279751042604493,1.7611806281503193
144,1790648554.1746058,1.0061430089613972,0.48102323644301465,-0.10730626723345632,1.120366789702187,1.4876808575029241,0.9773124905619196,-0.133955667261554,1.7850148903525893
145,1790648554.1946058,0.9486625402113972,0.5097634708180147,-0.1695767750459563,1.0902181864268072,1.5053526707523164,0.9869468956628245,-0.13518763854133806,1.8051112253304509
146,1790648554.2044697,0.8911820714613972,0.5001833926930147,-0.20789708754595632,1.0428854730171537,1.514122042126732,0.9917329224055873,-0.13598334937561063,1.8151008840129415
147,1790648554.2244697,0.8624418370863972,0.5001833926930147,-0.1599966969209563,1.0097466472875614,1.5318661601964125,1.0014820098609811,-0.1379065674914998,1.8353741771604444
148,1790648554.2485843,0.9295023839613972,0.45707304113051467,-0.09772618910845632,1.0404041785555649,1.5532925098435775,1.013204864985327,-0.14034373609214817,1.8598381875384744
149,1790648554.2685843,0.9869828527113972,0.4043826114430147,-0.025875603170956312,1.0669254870061267,1.5712720869653254,1.0227612637075507,-0.14224726005879673,1.88020500393209
150,1790648554.2947388,0.9774027745863971,0.4139626895680147,0.050765021829043695,1.0626656951105908,1.5951109279569553,1.0349891085173468,-0.14431433373421074,1.9069367986795946
151,1790648554.3147388,0.9438725011488972,0.48102323644301465,0.026814826516543693,1.059715852171845,1.6134876718788547,1.044279473466617,-0.14554152616004964,1.9274450502791922
152,1790648554.3258605,0.9821928136488972,0.48102323644301465,-0.07377599379595631,1.0961427710121663,1.6237804872661443,1.0494732680704062,-0.14616076089649657,1.9389224273411505
153,1790648554.3458605,1.0061430089613972,0.43791288488051466,-0.13604650160845633,1.105712485154332,1.6424959165736923,1.0587905676968343,-0.14742201629829785,1.9597355824433291
154,1790648554.370641,0.9342924230238971,0.46186308019301464,-0.07856603285845631,1.0451758024774396,1.665812870621797,1.0702755620167754,-0.1491492017628038,1.9856152152333133
155,1790648554.390641,0.8959721105238971,0.4858132755055147,-0.054615837545956315,1.0206681396050776,1.684554215294946,1.0795760374361556,-0.15053386212618414,2.006456520466105
156,1790648554.4142482,0.9247123448988972,0.5193435489430147,-0.09772618910845632,1.0650638716409473,1.706581181853157,1.0906869649190132,-0.15219283295025435,2.031053924469016
157,1790648554.4342482,1.0300932042738973,0.5480837833180147,-0.1791568531709563,1.1805020207799617,1.7253753793737252,1.1002892716099066,-0.15380281012887778,2.052123774379222
158,1790648554.4440773,1.0013529698988972,0.5289236270680147,-0.1599966969209563,1.1437075310680358,1.7347239074844603,1.1050944356304595,-0.15472537024229174,2.0626295564294073
159,1790648554.4640772,0.8959721105238971,0.5049734317555147,-0.054615837545956315,1.029925763988082,1.753738791501524,1.1149561294625352,-0.15664291761252047,2.084049884979116
160,1790648554.4894142,0.8816019933363972,0.5049734317555147,-0.02108556410845631,1.016201182073423,1.7775923275460082,1.127494600680718,-0.15885162954381882,2.1109979625104645
161,1790648554.5094142,1.0492533605238972,0.5672439395680147,-0.09293615004595632,1.1963843151482292,1.7964932663380242,1.1375156800205057,-0.16050460912199271,2.1323910776027413
162,1790648554.534144,1.0540433995863971,0.6007742130055147,-0.1647867359834563,1.2243740488838066,1.82025947341201,1.1502143373340241,-0.16271992085943165,2.1593553077248346
163,1790648554.554144,0.9438725011488972,0.6343044864430146,-0.10730626723345632,1.1422574643811216,1.839593973493972,1.1607964051636968,-0.1646509340865688,2.181436272654299
164,1790648554.5647328,0.9486625402113972,0.5768240176930147,-0.05940587660845631,1.1118523376615579,1.8497980277732085,1.1665204696103941,-0.16565234130545178,2.19316288673543
165,1790648554.5847328,1.0061430089613972,0.5097634708180147,-0.10730626723345632,1.1330036123728384,1.8691123894863486,1.1773400806658434,-0.16751012412002494,2.2153488284593754
166,1790648554.6093073,0.9917728917738972,0.44270292394301464,-0.1552066578584563,1.097127364697848,1.8929669934488398,1.1903957576249662,-0.16993426061747088,2.2425975454793186
167,1790648554.6293073,0.8528617589613972,0.43791288488051466,-0.06419591567095631,0.9608652300046743,1.9122359094680175,1.200748242561216,-0.17194031590772982,2.2645100988309315
168,1790648554.6547792,0.9055521886488972,0.45228300206801464,-0.025875603170956312,1.0125483826296522,1.936454890481177,1.2136560319310137,-0.17428405899013433,2.2919846072626835
169,1790648554.6747792,1.020513126148897,0.43791288488051466,-0.049825798483456314,1.1116192448770774,1.9555077531670575,1.2236059935278807,-0.17596182700853866,2.313478931103114
170,1790648554.6845994,0.9821928136488972,0.44270292394301464,-0.11688634535845631,1.0836747758356693,1.9649346798463938,1.2284072964618475,-0.17678484632987596,2.324049410824915
171,1790648554.7045994,0.9055521886488972,0.42833280675551466,-0.12167638442095631,1.009107973526927,1.9840854355780309,1.2380254801510837,-0.17856743525726282,2.3454612412296525
172,1790648554.7297306,0.9199223058363971,0.49060331456801465,-0.04024572035845631,1.0433448035274089,2.007980669337537,1.2500305008913566,-0.18077657703329664,2.3721810201575666
173,1790648554.7497306,0.9869828527113972,0.6247244083180147,0.026814826516543693,1.1683898205717702,2.0270049231244274,1.2598242710329908,-0.18229109434159052,2.3935614041279005
174,1790648554.774914,0.8624418370863972,0.7396853458180147,-0.0019254078584563096,1.1361971837539016,2.0508596440510463,1.2728835554478497,-0.18386506787219864,2.420756945360354
175,1790648554.794914,0.7858012120863972,0.7109451114430146,-0.10251622817095632,1.0646295475138623,2.0694350438587157,1.2838751187634188,-0.18508423495355497,2.442366249226076
176,1790648554.8346405,0.7810111730238971,0.5720339786305146,-0.1887369312959563,0.9863178769195226,2.1054656316927964,1.3062556486772763,-0.1880104344959435,2.4848817415362427
177,1790648554.8546405,0.7379008214613971,0.5001833926930147,-0.2605875172334563,0.9287555667543512,2.1231624077586186,1.3174411744757657,-0.18993661616642926,2.505902188052082
178,1790648554.8496797,0.6468900792738972,0.5576638614430147,-0.31327794692095634,0.9097245896696057,2.1231624077586186,1.3174411744757657,-0.18993661616642926,2.505902188052082
179,1790648554.8696797,0.34990765739889707,0.7732156192555146,-0.29411779067095634,0.8982221536770496,2.139209130359876,1.328867788145134,-0.19297105292987043,2.52573615586697
180,1790648554.8941555,0.6852103917738972,0.6774148380055147,-0.1695767750459563,0.9783457601379802,2.157801452617428,1.3434169169379828,-0.1969787415749421,2.5494463607351077
181,1790648554.9141555,1.140264102711397,0.5097634708180147,-0.06898595473345631,1.2509276885828144,2.1734531930812615,1.3553029631482003,-0.20012017589739747,2.569200846417934
182,1790648554.939633,1.0492533605238972,0.6534646426930146,0.06513513901654369,1.237817127105335,2.194584498156638,1.3703957690969726,-0.20352905065129628,2.5953053303931934
183,1790648554.9596329,0.9726127355238972,1.1659988223805147,-0.01629552504595631,1.5184842215948604,2.211717308996841,1.3831957445090188,-0.20573038738353677,2.6167248450758187
184,1790648554.969208,0.9390824620863971,1.2330593692555145,-0.049825798483456314,1.5507397876180165,2.220062247009726,1.3901274561995083,-0.20667369074453454,2.6275168390561374
185,1790648554.989208,1.068413516773897,1.1037283145680148,0.1130355296415437,1.5402923963214457,2.2378893529907735,1.405939412894883,-0.2082536466343642,2.6510722303055387
186,1790648555.014635,1.1163139073988972,1.5827322208180146,0.1848861155790437,1.9456055351487942,2.261320613644399,1.4281498180729626,-0.20939288423635125,2.6827277537095964
187,1790648555.034635,0.9151322667738971,1.2426394473805145,0.3573275218290437,1.5840779083534267,2.2800333888802924,1.4472372441619985,-0.2093412329508809,2.7086660272377547
188,1790648555.0592017,0.8337016027113971,0.9408669864430147,0.3046370921415437,1.2934808875473838,2.302793315582605,1.4711892213589712,-0.20806763569569636,2.74053770642893
189,1790648555.0792017,1.3318656652113972,0.8354861270680147,0.3094271312040437,1.6023883325265673,2.321791404551679,1.4904283818855963,-0.20626521810744486,2.7667015429896096
190,1790648555.0894732,1.461196719898897,0.8354861270680147,0.49144861557904373,1.753469322378058,2.3322365350502046,1.5001143297640867,-0.20486142086614775,2.7805823957483864
191,1790648555.1094732,1.6527982823988971,0.7061550723805147,0.6543099437040437,1.9127254510199478,2.354194793524036,1.518457570430641,-0.20081942235539638,2.8086072989026
192,1790648555.1342418,1.8875101964613972,0.5576638614430147,0.6686800608915437,2.0786574388145813,2.3838861421715407,1.540114604443545,-0.19410690260605792,2.8447396406871976
193,1790648555.1542418,1.8252396886488973,0.6343044864430146,0.6064095530790438,2.025234467563296,2.4098339924411807,1.5567669142457388,-0.18758711543792467,2.8750673074370834
194,1790648555.1795247,1.6767484777113972,0.7109451114430146,0.4579183421415437,1.87792907668577,2.444356063791862,1.5772110786835598,-0.17856326302614517,2.9145078816535643
195,1790648555.1995246,1.9114603917738973,0.7396853458180147,0.2471566233915437,2.0644373656337085,2.472950724436851,1.5931335077279618,-0.1714380885852341,2.9466846925241432
196,1790648555.209535,2.0647416417738973,0.7684255801930147,0.06513513901654369,2.2040595513517425,2.488101120183683,1.6010397193414543,-0.16817232621591527,2.9634873541949074
197,1790648555.2295349,1.8443998448988972,0.7396853458180147,0.0938753733915437,1.9894114165778765,2.519694121895596,1.6167286781545809,-0.16238770052386736,2.9981727521882573
198,1790648555.2546592,2.007261173023897,0.6199343692555147,0.03160486557904369,2.1010509052476034,2.5606864065113757,1.6360430645376274,-0.15597452294453273,3.042709291621792
199,1790648555.2746592,2.309033633961397,0.5528738223805146,-0.11688634535845631,2.3771765193123278,2.5948976493986846,1.6508710613733597,-0.1517630658275894,3.0792695725259605
200,1790648555.299993,2.2946635167738973,0.6390945255055147,-0.19831700942095631,2.3902410137829073,2.6404798000280967,1.6691010207526,-0.1478275272444401,3.127280730865874
201,1790648555.319993,2.0647416417738973,0.6917849551930146,-0.2893277516084563,2.196687283014443,2.6776062327852124,1.683330323977825,-0.14591809981548826,3.166144060103278
202,1790648555.329335,2.026421329273897,1.0701980411305148,-0.38033849379595636,2.3230076669780395,2.6952131289447485,1.690214361134062,-0.14562919261402726,3.184683070379434
203,1790648555.349335,2.069531680836397,1.0797781192555147,-0.3755484547334563,2.3643009128833805,2.733397128081121,1.7059665200571568,-0.1462372842867189,3.2253940799030434
204,1790648555.375009,1.9689408605238972,0.6822048770680147,-0.1743668141084563,2.0910608294352184,2.782837929958309,1.7265472961771655,-0.1479596974770498,3.278268534215711
205,1790648555.395009,1.8156596105238971,0.36127225988051465,0.026814826516543693,1.8514471372329473,2.8212518122067105,1.7417399713896744,-0.1493215127799949,3.3189481511459404
206,1790648555.420088,1.6432182042738972,0.45228300206801464,-0.04503575942095631,1.7049205847908018,2.8687014880533686,1.7594634585060465,-0.15080728813275238,3.36866482861261
207,1790648555.440088,1.4707767980238973,0.41875272863051466,-0.03066564223345631,1.5295354258579692,2.9055365710347774,1.7727840006668596,-0.15192798335061777,3.40704974879527
208,1790648555.4492292,1.5569975011488972,0.29421171300551463,-0.01629552504595631,1.5846347512250492,2.921922875121794,1.7784478550206324,-0.15239557143018112,3.4239939356516143
209,1790648555.4692292,1.739018985523897,0.06428983800551465,-0.05940587660845631,1.7412206274504558,2.957340651140751,1.7895187273416635,-0.1533787011504583,3.460023992454782
210,1790648555.4948854,1.5761576573988971,-0.09857149011948536,-0.1791568531709563,1.5893666907544257,3.0023389771221765,1.8015243363502882,-0.15490974288713433,3.5047861983936683
211,1790648555.5148854,1.3174955480238972,-0.06983125574448537,-0.3372281422334563,1.361761265147408,3.036495642153291,1.8092267286595782,-0.15669879805483858,3.5381014193807383
212,1790648555.5389893,1.5282572667738972,-0.14647188074448536,-0.4761392750459563,1.6073994197265775,3.0766307983230488,1.816726150746148,-0.16000193286025552,3.576555828519087
213,1790648555.5589893,1.7773392980238971,-0.21353242761948538,-0.5144595875459563,1.862578788981316,3.109895710305149,1.8214753370060415,-0.16381746456377622,3.6077776946469062
214,1790648555.5847862,1.8156596105238971,-0.4482443416819854,-0.47134923598345635,1.9286557270285163,3.1533179395415165,1.825401813332192,-0.1699080049429433,3.6475162149186535
215,1790648555.6047862,1.7869193761488973,-0.6733761776194854,-0.5623599781709563,1.9906695050887355,3.1873367710146088,1.8263069066543218,-0.17547219399255654,3.6776763180056604
216,1790648555.6149123,1.9018803136488973,-0.9511984432444854,-0.7970718922334563,2.270958125387737,3.2047786142935206,1.8254626257707254,-0.17889923193360807,3.6925498913224293
217,1790648555.6349123,1.9114603917738973,-1.0134689510569854,-0.9311929859834563,2.3554024117381203,3.239780440755089,1.8210982267487663,-0.18724502734876142,3.7212412923691978
218,1790648555.659528,1.7438090245863973,-0.8218673885569854,-0.8832925953584564,2.1205050642753767,3.283146630202699,1.8131439535360916,-0.19932602768165517,3.7558319527059747
219,1790648555.679528,1.820449649586397,-1.0853195369944855,-0.7443814625459564,2.2463435146573683,3.3184422967950185,1.8047898459812932,-0.21011084053746854,3.7833149790397758
220,1790648555.7042816,2.0455814855238974,-1.3391916073069856,-0.7539615406709563,2.55857299677194,3.3627516731594644,1.7914999449151907,-0.22423846340497472,3.8167857886496765
221,1790648555.7242815,1.9833109777113973,-1.4637326229319856,-0.8880826344209564,2.6200622876767556,3.3992253102003156,1.7781684711101686,-0.23640394011418894,3.8435013521603216
222,1790648555.735005,1.5857377355238973,-1.4158322323069856,-1.0222037281709564,2.3588229136140004,3.4187183243330455,1.7697768522441029,-0.24348462045113647,3.8573345522868285
223,1790648555.755005,1.5569975011488972,-1.6601242244944856,-1.0078336109834563,2.4891730045871223,3.454335158223995,1.7518594904458966,-0.2577548432678048,3.88173680442605
224,1790648555.7794156,1.8396098058363972,-1.9427365291819856,-0.8976627125459563,2.822089262415854,3.497504607687107,1.7266748687174949,-0.276048173729328,3.9102617786118135
225,1790648555.7994156,1.9833109777113973,-2.2157687557444854,-0.8353922047334563,3.0888563820568655,3.533302816066261,1.7028981797595968,-0.29138749510667583,3.933064666764947
226,1790648555.825029,1.5378373448988971,-2.139128130744486,-0.6437906422334564,2.7120618079489733,3.5790356702083606,1.668649921050774,-0.3109268758589717,3.961131708208903
227,1790648555.8450289,1.0492533605238972,-1.9331564510569856,-0.5336197437959563,2.2633551444266966,3.6132699679494125,1.6398103539964373,-0.3256616057801435,3.981300458372662
228,1790648555.8545947,0.8911820714613972,-1.3535617244944855,-0.46176915785845635,1.6851010597765406,3.62857999982724,1.6257276666079687,-0.3323661123956766,3.989993796209445
229,1790648555.8745947,0.6181498448988971,-1.2817111385569855,-0.3563882984834563,1.4669373854209007,3.658052328476912,1.596747612209028,-0.3455083094171339,4.006285781973982
230,1790648555.8998427,0.575039493336397,-1.2721310604319855,-0.1647867359834563,1.4057533646299658,3.6919368375308417,1.560814797251422,-0.3605973532969182,4.024496352941691
231,1790648555.9198427,0.8432816808363972,-1.2098605526194854,-0.01150548598345631,1.4747945369530975,3.716879389667974,1.5328975783807222,-0.37102152626091395,4.037650846233863
232,1790648555.9444504,0.9917728917738972,-1.1907003963694853,-0.03066564223345631,1.5499423487296546,3.746351700844869,1.4992705978888912,-0.3820012323199444,4.053256509722931
233,1790648555.9644504,0.5654594152113971,-1.0757394588694855,0.0795052562040437,1.217900168069657,3.7690482333455577,1.4726400384230849,-0.38951320607254025,4.065232318792731
234,1790648555.974524,0.005024844898897049,-0.8553976619944854,0.16093592026654369,0.8704198869763542,3.779196338208018,1.4597796477680143,-0.39254765593778435,4.070304072786804
235,1790648555.994524,-0.10035601447610296,-1.3535617244944855,0.7980111155790437,1.5744911597864635,3.7961789530597407,1.4347634351532126,-0.396230075584412,4.0775628788902845
236,1790648556.0201452,0.40259808708639705,-0.7739669979319854,1.0039827952665437,1.3300720231644219,3.815252124293912,1.4034350219569796,-0.396777175847461,4.084508631409424
237,1790648556.0401452,0.6564701573988971,-0.007560747931985361,0.7692708812040437,1.0113297786246926,3.8294960226510724,1.3814759213078163,-0.39448030601888223,4.090125941886193
238,1790648556.0643263,0.12477582146139705,-0.18958223230698537,0.9273421702665438,0.9547114376514664,3.845551316986706,1.3585510422398739,-0.38904286417574746,4.096984283117926
239,1790648556.0843263,0.10561566521139705,-0.18479219324448537,0.6686800608915437,0.7017377339548386,3.8571842081232885,1.3418726738579814,-0.38282616508333606,4.1018347310581476
240,1790648556.0948405,0.18225629021139705,-0.3811837948069854,0.4291781077665437,0.602255999497843,3.8626094475666455,1.3339735260299774,-0.37918245559573643,4.104024420883917
241,1790648556.1148405,-0.038085506663602955,-0.4578244198069854,0.2232064280790437,0.5107590574089034,3.8715975037750407,1.3199432750557742,-0.3723125468008292,4.107326881696586
242,1790648556.1399348,-0.12430620978860296,-0.4721945369944854,0.0938753733915437,0.49722459742941755,3.88087770070349,1.3032295457948595,-0.36438896715267016,4.110036288919219
243,1790648556.1599348,0.19183636833639706,-0.4913546932444854,0.012444709329043692,0.5276224953318087,3.8872658172142556,1.290461593959928,-0.3588616991650367,4.111557901610486
244,1790648556.1992714,0.31158734489889706,-0.5009347713694854,-0.01629552504595631,0.590159184292396,3.8994307641719894,1.2661884942626211,-0.349632515090592,4.114734071988439
245,1790648556.2192714,0.19183636833639706,-0.40513399011948537,0.01723474839154369,0.44858865201736087,3.9054431778229617,1.2543393793549678,-0.34564256492120876,4.116469661796359
246,1790648556.2299058,0.11998578239889705,-0.3428634823069854,0.022024787454043692,0.3639190112373133,3.908409272244386,1.2483874242694606,-0.34380794087485816,4.117321714494587
247,1790648556.2499058,-0.00934527228860295,-0.31412324793198537,0.03160486557904369,0.31584745769715655,3.9133167745771384,1.237887263725322,-0.34079470161418085,4.1185621379953075
248,1790648556.2597718,-0.18657671760110295,-0.3428634823069854,0.1130355296415437,0.4063782351600766,3.915229544177897,1.2329983527641306,-0.33942420756870273,4.118800324634124
249,1790648556.2797718,0.00981488396139705,-0.3380734432444854,0.16093592026654369,0.37455354144153713,3.91826027181683,1.2235529250745498,-0.3366517690918876,4.118638091868389
250,1790648556.3043478,0.32116742302389706,-0.23269258386948538,0.2184163890165437,0.45276933552383436,3.922035867949402,1.2126353421942981,-0.3330567951154897,4.11871055688463
251,1790648556.3243477,0.3451176183363971,-0.041091021369485364,0.2375765452665437,0.42099555506461184,3.925646997316396,1.204672619681812,-0.329886045833801,4.119558868542375
252,1790648556.350293,0.17267621208639705,-0.06983125574448537,0.2615267405790437,0.3210758703753001,3.930636456006698,1.1956765102039677,-0.32541855143015075,4.12133989134084
253,1790648556.370293,0.24931683708639707,-0.07462129480698536,0.1992562327665437,0.32776557047644755,3.9345386724486304,1.1895653388010643,-0.3218001551906915,4.1230105020666
254,1790648556.3798652,0.531929141773897,-0.22311250574448538,0.1082454905790437,0.5868942735438774,3.936687051165892,1.1868654322374603,-0.3201073512138621,4.124151210777628
255,1790648556.3998652,0.9151322667738971,-0.38597383386948536,0.055555060891543696,0.9947508386089974,3.9426730802610748,1.1811568720270684,-0.31685529501460186,4.127977695207535
256,1790648556.4249513,0.8720219152113972,-0.3620236385569854,-0.006715446920956309,0.9442078334298758,3.952417626322104,1.1736632872363861,-0.313296183104297,4.134881510154299
257,1790648556.4449513,0.5271391027113971,-0.2614328182444854,-0.05940587660845631,0.5913981824779733,3.96111989127771,1.1676499728232097,-0.3109834839426116,4.141326838030906
258,1790648556.4694808,0.6756303136488971,-0.3237033260569854,-0.1695767750459563,0.7681252805738455,3.972404773969318,1.1603045945889454,-0.3089937498216627,4.149913683187554
259,1790648556.4894807,1.2025346105238972,-0.5919455135569854,-0.2605875172334563,1.365428443627128,3.9830429346426364,1.1538404551033536,-0.30826002310284056,4.1582451896062
260,1790648556.5002594,1.1737943761488971,-0.5344650448069854,-0.1935269703584563,1.3041851133391433,3.9898372334178056,1.1499686831836544,-0.3082910136124522,4.163684962931801
261,1790648556.5202594,1.1258939855238972,-0.43387422449448537,0.055555060891543696,1.2078785013858968,4.004002650325604,1.1424096627943103,-0.3085468491444393,4.175205170955941
262,1790648556.5449758,1.4659867589613973,-0.4482443416819854,0.11782556870404369,1.5375054575319367,4.023687313191345,1.1328341040917251,-0.3084941902417524,4.19148438708093
263,1790648556.5649757,1.5090971105238973,-0.6446359432444854,0.1513558421415437,1.6479800299957095,4.0416890932532255,1.1246086928971357,-0.30805419959049696,4.206529784578641
264,1790648556.590337,1.2839652745863972,-0.6063156307444854,0.1753060374540437,1.4307053076006406,4.066405101413907,1.1133634501561884,-0.3069586101812509,4.227227484925923
265,1790648556.610337,1.2839652745863972,-0.5009347713694854,0.1753060374540437,1.389328858938214,4.086824430803755,1.1041647548131006,-0.30569830582562646,4.244380424534372
266,1790648556.6195533,1.6288480870863973,-0.6637960994944854,0.0842952952665437,1.7609307338203801,4.09683595318235,1.099756596806829,-0.30502521036611663,4.252830795889553
267,1790648556.6395533,1.6288480870863973,-0.8266574276194854,0.06034509995404369,1.827607760032755,4.120189291761945,1.089389830818773,-0.3035666886996964,4.272573315688012
268,1790648556.6642065,1.3989262120863972,-0.8170773494944854,0.055555060891543696,1.6210170593519342,4.150256352412043,1.0754886802627748,-0.30182420714322755,4.297953180774253
269,1790648556.6842065,1.3366557042738971,-0.6685861385569853,0.04118494370404369,1.4951093926620866,4.175092917046928,1.0636744388874397,-0.3004775428065821,4.3189224271395545
270,1790648556.7099614,1.4659867589613973,-0.8266574276194854,0.0028646312040436907,1.6829996691029212,4.207692300024812,1.047854499634055,-0.2989184165141214,4.346495802807445
271,1790648556.7299614,1.5905277745863973,-0.9703585994944854,-0.06419591567095631,1.8642680947043235,4.233794851134254,1.0347167550416003,-0.2979812852154139,4.368575334247239
272,1790648556.7400374,1.3749760167738971,-0.9320382869944854,0.026814826516543693,1.6613167819678882,4.247213849719257,1.0276530997417321,-0.29760822428296707,4.379893495716161
273,1790648556.7600374,1.3366557042738971,-0.8314474666819854,0.2375765452665437,1.5919786356859897,4.273921400326506,1.0130902994487725,-0.2965822210834101,4.402353586988312
274,1790648556.784721,1.4132963292738971,-0.8362375057444854,0.2471566233915437,1.6606583263390273,4.307029799832892,0.9947258930163762,-0.29460852630478224,4.4302121261467
275,1790648556.8047209,1.7629691808363972,-0.7787570369944854,0.3190072093290437,1.953532301972837,4.334596584367122,0.979655483988825,-0.29239995985329015,4.453532323115968
276,1790648556.829952,1.6240580480238973,-0.49614473230698536,0.04118494370404369,1.6986525066460965,4.370566489642617,0.961082586234236,-0.28935005765837113,4.48433435794172
277,1790648556.849952,1.4085062902113972,-0.4817746151194854,-0.1935269703584563,1.501149372179439,4.399350789236226,0.9471018398839535,-0.28752363666207564,4.509319139682216
278,1790648556.860041,1.8635600011488973,-0.7883371151194855,-0.2510074391084563,2.0389546388884616,4.414168779080428,0.9401461277477731,-0.28707687014501576,4.522297411836133
279,1790648556.880041,1.6240580480238973,-0.5679953182444853,-0.1599966969209563,1.7279415985282784,4.444368738164357,0.9263911508882153,-0.28694056742283575,4.548950311275072
280,1790648556.9051518,1.384556094898897,-0.7212765682444854,-0.1791568531709563,1.571411036571382,4.482264831609921,0.9092834941431779,-0.2874338382078145,4.582587992036292
281,1790648556.9251518,1.3366557042738971,-1.0038888729319855,-0.24142736098345632,1.689002223680015,4.512002095228042,0.8951139575806487,-0.2883986555745991,4.608965793856055
282,1790648556.9497874,1.3941361730238973,-1.1715402401194854,-0.2701675953584563,1.8409542994693568,4.548182960243943,0.876258815034509,-0.2903540878145896,4.640916207721238
283,1790648556.9697874,1.6240580480238973,-0.8889279354319854,-0.2701675953584563,1.8710285800394215,4.577677176545135,0.8601569560783171,-0.29251395332248104,4.666965045363046
284,1790648556.9945614,1.3606058995863972,-1.2673410213694856,-0.09772618910845632,1.8619753184381425,4.614277284024559,0.8391968545124817,-0.29547164103219203,4.699266932739931
285,1790648557.0145614,1.3127055089613973,-1.3487716854319856,0.012444709329043692,1.882162501876744,4.6434022614948365,0.8208898558007706,-0.29762913008717706,4.724788653102742
286,1790648557.0248516,1.3893461339613973,-1.4445724666819855,0.11782556870404369,2.007723874463216,4.658224872896148,0.8107278325468047,-0.29847213075134416,4.73766020286065
287,1790648557.0448515,1.1498441808363973,-1.5739035213694856,0.4243880687040437,1.9948481565374694,4.686521563517487,0.7894118059160596,-0.2990515024670095,4.761941533215398
288,1790648557.0702376,1.2121146886488972,-1.4062521541819855,-0.07856603285845631,1.8582087506787293,4.72154821635883,0.7607396415227281,-0.299018162114053,4.791779859599086
289,1790648557.0902376,1.4755668370863972,-1.7128146541819855,0.1848861155790437,2.268306506189941,4.7490355884631965,0.7368605216686764,-0.29883635553142635,4.815143364041315
290,1790648557.115007,1.1977445714613972,-2.0768576229319855,0.3142171702665437,2.417987194855725,4.782937654490769,0.7046829889040847,-0.2977177852173833,4.843728584595879
291,1790648557.135007,1.0013529698988972,-1.9954269588694855,0.06992517807904369,2.233679934332099,4.809504392797706,0.6764900762169539,-0.2963738609058611,4.865882118690166
292,1790648557.1444845,1.3893461339613973,-1.9954269588694855,0.37169763901654373,2.4597094468629983,4.821904808888794,0.6622972147641218,-0.2955186146481843,4.87613933745466
293,1790648557.1644845,1.5617875402113972,-2.1534982479319855,0.1034554515165437,2.662224268361738,4.848574112055673,0.6306161195800535,-0.2932718318222095,4.898199258677725
294,1790648557.1901135,0.9199223058363971,-1.8134054744944856,-0.08335607192095632,2.0351031173943044,4.8823935496499775,0.588482853355274,-0.2907859218618516,4.926320665030842
295,1790648557.2101135,1.2887553136488972,-1.7990353573069855,0.0747152171415437,2.214272078804104,4.9081393114938505,0.5551168085821228,-0.28914995585534825,4.947887818976183
296,1790648557.2346263,1.0827836339613972,-2.0912277401194856,-0.14083654067095633,2.3591288201808864,4.939321055810245,0.5132041921599276,-0.28756717814831,4.97423018337201
297,1790648557.2546263,0.9438725011488972,-2.2924093807444854,-0.3084879078584563,2.4982395514932665,4.96398605932052,0.4775616946819605,-0.28714348334574247,4.99516507729063
298,1790648557.2648234,0.6468900792738972,-1.8325656307444855,-0.29411779067095634,1.9655199923781208,4.975891969080596,0.458960227285177,-0.2874207276894947,5.005272825021229
299,1790648557.2848234,0.7426908605238971,-1.9858468807444856,-0.31327794692095634,2.1432033548161824,4.997825023894431,0.42222157142844724,-0.28879402246503677,5.0239355103600225
300,1790648557.3097692,0.8624418370863972,-1.5595334041819855,-0.5336197437959563,1.8602957808061797,5.024081425527301,0.37663828093764723,-0.29183446889019554,5.046624408674428
301,1790648557.3297691,0.8768119542738971,-1.3823019588694856,-0.5384097828584563,1.7232071851433646,5.044583478067032,0.34116149769258186,-0.29551451064784745,5.064735181694908
302,1790648557.3542602,1.063623477711397,-1.2769210994944855,-0.5288297047334564,1.7439848775954359,5.069487731813337,0.2993501819895615,-0.30130529929016453,5.0872488908882225
303,1790648557.3742602,1.0732035558363973,-1.5116330135569855,-0.6533707203584563,1.9656280263969041,5.0899797550831964,0.2661448727485109,-0.30709815745554075,5.106176287473799
304,1790648557.3848355,0.7522709386488972,-1.6601242244944856,-0.7395914234834563,1.9669569084195504,5.100637773831506,0.2487050617310044,-0.3108065840005945,5.116147050293371
305,1790648557.4048355,0.7043705480238972,-2.0720675838694858,-0.5240396656709564,2.250382081390345,5.119955698551057,0.21507195680887684,-0.31866339389081905,5.134369353712008
306,1790648557.430029,0.9103422277113972,-2.4792209041819855,-0.24621740004595633,2.6525237551005802,5.1436908546138005,0.17046052526721686,-0.32853126674242555,5.156989935198576
307,1790648557.450029,1.0540433995863971,-2.7139328182444857,-0.21747716567095632,2.9195436540227275,5.162653387680224,0.1325679965180102,-0.33588542989557446,5.175266495267952
308,1790648557.4751012,1.4085062902113972,-2.6660324276194856,-0.35159825942095635,3.035661412396245,5.1874900351574,0.08207403135187175,-0.3447919483158697,5.1995836851716435
309,1790648557.4951012,1.5234672277113972,-2.5558615291819855,-0.5144595875459563,3.0196107725137495,5.208728169240746,0.04000439671855709,-0.35212998720059807,5.22077053898031
310,1790648557.5046313,1.1354740636488971,-2.2540890682444856,-0.5336197437959563,2.5797226416356267,5.219230705315306,0.019527069594674682,-0.3558512202713644,5.231384190892663
311,1790648557.5246313,1.303125430836397,-2.2013986385569857,-0.5431998219209563,2.6152166068737124,5.241623299857192,-0.023684147777603724,-0.36410448104681814,5.254307549961282
312,1790648557.5501587,1.6863285558363972,-2.5510714901194858,-0.6533707203584563,3.127069401876372,5.271640938469237,-0.07966370365757199,-0.37534950602373773,5.285587170929785
313,1790648557.5701587,1.8875101964613972,-2.5271212948069857,-0.5144595875459563,3.1958888353055452,5.296991891239806,-0.12456048375738869,-0.3845898567117196,5.3123956712447225
314,1790648557.5946062,1.8779301183363972,-2.2876193416819857,-0.24621740004595633,2.9699237010195847,5.330236121683703,-0.18003711880697698,-0.3955854857975704,5.347926547141775
315,1790648557.6146061,2.0120512120863974,-2.3594699276194855,-0.14562657973345633,3.104296300310894,5.359188083314248,-0.2255844581424452,-0.4038192668130152,5.37911286926964
316,1790648557.6546192,1.6001078527113972,-2.3738400448069856,-0.21268712660845632,2.8706615113006393,5.4192625724630235,-0.3172448902002795,-0.4188965757450797,5.444678639812242
317,1790648557.6746192,1.1737943761488971,-1.9235763729319857,-0.1839468922334563,2.2609236517722793,5.448946712531751,-0.3626339258087079,-0.42589728252951176,5.477582690879622
318,1790648557.6701458,1.2791752355238972,-1.5068429744944856,0.06992517807904369,1.977815604016308,5.448946712531751,-0.3626339258087079,-0.42589728252951176,5.477582690879622
319,1790648557.6901457,1.5617875402113972,-1.2912912166819857,0.1944661937040437,2.0357874219901615,5.4777824771032115,-0.4039984818166017,-0.4307040840487081,5.509520999849747
320,1790648557.7152898,1.0348832433363973,-1.1667502010569855,0.1034554515165437,1.5630074822128872,5.513493925286056,-0.4528370849209786,-0.4352789307772243,5.549157092498332
321,1790648557.7352898,0.6373100011488971,-1.0326291073069853,0.15614588120404368,1.2234657522951005,5.540146804755214,-0.4891560422717897,-0.4379825935117225,5.578918264695196
322,1790648557.7595718,0.5846195714613971,-0.5727853573069854,0.1848861155790437,0.8390744809698994,5.569877493653317,-0.5295603621731663,-0.4401516632277428,5.612281439676104
323,1790648557.7795718,0.8049613683363972,-0.28538301355698537,0.2327865062040437,0.8852094816547983,5.592776527210961,-0.5591349616781071,-0.4410437358370028,5.6379340866680705
324,1790648557.789653,1.0588334386488971,-0.3907638729319854,0.2423665843290437,1.1543683192071672,5.603996948513679,-0.5723175876487187,-0.44106668731042203,5.650386627721828
325,1790648557.809653,0.9247123448988972,-0.3380734432444854,0.1274056468290437,0.99278334629441,5.625893152209566,-0.5956405771808159,-0.4405507323401642,5.674464415698475
326,1790648557.8346097,0.7187406652113971,-0.10815156824448537,-0.01150548598345631,0.7269231608292439,5.652193736934056,-0.6212135830644989,-0.4397865426351264,5.703210723680422
327,1790648557.8546097,0.7139506261488971,0.15530058019301465,0.0747152171415437,0.734456350274948,5.672258179581452,-0.6385626558980315,-0.4391711780986491,5.724958204651698
328,1790648557.8795693,0.6995805089613971,0.08824003331801464,0.0795052562040437,0.70959162746098,5.6961882731085245,-0.6565103485181168,-0.43822971448755454,5.750618398317723
329,1790648557.8995693,0.7474808995863972,0.03554960363051464,0.050765021829043695,0.7500457032781933,5.714657673442557,-0.6685488553759068,-0.4373930774632596,5.770232456398365
330,1790648557.9100366,0.6660502355238972,-0.012350786994485361,0.045974982766543694,0.667749322142079,5.723983664284859,-0.6738860968295193,-0.4369449454442936,5.780054700939202
331,1790648557.9300365,0.5846195714613971,-0.14168184168198536,0.1274056468290437,0.6148869704604528,5.741006059426081,-0.6827853882939391,-0.4359570611096402,5.797879355416603
332,1790648557.9546711,0.4744486730238971,-0.06504121668198537,0.0842952952665437,0.4862484961474776,5.760784750915431,-0.6924846331790206,-0.4345316367835503,5.8185044175401845
333,1790648557.9746711,0.4361283605238971,0.17925077550551466,0.1274056468290437,0.4884372899528841,5.775799606376657,-0.6990066287352591,-0.43323042079770313,5.8340517616439715
334,1790648558.0001426,0.5415092198988971,0.3948025333180147,0.1369857249540437,0.6840075762672656,5.793921390555966,-0.7049702865067906,-0.43131672320488834,5.852567154720709
335,1790648558.0201426,0.531929141773897,0.5911941348805146,0.1034554515165437,0.8019739069532915,5.80762626635994,-0.707471517433616,-0.429678834556821,5.866315939204078
336,1790648558.0297458,0.4840287511488971,0.7827956973805147,0.2423665843290437,0.9517323662540509,5.813951499200301,-0.7075027585574579,-0.4287612718160323,5.872514658698533
337,1790648558.0497458,0.40259808708639705,0.8019558536305147,0.3046370921415437,0.9476403161571003,5.826478556035833,-0.7051809374771272,-0.4263164698603867,5.884460744282414
338,1790648558.07458,0.4265482823988971,0.8019558536305147,0.16093592026654369,0.9224841455665979,5.841244607494335,-0.6997429807721844,-0.42286893872392334,5.8981859027212
339,1790648558.09458,0.3259574620863971,0.6151443301930146,0.2327865062040437,0.7340574715436816,5.8524813242111735,-0.6938948313165825,-0.41991838120977404,5.908414265608521
340,1790648558.120283,0.12477582146139705,0.43312284581801463,0.1944661937040437,0.4908986715042125,5.8656249383906225,-0.6854856827663687,-0.4158716371306152,5.92016855821837
341,1790648558.1402829,-0.033295467601102954,0.37085233800551465,0.012444709329043692,0.3725518964617104,5.874455371006926,-0.6787178937842671,-0.41288474659520974,5.9279303048590295
342,1790648558.1497562,-0.014135311351102952,0.30379179113051463,-0.11688634535845631,0.32580926493354234,5.877976950638562,-0.6755137351082484,-0.41175638045257335,5.930975902446537
343,1790648558.1697562,-0.24405718635110296,0.002019330193014639,0.5153988108915437,0.5702665360798078,5.8839091756411435,-0.6693051208798358,-0.4091337468714632,5.9359705992246194
344,1790648558.1943722,-0.622470272288603,-0.4674044979319854,1.0614632640165438,1.3162980154306827,5.8885155742871005,-0.6636689800533572,-0.40347879399467385,5.939517431653029
345,1790648558.2143722,-0.27758745978860294,-0.6973263729319854,0.9608724437040438,1.2192599071929449,5.890346700084768,-0.6615237164364534,-0.3965399433355689,5.940626381221764
346,1790648558.239385,0.033765079273897054,-0.2710128963694854,0.2232064280790437,0.35271685544180514,5.891835864125537,-0.6610597716504536,-0.38694237440455626,5.941418540432941
347,1790648558.2593849,-0.07161578010110295,-0.07462129480698536,-0.19831700942095631,0.22366670253712828,5.8927912032785725,-0.6612629008704937,-0.38038202158920964,5.941964933576542
348,1790648558.269467,-0.21052691291360295,-0.5200949276194854,-0.03545568129595631,0.5622076308025442,5.892987214729262,-0.6617996464851732,-0.37774770937142316,5.942051027800569
349,1790648558.289467,-0.08598589728860295,-1.0278390682444853,0.0890853343290437,1.0352694922264134,5.892872946885665,-0.6650265685865684,-0.37322546995591516,5.94201221443433
350,1790648558.314757,0.17267621208639705,-1.2912912166819857,0.03160486557904369,1.303168810257834,5.892914558708472,-0.6728937626546586,-0.36813592771667925,5.942621649855695
351,1790648558.334757,0.3546976964613971,-1.2290207088694856,0.1082454905790437,1.2837520963705462,5.893733590345838,-0.6819625664492789,-0.3645049545466637,5.944243638840688
352,1790648558.359736,0.36906781364889707,-0.9368283260569854,0.0986654124540437,1.0117278424502496,5.895958990667619,-0.6956475736108106,-0.36026267150263547,5.9477766567670605
353,1790648558.379736,0.46007855583639706,-0.8697677791819854,-0.01150548598345631,0.9840226844191059,5.8987172595390795,-0.7076711308119259,-0.3572447424724996,5.951746596033226
354,1790648558.4200726,0.6660502355238972,-0.9559884823069854,-0.09772618910845632,1.169225086363919,5.906852596833119,-0.733806566467854,-0.3524015367154315,5.96268115203093
355,1790648558.4400725,0.7905912511488972,-1.0805294979319855,-0.054615837545956315,1.3399856014171099,5.912466219078701,-0.7478761976161539,-0.35058886606613654,5.969881753579139
356,1790648558.4344687,0.8337016027113971,-1.0661593807444854,-0.025875603170956312,1.3536704674153446,5.912466219078701,-0.7478761976161539,-0.35058886606613654,5.969881753579139
357,1790648558.4544687,0.8432816808363972,-1.0134689510569854,0.06513513901654369,1.3200325353283948,5.92110850509115,-0.7638979713536495,-0.3493229487634555,5.980392341831242
358,1790648558.4794502,0.8241215245863972,-0.9080880916819855,0.15614588120404368,1.2361965077439043,5.9334082145897264,-0.7845087772899153,-0.34756431087979,5.9951303582827205
359,1790648558.4994502,0.8145414464613971,-0.7979171932444854,0.2088363108915437,1.1592075828018777,5.944236195405627,-0.8010934971951896,-0.34582007983085283,6.007935274753965
360,1790648558.5553482,0.8001713292738971,-0.7452267635569854,0.2232064280790437,1.1160009833550235,5.976729287677938,-0.8469626328455131,-0.33986509805419185,6.046002560742034
361,1790648558.5753481,0.9247123448988972,-0.7739669979319854,0.2375765452665437,1.2290485952789063,5.989198583686896,-0.8631913881146426,-0.33736286335362,6.0604795807693765
362,1790648558.5553482,0.9630326573988972,-0.7116964901194854,0.2184163890165437,1.2172302626274958,5.989198583686896,-0.8631913881146426,-0.33736286335362,6.0604795807693765
363,1790648558.5753481,0.5846195714613971,-0.6350558651194854,0.1944661937040437,0.8848124635492565,6.00293599876528,-0.8788310095436982,-0.3343542850622559,6.076131774126299
364,1790648558.5995417,0.531929141773897,-0.6733761776194854,0.1896761546415437,0.8788407888197646,6.019087157179687,-0.8972862406812934,-0.33056375540016986,6.094571781497505
365,1790648558.6195416,0.555879337086397,-0.6398459041819854,0.1657259593290437,0.8636374888190105,6.0320677489877115,-0.9122239476714332,-0.32736717389506165,6.109432307966672
366,1790648558.6446397,0.5846195714613971,-0.5584152401194854,0.16093592026654369,0.8243227487856012,6.048060577693848,-0.9304131008522752,-0.3233425833483048,6.127744749571276
367,1790648558.6646397,0.5462992589613971,-0.5344650448069854,0.1657259593290437,0.7820235661780509,6.060589566624614,-0.9443726945186401,-0.3201265673594795,6.142073485425007
368,1790648558.6754587,0.5846195714613971,-0.4817746151194854,-0.01150548598345631,0.7576405475665564,6.067268125256131,-0.951616000840884,-0.3185226855143806,6.149696920824045
369,1790648558.6954587,0.517559024586397,-0.5488351619944853,-0.06419591567095631,0.7571053391445395,6.079415506209668,-0.9645434247869297,-0.3161160350406506,6.163567657051561
370,1790648558.7196965,0.44091839958639706,-0.5727853573069854,-0.10730626723345632,0.7307576449320928,6.093671009888343,-0.9798990270473427,-0.3139486826868001,6.179934648143355
371,1790648558.7396965,0.4457084386488971,-0.5727853573069854,-0.14083654067095633,0.7393064378295989,6.10499948916667,-0.9923875100798215,-0.3128007566510833,6.19303609276171
372,1790648558.764981,0.3978080480238971,-0.5440451229319854,-0.14562657973345633,0.6895240674432814,6.118772593081253,-1.0079254426481208,-0.3121104341741834,6.20908243357262
373,1790648558.784981,0.3882279698988971,-0.5153048885569854,-0.12167638442095631,0.6565555782325685,6.129211954757142,-1.0199613526452196,-0.3120472518074248,6.221328944412785
374,1790648558.8102589,0.4457084386488971,-0.5536252010569854,-0.05940587660845631,0.713222219020022,6.142008072223738,-1.034918167763287,-0.3123226771813518,6.236414372691234
375,1790648558.8302588,0.4840287511488971,-0.5871554744944854,-0.006715446920956309,0.7609733769291495,6.152008383396151,-1.0466881666821268,-0.31260708947470384,6.248238668620042
376,1790648558.840217,0.4648685948988971,-0.5775753963694854,0.03160486557904369,0.7420882808284419,6.156949485693557,-1.052539447784396,-0.3127088712070285,6.254090908889639
377,1790648558.860217,0.46965863396139707,-0.6111056698069854,0.0938753733915437,0.7764289779845492,6.166786342984478,-1.0643113223462153,-0.31269440493149525,6.265763335920826
378,1790648558.8853128,0.5462992589613971,-0.6350558651194854,0.1417757640165437,0.8496112048619087,6.179190236508391,-1.079212328124231,-0.3122354383701194,6.280492193857908
379,1790648558.9053128,0.5989896886488971,-0.6494259823069853,0.1274056468290437,0.892622513970504,6.189310642762285,-1.0912330828705992,-0.31152075984118643,6.292487668448289
380,1790648558.9299393,0.6181498448988971,-0.6302658260569854,0.0890853343290437,0.8872882502526123,6.202150973800976,-1.106177903132761,-0.3103729019881963,6.307664987417147
381,1790648558.9499393,0.6660502355238972,-0.6829562557444854,0.0890853343290437,0.9581170911190778,6.212941117028298,-1.1184643351807773,-0.3093132652651926,6.320385628171847
382,1790648558.959609,0.6660502355238972,-0.7356466854319854,0.11782556870404369,0.9993406959935819,6.218341583777601,-1.1245424603647152,-0.3087277317925873,6.326743286247566
383,1790648558.979609,0.6564701573988971,-0.7260666073069854,0.0890853343290437,0.9828845214948327,6.229819667437683,-1.1374206923925891,-0.3073879670518789,6.340257588029408
384,1790648559.005399,0.6181498448988971,-0.6733761776194854,0.06992517807904369,0.9167520045592185,6.244865939790922,-1.1542430706543603,-0.30561191857414277,6.357989172441939
385,1790648559.025399,0.6325199620863972,-0.7021164119944854,0.03639490464154369,0.9457132480375086,6.256659997109787,-1.1673951180604125,-0.3042817203670183,6.371906547216039
386,1790648559.0648868,0.6373100011488971,-0.7212765682444854,0.012444709329043692,0.9625792415449408,6.280213906973911,-1.193682844449099,-0.30190469270515286,6.399774362737954
387,1790648559.0848868,0.6612601964613971,-0.7260666073069854,0.026814826516543693,0.9824239413774248,6.292301998484681,-1.2071710357119096,-0.3008224648044715,6.414111045571873
388,1790648559.0801587,0.5989896886488971,-0.6542160213694854,0.04118494370404369,0.887965905489691,6.292301998484681,-1.2071710357119096,-0.3008224648044715,6.414111045571873
389,1790648559.1001587,0.5510892980238971,-0.6063156307444854,0.012444709329043692,0.8194345179889844,6.304367578507154,-1.220566908247485,-0.29987341111904947,6.428433573207174
390,1790648559.125323,0.5654594152113971,-0.6206857479319854,0.022024787454043692,0.839928710784135,6.319378847257691,-1.2372093673139324,-0.29879335572606397,6.44627904322822
391,1790648559.145323,0.5606693761488971,-0.6063156307444854,0.012444709329043692,0.825907781914277,6.331209018651753,-1.2502928107995197,-0.29801201167599517,6.460359967501613
392,1790648559.1844537,0.536719180836397,-0.5727853573069854,0.03639490464154369,0.7857958600723544,6.354103871636695,-1.2755117349942766,-0.2965692583347416,6.487643603238834
393,1790648559.2044537,0.5606693761488971,-0.5632052791819854,0.0747152171415437,0.7982059255118065,6.365696420810359,-1.2881718595683551,-0.2957758017864099,6.501458373828444
394,1790648559.1994946,0.6037797277113971,-0.5248849666819854,0.0890853343290437,0.8049784994871075,6.365696420810359,-1.2881718595683551,-0.2957758017864099,6.501458373828444
395,1790648559.2194946,0.6229398839613971,-0.5488351619944853,0.1800960765165437,0.8495344200490081,6.377396786442532,-1.3003166919706024,-0.2945899121950847,6.515274091510809
396,1790648559.2441072,0.7283207433363972,-0.6206857479319854,0.35253748276654373,1.0197963422249274,6.392130187742727,-1.3151795405544604,-0.29236621025632137,6.532572507201474
397,1790648559.2641072,0.6468900792738972,-0.15605195886948536,0.6351497874540437,0.9199099091937805,6.404369371835393,-1.3266104251522493,-0.2893487683937177,6.5467216972158555
398,1790648559.2890706,0.5702494542738971,0.29421171300551463,0.7309505687040437,0.9726426404687807,6.419633261946139,-1.3384792905426106,-0.28358974363646827,6.563813005547345
399,1790648559.3090706,0.6229398839613971,0.2558914005055147,0.6782601390165437,0.9558092508765824,6.431817706178882,-1.345736797262645,-0.27755405155203566,6.576953913823318
400,1790648559.3193018,0.3355375402113971,0.27984159581801465,0.6207796702665437,0.7591206482880878,6.4378513357567915,-1.3484814786847632,-0.27393274800299106,6.583264484288158
401,1790648559.3393018,0.033765079273897054,0.6247244083180147,0.6111995921415437,0.8746345570354829,6.44843060766626,-1.35168512065888,-0.26606771916344857,6.593944342992174
402,1790648559.3645685,-0.19136675666360295,1.0845681583180147,0.4195980296415437,1.1785464912647028,6.4594923296788,-1.3518861919119791,-0.2556686274349745,6.604392771490503
403,1790648559.3845685,-0.00934527228860295,1.1851589786305148,0.4962386546415437,1.2848898556308717,6.466633843930045,-1.3486168898356536,-0.2472981246677045,6.610391603337552
404,1790648559.4096735,0.13914593864889704,1.2713796817555145,0.6159896312040437,1.419581316154214,6.474497977382363,-1.3405033087101792,-0.23627291695891753,6.616033409156843
405,1790648559.4296734,0.23494671989889707,1.2426394473805145,0.6159896312040437,1.4066968341218,6.480384355573345,-1.3312381290576618,-0.22695917186625722,6.619598690095263
406,1790648559.4396398,0.11519574333639705,1.2186892520680146,0.5058187327665438,1.3245097745228134,6.48313938008164,-1.3254738760223788,-0.22217560989795787,6.6209772102928035
407,1790648559.4596398,-0.12430620978860296,1.1133083926930147,0.3237972483915437,1.166084160384081,6.487825053852854,-1.312143599493261,-0.21277170198353212,6.622602702280795
408,1790648559.4847565,-0.31590777228860295,0.9504470645680146,0.1848861155790437,1.0184940936854818,6.491997569604529,-1.2940264607154912,-0.201775173518001,6.622782658779555
409,1790648559.5047565,-0.291957576976103,0.6390945255055147,0.1034554515165437,0.7102000209330946,6.493909899458016,-1.279379740113335,-0.19389976744112422,6.621576505750349
410,1790648559.5440602,-0.08119585822610295,0.03554960363051464,0.01723474839154369,0.09029716641999308,6.496004303097527,-1.252924974134879,-0.18038882426837927,6.618189557922423
411,1790648559.5640602,0.3546976964613971,-0.6494259823069853,-0.24621740004595633,0.7798638153266279,6.497320443606624,-1.2424033617453534,-0.17488843716962368,6.617350302473065
412,1790648559.5596104,0.7091605870863972,-1.2242306698069854,-0.35159825942095635,1.4578308568557017,6.497320443606624,-1.2424033617453534,-0.17488843716962368,6.617350302473065
413,1790648559.5796103,0.7905912511488972,-1.4781027401194855,-0.04024572035845631,1.6767355053046027,6.501877398754328,-1.241243902996293,-0.17226438713882009,6.621538428056891
414,1790648559.6046891,1.0013529698988972,-1.5547433651194855,0.01723474839154369,1.8493868546792809,6.510104906584144,-1.2457125997151104,-0.169510827847308,6.630384581348008
415,1790648559.624689,1.2887553136488972,-1.6984445369944856,-0.14083654067095633,2.1366888016023395,6.519117192530604,-1.2536215430647992,-0.1678296931729357,6.6406793891208755
416,1790648559.6496277,1.3318656652113972,-1.5834835994944856,-0.24621740004595633,2.083724902217757,6.533570824637935,-1.2681426572764214,-0.16677181726378018,6.657593135570662
417,1790648559.6696277,1.5761576573988971,-1.6936544979319856,-0.26537755629595633,2.3287687233231296,6.54778552061975,-1.2829570256881406,-0.16681808246799834,6.6743765421527215
418,1790648559.679695,1.7581791417738972,-1.7319748104319856,-0.33243810317095634,2.490270212442741,6.556384947970796,-1.2918819570194253,-0.167289253214396,6.684543983780149
419,1790648559.6996949,1.7485990636488973,-1.6649142635569856,-0.33243810317095634,2.437222452471092,6.576166503473914,-1.3120483401514094,-0.16908220742175892,6.707907685796892
420,1790648559.7239878,1.5474174230238973,-1.3823019588694856,-0.23663732192095632,2.088362183314537,6.602595240124792,-1.338421085692019,-0.17197018400253777,6.739080697819951
421,1790648559.7439878,1.5090971105238973,-1.3439816463694856,-0.1647867359834563,2.0275145925802085,6.625674598416505,-1.3609659159911336,-0.17459329940500598,6.766260039991696
422,1790648559.769776,1.5378373448988971,-1.4828927791819855,-0.14562657973345633,2.1412897502768344,6.656862815877439,-1.391142665406395,-0.17806862218860858,6.802999992586643
423,1790648559.789776,1.2408549230238972,-1.3823019588694856,0.06034509995404369,1.8585266144383088,6.681590524395925,-1.415333354761172,-0.18048752176466157,6.8322321525479275
424,1790648559.8148806,1.2073246495863972,-1.1523800838694853,0.2567367015165437,1.6886463220886585,6.712583114129518,-1.445915845774237,-0.1824713362510564,6.8689693903606095
425,1790648559.8348806,1.5522074620863973,-1.1332199276194854,0.3285872874540437,1.9497448589974569,6.737709603732342,-1.470053732103204,-0.18293672713728729,6.898641498558487
426,1790648559.844611,1.7150687902113972,-1.2290207088694856,0.1848861155790437,2.1180499837636377,6.750484785246336,-1.4817596140584919,-0.1827544645203103,6.913613786146803
427,1790648559.864611,1.6671683995863973,-1.2338107479319855,0.1705159983915437,2.0810610610934557,6.777877798179629,-1.505905334532457,-0.181902928808546,6.945535760410335
428,1790648559.8898516,1.7294389073988972,-1.1715402401194854,0.2088363108915437,2.099304187913486,6.813693024909178,-1.536360599014097,-0.1802713290129014,6.9870819574385274
429,1790648559.9098516,1.8731400792738973,-1.2098605526194854,-0.06419591567095631,2.230815417948285,6.8432190102663135,-1.5604447994240398,-0.17895546034216228,7.021157985069562
430,1790648559.934817,1.9976810948988972,-1.5643234432444855,-0.42344884535845634,2.5723814873840447,6.8817949191854515,-1.5911934204511717,-0.17847234960908911,7.065610390517494
431,1790648559.954817,2.0024711339613974,-1.6984445369944856,-0.7874918141084564,2.741304040941625,6.914062958517413,-1.6170254837717868,-0.17995979022878425,7.102916551361781
432,1790648559.9648714,2.007261173023897,-1.9714767635569856,-0.9647232594209564,2.974308157074884,6.930875067253713,-1.6308311904010921,-0.18191669265244972,7.122480835532646
433,1790648559.9848714,1.9306205480238972,-2.2492990291819854,-1.0174136891084564,3.1339707142722943,6.965207946435275,-1.660505158997295,-0.18819864317567472,7.162877763122507
434,1790648560.0241983,1.9354105870863971,-2.4935910213694856,-1.1419547047334564,3.3567649411484717,7.033994681018226,-1.724091324345056,-0.20506736041804174,7.245110398716047
435,1790648560.0441983,1.8300297277113973,-2.6037619198069857,-1.1994351734834563,3.4010630212822726,7.06937752630902,-1.7592239678231636,-0.21587134321550944,7.288180020778039
436,1790648560.0550046,1.6001078527113972,-2.6420822323069855,-1.0461539234834563,3.2611932929835317,7.088407812646793,-1.779610927446469,-0.2226532708957138,7.3117791850219005
437,1790648560.0750046,1.4132963292738971,-2.7091427791819855,-0.7970718922334563,3.1578766147083055,7.122865441575875,-1.8197095371369876,-0.2360871079218469,7.355426025790083
438,1790648560.0849736,1.2983353917738971,-2.7139328182444857,-0.48092931410845635,3.046702994491909,7.13949196252317,-1.8407533222441363,-0.24273432192247246,7.376966736221936
439,1790648560.1049736,1.2025346105238972,-2.6756125057444855,-0.3563882984834563,2.9549965126375493,7.171596227997525,-1.8847232928143256,-0.2553256943790689,7.419512487900762
440,1790648560.1297994,1.0540433995863971,-2.7330929744944856,-0.5815201344209563,2.9864645255183815,7.209670977478377,-1.9411865830461408,-0.27035715148994965,7.471322101412449
441,1790648560.1497993,0.9774027745863971,-2.977384966681986,-0.5431998219209563,3.1804407666435224,7.238790609857889,-1.9884166884366348,-0.2823373285269463,7.512230347060705
442,1790648560.1751046,0.9007621495863971,-2.943854693244486,-0.1839468922334563,3.0840702592884357,7.273672608381959,-2.050449381502847,-0.29660175837598374,7.562977487941053
443,1790648560.1951046,0.8720219152113972,-2.9582248104319855,-0.2989078297334563,3.098525801141613,7.29976537433196,-2.1009758168265664,-0.30690882885381887,7.602293531061156
444,1790648560.2046945,0.9247123448988972,-3.2887375057444856,-0.6533707203584563,3.4781863953388994,7.311692333370647,-2.1260620418848664,-0.31179461786321727,7.620905488689859
445,1790648560.2246945,0.9917728917738972,-3.772531451056986,-0.5575699391084563,3.9403668934591733,7.335709915879907,-2.1811241540974557,-0.32227203953384764,7.659882623969602
446,1790648560.249316,0.9247123448988972,-3.7102609432444855,-0.3563882984834563,3.8403309502007517,7.364381258491761,-2.252559739646647,-0.33492348794375165,7.70845707284396
447,1790648560.269316,0.9342924230238971,-3.5378195369944856,-0.5815201344209563,3.705028350066529,7.386965982693694,-2.312754777276286,-0.34506558205006604,7.748236660376582
448,1790648560.2943053,1.0779935948988972,-3.782111529181986,-0.9695132984834564,4.050480693170949,7.414723499955108,-2.3904038952691593,-0.3587439345925501,7.798772504305497
449,1790648560.3143053,1.063623477711397,-3.8635421932444856,-0.8497623219209564,4.096382451026245,7.436819047962356,-2.4546961828118343,-0.37077807415347186,7.84023515478456
450,1790648560.3244257,1.1354740636488971,-3.729421099494486,-0.7874918141084564,3.9771882585391687,7.4479918998525285,-2.488112675028443,-0.37719688693034825,7.861651576826336
451,1790648560.3444257,1.2408549230238972,-3.4755490291819857,-0.7731216969209563,3.7705277021247867,7.470324270059684,-2.555052316629942,-0.39031996782982614,7.9048331239720335
452,1790648560.3691683,1.2073246495863972,-3.4036984432444854,-0.5288297047334564,3.6499940765229093,7.498351209169164,-2.6382092629884477,-0.4065357213728184,7.9593146855818455
453,1790648560.3891683,1.2073246495863972,-3.3414279354319856,-0.1839468922334563,3.5576129520152304,7.521229743116661,-2.7054618661271927,-0.41874629765252785,8.00398458391874
454,1790648560.4147906,1.1929545323988973,-3.3605880916819855,0.1705159983915437,3.5701216427501885,7.5507559236356805,-2.791575814798856,-0.4320688349623049,8.06185425483709
455,1790648560.4347906,1.140264102711397,-3.1450363338694856,0.5010286937040437,3.3826743143859153,7.573845842066165,-2.858469310183912,-0.43990078462022136,8.107249862743574
456,1790648560.4589825,1.1642142980238972,-2.8528439510569856,0.5824593577665437,3.135820856531113,7.601767075095034,-2.938128673078775,-0.4459873728061599,8.16200756556064
457,1790648560.4789824,1.1737943761488971,-2.9199044979319857,0.4866585765165437,3.184410790808769,7.6248947579866115,-3.0027656279802284,-0.4486608351137911,8.207126051908562
458,1790648560.489058,1.1354740636488971,-3.0779757869944855,0.4531283030790437,3.311881874945868,7.63654335112425,-3.034976358324794,-0.4490954774387105,8.229797239121163
459,1790648560.509058,1.1642142980238972,-2.9390646541819856,0.4435482249540437,3.1922141220546334,7.659646945719016,-3.098349400365664,-0.44848381331786563,8.27472646500276
460,1790648560.53457,1.221694766773897,-2.7666232479319857,0.38127771714154374,3.0482970650428944,7.689262448337731,-3.1779795214420528,-0.44624238954027934,8.332073157884803
461,1790648560.55457,1.3174955480238972,-2.8336837948069857,0.15614588120404368,3.128887966072211,7.712805608428813,-3.239441742006837,-0.44394267551100386,8.377257203429242
462,1790648560.5794573,1.2935453527113971,-2.9055343807444856,-0.02108556410845631,3.1805399255823317,7.742581133760041,-3.3151636191554257,-0.44125814307130795,8.434013349731867
463,1790648560.5994573,1.226484805836397,-2.6995627010569856,-0.23184728285845632,2.974164911106054,7.766700182532319,-3.3752952073133424,-0.43980379685371107,8.479839434894208
464,1790648560.6097739,1.2121146886488972,-2.5558615291819855,-0.2701675953584563,2.8415912275295088,7.779162188858187,-3.4057266467191436,-0.4395545613998099,8.50338441828788
465,1790648560.6297739,1.2312748448988973,-2.6037619198069857,-0.22705724379595632,2.88914673747769,7.803362493791474,-3.463611806459123,-0.43988970116435117,8.548834768817619
466,1790648560.6542494,1.226484805836397,-2.6229220760569856,-0.26537755629595633,2.9076468911131976,7.833047594316859,-3.533419153814025,-0.44114226472086887,8.604434439816252
467,1790648560.6742494,1.1115238683363973,-2.6037619198069857,-0.27495763442095633,2.8444091030730507,7.857172964864082,-3.5897452159825445,-0.4428227589852182,8.64971269530589
468,1790648560.6998732,1.0109330480238972,-2.6372921932444857,-0.1935269703584563,2.831033102666113,7.887524699822172,-3.6611571785689043,-0.44555316482262425,8.707217431486072
469,1790648560.7198732,1.0157230870863971,-2.575021685431986,-0.0019254078584563096,2.7681101454387123,7.9107013913336415,-3.7163535594687604,-0.4476578175177922,8.751621438534057
470,1790648560.7291763,1.1211039464613972,-2.4935910213694856,0.026814826516543693,2.7341523870382476,7.9213559665233015,-3.7417137385703025,-0.44847259280396473,8.772082404781454
471,1790648560.7491763,1.1594242589613972,-2.584601763556986,-0.05940587660845631,2.833365480594709,7.9442463670556815,-3.7956728807214946,-0.45001035692621444,8.815933999257416
472,1790648560.7749043,1.0061430089613972,-2.6325021541819855,-0.08814611098345632,2.819603000980137,7.973454334653986,-3.8647409109806903,-0.45197652667550425,8.87223078579936
473,1790648560.7949042,0.9438725011488972,-2.6085519588694854,-0.12167638442095631,2.7767325695991434,7.995678765147689,-3.918239766008575,-0.45359042330154886,8.915673056560312
474,1790648560.834075,1.0109330480238972,-2.6372921932444857,-0.14562657973345633,2.828162449517365,8.03841990515817,-4.022713690150244,-0.45706245498030235,9.000406995926234
475,1790648560.854075,1.0396732823988972,-2.6564523494944856,-0.1552066578584563,2.8568774432783184,8.060045337450369,-4.075995667064578,-0.459020555672936,9.043714468635933
476,1790648560.849486,0.9774027745863971,-2.6277121151194858,-0.03545568129595631,2.8038267152324283,8.060045337450369,-4.075995667064578,-0.459020555672936,9.043714468635933
477,1790648560.869486,0.9630326573988972,-2.7187228573069855,0.06513513901654369,2.8849832686507813,8.081152132173669,-4.129248843462871,-0.46063385852982863,9.086688029540717
478,1790648560.894245,0.9438725011488972,-2.6468722713694857,0.1417757640165437,2.8137036955998425,8.106902724650077,-4.195247967790443,-0.46194724237800344,9.139768736293568
479,1790648560.914245,0.9390824620863971,-2.5893918026194855,0.0986654124540437,2.7561858866350004,8.127408115347402,-4.248418903623506,-0.4624883811215793,9.182468151687367
480,1790648560.939858,0.8816019933363972,-2.6851925838694854,0.03160486557904369,2.826389950918072,8.153226890356127,-4.316430843330525,-0.46282719458798105,9.236930927690835
481,1790648560.959858,1.0013529698988972,-2.8097335994944856,-0.07377599379595631,2.9837482413424494,8.173187835353039,-4.3698143145636275,-0.46311532951612167,9.2795879404293
482,1790648560.969144,1.0157230870863971,-2.7762033260569856,-0.08814611098345632,2.9574935391529937,8.18247048740835,-4.39477315838307,-0.4633418181946317,9.299545151857743
483,1790648560.989144,0.9247123448988972,-2.8193136776194856,-0.09293615004595632,2.968545041195449,8.202374690060806,-4.4488580466379934,-0.46402806929942425,9.342730357041429
484,1790648561.0150468,0.9247123448988972,-2.934274615119486,0.026814826516543693,3.076650690712895,8.227879475371749,-4.519575892108569,-0.46491199537300826,9.398973883845745
485,1790648561.0350468,0.9438725011488972,-3.054025591681986,0.1848861155790437,3.20189795102959,8.2474211506149,-4.574970483693875,-0.46517456529301887,9.44281197199625
486,1790648561.059586,0.8480717198988972,-3.1019259823069856,0.16093592026654369,3.2197935977691907,8.271099492773669,-4.64407219500846,-0.46481193874058657,9.497080788863876
487,1790648561.079586,0.8289115636488972,-3.3749582088694856,-0.06898595473345631,3.475945389950319,8.290018552366172,-4.7016589352219516,-0.464422798015824,9.54178667111378
488,1790648561.0898886,0.9630326573988972,-3.6048800838694857,-0.21747716567095632,3.7376314205501755,8.29968704260763,-4.73226703684067,-0.4644737568430646,9.565296241308666
489,1790648561.1098886,1.0588334386488971,-3.5809298885569856,-0.3372281422334563,3.749387941714757,8.318673586117932,-4.793551446660389,-0.4653898999679631,9.612234571791737
490,1790648561.1347456,1.0061430089613972,-3.3941183651194855,-0.42344884535845634,3.5653432030533434,8.34258114350581,-4.871297284226964,-0.4677758504369063,9.671970410084374
491,1790648561.1547456,0.8576517980238971,-3.4659689510569858,-0.5815201344209563,3.6175506966843813,8.361727453196128,-4.934758569524775,-0.470915078110941,9.720704148971114
492,1790648561.1789143,0.9438725011488972,-3.6767306698069855,-0.7060611500459564,3.861057635458012,8.384659547872575,-5.012891472848999,-0.4764735451749232,9.780522669650354
493,1790648561.1989143,1.1785844152113971,-3.7677414119944856,-0.6485806812959564,4.00069912285187,8.40397338025308,-5.079015882281512,-0.48241526255067596,9.831373016726202
494,1790648561.2249782,1.3222855870863972,-3.643200396369486,-0.6342105641084563,3.9272854927481355,8.430256338128569,-5.1667499195710995,-0.49150460010168223,9.899803201572544
495,1790648561.2449782,1.3941361730238973,-3.5473996151194855,-0.5958902516084563,3.8578160778146984,8.451473816989811,-5.23475963691153,-0.4992781976476658,9.953863413476636
496,1790648561.2546272,1.3941361730238973,-3.5186593807444857,-0.5575699391084563,3.825632463218637,8.46219258761536,-5.2677629197151,-0.503300763279953,9.980548142588958
497,1790648561.2746272,1.4324564855238973,-3.3845382869944856,-0.5767300953584563,3.7201678190564493,8.48531714488781,-5.336263943747926,-0.512089296276629,10.036859836324918
498,1790648561.2996867,1.3989262120863972,-3.2839474666819854,-0.5815201344209563,3.616555153392022,8.515266918403405,-5.421752611208301,-0.5236262157057442,10.108380507409374
499,1790648561.3196867,1.2552250402113971,-3.1258761776194857,-0.6006802906709563,3.421623677581048,8.53956564361108,-5.489361638596638,-0.5332259973769412,10.165707183719082
500,1790648561.3448792,1.068413516773897,-2.943854693244486,-0.5623599781709563,3.181829134760569,8.56997222671392,-5.573217799915272,-0.5457018049009071,10.237332224354764
501,1790648561.3648791,0.8624418370863972,-2.7905734432444858,-0.4665591969209563,2.957834266609587,8.593386972279909,-5.638405855684868,-0.5556638993776966,10.293040494326402
502,1790648561.3749542,0.6995805089613971,-2.618132036994486,-0.38512853285845633,2.7372161475625725,8.604593289024445,-5.6704058392211145,-0.5605731492976197,10.320211737494095
503,1790648561.3949542,0.48881879021139707,-2.4025802791819855,-0.21747716567095632,2.4614288787544103,8.625284616536504,-5.731931363717398,-0.5697605710627318,10.37184645966986
504,1790648561.4197283,0.3163773839613971,-2.2684591854319858,0.03639490464154369,2.290704327087386,8.648566597409486,-5.805390588554384,-0.5797704607459848,10.43246844532283
505,1790648561.4397283,0.3067973058363971,-2.0241671932444856,0.1130355296415437,2.050403483228868,8.665477466823193,-5.862237283068016,-0.5864151071962439,10.47855946058241
506,1790648561.4647672,0.4840287511488971,-1.7846652401194856,0.11782556870404369,1.8528887489188155,8.684958391535059,-5.9298837641625965,-0.5930525132257823,10.532983195781611
507,1790648561.4847672,0.6085697667738971,-1.6792843807444855,0.2088363108915437,1.7983230513982784,8.699823693161434,-5.981007677146019,-0.5970689303143162,10.574302645267885
508,1790648561.4948275,0.6612601964613971,-1.6601242244944856,0.2184163890165437,1.8002730923858772,8.707137671278835,-6.005386062861136,-0.5984638319492659,10.594199693641855
509,1790648561.5148275,0.7666410558363972,-1.6170138729319856,0.1992562327665437,1.8006041819469265,8.721638733198803,-6.051496534360992,-0.600194438287671,10.632395114063819
510,1790648561.5392041,0.9438725011488972,-1.5116330135569855,0.2136263499540437,1.7948721078380867,8.739789188209553,-6.104987282575872,-0.6012325084758954,10.677839917511685
511,1790648561.559204,1.1258939855238972,-1.5451632869944856,0.0842952952665437,1.9137064944548217,8.755551754921198,-6.146876309288606,-0.601509564722812,10.714736984697767
512,1790648561.58454,1.1498441808363973,-1.7271847713694857,-0.22226720473345632,2.086794571814392,8.776848767761084,-6.198199306290097,-0.6020700631812911,10.7616558806544
513,1790648561.6045399,1.0923637120863972,-2.0337472713694855,-0.3659683766084563,2.3373744449624305,8.794502094237089,-6.238277760569551,-0.603328502867029,10.799230610831911
514,1790648561.6150966,1.1115238683363973,-2.2397189510569855,-0.22226720473345632,2.5102248903047184,8.804167370362821,-6.259642890200367,-0.6043588514221082,10.81950746658505
515,1790648561.6350965,1.2983353917738971,-2.1008078182444856,-0.1743668141084563,2.4757770627809297,8.823346638169824,-6.30055902159939,-0.606613024206882,10.858934995804036
516,1790648561.659945,1.3701859777113972,-1.7511349666819855,-0.13125646254595633,2.2273552801502805,8.84857425607243,-6.350947549920866,-0.6095631373928976,10.908866502324697
517,1790648561.679945,1.3270756261488972,-1.6265939510569856,-0.03545568129595631,2.0995701237324327,8.869879527111662,-6.390487265768458,-0.6118315145132923,10.949311764744625
518,1790648561.704927,1.3127055089613973,-1.3870919979319856,0.012444709329043692,1.9098101567367456,8.897446099581382,-6.438114552085418,-0.6142830443008924,10.999600435436077
519,1790648561.724927,1.3222855870863972,-1.1859103573069854,-0.049825798483456314,1.7768807387044618,8.920157358519377,-6.474383942557968,-0.6160073573119131,11.039307940295092
520,1790648561.7346125,1.1594242589613972,-1.0661593807444854,-0.0019254078584563096,1.5751076612768637,8.931308852005674,-6.490949621592092,-0.6167547374051108,11.05807809730394
521,1790648561.7546124,0.9247123448988972,-0.8937179744944854,0.2423665843290437,1.308650564490869,8.954008115548898,-6.522965455615386,-0.6177058748599811,11.095264765489093
522,1790648561.7801654,0.8145414464613971,-0.5392550838694854,0.4100179515165437,1.0594283996799092,8.981992819339668,-6.560481004064012,-0.6174885349471864,11.139901171112125
523,1790648561.8001654,1.140264102711397,-0.14647188074448536,0.2279964671415437,1.1720233038681778,9.0035427892462,-6.5864680725188345,-0.6163869215530838,11.172523316832189
524,1790648561.824297,1.384556094898897,-0.017140826056985362,0.03160486557904369,1.3850228356846213,9.030213834740815,-6.613416300233777,-0.6147872730362757,11.209817146253084
525,1790648561.844297,1.1115238683363973,0.01159940831801464,0.2519466624540437,1.1397793544702275,9.052746947054404,-6.632408875313298,-0.6132350390890502,11.23908946444969
526,1790648561.869264,1.1594242589613972,0.41875272863051466,0.2615267405790437,1.260164551176387,9.080909155591387,-6.651755988605305,-0.610626478855749,11.27304898954714
527,1790648561.8892639,1.5090971105238973,0.8594363223805147,0.1034554515165437,1.7397436338917904,9.104087563575812,-6.663012143900877,-0.6083028390983295,11.29823762978463
528,1790648561.8999646,1.6336381261488973,0.9648171817555147,-0.03066564223345631,1.8975210415253698,9.117150857494286,-6.666667161974755,-0.6071876758611912,11.310860607424134
529,1790648561.9199646,1.5090971105238973,0.7827956973805147,0.11782556870404369,1.7041203177796613,9.14261833922772,-6.669852396357482,-0.6052852994531046,11.333171285201363
530,1790648561.9449804,1.580947696461397,0.8977566348805147,-0.054615837545956315,1.8188857809465193,9.175492202251121,-6.670085823215294,-0.603144149342641,11.359730846614061
531,1790648561.9649804,1.8779301183363972,0.7061550723805147,-0.27495763442095633,2.025062521585458,9.203020572949372,-6.667838587610146,-0.6021834497939226,11.380610001390874
532,1790648561.9899807,1.978520938648897,0.7875857364430147,-0.5096695484834564,2.18965738086394,9.2395008274995,-6.662650064212717,-0.6026338875318098,11.407122731956527
533,1790648562.0099807,1.700698673023897,0.6103542911305146,-0.34201818129595635,1.8389901504531425,9.269825869891793,-6.657025010731448,-0.6042177111883285,11.42850526946253
534,1790648562.0198872,1.5234672277113972,0.43791288488051466,-0.14562657973345633,1.5918313947714091,9.284989082410524,-6.653877854239808,-0.605246860277,11.439031275483984
535,1790648562.0398872,1.662378360523897,0.19841093175551464,-0.29411779067095634,1.699815868312617,9.315788496966983,-6.647522728910116,-0.6076725352727503,11.460486013329616
536,1790648562.0651236,1.8539799230238971,-0.30454316980698537,-0.5048795094209564,1.9454797393663414,9.355477814924338,-6.6409074398148995,-0.6117864691660674,11.489164436702307
537,1790648562.0851235,1.7294389073988972,-0.7308566463694854,-0.5623599781709563,1.9599385492958652,9.387588867596753,-6.638004278481776,-0.6161585976412751,11.513886266835195
538,1790648562.1101413,1.5090971105238973,-0.9943087948069854,-0.7156412281709563,1.9437506105156934,9.427807664990747,-6.638154458307917,-0.6232052371213556,11.547165745237532
539,1790648562.1301413,1.3270756261488972,-1.1140597713694853,-0.7970718922334563,1.9072447386454996,9.4593912850794,-6.641419057917766,-0.6302626174454661,11.575221879258239
540,1790648562.1392086,0.9390824620863971,-1.6265939510569856,-0.02108556410845631,1.878331268234439,9.473103458998121,-6.6445408797124905,-0.6335386387274757,11.588398675132526
541,1790648562.1592085,0.5606693761488971,-2.2732492244944855,0.8267513499540438,2.483048525636744,9.501061598931114,-6.656243642278801,-0.6384722482474012,11.618235569304082
542,1790648562.1852357,1.0971537511488971,-2.3498898494944855,0.7501107249540437,2.699702716616849,9.535223833138458,-6.678213290251396,-0.6408514976175952,11.658890038941989
543,1790648562.2052357,1.379766055836397,-2.1295480526194854,0.2711068187040437,2.5519067742379615,9.561252687878762,-6.699282183348739,-0.6408737084129712,11.692247595896081
544,1790648562.2302341,1.1546342198988973,-1.8421457088694857,0.11782556870404369,2.1772835963898287,9.593658333110978,-6.729112951674674,-0.6401681035945042,11.735802338558933
545,1790648562.2502341,0.8576517980238971,-1.7750851619944856,0.2088363108915437,1.9824496320798173,9.618713964079031,-6.7548249727858884,-0.6391982702210346,11.770976729413512
546,1790648562.2592897,1.0013529698988972,-1.8373556698069855,0.026814826516543693,2.0926783466692465,9.62961955627261,-6.767174068978367,-0.6386649688482167,11.78694661991964
547,1790648562.2792897,1.1785844152113971,-2.0385373104319857,0.03639490464154369,2.354998976408765,9.653362381424941,-6.796170695825123,-0.6375689948159111,11.822936843993244
548,1790648562.30474,1.025303165211397,-2.0529074276194854,0.2998470530790437,2.314213417601745,9.683250179276873,-6.835344100865523,-0.6357417424480755,11.869769609170753
549,1790648562.32474,0.8289115636488972,-1.6074337948069857,0.4004378733915437,1.852373686782661,9.705995643875504,-6.867001257425869,-0.633470766734549,11.906441236604914
550,1790648562.3498526,0.8097514073988972,-1.2290207088694856,0.3477474437040437,1.5123218999992178,9.733357934692226,-6.906130864956917,-0.6296378146619624,11.951123126568438
551,1790648562.3698525,0.8720219152113972,-1.1188498104319855,0.2327865062040437,1.4375105830508965,9.754403483738434,-6.936141439035308,-0.6261722992449856,11.985430202300334
552,1790648562.379923,0.8145414464613971,-1.1571701229319855,0.16093592026654369,1.4242263976776623,9.764684812292437,-6.950705004041933,-0.6243916855739257,12.00213458155015
553,1790648562.399923,0.575039493336397,-1.0613693416819854,0.1800960765165437,1.2204957579343256,9.784124957135589,-6.9786173724843925,-0.6208743075628262,12.03393894425994
554,1790648562.4250479,0.5031889073988971,-0.9895187557444854,0.1705159983915437,1.123130513434158,9.806915001198533,-7.012286935376093,-0.6164577563611474,12.071775762917271
555,1790648562.4450479,0.512768985523897,-0.9990988338694854,0.1513558421415437,1.133154492249379,9.823859181133637,-7.038051424945923,-0.6129866134785834,12.10033593166863
556,1790648562.4699044,0.4361283605238971,-0.8170773494944854,0.11782556870404369,0.933652080033364,9.84352807440383,-7.068654956599586,-0.6088178609201347,12.133902382779072
557,1790648562.4899044,0.36427777458639704,-0.6877462948069853,0.1369857249540437,0.7902267724644234,9.858180695427032,-7.09184265605301,-0.6055845376399844,12.159140245680689
558,1790648562.4999695,0.2780570714613971,-0.6733761776194854,0.1465658030790437,0.7431236412652489,9.864933478546366,-7.102789056755773,-0.6039873834176713,12.170921315999138
559,1790648562.5199695,0.15351605583639705,-0.7069064510569854,0.11782556870404369,0.732916621851338,9.876986332456879,-7.123348021076684,-0.600893192814841,12.192539467645299
560,1790648562.5440755,0.14393597771139705,-0.7356466854319854,0.1082454905790437,0.757370911573385,9.88987234546854,-7.147018892080377,-0.5973144470617324,12.21663777813216
561,1790648562.5640755,0.10082562614889705,-0.7548068416819854,0.1321956858915437,0.7729003004958575,9.899326925455632,-7.165947675455768,-0.5944299926047372,12.235228918190655
562,1790648562.5894418,-0.00934527228860295,-0.7069064510569854,0.1657259593290437,0.7261330169160896,9.909693654384233,-7.189135080926372,-0.5907535636617397,12.257025793744926
563,1790648562.6094418,-0.07640581916360295,-0.6063156307444854,0.0795052562040437,0.616260966678253,9.916512599250336,-7.206644640830109,-0.5879218491086642,12.272677018929297
564,1790648562.6345549,-0.06682574103860295,-0.6446359432444854,0.06513513901654369,0.6513553295420021,9.923520739548763,-7.227688880363629,-0.5846271097590859,12.290546744431337
565,1790648562.6545548,0.01460492302389705,-0.7069064510569854,0.1130355296415437,0.7160356592264524,9.928186475997105,-7.243961810787895,-0.5821295239183439,12.30376951185866
566,1790648562.664199,0.06250531364889705,-0.7164865291819854,0.1417757640165437,0.7330485850174391,9.930154652142404,-7.251661358794752,-0.5809214986121891,12.309834835027324
567,1790648562.684199,0.05292523552389705,-0.6877462948069853,0.1513558421415437,0.7061902275777913,9.933797107842961,-7.267339722572548,-0.5783524117627639,12.321892838978185
568,1790648562.7091029,0.05292523552389705,-0.6685861385569853,0.1417757640165437,0.6854989952496466,9.937850030254591,-7.286467216527012,-0.5750857546627908,12.336295689815893
569,1790648562.7291028,0.13435589958639704,-0.7500168026194854,0.2184163890165437,0.7926426880734171,9.94089758515488,-7.301652058942234,-0.5723155592583677,12.34759542128599
570,1790648562.754531,0.27326703239889705,-0.7739669979319854,0.2136263499540437,0.848136782764807,9.944968437174534,-7.320968614533188,-0.5684978767089455,12.36212637482728
571,1790648562.774531,0.38343793083639705,-0.7739669979319854,0.11782556870404369,0.8717410311166837,9.94867507083806,-7.3362046394502824,-0.5654483791585567,12.373995557074505
572,1790648562.784703,0.36906781364889707,-0.7356466854319854,0.0986654124540437,0.8289281998299792,9.95085160133089,-7.343943113834445,-0.563964869879382,12.380266734824577
573,1790648562.804703,0.33074750114889706,-0.7883371151194855,0.1034554515165437,0.8611459499060797,9.955538810033111,-7.359161870968494,-0.5611824011546688,12.392939204585721
574,1790648562.8298767,0.36427777458639704,-0.8362375057444854,0.06992517807904369,0.9148119990472152,9.961865794017275,-7.378511378581698,-0.5578781417323647,12.409368569064817
575,1790648562.8498766,0.4073881261488971,-0.8937179744944854,0.06034509995404369,0.9840418864815151,9.967295956433313,-7.394173192022911,-0.5554513427561482,12.422934921786066
576,1790648562.8741376,0.4169682042738971,-0.8793478573069854,0.06513513901654369,0.9753756834474033,9.97439493903196,-7.41354821028101,-0.5527207656913379,12.440046290539822
577,1790648562.8941376,0.43133832146139706,-0.8649777401194854,0.055555060891543696,0.9681557742708612,9.980641743271564,-7.429741013172762,-0.5506263811516963,12.454615632044872
578,1790648562.9045105,0.47923871208639707,-0.9032980526194854,0.045974982766543694,1.0235872283634488,9.984104030316727,-7.43825523111639,-0.549624089648508,12.462425960114627
579,1790648562.9245105,0.48881879021139707,-0.9272482479319855,0.026814826516543693,1.0485476421592788,9.991230415859041,-7.454954897523525,-0.5478722615266087,12.47802876106026
580,1790648562.9490983,0.48881879021139707,-0.9128781307444854,-0.03066564223345631,1.035968470982042,10.000480237011836,-7.475799165111171,-0.5460487278686343,12.497813702450046
581,1790648562.9690983,0.47923871208639707,-0.9080880916819855,-0.01629552504595631,1.0269173625727546,10.008327622161083,-7.492942279714392,-0.5448583835196595,12.514298879990667
582,1790648562.9944723,0.45049847771139706,-0.9320382869944854,0.012444709329043692,1.0352773143627678,10.018559521569868,-7.5149311432001475,-0.543582052430474,12.535597569402197
583,1790648563.0144722,0.45049847771139706,-0.8937179744944854,0.0028646312040436907,1.0008440949852015,10.026766165270939,-7.532401834176781,-0.5427039744347969,12.552595139189311
584,1790648563.0238745,0.512768985523897,-0.9128781307444854,-0.02108556410845631,1.0472454894247691,10.03072478399188,-7.5406570296568844,-0.5423659459053072,12.56069699301677
585,1790648563.0438745,0.4936088292738971,-0.9032980526194854,-0.04503575942095631,1.0303520116105584,10.03939181419282,-7.558307273401964,-0.541853948111435,12.578195519991203
586,1790648563.0695648,0.44091839958639706,-0.8649777401194854,-0.006715446920956309,0.9708968138908428,10.050655442857233,-7.580985574510626,-0.5413946415535799,12.600798596512716
587,1790648563.0895648,0.4936088292738971,-0.9032980526194854,0.022024787454043692,1.0296029037768384,10.059510682764323,-7.598644836261649,-0.5410677418837676,12.61847505943577
588,1790648563.1151223,0.5510892980238971,-0.8985080135569854,0.03160486557904369,1.0545211862977724,10.071131696795266,-7.621279974634799,-0.5406098668550336,12.641355193732384
589,1790648563.1351223,0.5846195714613971,-0.8937179744944854,-0.01629552504595631,1.0680718165960361,10.080565158149742,-7.6390244282116875,-0.5402823401122878,12.659557382845367
590,1790648563.144706,0.6133598058363972,-0.9416183651194854,-0.04503575942095631,1.124670447985799,10.085268565342997,-7.647571088525623,-0.5401930194071577,12.668456657674005
591,1790648563.164706,0.517559024586397,-0.9320382869944854,0.050765021829043695,1.0673049235320433,10.095308040048838,-7.665541990134168,-0.5400259847632279,12.687293111227639
592,1790648563.1898177,0.34032757927389706,-0.9128781307444854,0.1992562327665437,0.9944206298655974,10.107638364218984,-7.688196055500818,-0.5393768335628828,12.7107686336521
593,1790648563.2098176,0.2972172277113971,-0.8410275448069854,0.3046370921415437,0.9425864254703489,10.116942005369204,-7.7061631541066555,-0.5381815349705068,12.728986819943609
594,1790648563.2347546,0.28284711052389705,-0.8889279354319854,0.5345589671415437,1.0751505251240514,10.12788706527437,-7.728440523683066,-0.5353452117413308,12.75105814553415
595,1790648563.2547545,0.3067973058363971,-0.8074972713694853,0.6111995921415437,1.0581783269239762,10.136232993112381,-7.7461720789430215,-0.5316929983532569,12.768284873535455
596,1790648563.2796066,0.30200726677389705,-0.6829562557444854,0.5872493968290438,0.9499997318530371,10.14618281978925,-7.7676784315048435,-0.5256016921271364,12.788983977103848
597,1790648563.2996066,0.08166546989889706,-0.7979171932444854,0.5489290843290437,0.9719383909853996,10.153564486298185,-7.784611114670015,-0.5197306808541305,12.804888205864225
598,1790648563.309683,-0.04287554572610295,-0.9895187557444854,0.3094271312040437,1.0376564122659244,10.156755019450573,-7.793213416179851,-0.516567711394144,12.81252083220609
599,1790648563.329683,0.0002348058363970495,-1.0901095760569854,0.16093592026654369,1.1019252757682623,10.162073769560596,-7.810845697951013,-0.5105259587139517,12.827224585611345
600,1790648563.3548653,0.09603558708639705,-0.7452267635569854,0.1274056468290437,0.7621141397143705,10.167947966245608,-7.833182928244927,-0.503515212257066,12.845211099884667
601,1790648563.3748653,0.20620648552389706,-0.3093332088694854,0.2902669749540437,0.4716599045186916,10.172366870510572,-7.849844141876029,-0.49815590246299546,12.858664786950673
602,1790648563.4142973,0.17746625114889705,0.13135038488051465,0.48186853745404373,0.5300419618230258,10.180907026794442,-7.8782924315889815,-0.4868909134811681,12.882368659819328
603,1790648563.4342973,0.15351605583639705,0.3852224551930147,0.5968294749540437,0.7267523247698747,10.18508534038562,-7.8897822278004766,-0.480416294839976,12.892456197691814
604,1790648563.4294271,0.11519574333639705,0.3564822208180147,0.7213704905790437,0.8128499355480192,10.18508534038562,-7.8897822278004766,-0.480416294839976,12.892456197691814
605,1790648563.4494271,0.07687543083639706,0.29421171300551463,0.8219613108915438,0.8764078733891351,10.188734885658954,-7.896161893033322,-0.47174268402405317,12.89892369041563
606,1790648563.4743438,0.10082562614889705,0.31337186925551463,0.8938118968290437,0.9525058751746078,10.192931681576516,-7.901782273303478,-0.4593513404821191,12.905232388995639
607,1790648563.4943438,0.02897504021139705,0.34690214269301467,0.8028011546415438,0.8750259101615521,10.195989747481942,-7.904626503032215,-0.44835213076385794,12.909002545369518
608,1790648563.5189953,0.0002348058363970495,0.16967069738051466,0.6782601390165437,0.6991602225971614,10.199247660394066,-7.906651303461668,-0.43409007695224455,12.912328289951985
609,1790648563.5389953,0.25410687614889704,-0.15605195886948536,0.38127771714154374,0.48404051066188813,10.20187586768807,-7.908027201609421,-0.4226654913137046,12.914867849059014
610,1790648563.54957,0.4744486730238971,-0.3189132869944854,0.2327865062040437,0.6172493705354822,10.20363488901924,-7.909022272075473,-0.4170439164551855,12.91668393500626
611,1790648563.56957,0.5223490636488971,-0.4817746151194854,0.3237972483915437,0.7808969087749951,10.207957871407555,-7.911822969305951,-0.40717184735754286,12.921498965497356
612,1790648563.594051,0.7379008214613971,-0.6733761776194854,0.2615267405790437,1.0326322360534421,10.214769553441272,-7.916857842923779,-0.3958259021281835,12.929610716482154
613,1790648563.6140509,1.1594242589613972,-0.9272482479319855,-0.025875603170956312,1.4848311258862346,10.222345710194453,-7.9227550968775695,-0.3875935684619045,12.938957798761981
614,1790648563.6398015,1.2935453527113971,-1.1715402401194854,-0.1552066578584563,1.7521002312607763,10.235374494534698,-7.93326245554103,-0.37893380059340565,12.955428787079974
615,1790648563.6598015,1.0348832433363973,-1.3391916073069856,-0.1552066578584563,1.6995607064955107,10.247468440624331,-7.943965268472429,-0.3736824387116729,12.97138513009653
616,1790648563.6695483,1.0732035558363973,-1.6313839901194855,-0.3180679859834563,1.9784708335443393,10.254019255300793,-7.9505703088713915,-0.37185308812958356,12.980552909777698
617,1790648563.6895483,1.4132963292738971,-2.2492990291819854,-0.5767300953584563,2.718339610848922,10.2691746857269,-7.96791159046661,-0.37000459960745297,13.003094525657998
618,1790648563.7149153,1.4468266027113972,-2.5127511776194855,-0.5575699391084563,2.952644566475776,10.290955206856344,-7.995667143791228,-0.3701697811659028,13.037310988494317
619,1790648563.7349153,1.3079154698988973,-2.3690500057444854,-0.38033849379595636,2.7327089446155397,10.309683767767991,-8.021590522758677,-0.3716873406810418,13.068039079579354
620,1790648563.7593243,1.3941361730238973,-2.2780392635569857,-0.4378189625459563,2.706430120879863,10.334059101660852,-8.05699039902979,-0.37475941927904255,13.109092891158262
621,1790648563.7793243,1.4899369542738972,-2.3977902401194857,-0.4473990406709563,2.8582295332804413,10.355361705043972,-8.08865881106826,-0.3782268315292512,13.145454459251383
622,1790648563.7894084,1.5282572667738972,-2.5271212948069857,-0.32285802504595634,2.9708836423614327,10.366774203045225,-8.105955927055229,-0.38029543845922287,13.165149201159805
623,1790648563.8094084,1.5569975011488972,-2.5127511776194855,-0.21747716567095632,2.96402699326445,10.390641405689829,-8.142675412470728,-0.384593222645325,13.20668405169882
624,1790648563.8345444,1.6527982823988971,-2.5558615291819855,-0.29411779067095634,3.0578874396292592,10.422189384674002,-8.191457478707989,-0.3901489213903558,13.26175792933782
625,1790648563.8545444,1.580947696461397,-2.4361105526194855,-0.3084879078584563,2.920478562295142,10.44837653864823,-8.231937732940386,-0.3948102610978442,13.307488353353934
626,1790648563.879562,1.5234672277113972,-2.3834201229319856,-0.2989078297334563,2.8444665171141907,10.482044745419843,-8.28402109678977,-0.40090607033130676,13.366338064491345
627,1790648563.899562,1.4468266027113972,-2.3930002010569855,-0.3372281422334563,2.8166433924951173,10.509378525916372,-8.32657759987703,-0.40600252014479377,13.414312117068471
628,1790648563.9093437,1.3941361730238973,-2.3498898494944855,-0.5192496266084563,2.7812260153435853,10.522826194880027,-8.347749114056874,-0.4087496039977382,13.438075109094267
629,1790648563.9293437,1.3749760167738971,-2.3738400448069856,-0.6629507984834564,2.8222649355158875,10.550350739696857,-8.39162895466893,-0.4152970960483215,13.487097868757612
630,1790648563.9545515,1.1594242589613972,-2.3259396541819854,-0.8018619312959564,2.7197872056515893,10.584630121666533,-8.447524094724807,-0.4250809738715114,13.549012952159806
631,1790648563.9745514,1.1354740636488971,-2.498381060431986,-0.8785025562959563,2.8814885066165234,10.611190306767627,-8.492455967139277,-0.4341997156550171,13.598076977032953
632,1790648564.0000544,1.1881644933363973,-2.8193136776194856,-0.9072427906709564,3.191136781346433,10.644422698757738,-8.551327762467963,-0.44749892225738225,13.661229680244961
633,1790648564.0200543,1.068413516773897,-3.0157052791819856,-0.6821109547334564,3.271278210161687,10.669959932615146,-8.599323614700605,-0.45874806468651597,13.711559407332695
634,1790648564.0445726,0.9630326573988972,-3.0875558651194854,-0.4952994312959563,3.2719649518435574,10.700305974707273,-8.660559670052368,-0.47263507450437586,13.774078033195018
635,1790648564.0645726,1.068413516773897,-3.2264669979319858,-0.5431998219209563,3.44189813592796,10.724393883926467,-8.712489349090564,-0.48382152411419854,13.825851803878564
636,1790648564.0743597,1.1546342198988973,-3.3462179744944858,-0.6198404469209563,3.5936829429195174,10.736045070134814,-8.738914128160408,-0.4893282514497259,13.851740902319625
637,1790648564.0943596,1.260015079273897,-3.5857199276194858,-0.6294205250459564,3.8524272344424912,10.759904938201434,-8.795211383550345,-0.5007672258922834,13.906188024580748
638,1790648564.1349812,1.221694766773897,-3.729421099494486,-0.5384097828584563,3.9611873137728635,10.808657812936776,-8.914690288270382,-0.5240735848553719,14.020465034202134
639,1790648564.1549811,1.2121146886488972,-3.839591997931986,-0.5240396656709564,4.060333274525416,10.832711455352564,-8.976045360023027,-0.5354208987656404,14.078483700986856
640,1790648564.1645484,1.3462357823988973,-4.088674029181986,-0.5527799000459563,4.339950658315512,10.844327612555512,-9.00668176663426,-0.5408074843960068,14.107169473322234
641,1790648564.1845484,1.3749760167738971,-4.313805865119486,-0.5479898609834564,4.560676811218194,10.869050076746753,-9.073723043341472,-0.5520300154000027,14.169454349974
642,1790648564.1944933,1.3079154698988973,-4.251535357306985,-0.5815201344209563,4.486018439281013,10.881500341473222,-9.10844728376806,-0.5576157888931726,14.201471648061215
643,1790648564.2144933,1.2839652745863972,-4.189264849494486,-0.6533707203584563,4.430056444761794,10.906670822643692,-9.180466594068259,-0.5690165259299335,14.2674530006267
644,1790648564.2548265,1.2839652745863972,-4.165314654181985,-0.8066519703584564,4.43273058012441,10.957585174856629,-9.329192186123096,-0.5929758395983696,14.403267686750997
645,1790648564.2748265,1.264805118336397,-4.194054888556986,-0.7539615406709563,4.445029403773344,10.982868107773392,-9.404417258879487,-0.6054153172968697,14.471799596396915
646,1790648564.2849145,1.2025346105238972,-4.227585161994486,-0.4857193531709563,4.422045802733009,10.995574670340526,-9.443040973536084,-0.6116865460508607,14.506820657522967
647,1790648564.3049145,1.2456449620863972,-4.007243365119486,-0.1743668141084563,4.200004112465569,11.020659710383827,-9.52048090043752,-0.6232447886269626,14.576794266718029
648,1790648564.3142376,1.3079154698988973,-3.6240402401194856,-0.04503575942095631,3.853094698814548,11.03238476692283,-9.556501206693454,-0.6279779593005118,14.609400578953661
649,1790648564.3342376,1.226484805836397,-3.1258761776194857,-0.09772618910845632,3.3593030921300047,11.057566091588047,-9.632306296168053,-0.6368226702947878,14.678441183124244
650,1790648564.359781,1.1690043370863972,-3.0444455135569854,0.022024787454043692,3.261242817762342,11.089492059650446,-9.726420976534952,-0.6465694939784323,14.764760454012551
651,1790648564.379781,1.226484805836397,-2.9534347713694857,0.1034554515165437,3.1996476303071817,11.114333042753143,-9.798054118181245,-0.6528680966879031,14.830930525078852
652,1790648564.404555,1.2743851964613973,-2.6995627010569856,0.0842952952665437,2.986436355039584,11.145134848802291,-9.883980177320426,-0.6591510389449031,14.91112252769028
653,1790648564.424555,1.264805118336397,-2.5654416073069854,0.06992517807904369,2.861138262720133,11.17007984714588,-9.950840185994437,-0.6632310669392358,14.974303978715326
654,1790648564.4345756,1.1785844152113971,-2.4840109432444857,-0.03545568129595631,2.749659741726912,11.182539506877298,-9.983108803727534,-0.6649427291527125,15.005125792308
655,1790648564.4545755,1.106733829273897,-2.4073703182444857,-0.06419591567095631,2.6503608685634967,11.207105560962367,-10.045190270751712,-0.6679960780650297,15.064902302719018
656,1790648564.4794908,1.260015079273897,-2.378630083869486,-0.09772618910845632,2.6935236185940945,11.237541106276858,-10.11987151735405,-0.6715318368247067,15.137538923183154
657,1790648564.4994907,1.3701859777113972,-2.2828293026194855,-0.1695767750459563,2.667859726644205,11.262252980156852,-10.177819704383712,-0.6743452859644146,15.19477205122524
658,1790648564.5242777,1.2552250402113971,-2.182238482306986,-0.11688634535845631,2.5202018000482536,11.293166308051806,-10.24716566575551,-0.6778416446843178,15.264320447960445
659,1790648564.5442777,1.1115238683363973,-2.1439181698069856,0.050765021829043695,2.4154601044420807,11.317918152762784,-10.301215415670546,-0.6803387837086587,15.319046028173688
660,1790648564.5547695,1.1258939855238972,-2.1582882869944857,0.1465658030790437,2.438714237266983,11.330715697059404,-10.328701770672874,-0.6812969905241012,15.347031115638833
661,1790648564.5747695,1.0971537511488971,-2.1726584041819854,0.0938753733915437,2.435775745148167,11.354786178331118,-10.379734436829002,-0.682488915486619,15.399215799983951
662,1790648564.5993042,0.9869828527113972,-2.1534982479319855,0.04118494370404369,2.369258545406213,11.38372011652245,-10.44090808904464,-0.6834832415965703,15.461849655094278
663,1790648564.6193042,0.9726127355238972,-2.2540890682444856,0.04118494370404369,2.4553185659849674,11.40670770145614,-10.489906409482725,-0.684048650928636,15.51189993595249
664,1790648564.645021,0.9342924230238971,-2.3594699276194855,-0.04503575942095631,2.538115224076162,11.435510270000236,-10.552358264259361,-0.6846740504154443,15.57536319409201
665,1790648564.665021,0.8384916417738971,-2.3882101619944858,-0.13604650160845633,2.534782961473884,11.457209275434511,-10.600763346228627,-0.6853590915757224,15.624133415593086
666,1790648564.690002,0.8528617589613972,-2.2971994198069856,-0.15041661879595633,2.4550200637612494,11.483415869134372,-10.66093322668847,-0.6866231065793658,15.684252885550082
667,1790648564.710002,0.9486625402113972,-2.3067794979319856,-0.1647867359834563,2.499669365263287,11.503952157961656,-10.708785751721473,-0.687956093529129,15.731887716214075
668,1790648564.719076,0.9678226964613972,-2.3498898494944855,-0.20310704848345632,2.5494931946735386,11.513176118897915,-10.730408887610775,-0.6887205215869441,15.753388054540284
669,1790648564.739076,0.9007621495863971,-2.2876193416819857,-0.14083654067095633,2.4626022077780223,11.533259978518105,-10.777875841855636,-0.6906685836777249,15.800497349356512
670,1790648564.7645988,0.8672318761488972,-2.182238482306986,0.06034509995404369,2.349020530297404,11.558429800534862,-10.83792079120841,-0.6929357762623296,15.859949133601411
671,1790648564.7845988,0.9438725011488972,-2.1439181698069856,0.1513558421415437,2.3473791786168645,11.577911233318638,-10.884403957730406,-0.6941283265016577,15.905976618092811
672,1790648564.8092492,1.0492533605238972,-2.1870285213694856,0.11782556870404369,2.428561144483441,11.602005607988596,-10.941108540531587,-0.6948800342295811,15.962369764087756
673,1790648564.8292491,1.0779935948988972,-2.3211496151194857,-0.02108556410845631,2.5593456834562534,11.621813043615079,-10.986976840864564,-0.6952533359374689,16.008234622330097
674,1790648564.8393788,0.9486625402113972,-2.3067794979319856,0.2519466624540437,2.506924288446186,11.631880092055644,-11.010239667317995,-0.6952386555380788,16.031511743934114
675,1790648564.8593788,1.0300932042738973,-2.4073703182444857,0.2758968577665437,2.6329912523176513,11.651743079189856,-11.056351336281072,-0.6944222538771044,16.07756959000373
