imu_index,t_imu,ax,ay,az,mag,vx,vy,vz,velocity
0,1791286289.74775,0.03193359375000009,-0.013196088005514686,-0.027284438189337384,0.044026488796485984,0.0,0.0,0.0,0.0
1,1791286289.76775,0.0846240234375001,-0.0754665958180147,-0.046444594439337385,0.12252972202590148,0.0002155515522463251,-0.0001498188950637567,-0.0001453810689880935,0.00030007303813246196
2,1791286289.7923534,0.05588378906250009,-0.05630643956801469,0.001455796185662619,0.07934439084990623,0.0007002141528355435,-0.0005496306618270402,-0.00038041361741587463,0.0009680435137776914
3,1791286289.8123534,0.007983398437500091,0.020334185431985317,0.054146225873162625,0.05838687801297299,0.0011308981293099369,-0.0008798436031457002,-0.0004594091492808569,0.0015046966841580011
4,1791286289.8369417,-0.0015966796874999094,0.025124224494485318,0.03019603056066262,0.03931381823346903,0.001592743263134292,-0.0011410869812869522,-0.00038642218528039035,0.0019970560098302487
5,1791286289.8569417,0.0702539062500001,-0.027566205193014687,-0.012914321001837382,0.0765655712384208,0.002015041236406258,-0.0013253693815624072,-0.0003100376430378396,0.002431690465931311
6,1791286289.8977659,0.0846240234375001,-0.04672636144301469,-0.008124281939337381,0.09700815508751653,0.0032219477799616423,-0.00187257466123286,-0.00024192451087177758,0.0037344358111569766
7,1791286289.9177659,0.012773437500000092,-0.003616009880514685,0.02061595243566262,0.024520475685677307,0.003870623289758808,-0.002175955112527854,-0.00019482338439495413,0.004444599133112739
8,1791286289.9122918,-0.02075683593749991,0.005964068244485316,0.001455796185662619,0.021645685267400423,0.003870623289758808,-0.002175955112527854,-0.00019482338439495413,0.004444599133112739
9,1791286289.9322917,0.017563476562500093,-0.04193632238051469,-0.01770436006433738,0.04879113863245713,0.004324322487792377,-0.002446112046774832,-0.0001570241904353208,0.004970702739068761
10,1791286289.9568393,0.0702539062500001,-0.032356244255514685,-0.027284438189337384,0.08201815928813631,0.004959332414150108,-0.002864737172619573,-0.00020041676032219526,0.005730782140340562
11,1791286289.9768393,0.046303710937500096,0.010754107306985316,0.01582591337316262,0.050101337353892744,0.005573933400079333,-0.0031870516642597277,-0.0002476552765890631,0.0064255244918374615
12,1791286290.0027146,0.027143554687500092,0.015544146369485316,0.03977610868566262,0.05060169828773474,0.0063923471029059785,-0.0034904660405168817,-0.00019169954436233286,0.007285753453098779
13,1791286290.0227146,0.017563476562500093,0.05386445886948532,0.01582591337316262,0.05882444366382748,0.006997101972525715,-0.0035856952106977044,-7.15339082996664e-05,0.007862681683622983
14,1791286290.0326743,0.0894140625000001,0.03949434168198532,-0.012914321001837382,0.0985974507002378,0.00733299698024312,-0.0035562676259929924,-1.8494396291253972e-05,0.008149860500808263
15,1791286290.0526743,0.0989941406250001,-0.017986127068014685,-0.008124281939337381,0.10094228351894417,0.008188940640937763,-0.0034737760531105134,4.047967818135663e-05,0.008895364382211215
16,1791286290.077782,0.05588378906250009,-0.08983671300551468,-0.003334242876837381,0.10585249198379297,0.009393942927779078,-0.0035887894959201047,8.183221291562426e-05,0.01005645416076003
17,1791286290.097782,0.017563476562500093,-0.04672636144301469,-0.003334242876837381,0.0500294487099996,0.010320002188031408,-0.0038715077408184744,9.98286574231144e-05,0.011022748437165449
18,1791286290.1223755,0.046303710937500096,-0.022776166130514686,-0.046444594439337385,0.06942541136228794,0.011405750117433541,-0.004295211707307388,2.6821026723930922e-05,0.01218772738123889
19,1791286290.1423755,0.036723632812500094,-0.013196088005514686,-0.03207447725183738,0.05051271163356068,0.012280799416223448,-0.004642049607137494,-0.00014142299438404108,0.013129610021625932
20,1791286290.1524274,-0.01596679687499991,-0.032356244255514685,0.01582591337316262,0.03939955175969495,0.012670276833806818,-0.004824563648382392,-0.00022554809655122505,0.013559616564875735
21,1791286290.1724274,-0.03033691406249991,-0.04193632238051469,0.001455796185662619,0.05177936685758287,0.013259509392595622,-0.005244671942931466,-0.0003418987613732976,0.014263171732974846
22,1791286290.1975095,0.02235351562500009,-0.022776166130514686,-0.022494399126837383,0.039043967478720576,0.013872607812833265,-0.0058142379368807525,-0.0005055044373894461,0.015050253986280973
23,1791286290.2175095,0.027143554687500092,0.025124224494485318,0.006245835248162619,0.037510127638676394,0.014362395047920277,-0.006196752439670826,-0.0006407648084660779,0.01565530938215083
24,1791286290.2419727,0.02235351562500009,0.04428438074448532,0.03019603056066262,0.0580739726584994,0.014962434148800406,-0.006467100790722153,-0.0007145318376916684,0.016315893602301488
25,1791286290.2619727,0.05109375000000009,0.015544146369485316,0.03019603056066262,0.061351381704399806,0.015489584923984346,-0.006565228926619067,-0.0006752061159087624,0.01683702394353585
26,1791286290.2721102,0.05588378906250009,0.029914263556985315,0.006245835248162619,0.06369357504557249,0.015798042881821867,-0.006572944307820932,-0.0006305553968212449,0.017122481008255155
27,1791286290.2921102,0.027143554687500092,0.0011740291819853155,-0.01770436006433738,0.03242830971360002,0.016439846445972676,-0.006539250073988367,-0.0005728669990704852,0.017701935467511493
28,1791286290.3170826,0.017563476562500093,-0.013196088005514686,-0.008124281939337381,0.02342256187184959,0.017204744875757873,-0.006526005893821752,-0.0005600159050556281,0.018409389370102103
29,1791286290.3370826,0.012773437500000092,-0.037146283318014686,0.03498606962316262,0.05260258679556935,0.017770954689036198,-0.0065925034052296385,-0.0005109748817298036,0.018961250671764792
30,1791286290.362164,0.046303710937500096,-0.061096478630514685,0.01103587431066262,0.07745065441578429,0.01848564220235543,-0.006848192037828043,-0.0003721269999020912,0.019716875521353067
31,1791286290.382164,0.05109375000000009,-0.027566205193014687,-0.003334242876837381,0.05815138978019046,0.01911614813695094,-0.0071544897907501355,-0.0002664645018597712,0.02041285984595378
32,1791286290.3922975,0.03193359375000009,0.029914263556985315,-0.012914321001837382,0.04562233291804928,0.0194507927309995,-0.007284619827220812,-0.00023330748992362864,0.02077145773113423
33,1791286290.4122975,0.027143554687500092,0.020334185431985317,0.02061595243566262,0.03968966053124133,0.020100808669215882,-0.007427553580545573,-0.00016613079814270352,0.02142985442765282
34,1791286290.4376462,0.036723632812500094,-0.037146283318014686,0.01582591337316262,0.05457958506057368,0.020922504419606937,-0.007613501175726462,-2.4478612959220143e-05,0.02226470728628051
35,1791286290.4576461,0.041513671875000095,-0.04672636144301469,-0.012914321001837382,0.06382411372817426,0.021590927366484332,-0.007864015064026638,7.488726583974086e-05,0.022978609304625572
36,1791286290.4827466,0.036723632812500094,0.010754107306985316,-0.027284438189337384,0.046996984990797665,0.022451266046695496,-0.008198975044198049,0.00010521232129213228,0.02390174906795392
37,1791286290.5027466,0.007983398437500091,0.005964068244485316,-0.008124281939337381,0.012857243781876448,0.023101014577080595,-0.008400758669366785,7.263777009427043e-05,0.02458118990116377
38,1791286290.5278728,0.003193359375000091,-0.032356244255514685,0.03019603056066262,0.04437256300959974,0.023815920722257876,-0.00866597157343787,7.944600552604911e-05,0.025343706414577553
39,1791286290.5478728,-0.03991699218749991,0.010754107306985316,0.03498606962316262,0.05415756786400093,0.024244528991396667,-0.008877813409465871,0.000181825401971973,0.02581948522772613
40,1791286290.557445,-0.00638671874999991,0.015544146369485316,-0.003334242876837381,0.017132654152504357,0.02438565379782146,-0.008945115233651118,0.00024619904954010217,0.025975677309023067
41,1791286290.577445,0.03193359375000009,0.029914263556985315,-0.022494399126837383,0.04919975168661207,0.02467460637308612,-0.008996453168859879,0.0003217812780299473,0.02626548900129449
42,1791286290.602307,0.02235351562500009,0.010754107306985316,0.02540599149816262,0.03550767366037924,0.025081151361239805,-0.008974866357740002,0.0004070734579049427,0.026641660769269722
43,1791286290.622307,-0.0015966796874999094,0.058654497931985315,0.04456614774816262,0.07368202656543049,0.025390270819525423,-0.008855993083958206,0.0005703520034955288,0.026896463841922624
44,1791286290.6474788,0.03193359375000009,0.010754107306985316,0.01103587431066262,0.035456956377570584,0.02577823953336781,-0.008597787135081216,0.000849997545936401,0.027187535248491226
45,1791286290.6674788,0.036723632812500094,-0.013196088005514686,0.001455796185662619,0.03904972840021825,0.02614324361214995,-0.00842706827504503,0.0010575962935171807,0.02748823705144713
46,1791286290.6775525,0.046303710937500096,-0.013196088005514686,0.01582591337316262,0.050681652689387534,0.02636224238977731,-0.008373918171963708,0.0011595325174907196,0.02768455968635286
47,1791286290.6975524,0.02235351562500009,0.005964068244485316,0.03977610868566262,0.04601509092673454,0.02683480334065162,-0.008295071807206518,0.001414959724840811,0.028123246570072265
48,1791286290.7375464,0.003193359375000091,0.010754107306985316,0.01582591337316262,0.019398657225769608,0.02771466637957317,-0.008110905955262522,0.0020159023235774413,0.028947424585347162
49,1791286290.7575464,0.007983398437500091,0.03470430261948532,-0.022494399126837383,0.042120318885238234,0.028105429021871797,-0.007964436253364609,0.002261338272313287,0.029299505731653748
50,1791286290.7674804,0.017563476562500093,0.015544146369485316,-0.03207447725183738,0.03973497560457421,0.028289439958545968,-0.007865160326180629,0.002324303333846072,0.029454295885531383
51,1791286290.7874804,-0.0015966796874999094,-0.032356244255514685,0.01582591337316262,0.03605461776862777,0.028628288374640206,-0.0077204873779764295,0.0024076827332028482,0.029748642939784936
52,1791286290.7973912,-0.03033691406249991,0.0011740291819853155,0.006245835248162619,0.03099543768529247,0.028747278216787485,-0.007682727740814373,0.0024592091855220356,0.029857629179675653
53,1791286290.8173912,-0.00638671874999991,0.03949434168198532,0.006245835248162619,0.04049201969811081,0.028896295507528317,-0.007556956323920665,0.0025663297420867,0.02997815089836537
54,1791286290.8570023,0.017563476562500093,0.005964068244485316,-0.012914321001837382,0.02260144919966121,0.02918036642960202,-0.0072101741630182315,0.0027268533953477073,0.03018138707658446
55,1791286290.8770022,-0.0015966796874999094,-0.022776166130514686,-0.003334242876837381,0.023074234661002734,0.029326231947254814,-0.007086563019709883,0.0027713728636639305,0.03029732270689873
56,1791286290.8867822,-0.02075683593749991,-0.022776166130514686,0.006245835248162619,0.031442176128383396,0.029370464387701238,-0.0070685967630913435,0.002792012903831996,0.030337840638443213
57,1791286290.9067822,0.012773437500000092,0.0011740291819853155,0.01582591337316262,0.020371514037533126,0.02943537643272802,-0.0070697700548159,0.002860998087781699,0.030407373191755026
58,1791286290.9163709,0.02235351562500009,0.015544146369485316,0.03019603056066262,0.04065833750626774,0.029487091133787686,-0.007058225254908086,0.0029222078530920354,0.030460571006105507
59,1791286290.9363708,0.03193359375000009,0.04428438074448532,0.02540599149816262,0.06021897700656578,0.029660207495245994,-0.006948014599593603,0.003114130524600549,0.030621897793269792
60,1791286290.961226,0.06067382812500009,0.03470430261948532,0.03977610868566262,0.08042288767397322,0.030015710742090602,-0.006684348609136931,0.003438375201002257,0.030942621603609985
61,1791286290.981226,0.046303710937500096,0.04428438074448532,0.049356186810662624,0.08087751975051619,0.030419327819091426,-0.006385528023376501,0.0037938447453840706,0.03131299620053556
62,1791286291.0059974,-0.0015966796874999094,0.010754107306985316,0.02540599149816262,0.027634482336373542,0.03092731027380174,-0.005968679637963863,0.004306976291736547,0.0317910946991485
63,1791286291.0259974,0.003193359375000091,-0.032356244255514685,0.01103587431066262,0.0343353259518702,0.031278320039664936,-0.005715010933930227,0.00471378747057296,0.032143653289512346
64,1791286291.0364645,-0.01117675781249991,-0.027566205193014687,0.006245835248162619,0.03039450677161678,0.031428199589218594,-0.005649207228573594,0.004908324128078749,0.032306917486467315
65,1791286291.0564644,-0.02075683593749991,-0.008406048943014685,-0.003334242876837381,0.022641225066908084,0.031623724976810604,-0.0055962909698397,0.0052286467478540495,0.032537934796816916
66,1791286291.0818815,-0.03512695312499991,-0.008406048943014685,-0.012914321001837382,0.03835810451021788,0.031728406599695336,-0.005571177975531934,0.005543693656769173,0.03268734233232713
67,1791286291.1018815,-0.01117675781249991,0.0011740291819853155,0.03019603056066262,0.0322195363303059,0.03172896642895866,-0.005565229402255026,0.005780332389985265,0.03272783725650722
68,1791286291.1272094,0.0846240234375001,0.17361543543198532,0.049356186810662624,0.1993478817030105,0.031869089040394684,-0.005226797103702605,0.006186176155769087,0.03288201666044959
69,1791286291.1472094,0.0846240234375001,0.25025606043198534,0.09246653837316263,0.27989173236164666,0.032217010519603455,-0.004363836267216893,0.006671310505832549,0.033188630849321714
70,1791286291.1722016,0.007983398437500091,-0.013196088005514686,0.001455796185662619,0.01549163425192311,0.032760147447215046,-0.0030028753071235635,0.007362655617112324,0.03371132181641056
71,1791286291.1922016,0.05588378906250009,-0.1664773380055147,-0.1374553366268374,0.22300598986704726,0.03322539575611668,-0.002346644808159992,0.007628916931279388,0.03417066049333261
72,1791286291.2022784,0.05588378906250009,0.020334185431985317,-0.07997486787683739,0.0996617101452808,0.033509113421591456,-0.002176054446794465,0.007578622317550186,0.03442428519938452
73,1791286291.2222784,0.041513671875000095,0.08739473230698531,-0.003334242876837381,0.09681085353986162,0.034133854903058244,-0.0017266670306229936,0.007368809323718773,0.0349628485742652
74,1791286291.247127,-0.00638671874999991,-0.013196088005514686,-0.051234633501837386,0.053290848980931865,0.03485909053386245,-0.0011138016434379724,0.007045534539176586,0.035581403905575085
75,1791286291.267127,-0.06386718749999991,-0.1281570255055147,-0.07518482881433738,0.16172816486135774,0.03524987231786852,-0.0009065455220497128,0.0066347403874730025,0.03588028850523289
76,1791286291.2914772,-0.04949707031249991,-0.032356244255514685,-0.07039478975183738,0.09193646140704174,0.03544725287462129,-0.000985199035013967,0.005943749886170102,0.035955618701467046
77,1791286291.3114772,0.0654638671875001,-0.022776166130514686,-0.05602467256433739,0.08912370945314538,0.035609003595170094,-0.001122809247794097,0.005271708262277936,0.036014618499303
78,1791286291.3216128,0.0989941406250001,-0.003616009880514685,-0.03207447725183738,0.10412342434110064,0.03580369690368437,-0.001202149629213078,0.004915245208663594,0.03615950098056119
79,1791286291.3416128,0.05588378906250009,0.005964068244485316,-0.008124281939337381,0.056785314536742036,0.03636256223224821,-0.001331700916082589,0.004257070745226724,0.036635119909096577
80,1791286291.3673873,-0.0015966796874999094,-0.008406048943014685,0.04456614774816262,0.04538009001718588,0.037079694124364564,-0.0014783340786605663,0.003606540902576131,0.037283995564940726
81,1791286291.3873873,-0.03991699218749991,-0.008406048943014685,0.06372630399816262,0.07566419064125066,0.03749041987426876,-0.0016002665286242689,0.0033399117100442067,0.03767290067863758
82,1791286291.4119556,-0.04949707031249991,0.03470430261948532,0.10204661649816263,0.11860801207569602,0.037754524548835246,-0.001679125061066186,0.003366966774400516,0.03794153463078715
83,1791286291.4319556,0.007983398437500091,-0.013196088005514686,0.10204661649816263,0.10320553923111028,0.037875000633748476,-0.0017014287235512136,0.003691827012396736,0.038092520517776646
84,1791286291.441952,-0.02075683593749991,0.029914263556985315,0.08767649931066263,0.09493617821286937,0.03791660801555101,-0.00169837025458761,0.003972084550842284,0.038161906144814815
85,1791286291.461952,-0.08781738281249991,0.025124224494485318,0.11162669462316263,0.14423466411712288,0.03782450469681165,-0.0016106113438891106,0.0047476473205551074,0.03815530604700433
86,1791286291.4865372,-0.10218749999999992,0.10655488855698532,0.09725657743566263,0.17679103847803085,0.037377919560443396,-0.0012761120758863708,0.005943171204084203,0.03786896640599339
87,1791286291.5065372,-0.08302734374999991,0.1352951229319853,0.03019603056066262,0.1615862319660377,0.03679129691742877,-0.0006820408826150506,0.00696101995276036,0.037450240418650055
88,1791286291.5324154,-0.08302734374999991,0.058654497931985315,0.03977610868566262,0.10916056412463049,0.03582382553934579,0.0003477628720452669,0.008216281032796823,0.03675560758984339
89,1791286291.5524154,-0.059077148437499914,0.058654497931985315,0.049356186810662624,0.09678064254616568,0.03497511462011774,0.0012002281659393653,0.009174589461912571,0.03617833995825852
90,1791286291.5616386,-0.03991699218749991,0.025124224494485318,0.02061595243566262,0.05147436659712996,0.03457395230887828,0.0015923370051913544,0.009598636880804826,0.03591695345326825
91,1791286291.5816386,-0.08302734374999991,0.05386445886948532,-0.03207447725183738,0.10403697338187881,0.033650124932776596,0.0024335438613058685,0.010363041342465752,0.03529370580687195
92,1791286291.6071956,-0.15008789062499991,0.06344453699448532,-0.008124281939337381,0.1631489753070377,0.03219985629564115,0.0035720972711683844,0.011116266476085771,0.03425145259316717
93,1791286291.6271956,-0.11655761718749992,0.07781465418198531,-0.05602467256433739,0.1509289980945708,0.03083520149575318,0.004541326636489411,0.011521071990556414,0.0332290294579088
94,1791286291.651775,-0.1452978515624999,0.029914263556985315,-0.10392506318933739,0.18112633047611496,0.028926938331046738,0.005752396166595512,0.01164908142114609,0.031710549046368386
95,1791286291.6717749,-0.16924804687499992,-0.017986127068014685,-0.07518482881433738,0.18606762378702577,0.027135291436175865,0.006607910809835926,0.011468953104966881,0.030191479127741904
96,1791286291.6818292,-0.12134765624999992,0.06344453699448532,-0.01770436006433738,0.13807210912092446,0.026150570987146456,0.007007760117017851,0.011321936893548816,0.02934531171810846
97,1791286291.7018292,-0.06865722656249991,0.08739473230698531,0.01582591337316262,0.11225913561202452,0.024200589885048706,0.00791008755231574,0.011070542914886596,0.027763194274073866
98,1791286291.7273333,-0.02554687499999991,0.05386445886948532,0.02061595243566262,0.06307963416505838,0.021906760652536435,0.00915834531319402,0.010867756802124172,0.026113015702391357
99,1791286291.7473333,-0.03512695312499991,-0.008406048943014685,0.07809642118566262,0.08604426475185149,0.02028677853593177,0.010058569732045714,0.010880656406358845,0.02512203996998663
100,1791286291.7715073,-0.06865722656249991,0.03949434168198532,0.11162669462316263,0.13687270267164542,0.01843425143152952,0.01103982029489164,0.011237886533435788,0.02424849174119345
101,1791286291.7915072,-0.06865722656249991,0.03470430261948532,0.10204661649816263,0.12779559976103377,0.01692551816611828,0.011841167833263035,0.011809612900480526,0.023793977761322277
102,1791286291.802297,-0.059077148437499914,-0.032356244255514685,0.08767649931066263,0.11056312468993244,0.01613029059770867,0.012210541888636085,0.012225321039001476,0.023637725831545584
103,1791286291.822297,-0.01117675781249991,-0.008406048943014685,0.03977610868566262,0.04216302166834442,0.014771988881764734,0.012731365875181528,0.013071468810828692,0.023476853056642513
104,1791286291.8473155,-0.04949707031249991,0.04428438074448532,0.054146225873162625,0.08569060697503926,0.013213879243662506,0.013352471888218065,0.014147399659096956,0.023516888129724245
105,1791286291.8673155,-0.10218749999999992,0.04907441980698532,0.07330638212316262,0.13499781292905955,0.011927620558326822,0.013914550115194683,0.015069671016273259,0.023727153677388094
106,1791286291.8920538,-0.08302734374999991,0.025124224494485318,0.07330638212316262,0.11357196892991281,0.010231632171686614,0.014643173691145563,0.01631134940698334,0.024190265648033834
107,1791286291.9120538,-0.06865722656249991,-0.017986127068014685,0.03019603056066262,0.07713051139323325,0.008838634932477267,0.01515458552732841,0.017319875029650076,0.02465280919119392
108,1791286291.9365163,-0.07344726562499991,0.010754107306985316,-0.03686451631433738,0.08288030052340241,0.007129680621448916,0.01567300923342782,0.018356159776880758,0.02516791938061931
109,1791286291.9565163,-0.059077148437499914,0.03470430261948532,-0.041654555376837384,0.08018478703253645,0.005743270629854837,0.01610147101852921,0.018958538732815656,0.02552780283087365
110,1791286291.9815977,-0.11176757812499992,0.08260469324448531,-0.046444594439337385,0.14653541284815083,0.003944035729225687,0.016778864797722986,0.01943492709062526,0.025976953492501696
111,1791286292.0015976,-0.08781738281249991,0.0011740291819853155,-0.03686451631433738,0.09524843112433588,0.0024251505357701444,0.017363665228338498,0.019632856030439544,0.026321612055398964
112,1791286292.0123105,-0.08302734374999991,-0.008406048943014685,-0.01770436006433738,0.08530911929155471,0.0015963388591561621,0.01762411247860064,0.019679128333551177,0.02646555743565579
113,1791286292.0323105,-0.1309277343749999,-0.017986127068014685,0.02540599149816262,0.1345772521620278,-3.981482286891948e-05,0.017997821747056466,0.019764109177669846,0.026730940582886196
114,1791286292.0568123,-0.12134765624999992,0.0011740291819853155,0.006245835248162619,0.12151396002038403,-0.00220717676984002,0.01835608099107574,0.019910766574894274,0.027170866093008162
115,1791286292.0768123,-0.08302734374999991,-0.027566205193014687,-0.003334242876837381,0.08754743088455412,-0.004017510829038819,0.018565062306910567,0.020016888659776945,0.02759488654332216
116,1791286292.0866113,-0.11176757812499992,0.0011740291819853155,-0.003334242876837381,0.11182346372747472,-0.004914598732132624,0.018632697981150748,0.020056183217637958,0.027813327740745464
117,1791286292.1066113,-0.09260742187499992,0.015544146369485316,0.03498606962316262,0.10020868295894812,-0.0067774905860756825,0.018775114228930176,0.02017183180757938,0.028378549847146734
118,1791286292.1320958,-0.09260742187499992,0.06823457605698532,0.06372630399816262,0.1315033603269398,-0.009149188215950975,0.019089494345591308,0.020485763327055078,0.029458155720841952
119,1791286292.1520958,-0.05428710937499991,0.025124224494485318,0.06372630399816262,0.08740342511600295,-0.010951617867737606,0.019439245921112604,0.02088635631929921,0.030562429487839684
120,1791286292.1770043,-0.01596679687499991,0.010754107306985316,0.07330638212316262,0.0757919196643336,-0.012990939441390566,0.019876523632277026,0.021566426035652456,0.032077272814652
121,1791286292.1970043,-0.04470703124999991,0.06344453699448532,0.11162669462316263,0.1359575186230092,-0.014473779165243884,0.020286261835322523,0.022307970331301327,0.033446498215474386
122,1791286292.206801,-0.05428710937499991,0.07781465418198531,0.12120677274816262,0.15392625640149865,-0.015163905046245926,0.020560648780625138,0.022787790848640653,0.03423401387937405
123,1791286292.226801,-0.06386718749999991,-0.027566205193014687,0.05893626493566262,0.09117234576597308,-0.01653870543194783,0.021112162530916023,0.02389063328886415,0.03591677244741708
124,1791286292.2522538,-0.04949707031249991,-0.013196088005514686,0.02540599149816262,0.05718007618195834,-0.018242300249369004,0.02163094726789764,0.025244636392563836,0.03792058892854191
125,1791286292.2722538,-0.04470703124999991,0.020334185431985317,0.01103587431066262,0.05033873520631578,-0.019521438836489727,0.02198815121414754,0.02620363907660649,0.039385226531278024
126,1791286292.2972052,-0.09739746093749992,0.020334185431985317,0.006245835248162619,0.09969330445020556,-0.021143814539894973,0.02244304897969123,0.027252942229962957,0.041151843227150736
127,1791286292.3172052,-0.08781738281249991,0.0011740291819853155,-0.003334242876837381,0.08788849892971805,-0.022526997224512006,0.022785243245411473,0.027972223212249767,0.042533259752124165
128,1791286292.3267813,-0.08781738281249991,-0.04193632238051469,-0.022494399126837383,0.09988266041169046,-0.02321607225609214,0.02289523506601128,0.028246408689330853,0.04313974273883317
129,1791286292.3467813,-0.059077148437499914,-0.022776166130514686,-0.022494399126837383,0.06719271689095974,-0.024659697445080096,0.022993429908535732,0.028665674578860812,0.04425516236669776
130,1791286292.372271,-0.10218749999999992,0.010754107306985316,-0.027284438189337384,0.1063126358789392,-0.026531897719873437,0.023076823135803764,0.029024708822889735,0.04559512128410809
131,1791286292.392271,-0.10218749999999992,-0.061096478630514685,-0.041654555376837384,0.1261355098334364,-0.028087091357226972,0.023056927314175763,0.029160752079293584,0.046592446382546
132,1791286292.4168754,-0.10218749999999992,-0.06588651769301469,-0.051234633501837386,0.13194053978982168,-0.03009047152487617,0.02280179778378663,0.02913159976687208,0.047686565862298184
133,1791286292.4368753,-0.08302734374999991,0.010754107306985316,-0.027284438189337384,0.08805470573148591,-0.03175249880503048,0.022542821350039443,0.028993678921536415,0.048549288276847076
134,1791286292.4463322,-0.06386718749999991,-0.008406048943014685,-0.027284438189337384,0.06995798642971562,-0.032524683845386336,0.022440399590286726,0.028899542302711606,0.048955184999347034
135,1791286292.4663322,-0.12134765624999992,-0.022776166130514686,0.02540599149816262,0.1260534482867393,-0.03419061090470044,0.02220950961045958,0.02872750157357635,0.04987513947683304
136,1791286292.4924083,-0.1405078124999999,0.04428438074448532,0.05893626493566262,0.15867272946547648,-0.03654896084251616,0.02199569313643047,0.028701788768083533,0.05141429503268016
137,1791286292.5124083,-0.09739746093749992,0.10655488855698532,0.08288646024816262,0.1664643354143272,-0.03844331611695771,0.022082556761660488,0.02889775950057846,0.05292077447802111
138,1791286292.5369503,-0.059077148437499914,0.07302461511948533,0.06372630399816262,0.11350658880488657,-0.04070722044913443,0.02250370326349789,0.029372028615543253,0.055011003647073065
139,1791286292.5569503,-0.06386718749999991,0.09697481043198532,0.06372630399816262,0.1324544197780726,-0.04245981339964163,0.023050424776698192,0.029891727295585417,0.056812614770244955
140,1791286292.581643,-0.09260742187499992,0.09218477136948532,0.11162669462316263,0.17185658442803783,-0.0445888457702661,0.02397449393492116,0.030761868294034503,0.05923878853842028
141,1791286292.601643,-0.07344726562499991,0.08260469324448531,0.054146225873162625,0.12308472671339998,-0.04630368090740463,0.024872862411882166,0.031609584593993774,0.061333970916124594
142,1791286292.611802,-0.06865722656249991,0.015544146369485316,0.006245835248162619,0.07067139239860509,-0.04715234881826896,0.025335522877086916,0.03202160766954274,0.06237480321634068
143,1791286292.631802,-0.10218749999999992,-0.017986127068014685,-0.003334242876837381,0.10381186395936878,-0.04882876710504923,0.026106070785301957,0.03271544988515212,0.0643123323324091
144,1791286292.6868422,-0.10697753906249992,-0.013196088005514686,-0.003334242876837381,0.10783991736866143,-0.05361369230853735,0.02777982166929659,0.03431096314440916,0.06945062049276048
145,1791286292.7068422,-0.10697753906249992,-0.008406048943014685,-0.027284438189337384,0.11072170559564563,-0.05541252200233204,0.02826438207215806,0.034757833856160554,0.0712567884692562
146,1791286292.7016528,-0.07823730468749991,-0.032356244255514685,-0.012914321001837382,0.08564334226328232,-0.05541252200233204,0.02826438207215806,0.034757833856160554,0.0712567884692562
147,1791286292.7216527,-0.09260742187499992,-0.003616009880514685,0.02061595243566262,0.09494328627459499,-0.0572045920021192,0.02850854675921631,0.03504099701244472,0.07289015061088502
148,1791286292.732208,-0.09739746093749992,0.010754107306985316,0.06372630399816262,0.11688865660237616,-0.058158929755743036,0.028623729703848983,0.03523479293298555,0.07377851750694661
149,1791286292.752208,-0.10218749999999992,0.020334185431985317,0.049356186810662624,0.11529005781038265,-0.059995333481039324,0.028855872150424157,0.03571653816224675,0.07554980142500688
150,1791286292.777309,-0.06386718749999991,0.005964068244485316,0.02540599149816262,0.06899313120296639,-0.062267002625303366,0.029153028008225234,0.036371204860405675,0.07778138081176945
151,1791286292.797309,-0.11176757812499992,0.05386445886948532,0.07330638212316262,0.14410828258367933,-0.06406897573867072,0.0294440238724219,0.03696265589420752,0.07961169590428106
152,1791286292.822437,-0.1357177734374999,0.025124224494485318,0.03498606962316262,0.14238878379619174,-0.06645979963621841,0.02990365467203863,0.03779838286357071,0.08209659723479354
153,1791286292.842437,-0.1261376953124999,-0.022776166130514686,0.02540599149816262,0.13067109981307487,-0.06847005156148023,0.03021813174335173,0.038454366985083005,0.08414286533695987
154,1791286292.852108,-0.1309277343749999,0.010754107306985316,0.04456614774816262,0.13872225480308395,-0.06948275420718893,0.03033866720775132,0.038774739837513075,0.08515731506820856
155,1791286292.872108,-0.1309277343749999,0.029914263556985315,0.06372630399816262,0.14865388193381818,-0.0716557021620051,0.030611551279512456,0.03950034128046911,0.08736065295853583
156,1791286292.8970327,-0.10697753906249992,0.0011740291819853155,0.01582591337316262,0.10814819343143785,-0.07440224247139766,0.030958733329385053,0.04041768460483569,0.09015390220588679
157,1791286292.9170327,-0.10218749999999992,-0.022776166130514686,0.006245835248162619,0.10488112012083957,-0.07658927356248864,0.031163126432152636,0.041076468219147656,0.09232731727508765
158,1791286292.9423733,-0.10697753906249992,0.05386445886948532,0.04456614774816262,0.12779559976103336,-0.07934217762009163,0.031442337232750535,0.041882531803746334,0.09506812394513738
159,1791286292.9623733,-0.09739746093749992,0.015544146369485316,0.03498606962316262,0.1046513781615158,-0.08149555496151772,0.031733761593509616,0.042542616393879615,0.09725446680228245
160,1791286292.9712925,-0.08302734374999991,-0.05151640050551469,0.02061595243566262,0.0998623894469522,-0.08243252534573994,0.03182016786416056,0.04283002793253467,0.09819396931828916
161,1791286292.9912925,-0.09260742187499992,-0.032356244255514685,0.02540599149816262,0.10133373343887736,-0.08448183377870201,0.03185904853736471,0.043446864409488355,0.10019884849305837
162,1791286293.0167954,-0.08302734374999991,0.005964068244485316,0.03019603056066262,0.08854891406350503,-0.08703896819878491,0.03185070951567386,0.044221789177006476,0.10269282506473633
163,1791286293.0367954,-0.08781738281249991,0.029914263556985315,0.01582591337316262,0.09411278033449434,-0.08899979449965988,0.0318989682561188,0.0448073788921879,0.10462413105959183
164,1791286293.061985,-0.06865722656249991,-0.008406048943014685,-0.008124281939337381,0.06964539019286664,-0.09139459337192228,0.03199126597499686,0.0454488382916844,0.10696733005158954
165,1791286293.081985,-0.08781738281249991,-0.032356244255514685,0.01103587431066262,0.09423698736780811,-0.09324550700121843,0.03199241248096169,0.04588611381600834,0.10873718073134847
166,1791286293.0925338,-0.1357177734374999,-0.032356244255514685,0.02540599149816262,0.14181574303708244,-0.09425217173470427,0.03194172841088495,0.04611098710189883,0.10968121544774384
167,1791286293.1125338,-0.18361816406249992,-0.017986127068014685,0.049356186810662624,0.19098472220855506,-0.09635346733372159,0.031784534932309184,0.04658552516333329,0.11164433923328713
168,1791286293.1375716,-0.15487792968749992,0.04428438074448532,0.049356186810662624,0.16847644541210424,-0.09922510762713412,0.03166664811409446,0.04727584927955963,0.11438271071932973
169,1791286293.1575716,-0.06386718749999991,0.020334185431985317,0.01582591337316262,0.06886912421715087,-0.10150299316823007,0.03168353382411112,0.0478423342423174,0.1166001410095501
170,1791286293.1816518,-0.10218749999999992,0.0011740291819853155,0.01582591337316262,0.1034123930429278,-0.1041341084302223,0.031739659156245256,0.04847924601820033,0.11917028067603563
171,1791286293.2016518,-0.15008789062499991,0.025124224494485318,0.07330638212316262,0.1689124839338359,-0.10637001298336962,0.03181872937210727,0.04906258576014755,0.12138430097178736
172,1791286293.2122126,-0.09739746093749992,0.04428438074448532,0.08767649931066263,0.13832765560930682,-0.10756958160201655,0.03190919416701244,0.04945191501280217,0.12261689710987798
173,1791286293.2322125,-0.01596679687499991,0.03949434168198532,0.054146225873162625,0.0688952494998636,-0.10967061238853151,0.03218048624904938,0.05029136483933918,0.1248697252912182
174,1791286293.2572477,-0.04470703124999991,-0.008406048943014685,0.06851634306066262,0.08224274781661443,-0.1120200211211786,0.03252751204491436,0.05141485053219956,0.1274755310915384
175,1791286293.2772477,-0.1261376953124999,-0.013196088005514686,0.08288646024816262,0.15150914233097815,-0.11387164176696804,0.03273075493510621,0.05240485164649329,0.12955431908438117
176,1791286293.3016198,-0.1261376953124999,-0.008406048943014685,0.07809642118566262,0.14859485468746836,-0.11625071480617469,0.032901790315428586,0.05372457174744004,0.13222362159747714
177,1791286293.3216197,-0.10218749999999992,-0.022776166130514686,0.05893626493566262,0.12014375649371632,-0.11825264900540094,0.03297431732724584,0.05485064936375587,0.13446035971846182
178,1791286293.3466804,-0.1309277343749999,-0.017986127068014685,0.07809642118566262,0.15350773074176335,-0.12082301818664724,0.03297494958127353,0.05630757040893463,0.13731748435277846
179,1791286293.3666804,-0.20277832031249993,0.025124224494485318,0.16431712431066262,0.26220295800569043,-0.12306719589062433,0.032986085608976236,0.057659497966373825,0.1398507570730966
180,1791286293.3772697,-0.25067871093749994,0.10176484949448532,0.24095774931066263,0.3622934413742292,-0.1244373207275143,0.03309187292676035,0.058589800789399564,0.14146548554394686
181,1791286293.3972697,-0.22672851562499993,0.1257150448069853,0.2601179055606626,0.3672484405434609,-0.12735300643901457,0.033602921637862264,0.06083490618624128,0.14508215052977666
182,1791286293.4220417,-0.21714843749999993,0.16882539636948532,0.26490794462316264,0.381879139902239,-0.13124734023642812,0.03468818291033175,0.06417401378126512,0.15015804473139413
183,1791286293.4420416,-0.2410986328124999,0.2646261776194853,0.2792780618106626,0.45403942607914166,-0.13460723568843708,0.03608313104938693,0.06728178798225688,0.15475121724916754
184,1791286293.4662871,-0.23630859374999993,0.3747970760569853,0.30322825712316265,0.536900340490597,-0.1389375120296304,0.03868326936000561,0.0715433833312579,0.1609921838967524
185,1791286293.486287,-0.21714843749999993,0.3843771541819853,0.33196849149816265,0.5523606791882445,-0.14265391502527752,0.041645143520764524,0.07548423925410114,0.16668031625442326
186,1791286293.4967387,-0.22193847656249993,0.4035373104319853,0.33196849149816265,0.5677165909475691,-0.1446488953133464,0.04357840277875447,0.07775517209839694,0.16990658283942423
187,1791286293.5167387,-0.22193847656249993,0.44664766199448536,0.38465892118566264,0.6298518135178632,-0.14855964655394654,0.04799822308667337,0.08252389944254945,0.1765898977374289
188,1791286293.5417554,-0.22672851562499993,0.5184982479319853,0.3894489602481626,0.6869619680480349,-0.1535594288553649,0.054508303072189186,0.0890465056084489,0.18569042370373068
189,1791286293.5617554,-0.20277832031249993,0.48496797449448537,0.37986888212316267,0.6485471078337671,-0.15760125613567955,0.06043738100443215,0.09463287338520153,0.1935102418048165
190,1791286293.5871232,-0.18840820312499992,0.4418576229319853,0.36070872587316266,0.600705081440915,-0.16270313450431295,0.06859305695122317,0.10206471153751602,0.20394735296315725
191,1791286293.6071231,-0.20756835937499993,0.41790742761948535,0.35591868681066263,0.5868639991464727,-0.1667160813333668,0.07534816361295144,0.10812003789980305,0.212512447001235
192,1791286293.6170192,-0.18361816406249992,0.48975801355698534,0.34633860868566263,0.6273188773528882,-0.16869419474613892,0.07886291256609868,0.11118801724403668,0.21688675731384932
193,1791286293.6370192,-0.15966796874999992,0.6478293026194853,0.28406810087316264,0.7251698776913483,-0.17260723987999985,0.08660712880996839,0.11740397690118203,0.22600386680743217
194,1791286293.6616337,-0.1405078124999999,0.6765695369944853,0.18826731962316262,0.716193666127087,-0.17725490833696586,0.09715347420910724,0.1247785937536011,0.23754535890977127
195,1791286293.6816337,-0.04949707031249991,0.7340500057444853,0.08288646024816262,0.7403712151316187,-0.18074981425469455,0.10655320465162936,0.13027858197461079,0.24697487664933446
196,1791286293.7222064,-0.04949707031249991,0.6957296932444853,0.01582591337316262,0.6976677042587546,-0.18707745082013316,0.12711227191864494,0.14006280271903304,0.2660321239684968
197,1791286293.7422063,-0.03033691406249991,0.5855587948069854,0.01582591337316262,0.5865576613298471,-0.18984848861697767,0.13764847544023862,0.1442098800598931,0.2752926459752629
198,1791286293.7522583,-0.03033691406249991,0.7053097713694854,-0.022494399126837383,0.7063201823084122,-0.19107804260824995,0.14312281837882282,0.14597652126299251,0.27982870522471887
199,1791286293.7722583,0.03193359375000009,0.7675802791819853,-0.01770436006433738,0.7684482310241675,-0.1931550814563069,0.15459041424427838,0.14890398424925444,0.28875504877648867
200,1791286293.7967806,0.06067382812500009,0.7244699276194854,-0.012914321001837382,0.7271208765612929,-0.1951494480800311,0.16928606867765478,0.15189867001400792,0.29969031697120424
201,1791286293.8167806,-0.0015966796874999094,0.5951388729319853,0.02061595243566262,0.5954979806478,-0.19644341865932047,0.18145318020299428,0.15398627567658657,0.30858879830137564
202,1791286293.8276038,-0.12134765624999992,0.5472384823069854,-0.051234633501837386,0.5628678333899428,-0.19713842961206815,0.18797722992554505,0.1549216958680309,0.31336836351332636
203,1791286293.8476038,-0.059077148437499914,0.4131173885569853,-0.09913502412683739,0.42893337385225483,-0.19850071418336424,0.19966503017397205,0.15616539790677741,0.3219569681014234
204,1791286293.8571544,-0.03033691406249991,0.2837863338694853,-0.09913502412683739,0.30213037691458156,-0.19911771170026976,0.20490829163635232,0.15652819673852558,0.3257857385894827
205,1791286293.8771544,-0.03033691406249991,0.30773652918198535,-0.051234633501837386,0.3134439143098459,-0.2003069757793899,0.2151285621629421,0.15694842311974247,0.3332206331005835
206,1791286293.9017258,-0.1309277343749999,0.2837863338694853,-0.03686451631433738,0.3146994558030623,-0.20184609554695482,0.22689154228586583,0.15722490568702693,0.34196679548854414
207,1791286293.9217257,0.1564746093750001,0.10176484949448532,-0.012914321001837382,0.18710202473151544,-0.20287263079883475,0.23560820489597492,0.15734152475379826,0.34846073803714833
208,1791286293.9475236,0.1516845703125001,-0.09941679113051469,-0.051234633501837386,0.18845926588959158,-0.20340189552973084,0.24516977894291936,0.1573452691425585,0.355299993433087
209,1791286293.9675236,0.1516845703125001,-0.1568972598805147,-0.1470354147518374,0.26314325417944195,-0.20329561139284952,0.2510860907404258,0.1570503317905566,0.3592187874964584
210,1791286293.9925961,0.11815429687500009,-0.3580789005055147,-0.07997486787683739,0.38545676326817974,-0.20267493992948574,0.2564220430693587,0.15630917092459756,0.36230091410651966
211,1791286294.0125961,0.1756347656250001,-0.4011892520680147,-0.08955494600183739,0.44701283563722616,-0.20181342223955,0.2589010832220238,0.15555234637515067,0.36325605397899574
212,1791286294.0221388,0.3001757812500001,-0.4203494083180147,-0.1135051413143374,0.5288502073622933,-0.20112348163952593,0.25931851836625686,0.15510007393912245,0.36297766015334426
213,1791286294.0421388,0.2331152343750001,-0.39639921300551473,-0.12308521943933738,0.4760514886160241,-0.19909444147927774,0.25883704231988564,0.15393948163504148,0.36101603165360546
214,1791286294.0669248,0.27622558593750013,-0.4538796817555147,-0.1470354147518374,0.5512955224090319,-0.19601019983498777,0.256749226990598,0.1522147662943775,0.3570847225486879
215,1791286294.0869248,0.2570654296875001,-0.6359011661305147,-0.17098561006433738,0.7068868417757125,-0.19309487363207664,0.2536825862772731,0.15055480379224276,0.35257230995674416
216,1791286294.1121767,0.3097558593750001,-0.7125417911305147,-0.2715764303768374,0.8230542230381009,-0.18889263297604655,0.2478376487001655,0.1479351594528147,0.34494744282017775
217,1791286294.1321766,0.2714355468750001,-0.6550613223805147,-0.3146867819393374,0.7757643733206463,-0.18519182706213225,0.2418513349400045,0.14529217650176843,0.33748762581092356
218,1791286294.142119,0.3001757812500001,-0.6885915958180148,-0.2572063131893374,0.793989277650964,-0.1832018248782617,0.23831990651387439,0.14374894504407928,0.33320120900259775
219,1791286294.162119,0.3193359375000001,-0.8418728458180147,-0.2811565085018374,0.9432784911030626,-0.17886992216523495,0.2299859445121421,0.1403026833986414,0.3233772204367505
220,1791286294.186745,0.2522753906250001,-0.8370828067555147,-0.3721672506893374,0.9501889078316726,-0.17328038548838848,0.21816261477250204,0.13548914572437679,0.3098036912118722
221,1791286294.206745,0.2474853515625001,-0.7700222598805148,-0.3865373678768374,0.8964342790827796,-0.16867214163154157,0.20759000550974796,0.13102817884446463,0.2978460766929875
222,1791286294.2326365,0.3432861328125001,-0.8275027286305148,-0.3338469381893374,0.9560648058634436,-0.16245406991563188,0.19285381610409155,0.12472047878680562,0.28131675571653
223,1791286294.2526364,0.5253076171875001,-0.9472537051930148,-0.3961174460018374,1.1533198627025039,-0.15706849142235477,0.18051613138196046,0.11948399556971069,0.26745655700338733
224,1791286294.261749,0.41513671875000013,-1.1580154239430147,-0.4967082663143374,1.3266715189410796,-0.15433999203891444,0.17429908714847525,0.11684578335558213,0.2604878922547909
225,1791286294.281749,0.2235351562500001,-1.2873464786305147,-0.3146867819393374,1.3439704955278722,-0.14829183929384782,0.15903285500121497,0.11070698112197515,0.24400400455757118
226,1791286294.3077023,0.1995849609375001,-1.2059158145680147,-0.18535572725183738,1.2362944042915989,-0.1407970280349833,0.13734082923217997,0.10296245282458862,0.22200804753279177
227,1791286294.3277023,0.39597656250000013,-1.3017165958180148,-0.3338469381893374,1.4009701324495654,-0.1349944186085464,0.11937062508521845,0.0971108113641715,0.20470307489752798
228,1791286294.351728,0.3911865234375001,-1.4693679630055148,-0.5302385397518374,1.6103484144321856,-0.12765100916166017,0.09602809868710521,0.08957872723390527,0.18314072253405866
229,1791286294.371728,0.28580566406250013,-1.5986990176930147,-0.5829289694393374,1.7254940191708648,-0.12143950456082324,0.07490940066574076,0.0825794586736626,0.1648585410917913
230,1791286294.3814914,0.2283251953125001,-1.5555886661305147,-0.4392277975643374,1.6324550686501063,-0.11848557356771706,0.06383647193029725,0.07892663886393946,0.15602352583677
231,1791286294.4014914,0.3193359375000001,-1.5891189395680148,-0.4440178366268374,1.6806029526082455,-0.11252075435727563,0.03983944273838697,0.07124155150631663,0.1390088487106585
232,1791286294.4570324,0.1612646484375001,-1.7567703067555147,-0.4823381491268374,1.8289063091467095,-0.09643884098224752,-0.030743020252587537,0.04924212254640396,0.11256273796032726
233,1791286294.4770324,0.0894140625000001,-1.9723220645680148,-0.3721672506893374,2.0091186285135705,-0.09114047623220474,-0.05794051178689806,0.041226787297729495,0.11559990183755772
234,1791286294.471759,0.2522753906250001,-2.120813275505515,-0.3242668600643374,2.16024091684502,-0.09114047623220474,-0.05794051178689806,0.041226787297729495,0.11559990183755772
235,1791286294.491759,0.2235351562500001,-2.197453900505515,-0.3817473288143374,2.2415402369762396,-0.08616303892337648,-0.08928683658873146,0.03348873466281308,0.12852121931358426
236,1791286294.5165162,0.10857421875000009,-2.3651052676930147,-0.3913274069393374,2.3997184059110532,-0.08030922416813534,-0.13074050063752515,0.02391147806674624,0.1552881475733902
237,1791286294.5365162,0.1421044921875001,-2.3315749942555146,-0.5206584616268374,2.393223949863676,-0.07591356895539778,-0.16625049137279643,0.01596708819169862,0.18345856136622155
238,1791286294.5618167,0.1564746093750001,-2.2261941348805148,-0.6068791647518375,2.312731491151826,-0.07062047714973654,-0.21308194289157278,0.005285159912406212,0.22454197624186809
239,1791286294.5818167,0.0654638671875001,-2.2788845645680147,-0.5829289694393374,2.353169471148455,-0.06673102086973597,-0.2513066729001109,-0.003676981374188891,0.26004152203535996
240,1791286294.5914965,0.0798339843750001,-2.317204877068015,-0.4248576803768374,2.3571839037173508,-0.06502544703209612,-0.27036869770347594,-0.008095569031762229,0.2781961173301049
241,1791286294.6114964,-0.03033691406249991,-2.326784955193015,-0.3817473288143374,2.3580881194570056,-0.06195581475106359,-0.31081205168929654,-0.017065549224369043,0.3173860227343155
242,1791286294.6215487,-0.059077148437499914,-2.221404095818015,-0.5302385397518374,2.2845741781397075,-0.060711819893326635,-0.3315191736521364,-0.02158525604588285,0.3377229794555316
243,1791286294.6415486,-0.08302734374999991,-2.1926638614430147,-0.4296477194393374,2.2359037349375748,-0.058821169926245614,-0.3731595280381464,-0.030668675624206287,0.3790099353073574
244,1791286294.6672664,-0.09260742187499992,-2.068122845818015,-0.3003166647518374,2.0918647994333686,-0.05709345008258105,-0.42689096878171684,-0.04200487406335131,0.4327354511879087
245,1791286294.6872663,-0.01596679687499991,-2.0920730411305146,-0.2859465475643374,2.111584707297221,-0.05611425076678481,-0.4686489105757431,-0.05037774239076268,0.47467728769274237
246,1791286294.7118814,-0.03512695312499991,-2.0729128848805147,-0.3434270163143374,2.101462311504556,-0.05518419624975199,-0.5200226887360474,-0.06029884445009098,0.5264074875588449
247,1791286294.7318814,0.0702539062500001,-2.077702923943015,-0.3434270163143374,2.1070660091794244,-0.05448917883377454,-0.5617290714492761,-0.06818097241170426,0.5684692298799036
248,1791286294.7571485,0.05109375000000009,-2.163923627068015,-0.3530070944393374,2.193123353529564,-0.053512873767037006,-0.6145536569343094,-0.07796499202464718,0.6217864302890045
249,1791286294.7771485,-0.10218749999999992,-2.154343548943015,-0.3577971335018374,2.186242713142977,-0.05293264612173519,-0.6565719817263008,-0.08561398744640343,0.6642427169792106
250,1791286294.7866952,-0.1309277343749999,-2.077702923943015,-0.3098967428768374,2.1047630515180558,-0.05286413806201247,-0.6766505676883187,-0.08919554542422256,0.6845483570716447
251,1791286294.8066952,-0.03512695312499991,-2.197453900505515,-0.3913274069393374,2.2323025527702587,-0.05299122702236398,-0.7188173905785816,-0.09662508871856713,0.7272158681639228
252,1791286294.832203,0.0702539062500001,-2.4321658145680147,-0.3721672506893374,2.4614781379046082,-0.05306180078897612,-0.7733863243293381,-0.1061399154324516,0.7824369898021317
253,1791286294.852203,-0.02075683593749991,-2.3986355411305147,-0.3721672506893374,2.4274249252856976,-0.053034590205645174,-0.8170008084979874,-0.11359771591002141,0.8265636272572243
254,1791286294.8767881,-0.09739746093749992,-2.216614056755515,-0.3242668600643374,2.242323156580959,-0.05322402251802729,-0.8710824777035434,-0.12267432804334705,0.8812868263488514
255,1791286294.8967881,-0.11176757812499992,-2.144763470818015,-0.3098967428768374,2.1699166639576135,-0.05366875671579915,-0.9150204401932145,-0.12990178603001717,0.9257522430070543
256,1791286294.9067392,-0.11176757812499992,-2.221404095818015,-0.26199635225183737,2.239591533523524,-0.05402367673505637,-0.9368614228218985,-0.13338526565821937,0.9478499418761178
257,1791286294.9267392,-0.15008789062499991,-2.183083783318015,-0.11829518037683738,2.191432164042215,-0.05502278707389887,-0.9807801845772056,-0.13990670380942452,0.9922354374479352
258,1791286294.9518125,-0.18840820312499992,-1.9771121036305148,-0.10392506318933739,1.9887861473989552,-0.05672399567357319,-1.035403947395971,-0.14727393601905384,1.0473626679421406
259,1791286294.9718125,-0.17403808593749992,-1.8334109317555147,-0.2380461569393374,1.856973578937245,-0.058421103916439156,-1.078155276563595,-0.15278196196464036,1.0904926197212443
260,1791286294.9971848,-0.06386718749999991,-1.8765212833180147,-0.3290568991268374,1.9062239079519538,-0.0607038483971232,-1.1313146952234847,-0.1598005412864698,1.1441565058305074
261,1791286295.0171847,-0.11655761718749992,-2.0058523380055147,-0.2284660788143374,2.0221834805910706,-0.06250397498588088,-1.1727562444884816,-0.16533942940844887,1.1860021428281124
262,1791286295.0267344,-0.22193847656249993,-2.044172650505515,-0.2428361960018374,2.0704752909760282,-0.06347701094231853,-1.1924763904174656,-0.16792499453350881,1.2059137931089094
263,1791286295.0467343,-0.22672851562499993,-1.9627419864430147,-0.2955266256893374,1.997773238291852,-0.065882184357096,-1.2335920529206967,-0.17333529449135907,1.2474513776340814
264,1791286295.07189,-0.23151855468749993,-1.9771121036305148,-0.2715764303768374,2.0090611909603684,-0.0693181749291799,-1.284982961881758,-0.18018950812953705,1.2994054334740535
265,1791286295.09189,-0.19798828124999993,-2.101653119255515,-0.2907365866268374,2.130885486362932,-0.07228443681829831,-1.3258304792141895,-0.1856649742771182,1.3407173386261508
266,1791286295.1173701,-0.1452978515624999,-2.221404095818015,-0.2476262350643374,2.239880884082426,-0.07615262953421319,-1.3783257261165034,-0.19262318230503522,1.3938022530548873
267,1791286295.13737,-0.1405078124999999,-2.096863080193015,-0.1470354147518374,2.106702787685372,-0.07916215123826911,-1.419827344668534,-0.19785761044986103,1.435731161767446
268,1791286295.147256,-0.10697753906249992,-1.9675320255055149,-0.19493580537683738,1.980057179343975,-0.08061008499351652,-1.440277580963157,-0.20031038565705522,1.456372804823622
269,1791286295.1672559,-0.16924804687499992,-2.0154324161305146,-0.2859465475643374,2.042639996040577,-0.08351434593077545,-1.481419040149503,-0.20524959572304527,1.4979000016817525
270,1791286295.191733,-0.15966796874999992,-1.9675320255055149,-0.2476262350643374,1.9894710060532983,-0.08713938813770214,-1.5315292463606578,-0.21136724585244332,1.5484996667879218
271,1791286295.2117329,-0.15008789062499991,-1.9579519473805147,-0.18535572725183738,1.9724246370364746,-0.09012171753080636,-1.5722204457867333,-0.21626560209827161,1.5895816634484259
272,1791286295.2371771,-0.17882812499999992,-2.0058523380055147,-0.2332561178768374,2.027271939503968,-0.09397443333354297,-1.6237874033294946,-0.22236144411663838,1.6416337402604577
273,1791286295.257177,-0.16924804687499992,-2.0154324161305146,-0.2236760397518374,2.034857168481304,-0.09707064759992777,-1.664272561937684,-0.22711963368058,1.6825008763882687
274,1791286295.281438,-0.2410986328124999,-1.9292117130055149,-0.2236760397518374,1.9570430130941923,-0.10100979015096023,-1.7131941164990796,-0.2328397620672046,1.731892436992816
275,1791286295.301438,-0.2650488281249999,-2.0824929630055147,-0.2715764303768374,2.116785671671591,-0.10452921694342653,-1.7534916113369419,-0.23759080538129734,1.77259938480909
276,1791286295.3116524,-0.23151855468749993,-2.2118240176930146,-0.3194768210018374,2.246738027800682,-0.10643744083699017,-1.7742748995103723,-0.2401060687969219,1.793608450057476
277,1791286295.3316524,-0.19798828124999993,-2.1591335880055147,-0.3338469381893374,2.193743601359168,-0.11025760914333126,-1.815421518615352,-0.24527227447237915,1.8352303722558998
278,1791286295.3573923,-0.23630859374999993,-2.0729128848805147,-0.3194768210018374,2.1106574849892628,-0.11527507847376779,-1.868603681594964,-0.2521850674287596,1.8890646814816678
279,1791286295.3773923,-0.30815917968749995,-2.077702923943015,-0.3242668600643374,2.1253142159979572,-0.11940557894393641,-1.909953885781081,-0.25771625262856374,1.9309581054393947
280,1791286295.402249,-0.2650488281249999,-2.101653119255515,-0.2763664694393374,2.1362525928356964,-0.12483771165747211,-1.961428280356316,-0.26467921799872945,1.983139037403537
281,1791286295.422249,-0.18840820312499992,-2.001062298943015,-0.17098561006433738,2.0171722916263173,-0.12923302265834585,-2.0027865440123556,-0.2701123335496874,2.02504710754047
282,1791286295.4314606,-0.2410986328124999,-2.020222455193015,-0.2188860006893374,2.0462987075468533,-0.13125047808459933,-2.0217560920634057,-0.27250869733320904,2.0442566800466064
283,1791286295.4514606,-0.22672851562499993,-2.044172650505515,-0.3338469381893374,2.0836269874933597,-0.13567545102972278,-2.0628611575711817,-0.2777603077660558,2.085894237970451
284,1791286295.477219,-0.22193847656249993,-2.063332806755515,-0.3146867819393374,2.098958486854804,-0.14138640917085404,-2.1157956542078287,-0.2847623370709828,2.1395492412368284
285,1791286295.497219,-0.2746289062499999,-2.025012494255515,-0.2140959616268374,2.0547344643101537,-0.1459003523570684,-2.156863640603838,-0.29017667867222346,2.181180914509844
286,1791286295.5218937,-0.22672851562499993,-2.0489626895680146,-0.2859465475643374,2.081206225029916,-0.15156181785922002,-2.2074698563737574,-0.2967799350214587,2.2324812387258506
287,1791286295.5418937,-0.21235839843749993,-2.1064431583180148,-0.3721672506893374,2.1495830598275036,-0.1561210016575075,-2.2485688927780343,-0.30231652017549593,2.2741660254032907
288,1791286295.5521038,-0.23151855468749993,-2.096863080193015,-0.2284660788143374,2.121940707797917,-0.15843925460436536,-2.2696215676793496,-0.30517893058963036,2.29552156111649
289,1791286295.5721037,-0.2410986328124999,-2.025012494255515,-0.17577564912683738,2.046875968753593,-0.16300813257930272,-2.3108576392898774,-0.31055128214184785,2.3373225663547856
290,1791286295.5974915,-0.29857910156249995,-2.0393826114430147,-0.2093059225643374,2.071723892068272,-0.168965455917336,-2.363089519764647,-0.3170811743854304,2.3902472413674083
291,1791286295.6174915,-0.2937890624999999,-2.2118240176930146,-0.2763664694393374,2.2483006747138297,-0.17384311010804773,-2.404441484183284,-0.3221821848108253,2.4321516478219505
292,1791286295.6416516,-0.28899902343749995,-2.221404095818015,-0.3003166647518374,2.2601651912177902,-0.17990753904558976,-2.454935037706965,-0.3284648953018152,2.4833368578210187
293,1791286295.6616516,-0.3847998046874999,-2.120813275505515,-0.3530070944393374,2.1841551794624103,-0.18518539557762756,-2.496977512299034,-0.33386563033324734,2.5259961573169765
294,1791286295.6724946,-0.36084960937499994,-2.025012494255515,-0.3577971335018374,2.087799518923971,-0.18822397087839354,-2.5197234292843613,-0.33693249460381053,2.54910924230754
295,1791286295.6924946,-0.2650488281249999,-2.044172650505515,-0.3098967428768374,2.08444925522567,-0.19392677107995462,-2.5614888118886485,-0.34274234004977794,2.591583461444955
296,1791286295.7167106,-0.3225292968749999,-2.0393826114430147,-0.2332561178768374,2.0778630849326394,-0.20086312583660249,-2.611889370589185,-0.3497081784940874,2.642840874820743
297,1791286295.7367105,-0.38000976562499994,-1.9914822208180147,-0.19972584443933739,2.037228330536768,-0.2067863679659085,-2.653317678996623,-0.35524778338991,2.684968583662759
298,1791286295.7618203,-0.3273193359374999,-1.9962722598805147,-0.2045158835018374,2.033240671895868,-0.21443951670706238,-2.705038436762331,-0.36192074343935765,2.737554360230834
299,1791286295.7818203,-0.2410986328124999,-2.034592572380515,-0.2572063131893374,2.0649093379309584,-0.2204735290299087,-2.7461010631829392,-0.36713109832272073,2.779292152612427
300,1791286295.7924411,-0.3033691406249999,-2.0393826114430147,-0.3098967428768374,2.084982077281566,-0.22363089914009077,-2.7678813256277053,-0.36993471156879315,2.801433472819277
301,1791286295.812441,-0.23630859374999993,-2.0298025333180147,-0.3386369772518374,2.071379993653167,-0.22949418462199006,-2.8088471585184074,-0.37539504833140513,2.843098904893036
302,1791286295.8369834,-0.11655761718749992,-2.0489626895680146,-0.2811565085018374,2.07144460790994,-0.23625939705155705,-2.8590842549509867,-0.382231291391117,2.8941807199486225
303,1791286295.8569834,-0.07344726562499991,-2.139973431755515,-0.2380461569393374,2.1544249261185344,-0.2412305318545269,-2.9001658881038503,-0.387745423898248,2.9358986463728693
304,1791286295.8816724,-0.17403808593749992,-2.111233197380515,-0.2811565085018374,2.136970718412231,-0.24690491462601127,-2.9511439365809493,-0.39449269558237293,2.9876139406142865
305,1791286295.9016724,-0.21235839843749993,-2.0729128848805147,-0.2907365866268374,2.103946691457277,-0.25139169721729104,-2.9925219129547744,-0.3999964779104894,3.029584520571276
306,1791286295.9122374,-0.18361816406249992,-2.163923627068015,-0.2811565085018374,2.1898242112621324,-0.25372009190105604,-3.0144584108561183,-0.4029209128840745,3.051832016650787
307,1791286295.9322374,-0.15008789062499991,-2.2022439395680147,-0.2955266256893374,2.2270475367103497,-0.2579672205636224,-3.0563052052913258,-0.40849158249337797,3.0942549939757904
308,1791286295.9568112,-0.27941894531249994,-2.163923627068015,-0.2763664694393374,2.199322358412497,-0.2631944653911923,-3.1080564799968906,-0.4153635399926879,3.1467146803958057
309,1791286295.9768112,-0.28899902343749995,-2.111233197380515,-0.2715764303768374,2.1481573049489664,-0.2676632626834611,-3.150270376435826,-0.42093942535219964,3.189519880272784
310,1791286296.0024204,-0.25067871093749994,-2.0585427676930146,-0.2140959616268374,2.0847722233672012,-0.2735636323377593,-3.2042246077421415,-0.42794101568122045,3.244229632855909
311,1791286296.0224204,-0.3225292968749999,-2.063332806755515,-0.2428361960018374,2.102459711115748,-0.27834023802827684,-3.246223414669848,-0.43327422214552275,3.286817046571381
312,1791286296.0324712,-0.3368994140624999,-2.063332806755515,-0.3098967428768374,2.1134993441860632,-0.2808776873810514,-3.267274266703148,-0.4359690000021073,3.308178105557795
313,1791286296.0524712,-0.15966796874999992,-2.053752728630515,-0.3194768210018374,2.08457659244257,-0.28591440616094677,-3.309055520761427,-0.44147103494304074,3.3505957920682894
314,1791286296.077473,-0.1405078124999999,-2.044172650505515,-0.3338469381893374,2.0760149442108244,-0.29182917194483554,-3.3611354307391434,-0.44854243369819335,3.4034667567343617
315,1791286296.097473,-0.21714843749999993,-2.0393826114430147,-0.3338469381893374,2.0779048721977667,-0.29638740888277815,-3.402672563723189,-0.4543521808010117,3.445643913154321
316,1791286296.1222882,-0.2458886718749999,-2.068122845818015,-0.2907365866268374,2.1028839975505735,-0.3020565443424523,-3.454124470176106,-0.46164188610430384,3.4979032637360636
317,1791286296.1422882,-0.21714843749999993,-2.053752728630515,-0.2572063131893374,2.0811556409385696,-0.3066347972832287,-3.4955549206859104,-0.4674576851866636,3.539978218842099
318,1791286296.1824813,-0.11176757812499992,-2.068122845818015,-0.26199635225183737,2.0876460872254192,-0.31544691470414415,-3.5787520456505,-0.4789574037949533,3.6244134911588115
319,1791286296.2024813,-0.10697753906249992,-2.068122845818015,-0.3051067038143374,2.0932430341388275,-0.3195021873367004,-3.620145295109831,-0.48467195517193096,3.6663933926338244
320,1791286296.197201,-0.09260742187499992,-2.096863080193015,-0.3194768210018374,2.1230818050231393,-0.3195021873367004,-3.620145295109831,-0.48467195517193096,3.6663933926338244
321,1791286296.217201,-0.11176757812499992,-2.0920730411305146,-0.3194768210018374,2.119275121380527,-0.3229931546038745,-3.6616456680251748,-0.4905554913254601,3.7084522736794194
322,1791286296.2418752,-0.18361816406249992,-2.1256033145680147,-0.3003166647518374,2.1545521994613823,-0.32720059976119203,-3.712970257593873,-0.49787224935122115,3.760463421299938
323,1791286296.2618752,-0.20277832031249993,-2.1064431583180148,-0.3194768210018374,2.1401605700439794,-0.3306790342476625,-3.7546798729056428,-0.5038430295048623,3.802739455980956
324,1791286296.2878962,-0.1405078124999999,-2.139973431755515,-0.3482170553768374,2.1726674507729724,-0.3351957618074724,-3.809093475888768,-0.5117491326010964,3.8579057118480797
325,1791286296.3078961,-0.10697753906249992,-2.120813275505515,-0.2955266256893374,2.143975076794417,-0.3385178477991828,-3.8510340229062874,-0.5178799447433293,3.9004175438057564
326,1791286296.3170125,-0.15008789062499991,-2.0824929630055147,-0.2476262350643374,2.102527542785561,-0.33998074642287013,-3.8701577276116144,-0.5206266850634722,3.9197907966791194
327,1791286296.3370125,-0.20277832031249993,-2.044172650505515,-0.2476262350643374,2.0690769982182005,-0.34323801047378477,-3.912008975691952,-0.5264915940699866,3.9621736403588814
328,1791286296.3623457,-0.19319824218749992,-2.034592572380515,-0.26199635225183737,2.0604695059533324,-0.3474973288016948,-3.964818167788705,-0.5337743869683833,4.015650955117385
329,1791286296.3823457,-0.1405078124999999,-2.0585427676930146,-0.2955266256893374,2.084388821282171,-0.3508561303188474,-4.006395812381249,-0.539497835574119,4.057753731344164
330,1791286296.4075043,-0.15487792968749992,-2.0824929630055147,-0.3482170553768374,2.117077993775168,-0.35500486944743337,-4.05866614672556,-0.5468322739386972,4.1106963988755565
331,1791286296.4275043,-0.15966796874999992,-2.053752728630515,-0.3530070944393374,2.0899780236467893,-0.3582800384033901,-4.100190173085592,-0.5528400731885653,4.152776924891238
332,1791286296.4365513,-0.15487792968749992,-2.077702923943015,-0.3290568991268374,2.1092925487301684,-0.35975276624762215,-4.118959433732702,-0.5556128662793199,4.171804708604365
333,1791286296.4565513,-0.09739746093749992,-2.120813275505515,-0.3194768210018374,2.1469514792176705,-0.36289853418139606,-4.160525912004422,-0.5617959316522594,4.213939472677825
334,1791286296.4816763,-0.08781738281249991,-2.1064431583180148,-0.2380461569393374,2.1216693061790752,-0.3666066458688331,-4.212876951394191,-0.5694488829374185,4.2669666826285715
335,1791286296.5016763,-0.03033691406249991,-2.087283002068015,-0.2332561178768374,2.1004949596711424,-0.3692928431778483,-4.2545890619999716,-0.5753339415263515,4.309166327119947
336,1791286296.5270867,-0.059077148437499914,-2.139973431755515,-0.3051067038143374,2.1624214433822635,-0.37236418843172125,-4.307692014596451,-0.5827154746203936,4.362845734816498
337,1791286296.5470867,-0.1357177734374999,-2.1495535098805147,-0.3051067038143374,2.175336688096563,-0.3747111609126067,-4.349653045598421,-0.5885691606324657,4.405258644852048
338,1791286296.556636,-0.1357177734374999,-2.077702923943015,-0.2572063131893374,2.097957063843929,-0.3758580804444308,-4.369710464109537,-0.5913476038250356,4.425531699732064
339,1791286296.576636,-0.17882812499999992,-2.0298025333180147,-0.26199635225183737,2.0544390745769303,-0.37837166645178294,-4.411578308131575,-0.5970726436371379,4.467850045439125
340,1791286296.6016026,-0.21235839843749993,-2.053752728630515,-0.2715764303768374,2.0824865227128,-0.381771264337068,-4.463649686453627,-0.6041464554363953,4.5204989504774185
341,1791286296.6216025,-0.26025878906249994,-2.053752728630515,-0.25241627412683737,2.085509262287185,-0.38479501767427116,-4.505266984063255,-0.609749089656879,4.562597040683601
342,1791286296.6465733,-0.22193847656249993,-1.9771121036305148,-0.2955266256893374,2.0113589794446165,-0.3889070650788918,-4.556982739418859,-0.6167211258505589,4.614941531558126
343,1791286296.6665733,-0.18840820312499992,-1.9531619083180147,-0.3194768210018374,1.9880655246411523,-0.3923220472248981,-4.5980859900973,-0.6223901598961284,4.656573941451304
344,1791286296.6767547,-0.2746289062499999,-1.9866921817555148,-0.2811565085018374,2.0251952605784713,-0.39415332615964827,-4.618880321539258,-0.6253018614585174,4.677650552058031
345,1791286296.6967547,-0.23630859374999993,-2.001062298943015,-0.2715764303768374,2.033186128535071,-0.3979774280306661,-4.659582355345189,-0.6309926439388548,4.718924186313133
346,1791286296.7229583,-0.06386718749999991,-1.9819021426930148,-0.3146867819393374,2.007745723834983,-0.40282608705753103,-4.712738006789153,-0.6384823817155666,4.772821820350123
347,1791286296.7429583,-0.04949707031249991,-1.9962722598805147,-0.3051067038143374,2.020060146691288,-0.4061417706399909,-4.753190756947036,-0.6442711462824645,4.813819566593397
348,1791286296.7667701,-0.11655761718749992,-2.0298025333180147,-0.25241627412683737,2.0487552264320725,-0.40979380780783875,-4.801319181112129,-0.6511250671595565,4.862567294847079
349,1791286296.78677,-0.1405078124999999,-1.9962722598805147,-0.2045158835018374,2.011634193273352,-0.412786706497613,-4.841718639997535,-0.6567036882609001,4.903457146558558
350,1791286296.8116286,-0.08781738281249991,-2.0058523380055147,-0.16619557100183738,2.014640529331934,-0.41637434881973145,-4.89186161362525,-0.6632885734775099,4.954152740572409
351,1791286296.8316286,-0.05428710937499991,-2.0058523380055147,-0.26199635225183737,2.0236187340306357,-0.41904098900448744,-4.932170477941164,-0.6684340711493089,4.994867874269896
352,1791286296.842067,-0.01596679687499991,-2.1064431583180148,-0.4392277975643374,2.1518082572525925,-0.4202790024378225,-4.953272316357965,-0.6712657665678465,5.016187676837285
353,1791286296.862067,0.003193359375000091,-2.183083783318015,-0.4104875631893374,2.2213430716715767,-0.4223143837543307,-4.994072926859979,-0.677152020399697,5.0574349917970265
354,1791286296.8875573,-0.01596679687499991,-2.0824929630055147,-0.2859465475643374,2.1020935534923035,-0.42454380977719397,-5.046428589980531,-0.6848602461955814,5.110353463021134
355,1791286296.9075572,-0.05428710937499991,-2.0154324161305146,-0.2907365866268374,2.0370180846122605,-0.42613603965452795,-5.087492518439711,-0.6908660411098207,5.151841218072548
356,1791286296.9316235,-0.01117675781249991,-2.068122845818015,-0.3386369772518374,2.0956936865085667,-0.4278827561210973,-5.136863993299624,-0.6981448553012222,5.201717175859094
357,1791286296.9516234,-0.04470703124999991,-2.044172650505515,-0.2476262350643374,2.0596017323769344,-0.42920043416218673,-5.177907646966828,-0.7041658866352463,5.243166048210123
358,1791286296.9624815,-0.1309277343749999,-1.9531619083180147,-0.19014576631433738,1.9667584814054586,-0.42995152928708275,-5.2001032245281875,-0.7073009011534265,5.265568006213309
359,1791286296.9824815,-0.1261376953124999,-1.9579519473805147,-0.3290568991268374,1.9894132273846146,-0.4315130835611775,-5.2407205261934,-0.712988058317151,5.306572071144625
360,1791286297.0062666,-0.01596679687499991,-2.0729128848805147,-0.3769572897518374,2.1069692843520897,-0.43334510717790725,-5.288969863296882,-0.7199964724450502,5.35531372723494
361,1791286297.0262666,-0.00638671874999991,-2.053752728630515,-0.3242668600643374,2.0792041884022985,-0.43468804343715056,-5.329645204026885,-0.7260574459498093,5.396409094085914
362,1791286297.0524938,-0.10218749999999992,-1.9627419864430147,-0.3194768210018374,1.9911965823745181,-0.4363985289893658,-5.382884938286495,-0.7340796333944865,5.450207963289133
363,1791286297.0724938,-0.09260742187499992,-2.025012494255515,-0.3769572897518374,2.061879854592485,-0.4377994245377123,-5.423375523858366,-0.7403241093321575,5.491151991683531
364,1791286297.0817995,-0.02075683593749991,-2.1687136661305146,-0.4631779928768374,2.2177203757428052,-0.43843258949033603,-5.442316200409072,-0.7433801121537346,5.510321474461172
365,1791286297.1017995,-0.01596679687499991,-2.216614056755515,-0.4056975241268374,2.2534913570482655,-0.4396443612115689,-5.483495629551011,-0.7502662295150728,5.5520186327858205
366,1791286297.1274571,-0.05428710937499991,-2.053752728630515,-0.3194768210018374,2.079161561726029,-0.44110093057316163,-5.536617362141867,-0.7591706757506131,5.605804309877658
367,1791286297.1474571,-0.05428710937499991,-2.0298025333180147,-0.2188860006893374,2.042291971243656,-0.44222887045960535,-5.577939539207148,-0.765878035414857,5.647614101729097
368,1791286297.1725836,-0.00638671874999991,-2.111233197380515,-0.19493580537683738,2.1202231892222714,-0.4435477086494129,-5.6298701944196425,-0.7738205008275639,5.700085187377802
369,1791286297.1925836,-0.03991699218749991,-2.1064431583180148,-0.2715764303768374,2.124252786988002,-0.4445094597746207,-5.671331791370832,-0.7798939581708135,5.74193586986427
370,1791286297.2025886,-0.03991699218749991,-2.0824929630055147,-0.3434270163143374,2.110997968442261,-0.4449783140622673,-5.692105064717063,-0.7829379529899262,5.762903574240627
371,1791286297.2225885,-0.06386718749999991,-2.034592572380515,-0.3003166647518374,2.057628745024911,-0.4459306436043019,-5.733577579389053,-0.7890757691678678,5.804774463083475
372,1791286297.2466564,-0.01117675781249991,-2.0058523380055147,-0.3242668600643374,2.0319245848046066,-0.44704022913309255,-5.783292596974737,-0.7964814843492036,5.854972329874606
373,1791286297.2666564,0.0750439453125001,-2.025012494255515,-0.4535979147518374,2.076549605447995,-0.4477281674763502,-5.824454342655267,-0.802879195821934,5.8965535615909745
374,1791286297.3076005,0.0989941406250001,-2.1256033145680147,-0.4440178366268374,2.173738974675522,-0.44839082934273244,-5.908826703767843,-0.8167684243040517,5.981839015715714
375,1791286297.3276005,0.0702539062500001,-2.1351833926930146,-0.25241627412683737,2.1511991323955835,-0.44841209461958353,-5.950249269097186,-0.8235798800045385,6.023688536913326
376,1791286297.3223708,0.046303710937500096,-2.163923627068015,-0.2667863913143374,2.1807990453089214,-0.44841209461958353,-5.950249269097186,-0.8235798800045385,6.023688536913326
377,1791286297.3423707,0.03193359375000009,-2.2261941348805148,-0.4200676413143374,2.2657045049753473,-0.44816149211680895,-5.992243599133206,-0.8301934195816516,6.0660574666158515
378,1791286297.3669236,-0.04949707031249991,-2.2453542911305147,-0.16140553193933738,2.2516921633314704,-0.44793233189255244,-6.044298696797662,-0.838165381800042,6.118554675518772
379,1791286297.3869236,0.0942041015625001,-2.230984173943015,0.14994700712316264,2.2380010951919993,-0.4477066045126379,-6.087055320348896,-0.8437022295042039,6.16153528990806
380,1791286297.4122982,-0.09260742187499992,-2.3986355411305147,0.01582591337316262,2.40047475581288,-0.4474601361185079,-6.141975700088992,-0.849357815009123,6.2165500699194824
381,1791286297.4322982,-0.2842089843749999,-2.7339382755055146,-0.11829518037683738,2.7512155478576963,-0.4478602363921943,-6.18646897349491,-0.8533005309572382,6.261078097858894
382,1791286297.4426076,-0.21714843749999993,-2.8680593692555147,-0.01770436006433738,2.876322553860801,-0.4484231955147047,-6.210295323705409,-0.8551331974217904,6.2849108311292445
383,1791286297.4626076,0.003193359375000091,-2.695617963005515,0.07809642118566262,2.6967509063730946,-0.4496724303768382,-6.2579297619660785,-0.8580646209377092,6.332469115127749
384,1791286297.4867685,0.1277343750000001,-2.542336713005515,0.03019603056066262,2.5457226543977542,-0.4507179422018253,-6.316334107338443,-0.8608784839399238,6.390644332386233
385,1791286297.5067685,0.2474853515625001,-2.523176556755515,-0.003334242876837381,2.535286976453394,-0.45089075263450057,-6.365026637483047,-0.8628180720427755,6.439046636896154
386,1791286297.5320263,0.2570654296875001,-2.403425580193015,0.03019603056066262,2.4173226832444548,-0.45012046830104774,-6.426628698225108,-0.8648492543390641,6.500163774364839
387,1791286297.5520263,0.1564746093750001,-2.2261941348805148,0.11162669462316263,2.2344764819769205,-0.4489817127390427,-6.475034885938653,-0.8660036241118431,6.548100765067037
388,1791286297.5768716,-0.12134765624999992,-2.068122845818015,0.16431712431066262,2.0781861024493207,-0.4477138122150257,-6.534150416901197,-0.8667083621932681,6.606568906280621
389,1791286297.5968716,-0.38000976562499994,-1.9387917911305148,0.12599681181066263,1.9796959938111427,-0.4475983099145697,-6.5806095026764995,-0.8667550958316054,6.652520580193998
390,1791286297.6073008,-0.5380810546874999,-1.9148415958180147,-0.022494399126837383,1.989134373661209,-0.44826523238220994,-6.604216240480615,-0.8666948518878022,6.675909963134568
391,1791286297.6273007,-0.6817822265625,-1.8621511661305148,-0.03207447725183738,1.9832959290203604,-0.451182139826537,-6.648361791575756,-0.8666785047276877,6.719777635126022
392,1791286297.6524117,-0.7727929687499999,-1.8238308536305148,-0.041654555376837384,1.9812377588739047,-0.4570345459745736,-6.702416557178408,-0.8667999142727114,6.773670376799909
393,1791286297.6724117,-0.9596044921875,-1.7807205020680148,-0.07518482881433738,2.024218132118086,-0.4635951869216466,-6.7444181623151245,-0.8670573667856273,6.815708717572977
394,1791286297.6976395,-1.3907080078125,-1.6561794864430148,-0.12308521943933738,2.166136936011408,-0.475076375731906,-6.795954425758081,-0.8677085462702744,6.867576882789875
395,1791286297.7176394,-1.702060546875,-1.3496169864430148,-0.1518254538143374,2.1775047838638333,-0.4874522328036299,-6.835191319185167,-0.8685597153979138,6.907376204344282
396,1791286297.7270155,-1.6110498046875,-1.1340652286305148,-0.19014576631433738,1.9793283781171027,-0.49471358621262823,-6.852573067638291,-0.8691393667892383,6.925164432604313
397,1791286297.7470155,-1.5727294921875,-0.9185134708180147,-0.17577564912683738,1.8297655944127018,-0.5126550190075446,-6.887167280056519,-0.8707392309735141,6.960896143482611
398,1791286297.771974,-1.548779296875,-0.6694314395680148,-0.1278752585018374,1.6921016058285732,-0.537529388744542,-6.926835280111024,-0.8730046768986481,7.0022940531972635
399,1791286297.791974,-1.5535693359375,-0.4826199161305147,-0.07039478975183738,1.6283289260574214,-0.5591255123606462,-6.955582301798623,-0.8748451380985471,7.03264534235315
400,1791286297.8175597,-1.5248291015625,-0.1568972598805147,0.01103587431066262,1.5329195444157255,-0.5885161597938728,-6.988068745588296,-0.8769603446895174,7.067426371004121
401,1791286297.8375597,-1.3715478515625,-0.003616009880514685,-0.01770436006433738,1.3716668797555962,-0.612388874657576,-7.009894622054415,-0.8783757631705467,7.091204885450513
402,1791286297.8476505,-1.2086865234375,0.005964068244485316,-0.03207447725183738,1.209126732042772,-0.624579693979259,-7.01925310341636,-0.8790204536108396,7.101597769644352
403,1791286297.8676505,-1.1320458984375,0.025124224494485318,-0.09434498506433739,1.1362482646994034,-0.6486286214433808,-7.034972672996935,-0.8802961904330632,7.119443867414094
404,1791286297.8926625,-1.203896484375,0.2742062557444853,-0.06081471162683738,1.236225806610649,-0.678574910034201,-7.0511212450663505,-0.8819433778739894,7.138389092990781
405,1791286297.9126625,-1.0601953124999999,0.39874727136948535,-0.17098561006433738,1.1455346201318648,-0.7023247182812646,-7.061087558761975,-0.8834106263036069,7.150708486372391
406,1791286297.9375386,-0.8302734374999999,0.35084688074448533,-0.08955494600183739,0.9057966676355094,-0.7309609350449787,-7.070225780068689,-0.8854479469956513,7.1628496100747885
407,1791286297.9575386,-0.878173828125,0.29815645105698535,-0.07997486787683739,0.9308504290177511,-0.7530931853155296,-7.0754972060119945,-0.8870945173565377,7.170547171644313
408,1791286297.9671671,-0.8733837890624999,0.5759787166819853,-0.2715764303768374,1.0808813452937476,-0.7634148619774916,-7.077023094522454,-0.8880221847966487,7.17325878053924
409,1791286297.9871671,-0.859013671875,0.7627902401194854,-0.3673772116268374,1.2061175127293453,-0.7842372403432908,-7.077709026970439,-0.8906184889091742,7.176502937530713
410,1791286298.0271125,-0.859013671875,0.9783419979319854,-0.3530070944393374,1.3489520236502937,-0.8247340091590337,-7.0736572584104165,-0.8971843824070987,7.177865491311544
411,1791286298.0471125,-0.5524511718749999,0.9543918026194854,-0.3003166647518374,1.142915617769308,-0.844085855549104,-7.069033805181643,-0.900958685946892,7.176032777525621
412,1791286298.0576873,-0.5668212890625,0.9352316463694854,-0.3242668600643374,1.1406549007659754,-0.8536708670009484,-7.06545720401312,-0.9031503361290892,7.173919429472088
413,1791286298.0776873,-0.5907714843749999,1.2178439510569854,-0.4104875631893374,1.414445076844573,-0.8708160345487137,-7.056477881139388,-0.9077757442550836,7.167723310430896
414,1791286298.0876253,-0.49976074218749994,1.6010470760569855,-0.3290568991268374,1.7092077059402093,-0.8788703896643816,-7.050584264421655,-0.9102805764978293,7.1632229030994345
415,1791286298.1076252,-0.3847998046874999,1.6585275448069854,-0.2955266256893374,1.7280394940690305,-0.8939750400354317,-7.035613263744964,-0.9155022265528259,7.151027177686685
416,1791286298.1325753,-0.45186035156249993,1.5052462948069854,-0.3913274069393374,1.6195929503323387,-0.9115572686197475,-7.013818137972766,-0.9223244221289604,7.132689805829549
417,1791286298.1525753,-0.0015966796874999094,1.3615451229319855,-0.3769572897518374,1.4127648316202348,-0.9242173040929252,-6.994667599159662,-0.928125228296124,7.116246825913118
418,1791286298.1777155,-0.0015966796874999094,1.5339865291819854,-0.2380461569393374,1.552347639522606,-0.937750106651234,-6.96874636716088,-0.9354827781069249,7.09351317898804
419,1791286298.1977155,-0.09260742187499992,1.5914669979319853,-0.1518254538143374,1.6013726326245585,-0.947042359827509,-6.94653012771307,-0.9410427960678425,7.073664650700103
420,1791286298.222462,0.03193359375000009,1.4573459041819854,-0.2332561178768374,1.476240243108408,-0.9569278528444293,-6.917506240765083,-0.9476051033229504,7.047379579561258
421,1791286298.242462,0.3193359375000001,1.1220431698069853,-0.26199635225183737,1.1956581469980372,-0.9631919610269919,-6.893698695099865,-0.9528560728321143,7.025578634400276
422,1791286298.2520337,0.4869873046875001,0.8490109432444853,-0.18535572725183738,0.9961591049128369,-0.9651613627868342,-6.882598761184025,-0.9553133221009282,7.015292275240706
423,1791286298.2720337,0.5875781250000002,0.7867404354319854,-0.15661549287683738,0.9943525422762696,-0.96704727318803,-6.860431093115384,-0.9601904772697146,6.994473601680415
424,1791286298.297664,0.8175000000000001,0.6861496151194854,-0.19493580537683738,1.0849458569654682,-0.9664006328277145,-6.8334528724853225,-0.9661788700794569,6.968752395701524
425,1791286298.317664,1.1192724609375002,0.33168672449448533,-0.10392506318933739,1.1720014265255294,-0.9630665742708557,-6.81403204622882,-0.9705991330420404,6.949862777823249
426,1791286298.3424273,1.21986328125,0.029914263556985315,-0.17577564912683738,1.2328253594618075,-0.9552133049952746,-6.7929211459895535,-0.9757706831324792,6.9288049892988655
427,1791286298.3624272,1.3300341796875002,-0.05151640050551469,-0.3482170553768374,1.3758270154032306,-0.9459972099171429,-6.778460961373669,-0.980106929498229,6.913975218301575
428,1791286298.37247,1.8808886718750002,-0.2910183536305147,-0.5014983053768374,1.968231294445182,-0.939645186356575,-6.772547152642761,-0.982597704817632,6.90766431295887
429,1791286298.39247,2.0341699218750002,-0.4251394473805147,-0.5589787741268374,2.1519870098827956,-0.9230200526410666,-6.763610636329853,-0.9884047429708795,6.897487861053411
430,1791286298.4172466,2.0054296875000004,-0.5017800723805147,-0.5541887350643374,2.14024686113933,-0.8980070148433039,-6.755922839943482,-0.9965881619649357,6.887822441276084
431,1791286298.4372466,2.1156005859375,-0.5880007755055147,-0.5158684225643374,2.2555777487404858,-0.8746633316288104,-6.752282697880912,-1.0038081184570509,6.88229527951818
432,1791286298.4623876,2.4317431640625,-0.8083425723805148,-0.5972990866268374,2.631265613573191,-0.8411463987164728,-6.751026139749657,-1.0136215562942903,6.878321733027708
433,1791286298.4823875,2.4748535156250004,-1.0047341739430147,-0.6547795553768374,2.7501139885884487,-0.8111228418414361,-6.752896085706,-1.0221353782524158,6.877811173649329
434,1791286298.4920425,2.3119921875,-1.1196951114430147,-0.7074699850643374,2.6644959743668886,-0.7953367661742395,-6.7552017474513955,-1.026615360383919,6.878898917601209
435,1791286298.5120425,2.3886328125,-1.2538162051930148,-0.7218401022518374,2.792610771764518,-0.7604905931053312,-6.7628216917401724,-1.0366474263426504,6.883948072364865
436,1791286298.5367713,2.5467041015625007,-1.2777664005055147,-0.6978899069393374,2.9335028681397057,-0.7147148105561344,-6.775525274871614,-1.0498239800373614,6.8935252519965315
437,1791286298.5567713,2.5610742187500004,-1.3112966739430147,-0.6595695944393374,2.951886205623247,-0.6755842417757328,-6.7881420402722705,-1.060918489038171,6.903682674271067
438,1791286298.582001,2.3838427734375003,-1.4406277286305147,-0.5781389303768374,2.844707233404974,-0.6242690774566898,-6.8068777958628255,-1.0751567454191322,6.91948402961516
439,1791286298.602001,2.3455224609375,-1.4549978458180148,-0.5014983053768374,2.8053511182012865,-0.5825984372743558,-6.823845543351368,-1.086370059345582,6.934298006609851
440,1791286298.6123543,2.4125830078125,-1.3304568301930149,-0.5158684225643374,2.802997034602761,-0.5605679886079805,-6.833474541639673,-1.0920940907180419,6.942858221515891
441,1791286298.6323543,2.2976220703125003,-1.1915456973805147,-0.5589787741268374,2.6478870060592574,-0.5173290715099487,-6.8530681907087345,-1.1031051206284308,6.960532587517273
442,1791286298.656983,2.1587109375,-1.1484353458180148,-0.6547795553768374,2.5313381681130163,-0.46383860520052006,-6.877899510277784,-1.1168725568523419,6.983412649514822
443,1791286298.6769829,2.0868603515625,-1.3304568301930149,-0.6020891256893374,2.547079272265423,-0.42054831757058597,-6.898757729432927,-1.1282608675804984,7.003048741950573
444,1791286298.7025652,2.0150097656250003,-1.3400369083180148,-0.3865373678768374,2.450586543663328,-0.3656108303970707,-6.926559620515513,-1.142539652626309,7.02967256091513
445,1791286298.7225652,2.06291015625,-1.0430544864430147,-0.4104875631893374,2.3477778885536473,-0.32298684412333445,-6.948609193807662,-1.1532237409610395,7.0510577381313
446,1791286298.7326937,2.2640917968750003,-0.8754031192555147,-0.3721672506893374,2.455799411264001,-0.3013519033745619,-6.959558020001888,-1.1584173643270685,7.061741399500163
447,1791286298.7526937,2.44611328125,-0.8179226505055147,-0.4344377585018374,2.6155695006880832,-0.25797385018372004,-6.980474854052331,-1.1683444084448786,7.082274235877903
448,1791286298.7774353,2.3167822265625,-0.6694314395680148,-0.5158684225643374,2.4661181170002826,-0.20352276956665988,-7.005229316184933,-1.1805463156071878,7.106922603586071
449,1791286298.7974353,2.0293798828125,-0.6790115176930147,-0.5781389303768374,2.216683101559878,-0.15959020320835815,-7.0242607659496255,-1.1905712536720763,7.126230998998671
450,1791286298.8227575,2.0677001953125003,-0.9951540958180147,-0.4967082663143374,2.3478575071634387,-0.10452918714083262,-7.047921823694138,-1.2034013487470443,7.1506855049033335
451,1791286298.8427575,2.13955078125,-1.2059158145680147,-0.5014983053768374,2.506673302939289,-0.06125326538280934,-7.067108206987602,-1.2135121037973542,7.170800652497199
452,1791286298.852719,2.1347607421875003,-1.1436453067555148,-0.5062883444393375,2.4741576145759123,-0.03973817288711223,-7.076986524590977,-1.2185456181484275,7.181237415316068
453,1791286298.872719,2.302412109375,-0.7748122989430147,-0.7745305319393374,2.549771198538455,0.0036341755080755364,-7.096722057757451,-1.229056791907731,7.202364734587335
