imu_index,t_imu,ax,ay,az,mag
0,1789796391.5811105,0.22791005859375008,-0.056857763671875027,-0.07683222656249983,0.24714164185042692
1,1789796391.6011105,0.27102041015625006,-0.11912827148437503,-0.13910273437499984,0.3270981175407751
2,1789796391.6104426,0.4243016601562501,-0.11912827148437503,-0.13910273437499984,0.4621396050857432
3,1789796391.6304426,0.4530418945312501,-0.18139877929687503,-0.08641230468749983,0.49560020352322903
4,1789796391.6555326,0.3859813476562501,-0.20055893554687504,-0.06725214843749983,0.440145815424491
5,1789796391.6755326,0.3332909179687501,-0.17181870117187503,-0.10078242187499983,0.38828030935373564
6,1789796391.7011962,0.3955614257812501,-0.20055893554687504,-0.06725214843749983,0.4485705960751892
7,1789796391.7211962,0.41951162109375006,-0.16702866210937503,-0.04809199218749983,0.4540940584408878
8,1789796391.7307181,0.37161123046875005,-0.11433823242187503,-0.05288203124999983,0.3923832912255352
9,1789796391.750718,0.32850087890625007,-0.03769760742187502,-0.08641230468749983,0.3417616471298643
10,1789796391.776087,0.4147215820312501,-0.013747412109375022,-0.09599238281249983,0.42590787677645664
11,1789796391.796087,0.41951162109375006,-0.06164780273437503,-0.08641230468749983,0.43273264057162114
12,1789796391.821083,0.22312001953125007,-0.12870834960937502,-0.024141796874999826,0.2587106660560176
13,1789796391.841083,0.18958974609375007,0.010202783203124979,-0.06246210937499983,0.19987467002238438
14,1789796391.850729,0.4051415039062501,0.13474379882812498,-0.11515253906249984,0.442216730532205
15,1789796391.870729,0.43867177734375007,0.05331313476562498,-0.09599238281249983,0.45220543576397204
16,1789796391.8960102,0.22312001953125007,-0.028117529296875023,-0.05288203124999983,0.23101871742028177
17,1789796391.9160101,0.21832998046875007,-0.03769760742187502,-0.033721874999999825,0.22411214788657532
18,1789796391.940651,0.3380809570312501,-0.008957373046875022,-0.06246210937499983,0.3439192974327572
19,1789796391.960651,0.4147215820312501,-0.04248764648437502,-0.05288203124999983,0.4202329115328904
20,1789796391.9864092,0.32850087890625007,-0.03290756835937502,-0.028931835937499827,0.3314102995204285
21,1789796392.0064092,0.3476610351562501,0.005412744140624978,-0.00019160156249982575,0.3477032209747358
22,1789796392.0164557,0.3955614257812501,-0.07601791992187502,0.014178515625000176,0.4030491235825633
23,1789796392.0364556,0.30934072265625007,-0.13349838867187502,0.04291875000000018,0.33964028261241413
24,1789796392.06133,0.2758104492187501,-0.13828842773437502,0.04291875000000018,0.3115078044689357
25,1789796392.08133,0.3332909179687501,-0.056857763671875027,0.009388476562500175,0.33823628543132905
26,1789796392.1053936,0.4578319335937501,-0.004167333984375022,-0.019351757812499825,0.45825968251763427
27,1789796392.1253936,0.3380809570312501,-0.09038803710937503,0.04770878906250018,0.353192382864441
28,1789796392.1359608,0.18479970703125007,-0.03290756835937502,0.023758593750000175,0.18920441472423508
29,1789796392.1559608,0.24707021484375008,0.01499282226562498,-0.04330195312499983,0.25128377370388466
30,1789796392.180688,0.3380809570312501,-0.06643784179687502,-0.04330195312499983,0.3472575117606993
31,1789796392.200688,0.25186025390625005,-0.09038803710937503,-0.00019160156249982575,0.2675885301379064
32,1789796392.2256935,0.22791005859375008,0.05331313476562498,-0.033721874999999825,0.23647928027685616
33,1789796392.2456934,0.31892080078125007,0.13474379882812498,-0.10557246093749983,0.3619556782286858
34,1789796392.256437,0.3237108398437501,-0.056857763671875027,-0.06725214843749983,0.335476324934521
35,1789796392.276437,0.24228017578125008,-0.14786850585937503,-0.04330195312499983,0.28712338418547023
36,1789796392.3007333,0.2758104492187501,-0.013747412109375022,-0.08641230468749983,0.2893570141526882
37,1789796392.3207333,0.32850087890625007,0.010202783203124979,-0.05767207031249983,0.3336809732684779
38,1789796392.3456109,0.27102041015625006,-0.047277685546875024,-0.05288203124999983,0.28014951633200647
39,1789796392.3656108,0.18958974609375007,-0.16223862304687503,-0.004981640624999826,0.24958056690246394
40,1789796392.375694,0.26144033203125006,-0.04248764648437502,-0.033721874999999825,0.26700826236262265
41,1789796392.395694,0.3332909179687501,0.321555322265625,-0.16305292968749982,0.4909856608471156
42,1789796392.4207652,0.36203115234375005,0.0006227050781249783,-0.038511914062499826,0.3640743200964815
43,1789796392.4407651,0.11294912109375006,-0.03290756835937502,0.057288867187500175,0.13085268936787117
44,1789796392.4656758,0.17521962890625006,0.048523095703124984,0.009388476562500175,0.18205645460357406
45,1789796392.4856758,0.3237108398437501,0.10600356445312499,0.04770878906250018,0.34394998482762573
46,1789796392.496457,0.3141307617187501,0.158693994140625,0.04291875000000018,0.3545475120993932
47,1789796392.516457,0.32850087890625007,0.331135400390625,-0.08162226562499983,0.47352473544662516
48,1789796392.5562754,0.41951162109375006,0.402985986328125,-0.11994257812499984,0.5939477480863359
49,1789796392.5762753,0.40035146484375006,0.23054458007812498,-0.019351757812499825,0.462392246189714
50,1789796392.5863185,0.2853905273437501,0.149113916015625,0.014178515625000176,0.3223100112506389
51,1789796392.6063185,0.20395986328125007,0.12995375976562498,-0.05288203124999983,0.24755628599583965
52,1789796392.6315181,0.3380809570312501,0.13953383789062498,-0.08641230468749983,0.3758131341838101
53,1789796392.651518,0.2566502929687501,0.02457290039062498,-0.11036249999999984,0.280451567513542
54,1789796392.6606271,0.2853905273437501,-0.023327490234375022,-0.09599238281249983,0.30200407688672043
55,1789796392.680627,0.24707021484375008,0.07247329101562498,-0.10557246093749983,0.2782833331013056
56,1789796392.7057524,0.3380809570312501,0.254494775390625,-0.18700312499999983,0.46264078178221185
57,1789796392.7257524,0.3524510742187501,0.05810317382812498,-0.07204218749999983,0.36440062473414797
58,1789796392.7508383,0.23270009765625008,0.14432387695312499,-0.07683222656249983,0.28439744715197496
59,1789796392.7708383,0.3524510742187501,0.24012465820312498,-0.10078242187499983,0.4382222127575335
60,1789796392.7806756,0.37161123046875005,0.220964501953125,-0.06725214843749983,0.4375420770661384
61,1789796392.8006756,0.2853905273437501,0.163484033203125,-0.009771679687499826,0.3290444771361758
62,1789796392.8263912,0.21832998046875007,0.177854150390625,-0.019351757812499825,0.2822668413276513
63,1789796392.8463912,0.3141307617187501,0.31676528320312497,-0.05767207031249983,0.44982713101244576
64,1789796392.8707557,0.3141307617187501,0.31676528320312497,-0.06725214843749983,0.45115544058585577
65,1789796392.8907557,0.19916982421875007,0.158693994140625,-0.033721874999999825,0.25688434656309467
66,1789796392.9012332,0.18958974609375007,0.07247329101562498,-0.014561718749999826,0.20349126120667244
67,1789796392.9212332,0.3572411132812501,0.12037368164062498,-0.04330195312499983,0.3794549978516361
68,1789796392.945736,0.44825185546875007,0.163484033203125,-0.05767207031249983,0.48060672356685524
69,1789796392.965736,0.3045506835937501,0.11079360351562498,-0.024141796874999826,0.32497564187759015
70,1789796392.9916034,0.18000966796875006,0.153903955078125,-0.004981640624999826,0.23688546746101966
71,1789796393.0116034,0.24707021484375008,0.12516372070312498,-0.009771679687499826,0.2771373914994182
72,1789796393.0212624,0.3955614257812501,0.0006227050781249783,0.014178515625000176,0.3958159416105396
73,1789796393.0412624,0.37161123046875005,0.02457290039062498,0.009388476562500175,0.3725411085186045
74,1789796393.0656834,0.19916982421875007,0.12037368164062498,0.009388476562500175,0.23290896419676713
75,1789796393.0856833,0.24707021484375008,0.173064111328125,-0.014561718749999826,0.3020048366263106
76,1789796393.1115286,0.3380809570312501,0.01978286132812498,0.03812871093750018,0.3407989050851678
77,1789796393.1315286,0.26144033203125006,0.0006227050781249783,0.03333867187500018,0.26355815680151795
78,1789796393.1415305,0.19437978515625007,0.11079360351562498,0.014178515625000176,0.22418687241383206
79,1789796393.1615305,0.27102041015625006,0.10121352539062499,-0.009771679687499826,0.2894680054292284
80,1789796393.1865356,0.3141307617187501,0.177854150390625,-0.009771679687499826,0.361117321646426
81,1789796393.2065356,0.16563955078125006,0.13953383789062498,-0.004981640624999826,0.2166355682772757
82,1789796393.230598,0.18479970703125007,0.13474379882812498,-0.019351757812499825,0.22952410237686088
83,1789796393.250598,0.21832998046875007,0.177854150390625,-0.08641230468749983,0.29456266834760503
84,1789796393.261261,0.2949706054687501,0.048523095703124984,-0.04809199218749983,0.3027787783510895
85,1789796393.281261,0.20395986328125007,0.05810317382812498,-0.033721874999999825,0.2147388402039164
86,1789796393.3062181,0.14168935546875006,0.220964501953125,-0.05767207031249983,0.26875128329121023
87,1789796393.3262181,0.20395986328125007,0.211384423828125,-0.07683222656249983,0.3036217902348346
88,1789796393.3507557,0.20874990234375007,0.10121352539062499,-0.04809199218749983,0.2369251762964131
89,1789796393.3707557,0.19437978515625007,0.01978286132812498,-0.05767207031249983,0.2037177708837589
90,1789796393.3962548,0.29976064453125006,0.13953383789062498,-0.13431269531249984,0.3568837850734971
91,1789796393.4162548,0.24707021484375008,0.01499282226562498,-0.004981640624999826,0.24757482207555373
92,1789796393.4263306,0.20395986328125007,0.03415297851562498,0.014178515625000176,0.20728502617536881
93,1789796393.4463305,0.23749013671875008,0.09163344726562499,0.018968554687500177,0.25526076816347115
94,1789796393.471239,0.37161123046875005,0.153903955078125,-0.033721874999999825,0.4036316375765205
95,1789796393.491239,0.3428709960937501,0.192224267578125,-0.12952265624999984,0.4138681039779734
96,1789796393.515761,0.18479970703125007,0.01499282226562498,0.014178515625000176,0.1859482367317659
97,1789796393.5357609,0.21832998046875007,-0.03769760742187502,0.16266972656250017,0.2748645664990982
98,1789796393.5456448,0.39077138671875006,0.06289321289062498,0.1387195312500002,0.4194054616430503
99,1789796393.5656447,0.3764012695312501,0.10600356445312499,0.03333867187500018,0.3924616394297582
100,1789796393.5908396,0.17042958984375006,0.14432387695312499,0.014178515625000176,0.22377814204791766
101,1789796393.6108396,0.16563955078125006,0.177854150390625,0.009388476562500175,0.24322151032823966
102,1789796393.6365833,0.15126943359375006,0.09642348632812499,0.04291875000000018,0.18445039809392275
103,1789796393.6565833,0.21353994140625007,0.005412744140624978,0.08123906250000018,0.22853531379372316
104,1789796393.665819,0.26144033203125006,0.07247329101562498,0.03812871093750018,0.2739657345746019
105,1789796393.685819,0.32850087890625007,0.197014306640625,-0.04330195312499983,0.3854899786086594
106,1789796393.7109714,0.2566502929687501,0.197014306640625,-0.06725214843749983,0.3304646144014378
107,1789796393.7309713,0.12252919921875007,0.12516372070312498,-0.09120234374999983,0.19747716107674615
108,1789796393.7563136,0.15605947265625006,0.04373305664062498,-0.08641230468749983,0.183668793349018
109,1789796393.7763135,0.27102041015625006,0.08684340820312499,-0.11994257812499984,0.3088366272268694
110,1789796393.7860084,0.2853905273437501,0.09642348632812499,-0.09120234374999983,0.31474292576435614
111,1789796393.8060083,0.2758104492187501,0.08205336914062498,-0.07683222656249983,0.2978377919675871
112,1789796393.8313615,0.30934072265625007,0.149113916015625,-0.11036249999999984,0.36070281957486255
113,1789796393.8513615,0.2853905273437501,0.10600356445312499,-0.08641230468749983,0.316467368263644
114,1789796393.8764472,0.29018056640625006,0.05810317382812498,-0.08162226562499983,0.30699012064643294
115,1789796393.8964472,0.2662303710937501,0.04373305664062498,-0.09599238281249983,0.28636642312580834
116,1789796393.9056904,0.2758104492187501,-0.013747412109375022,-0.04330195312499983,0.2795271979296351
117,1789796393.9256904,0.2949706054687501,-0.028117529296875023,0.009388476562500175,0.29645639989132677
118,1789796393.9507062,0.24707021484375008,0.05331313476562498,-0.009771679687499826,0.25294558135177936
119,1789796393.9707062,0.3572411132812501,0.12995375976562498,-0.04809199218749983,0.3831736321933064
120,1789796393.9959767,0.36203115234375005,0.09642348632812499,-0.038511914062499826,0.3766260897863703
121,1789796394.0159767,0.22791005859375008,0.06289321289062498,-0.004981640624999826,0.2364812207749882
122,1789796394.0410502,0.16084951171875006,0.153903955078125,-0.028931835937499827,0.2244906321866555
123,1789796394.0610502,0.31892080078125007,0.177854150390625,-0.06246210937499983,0.3704646961448544
124,1789796394.0715954,0.38119130859375006,0.07247329101562498,-0.05767207031249983,0.3922821170435647
125,1789796394.0915954,0.2853905273437501,0.02457290039062498,0.014178515625000176,0.28679715974269987
126,1789796394.1159425,0.21832998046875007,0.11079360351562498,-0.019351757812499825,0.24559660722798257
127,1789796394.1359425,0.21832998046875007,0.14432387695312499,-0.05767207031249983,0.26799893567772887
128,1789796394.16151,0.27102041015625006,0.08205336914062498,-0.06246210937499983,0.28997643562221415
129,1789796394.18151,0.2949706054687501,0.01499282226562498,-0.00019160156249982575,0.29535145085346776
130,1789796394.1908667,0.24707021484375008,0.08684340820312499,-0.019351757812499825,0.26260228319971834
131,1789796394.2108667,0.28060048828125006,0.13474379882812498,-0.04809199218749983,0.31496883188479574
132,1789796394.2353468,0.22312001953125007,0.01499282226562498,0.03333867187500018,0.22609465910875243
133,1789796394.2553468,0.24707021484375008,0.06289321289062498,0.028548632812500176,0.25654292374981863
134,1789796394.281455,0.2853905273437501,0.13474379882812498,-0.04809199218749983,0.31924361251674327
135,1789796394.301455,0.3141307617187501,0.10121352539062499,-0.04330195312499983,0.3328623924753899
136,1789796394.3106844,0.24707021484375008,0.005412744140624978,0.028548632812500176,0.24877301561369483
137,1789796394.3306844,0.24707021484375008,0.06289321289062498,0.009388476562500175,0.2551223055375733
138,1789796394.356478,0.27102041015625006,0.12037368164062498,-0.033721874999999825,0.2984611378496305
139,1789796394.376478,0.29976064453125006,0.07726333007812498,-0.00019160156249982575,0.30955791525288207
140,1789796394.4009843,0.2566502929687501,0.005412744140624978,0.04291875000000018,0.2602704166470704
141,1789796394.4209843,0.24707021484375008,0.03894301757812498,0.052498828125000174,0.25557068813838035
142,1789796394.4307349,0.24228017578125008,0.13953383789062498,0.018968554687500177,0.28023058641057247
143,1789796394.4507349,0.2566502929687501,0.182644189453125,-0.004981640624999826,0.3150445834564545
144,1789796394.4766645,0.2853905273437501,0.12995375976562498,0.009388476562500175,0.31372579789830823
145,1789796394.4966645,0.3141307617187501,0.07247329101562498,-0.00019160156249982575,0.32238261441925864
146,1789796394.5215719,0.24228017578125008,0.05810317382812498,-0.038511914062499826,0.25210876603214755
147,1789796394.5415719,0.2758104492187501,0.09642348632812499,-0.08162226562499983,0.30336625860447447
148,1789796394.5509841,0.29018056640625006,0.08684340820312499,-0.06725214843749983,0.31027308961243516
149,1789796394.5709841,0.3045506835937501,0.06768325195312498,-0.08641230468749983,0.32372708856964066
150,1789796394.5964158,0.2662303710937501,0.07726333007812498,-0.12952265624999984,0.3059809653385857
151,1789796394.6164157,0.29976064453125006,0.02936293945312498,-0.07683222656249983,0.310840501321288
152,1789796394.6416895,0.3332909179687501,0.05331313476562498,-0.04809199218749983,0.340936894529695
153,1789796394.6616895,0.25186025390625005,0.11079360351562498,-0.06725214843749983,0.2832519400589478
154,1789796394.6716871,0.22312001953125007,0.10121352539062499,-0.09120234374999983,0.26142797926602507
155,1789796394.691687,0.3045506835937501,0.12995375976562498,-0.06246210937499983,0.33695788113978975
156,1789796394.715877,0.24228017578125008,0.02936293945312498,0.023758593750000175,0.24520672210789587
157,1789796394.735877,0.3428709960937501,0.182644189453125,-0.06246210937499983,0.39347291521893074
158,1789796394.7602165,0.19916982421875007,0.10121352539062499,-0.04330195312499983,0.22756945257605682
159,1789796394.7802165,0.27102041015625006,0.12516372070312498,-0.009771679687499826,0.29868629936009283
160,1789796394.805874,0.3668211914062501,0.149113916015625,-0.004981640624999826,0.3960019736788344
161,1789796394.825874,0.24707021484375008,0.177854150390625,-0.019351757812499825,0.30504144047086706
162,1789796394.836423,0.18479970703125007,0.201804345703125,-0.028931835937499827,0.275159911313797
163,1789796394.856423,0.30934072265625007,0.11558364257812498,-0.004981640624999826,0.3302666768967699
164,1789796394.8815336,0.4147215820312501,0.08684340820312499,-0.004981640624999826,0.42374589661040274
165,1789796394.9015336,0.2949706054687501,0.11558364257812498,-0.009771679687499826,0.3169585497287364
166,1789796394.9261591,0.17521962890625006,0.192224267578125,-0.033721874999999825,0.262277052472202
167,1789796394.9461591,0.2758104492187501,0.23533461914062498,-0.06725214843749983,0.36875010282543824
168,1789796394.9552238,0.3524510742187501,0.11558364257812498,-0.014561718749999826,0.371205309502077
169,1789796394.9752238,0.25186025390625005,0.048523095703124984,-0.014561718749999826,0.2569048889517081
170,1789796395.001342,0.22312001953125007,0.13474379882812498,-0.06725214843749983,0.26918634049245355
171,1789796395.021342,0.3237108398437501,0.14432387695312499,-0.08162226562499983,0.36370356547177923
172,1789796395.0458288,0.29976064453125006,0.14432387695312499,-0.08641230468749983,0.3437337805191345
173,1789796395.0658288,0.21832998046875007,0.158693994140625,-0.09120234374999983,0.28490284599014215
174,1789796395.0758772,0.22312001953125007,0.14432387695312499,-0.07683222656249983,0.2766136576761124
175,1789796395.0958772,0.2853905273437501,0.11558364257812498,-0.07683222656249983,0.3173492123319716
176,1789796395.121364,0.29018056640625006,0.09642348632812499,-0.08162226562499983,0.3164876681346056
177,1789796395.141364,0.20395986328125007,0.11558364257812498,-0.05288203124999983,0.240324184156443
178,1789796395.1658611,0.23749013671875008,0.168274072265625,-0.04809199218749983,0.29500943738821295
179,1789796395.185861,0.3380809570312501,0.11079360351562498,-0.014561718749999826,0.35607021742922784
180,1789796395.1959078,0.23749013671875008,0.01499282226562498,0.03812871093750018,0.24099823309712184
181,1789796395.2159078,0.2662303710937501,0.168274072265625,-0.00019160156249982575,0.3149520766731526
182,1789796395.2414756,0.31892080078125007,0.13953383789062498,0.03812871093750018,0.3501913301114071
183,1789796395.2614756,0.29976064453125006,0.09642348632812499,0.03812871093750018,0.3171872180955847
184,1789796395.286486,0.18479970703125007,0.09163344726562499,0.009388476562500175,0.2064842944845504
185,1789796395.306486,0.24707021484375008,0.163484033203125,-0.019351757812499825,0.2968925911937362
186,1789796395.3160312,0.3524510742187501,0.12995375976562498,-0.028931835937499827,0.37675826537169305
187,1789796395.3360312,0.29018056640625006,0.06289321289062498,-0.038511914062499826,0.2994052185121611
188,1789796395.3614876,0.15126943359375006,0.010202783203124979,-0.04330195312499983,0.15767560835241323
189,1789796395.3814876,0.20395986328125007,0.07247329101562498,-0.07683222656249983,0.22968499032129416
190,1789796395.4052057,0.26144033203125006,0.168274072265625,-0.07204218749999983,0.3191508849889848
191,1789796395.4252057,0.26144033203125006,0.149113916015625,-0.04809199218749983,0.3047931214359794
192,1789796395.4514236,0.28060048828125006,0.220964501953125,-0.06725214843749983,0.36343472125889137
193,1789796395.4714236,0.23749013671875008,0.14432387695312499,-0.04809199218749983,0.282035079750789
194,1789796395.4804647,0.20874990234375007,0.06768325195312498,-0.019351757812499825,0.2202998748386141
195,1789796395.5004647,0.07941884765625007,0.01978286132812498,0.028548632812500176,0.08668182855037981
196,1789796395.525621,0.24707021484375008,0.10600356445312499,0.0045984375000001744,0.26888955421724
197,1789796395.545621,0.3764012695312501,0.010202783203124979,0.03812871093750018,0.3784650724803838
198,1789796395.5706766,0.17521962890625006,0.09642348632812499,0.04770878906250018,0.20561015447570732
199,1789796395.5906765,0.16084951171875006,0.321555322265625,0.028548632812500176,0.36067355757384434
200,1789796395.6008854,0.16563955078125006,0.422146142578125,0.057288867187500175,0.4570840631440042
201,1789796395.6208854,0.18479970703125007,0.359875634765625,0.09081914062500018,0.4146197300185568
202,1789796395.6453207,0.21353994140625007,0.187434228515625,0.15787968750000017,0.32504906140478235
203,1789796395.6653206,0.14168935546875006,0.311975244140625,0.12434941406250018,0.36450953785523843
204,1789796395.6912205,0.17521962890625006,0.24491469726562498,0.14829960937500017,0.3356752916607571
205,1789796395.7112205,0.14168935546875006,0.197014306640625,0.1435095703125002,0.2819317421744392
206,1789796395.720539,0.15605947265625006,0.09642348632812499,0.16745976562500017,0.24838442146116363
207,1789796395.740539,0.05067861328125006,0.11079360351562498,0.21057011718750018,0.24327621888800713
208,1789796395.7659695,-0.02117197265624994,0.158693994140625,0.2297302734375002,0.2800143473755056
209,1789796395.7859695,-0.01638193359374994,0.220964501953125,0.2441003906250002,0.32966449547220017
210,1789796395.8112268,0.16563955078125006,0.192224267578125,0.2393103515625002,0.34879230810602513
211,1789796395.8312268,0.18958974609375007,0.321555322265625,0.16745976562500017,0.4091269609845122
212,1789796395.840672,0.01714833984375006,0.321555322265625,0.19620000000000018,0.3770760279263941
213,1789796395.860672,-0.04991220703124994,0.479626611328125,0.18182988281250018,0.5153591184683145
214,1789796395.8858018,0.06983876953125007,0.556267236328125,0.19620000000000018,0.5939740162176871
215,1789796395.9058018,0.03630849609375006,0.604167626953125,0.11955937500000018,0.6169532174299368
216,1789796395.9304843,-0.0020118164062499404,0.733498681640625,0.057288867187500175,0.7357352633097143
217,1789796395.9504843,0.031518457031250065,0.666438134765625,0.07165898437500018,0.6710202758823108
218,1789796395.9606817,0.11294912109375006,0.666438134765625,-0.033721874999999825,0.6767824290562304
219,1789796395.9806817,0.17521962890625006,0.498786767578125,-0.028931835937499827,0.5294593553765887
220,1789796396.0057137,0.29018056640625006,0.541897119140625,-0.028931835937499827,0.6153814264206185
221,1789796396.0257137,0.3764012695312501,0.767028955078125,-0.12952265624999984,0.8641686479588534
222,1789796396.05099,0.26144033203125006,0.743078759765625,-0.16784296874999982,0.8054119148524208
223,1789796396.07099,0.31892080078125007,0.862829736328125,-0.11994257812499984,0.9276701208459218
224,1789796396.081034,0.22312001953125007,0.920310205078125,-0.06246210937499983,0.9490284146400151
225,1789796396.101034,0.06983876953125007,0.776609033203125,-0.05767207031249983,0.7818728233392318
226,1789796396.125636,0.2662303710937501,0.853249658203125,-0.15826289062499985,0.9077228278860493
227,1789796396.145636,0.44825185546875007,0.843669580078125,-0.14389277343749984,0.9661331256757075
228,1789796396.1705468,0.3572411132812501,0.7287086425781251,-0.08641230468749983,0.8161523051415622
229,1789796396.1905468,0.2566502929687501,0.8292994628906251,-0.13910273437499984,0.8791794712925378
230,1789796396.2156212,0.2758104492187501,0.819719384765625,-0.25406367187499984,0.901420891163163
231,1789796396.2356212,0.41951162109375006,0.493996728515625,-0.17263300781249982,0.6706898861644157
232,1789796396.2462783,0.28060048828125006,0.379035791015625,-0.12473261718749983,0.4878145043814912
233,1789796396.2662783,0.2949706054687501,0.369455712890625,-0.05288203124999983,0.47571177314340973
234,1789796396.2904804,0.6925438476562501,0.345505517578125,-0.024141796874999826,0.7743215546268909
235,1789796396.3104804,0.39077138671875006,0.340715478515625,-0.024141796874999826,0.5190107323886279
236,1789796396.3356447,0.5344725585937501,0.216174462890625,-0.05288203124999983,0.5789549408416218
237,1789796396.3556447,0.5153124023437501,0.163484033203125,-0.00019160156249982575,0.5406236563754921
238,1789796396.366193,0.56321279296875,0.02457290039062498,-0.004981640624999826,0.5637706043601284
239,1789796396.386193,0.5009422851562501,0.005412744140624978,-0.18221308593749982,0.5330798059798967
240,1789796396.4112184,0.6111131835937501,-0.18618881835937504,-0.22532343749999983,0.6774188148634235
241,1789796396.4312184,0.4578319335937501,-0.12391831054687502,-0.25406367187499984,0.5380652158182978
242,1789796396.4560494,0.21832998046875007,0.10121352539062499,-0.41213496093749985,0.4772498131172374
243,1789796396.4760494,0.13689931640625005,-0.08559799804687503,-0.4073449218749998,0.43817613522358917
244,1789796396.4856615,0.07941884765625007,-0.373000341796875,-0.3881847656249999,0.5441727856177377
245,1789796396.5056615,0.12252919921875007,-0.39695053710937506,-0.43608515624999983,0.6022901269937905
246,1789796396.5309284,0.19916982421875007,-0.36821030273437505,-0.45524531249999983,0.6184624002090106
247,1789796396.5509284,0.19916982421875007,-0.39216049804687503,-0.44087519531249986,0.6227595145395498
248,1789796396.575633,0.13689931640625005,-0.5646019042968751,-0.37381464843749984,0.6908358159176519
249,1789796396.595633,0.20874990234375007,-0.832844091796875,-0.34986445312499986,0.9271520579332939
250,1789796396.6062312,0.22791005859375008,-0.8759544433593751,-0.44087519531249986,1.0067820615659946
251,1789796396.6262312,0.2758104492187501,-1.0723460449218751,-0.32591425781249983,1.1542172877770067
252,1789796396.650429,0.43867177734375007,-1.163356787109375,-0.23490351562499984,1.2653108724753601
253,1789796396.670429,0.25186025390625005,-1.374118505859375,-0.33070429687499986,1.43561853833618
254,1789796396.6963043,0.6446434570312501,-1.642360693359375,-0.46003535156249986,1.8233338582037908
255,1789796396.7163043,0.7356541992187501,-1.9776634277343752,-0.44566523437499983,2.1566078074969455
256,1789796396.725357,0.5967430664062501,-2.3273362792968753,-0.35465449218749984,2.4286572942809634
257,1789796396.745357,0.5680028320312501,-2.5572581542968753,-0.36902460937499987,2.6454443194362933
258,1789796396.77066,0.8122948242187501,-2.7632298339843753,-0.38339472656249984,2.905555629002794
259,1789796396.79066,0.6973338867187501,-2.868610693359375,-0.40255488281249985,2.9794718144829324
260,1789796396.815815,0.8027147460937502,-2.528517919921875,-0.5175158203124999,2.7028829902968643
261,1789796396.835815,0.8458250976562501,-2.605158544921875,-0.41213496093749985,2.7698603513591835
262,1789796396.8609629,1.0182665039062502,-2.562048193359375,-0.33070429687499986,2.7767468285828802
263,1789796396.8809628,0.6685936523437501,-2.509357763671875,-0.29238398437499985,2.613308679121866
264,1789796396.8915129,0.30934072265625007,-2.384816748046875,-0.20616328124999983,2.4136167680462717
265,1789796396.9115129,0.3859813476562501,-2.4039769042968753,-0.16784296874999982,2.4405445743297
266,1789796396.9353948,0.6446434570312501,-2.2411155761718753,-0.15347285156249985,2.3370319057770956
267,1789796396.9553947,0.5105223632812501,-2.068674169921875,-0.20616328124999983,2.140688955277716
268,1789796396.980913,0.16084951171875006,-2.092624365234375,-0.04809199218749983,2.0993480271515947
269,1789796397.000913,0.15126943359375006,-2.303386083984375,0.16266972656250017,2.3140724563791357
270,1789796397.011359,0.18479970703125007,-2.150104833984375,0.1435095703125002,2.1627983552825936
271,1789796397.031359,0.17521962890625006,-2.1980052246093753,0.2967908203125002,2.2248626197556383
272,1789796397.0556629,0.01714833984375006,-2.2411155761718753,0.4213318359375002,2.280441537793516
273,1789796397.0756629,-0.17924326171874994,-2.193215185546875,0.28242070312500017,2.2185766722244713
274,1789796397.099943,0.09857900390625006,-1.9872435058593751,0.10039921875000019,1.9922185057661268
275,1789796397.119943,0.4722020507812501,-1.9920335449218751,0.057288867187500175,2.048036727004586
276,1789796397.1314352,0.42909169921875007,-2.092624365234375,0.10518925781250019,2.1387522531303502
277,1789796397.1514351,0.20395986328125007,-2.059094091796875,0.10039921875000019,2.0716052007629524
278,1789796397.1911657,0.16563955078125006,-1.8674925292968751,0.052498828125000174,1.8755588326461936
279,1789796397.2111657,0.25186025390625005,-1.8195921386718752,0.09081914062500018,1.8391838556593716
280,1789796397.2356293,0.4147215820312501,-1.924972998046875,0.15308964843750017,1.975082649984753
281,1789796397.2556293,0.3859813476562501,-2.020773779296875,0.14829960937500017,2.0626441869535057
282,1789796397.2510188,0.6302733398437501,-1.599250341796875,0.1387195312500002,1.72455479675348
283,1789796397.2710187,0.6542235351562501,-1.417228857421875,0.16745976562500017,1.5699009017657242
284,1789796397.2950778,-0.66782724609375,-2.236325537109375,0.15787968750000017,2.339245847335802
285,1789796397.3150778,0.15126943359375006,-2.399186865234375,-0.014561718749999826,2.4039950290102254
286,1789796397.3406901,0.6638036132812501,-2.466247412109375,-0.05767207031249983,2.5546697638707756
287,1789796397.36069,0.84103505859375,-2.059094091796875,-0.19179316406249983,2.232485849101332
288,1789796397.371396,0.4578319335937501,-2.063884130859375,-0.16784296874999982,2.120707204493389
289,1789796397.391396,0.3524510742187501,-1.805222021484375,-0.23011347656249984,1.8536451976216388
290,1789796397.415604,0.26144033203125006,-1.9920335449218751,-0.15347285156249985,2.0149696294171155
291,1789796397.435604,0.43867177734375007,-2.1644749511718753,-0.06725214843749983,2.2095039248568615
292,1789796397.4614065,0.4338817382812501,-2.0447239746093753,-0.05767207031249983,2.0910465233586866
293,1789796397.4814065,0.3524510742187501,-1.9058128417968752,-0.14868281249999984,1.9438237899585296
294,1789796397.4906485,0.40035146484375006,-1.8722825683593751,-0.18700312499999983,1.9237186592494964
295,1789796397.5106485,0.42909169921875007,-1.9393431152343752,-0.15347285156249985,1.9921659873394413
296,1789796397.5355453,0.30934072265625007,-2.015983740234375,-0.14868281249999984,2.0449911252413253
297,1789796397.5555453,0.21832998046875007,-2.135734716796875,-0.11515253906249984,2.1499513641372108
298,1789796397.5804331,0.2758104492187501,-2.2315354980468753,-0.024141796874999826,2.248645127470744
299,1789796397.600433,0.3668211914062501,-2.0447239746093753,-0.05767207031249983,2.0781674587244385
300,1789796397.625974,0.2662303710937501,-1.848332373046875,-0.033721874999999825,1.8677120593387313
301,1789796397.645974,0.12252919921875007,-1.7429515136718752,0.023758593750000175,1.7474146200742533
302,1789796397.6564262,0.17521962890625006,-1.805222021484375,0.08602910156250018,1.8157448806266336
303,1789796397.6764262,0.2758104492187501,-1.886652685546875,0.10039921875000019,1.909347994186784
304,1789796397.7014024,0.38119130859375006,-1.7908519042968751,0.014178515625000176,1.8310265937928067
305,1789796397.7214024,0.3524510742187501,-1.795641943359375,-0.019351757812499825,1.8300071691115904
306,1789796397.7454698,0.3237108398437501,-1.920182958984375,-0.11036249999999984,1.9504028263957645
307,1789796397.7654698,0.2758104492187501,-1.920182958984375,-0.23969355468749984,1.954642422549702
308,1789796397.7762835,0.31892080078125007,-1.924972998046875,-0.21574335937499983,1.9631038478631073
309,1789796397.7962835,0.29018056640625006,-1.958503271484375,-0.13910273437499984,1.9847643175564835
310,1789796397.8206067,0.3428709960937501,-1.9345530761718752,-0.11994257812499984,1.9683603192849772
311,1789796397.8406067,0.29018056640625006,-1.7381614746093752,-0.15347285156249985,1.7688877830724072
312,1789796397.8655183,0.3428709960937501,-1.8148020996093752,-0.14868281249999984,1.8528825541414726
313,1789796397.8855183,0.3955614257812501,-2.063884130859375,-0.04809199218749983,2.101998902685683
314,1789796397.8962014,0.32850087890625007,-1.9728733886718752,0.014178515625000176,2.000085814528256
315,1789796397.9162014,0.25186025390625005,-1.6567308105468752,-0.10078242187499983,1.6787935140070138
316,1789796397.9405472,0.3045506835937501,-1.795641943359375,-0.12952265624999984,1.8258853266596207
317,1789796397.9605472,0.37161123046875005,-1.915392919921875,-0.10557246093749983,1.9539627654604232
318,1789796397.985681,0.30934072265625007,-1.8674925292968751,-0.12473261718749983,1.8970446108258958
319,1789796398.005681,0.17042958984375006,-1.886652685546875,-0.12473261718749983,1.8984369430576271
320,1789796398.016224,0.14647939453125006,-1.915392919921875,-0.16305292968749982,1.9278932824689143
321,1789796398.036224,0.20395986328125007,-1.929763037109375,-0.14868281249999984,1.946199266251073
322,1789796398.0609488,0.20395986328125007,-1.843542333984375,-0.11994257812499984,1.8586646241507732
323,1789796398.0809488,0.20874990234375007,-1.7908519042968751,-0.009771679687499826,1.8030037577820477
324,1789796398.1060865,0.13210927734375005,-1.8627024902343752,0.09560917968750018,1.8698274100906072
325,1789796398.1260865,0.23270009765625008,-1.8627024902343752,0.03812871093750018,1.8775685609778212
326,1789796398.1362903,0.24707021484375008,-1.915392919921875,-0.038511914062499826,1.93164616228608
327,1789796398.1562903,0.16563955078125006,-1.881862646484375,-0.07683222656249983,1.890700048144798
328,1789796398.181292,0.05546865234375006,-1.853122412109375,-0.08641230468749983,1.8559651214546855
329,1789796398.201292,0.20874990234375007,-1.8291722167968751,-0.11036249999999984,1.8443501299472314
330,1789796398.2261355,0.2662303710937501,-1.9393431152343752,-0.06246210937499983,1.9585279789186727
331,1789796398.2461355,0.29976064453125006,-1.929763037109375,-0.07204218749999983,1.9542343513977987
332,1789796398.2706537,0.18958974609375007,-1.810012060546875,-0.11515253906249984,1.8235536839922146
333,1789796398.2906537,0.29018056640625006,-1.891442724609375,-0.13431269531249984,1.9182805430175474
334,1789796398.3005226,0.3141307617187501,-1.915392919921875,-0.14868281249999984,1.9466676017948619
335,1789796398.3205225,0.32850087890625007,-1.9489231933593751,-0.09599238281249983,1.9787442933876789
336,1789796398.3456218,0.3237108398437501,-1.9776634277343752,-0.038511914062499826,2.0043513935323767
337,1789796398.3656218,0.28060048828125006,-1.9441331542968752,-0.038511914062499826,1.9646560826731865
338,1789796398.3907614,0.28060048828125006,-1.8579124511718752,-0.06246210937499983,1.8800204321631018
339,1789796398.4107614,0.15605947265625006,-1.886652685546875,-0.08641230468749983,1.8950672814674385
340,1789796398.4203136,0.22791005859375008,-1.9489231933593751,-0.09120234374999983,1.964322396127429
341,1789796398.4403136,0.21353994140625007,-1.9441331542968752,-0.07683222656249983,1.9573339570064823
342,1789796398.4664521,0.15126943359375006,-1.920182958984375,-0.05767207031249983,1.9269953568205331
343,1789796398.486452,0.18958974609375007,-1.848332373046875,-0.05288203124999983,1.8587827582334928
344,1789796398.5115163,0.14168935546875006,-1.891442724609375,-0.033721874999999825,1.8970420709052294
345,1789796398.5315163,0.16084951171875006,-2.0016136230468753,-0.028931835937499827,2.0082745610393298
346,1789796398.5408297,0.14168935546875006,-2.039933935546875,-0.038511914062499826,2.045211358851126
347,1789796398.5608296,0.2853905273437501,-1.9441331542968752,-0.14868281249999984,1.9705857133011928
348,1789796398.5859828,0.19916982421875007,-2.063884130859375,-0.23490351562499984,2.0867357250369465
349,1789796398.6059828,0.3524510742187501,-2.063884130859375,-0.25406367187499984,2.1091201517926184
350,1789796398.630614,0.3237108398437501,-1.8722825683593751,-0.17742304687499982,1.9083264032070437
351,1789796398.650614,0.20874990234375007,-1.7142112792968751,-0.05767207031249983,1.7278376369008992
352,1789796398.6606603,0.10336904296875006,-1.805222021484375,0.07644902343750018,1.8097945074181643
353,1789796398.6806602,0.15605947265625006,-1.810012060546875,0.07165898437500018,1.8181400464135176
354,1789796398.705775,0.24228017578125008,-1.8579124511718752,-0.00019160156249982575,1.8736430814077791
355,1789796398.725775,0.21832998046875007,-1.915392919921875,-0.004981640624999826,1.9278025922800417
356,1789796398.7507827,0.12731923828125008,-1.8148020996093752,-0.028931835937499827,1.8194927590715575
357,1789796398.7707827,0.11294912109375006,-1.7094212402343751,-0.04330195312499983,1.713695871403301
358,1789796398.781323,0.16084951171875006,-1.766901708984375,-0.004981640624999826,1.7742150465418172
359,1789796398.801323,0.20395986328125007,-1.7908519042968751,-0.009771679687499826,1.8024554515097915
360,1789796398.826422,0.18000966796875006,-1.766901708984375,-0.07204218749999983,1.7775081452848283
361,1789796398.846422,0.18479970703125007,-1.7812718261718752,-0.13910273437499984,1.7962265506174673
362,1789796398.8703623,0.20395986328125007,-1.8148020996093752,-0.17742304687499982,1.8348256658709325
363,1789796398.8903623,0.22791005859375008,-1.8722825683593751,-0.13431269531249984,1.8908794014195334
364,1789796398.9005804,0.22312001953125007,-1.9106028808593751,-0.07204218749999983,1.9249353205350963
365,1789796398.9205804,0.24228017578125008,-1.891442724609375,-0.05288203124999983,1.9076298837257335
366,1789796398.9458842,0.27102041015625006,-1.9441331542968752,-0.014561718749999826,1.9629869658279786
367,1789796398.9658842,0.16563955078125006,-1.920182958984375,-0.024141796874999826,1.9274651444613358
368,1789796398.9902592,0.12252919921875007,-1.8195921386718752,0.028548632812500176,1.8239363969758209
369,1789796399.0102592,0.13210927734375005,-1.8339622558593751,0.04770878906250018,1.8393331796145325
370,1789796399.0503998,0.29018056640625006,-2.030353857421875,0.057288867187500175,2.0517854570523126
371,1789796399.0703998,0.23749013671875008,-1.881862646484375,-0.06246210937499983,1.8978171936146644
372,1789796399.0658677,0.07462880859375007,-1.695051123046875,-0.15347285156249985,1.7036201703963592
373,1789796399.0858676,0.12731923828125008,-1.7429515136718752,-0.15826289062499985,1.754747078640275
374,1789796399.110823,0.32850087890625007,-1.9345530761718752,-0.13431269531249984,1.9668371391882837
375,1789796399.130823,0.4147215820312501,-1.915392919921875,-0.19179316406249983,1.9691390621463112
376,1789796399.1560292,0.3572411132812501,-1.929763037109375,-0.16305292968749982,1.9693127863017856
377,1789796399.1760292,0.26144033203125006,-1.8579124511718752,-0.13431269531249984,1.881018241154031
378,1789796399.1852195,0.19437978515625007,-1.795641943359375,-0.13910273437499984,1.8114809025599539
379,1789796399.2052195,0.24707021484375008,-1.8339622558593751,-0.14389277343749984,1.8561159385198116
380,1789796399.2311733,0.28060048828125006,-1.8291722167968751,-0.16305292968749982,1.857738918848649
381,1789796399.2511733,0.19437978515625007,-1.848332373046875,-0.06246210937499983,1.8595745688834466
382,1789796399.2752573,0.20874990234375007,-1.8579124511718752,-0.009771679687499826,1.8696284881419427
383,1789796399.2952573,0.2662303710937501,-1.8148020996093752,-0.038511914062499826,1.834630327549414
384,1789796399.3061745,0.3045506835937501,-1.7764817871093752,-0.06725214843749983,1.8036522697787951
385,1789796399.3261745,0.22791005859375008,-1.8579124511718752,-0.06246210937499983,1.8728809855768376
386,1789796399.35027,0.18000966796875006,-1.8722825683593751,-0.04330195312499983,1.8814145092161476
387,1789796399.37027,0.25186025390625005,-1.7908519042968751,-0.024141796874999826,1.808636767562193
388,1789796399.3956218,0.3524510742187501,-1.8722825683593751,0.20099003906250018,1.9157402671820296
389,1789796399.4156218,0.44825185546875007,-2.413556982421875,0.6033533203125002,2.5278888944059
390,1789796399.4261923,0.40993154296875006,-2.432717138671875,0.6273035156250002,2.545518856230317
391,1789796399.4461923,0.3380809570312501,-2.2506956542968752,0.38301152343750017,2.3079487621834067
392,1789796399.4701586,0.4817821289062501,-2.140524755859375,0.17703984375000018,2.201204978291504
393,1789796399.4901586,0.6733836914062501,-2.135734716796875,0.06686894531250018,2.2403749311734726
394,1789796399.515574,0.18958974609375007,-2.255485693359375,0.3399011718750002,2.2888190822812344
395,1789796399.535574,-0.20798349609374994,-2.432717138671875,0.6895740234375002,2.537101130273493
396,1789796399.5457652,-0.27504404296874996,-2.791970068359375,0.8668054687500002,2.9363408877107844
397,1789796399.5657651,-0.54328623046875,-2.777599951171875,0.6656238281250002,2.9074518908375295
398,1789796399.5902774,0.31892080078125007,-2.691379248046875,0.5985632812500002,2.7755199036665337
399,1789796399.6102774,0.4913622070312501,-2.4375071777343753,0.5746130859375002,2.552069407076508
400,1789796399.6356034,0.06504873046875007,-2.006403662109375,0.4165417968750002,2.050218052111863
401,1789796399.6556034,-0.14092294921874995,-1.398068701171875,0.22015019531250019,1.4222944418470655
402,1789796399.6810057,-0.035542089843749944,-1.3884886230468751,0.3494812500000002,1.4322363773423126
403,1789796399.7010057,-0.05470224609374994,-1.5896702636718751,0.5267126953125002,1.6755506994220346
404,1789796399.710943,-0.22714365234374995,-1.9393431152343752,0.6991541015625002,2.073996724958527
405,1789796399.730943,-0.54328623046875,-2.097414404296875,0.7901648437500002,2.306223664753144
406,1789796399.756018,-0.57202646484375,-1.9441331542968752,0.6177234375000002,2.1185962907913276
407,1789796399.776018,0.021938378906250063,-1.9537132324218751,0.4692322265625002,2.009391840695629
408,1789796399.8007123,0.5584227539062501,-2.135734716796875,0.4117517578125002,2.2456042088207244
409,1789796399.8207123,0.6302733398437501,-2.1548948730468753,0.3111609375000002,2.2666357285252925
410,1789796399.8312356,0.9799461914062501,-1.690261083984375,0.057288867187500175,1.954625049565076
411,1789796399.8512356,1.2817186523437503,-1.5130296386718751,-0.18221308593749982,1.9912968136248024
412,1789796399.875587,1.3966795898437503,-2.025563818359375,-0.45524531249999983,2.5021732460974677
413,1789796399.895587,1.5212206054687503,-2.3608665527343753,-0.7330675781249999,2.902617970801644
414,1789796399.920574,1.6170213867187502,-2.4901976074218752,-1.2743419921874999,3.2310663568190408
415,1789796399.940574,1.9714842773437502,-2.442297216796875,-1.85393671875,3.6453596952998875
416,1789796399.9509356,1.4829002929687503,-2.073464208984375,-2.5868126953125,3.631782898998222
417,1789796399.9709356,1.2481883789062502,-2.073464208984375,-3.185567578125,4.000633556072962
418,1789796399.9959915,1.6170213867187502,-2.332126318359375,-3.3340587890625,4.3783009648509985
419,1789796400.0159914,2.0337547851562503,-2.509357763671875,-3.1711974609375,4.52653600985375
420,1789796400.0561953,2.22535634765625,-2.6865892089843753,-2.993966015625,4.59715183071026
421,1789796400.0761952,2.77142080078125,-3.117692724609375,-2.9795958984375,5.126282561278766
422,1789796400.0702174,3.1019334960937504,-3.457785498046875,-2.917325390625,5.485349523911578
423,1789796400.0902174,3.3749657226562504,-3.443415380859375,-2.6107628906249998,5.483027082306648
424,1789796400.1160543,3.2647948242187503,-3.553586279296875,-2.304200390625,5.347541503233888
425,1789796400.1360543,3.41328603515625,-2.9500413574218753,-2.380841015625,5.101143941311052
426,1789796400.1609142,2.8768016601562505,-2.8398704589843753,-2.2946203124999998,4.648239924339909
427,1789796400.1809142,2.3738475585937504,-2.8829808105468753,-2.08385859375,4.2765871000330105
428,1789796400.2055836,-4.993232519531251,-8.367575537109374,2.1936462890625004,9.988031608122458
429,1789796400.2255836,-2.28686044921875,-7.380827490234375,3.4821667968750005,8.475366113393518
430,1789796400.2355149,0.5392625976562501,-4.276882177734375,-0.7378576171874999,4.373437912523111
431,1789796400.2555149,0.10815908203125006,-1.9537132324218751,-1.3174523437499999,2.358892634186334
432,1789796400.2809618,-0.25109384765625,-3.3284544433593752,-1.6000646484374998,3.701602893481283
433,1789796400.3009617,1.8804735351562503,-1.0292356933593751,-1.106690625,2.4125237757110063
434,1789796400.310469,2.4169579101562504,-1.924972998046875,-2.1173888671875,3.7457365360588306
435,1789796400.330469,0.5057323242187501,-4.8708470214843755,-0.43129511718749985,4.915987323882426
436,1789796400.3560417,-0.18882333984374994,-6.216847998046875,0.4452820312500002,6.235633838820502
437,1789796400.3760417,0.27102041015625006,-7.294606787109375,0.1339294921875002,7.300868260018189
438,1789796400.4012566,-1.14683115234375,-2.399186865234375,-1.93057734375,3.2860992356439946
439,1789796400.4212565,-3.60891123046875,-5.479181982421875,1.4080798828125003,6.710317758666966
440,1789796400.4459813,-11.79029794921875,-1.8627024902343752,1.7242224609375003,12.06041995095024
441,1789796400.4659812,-1.6976856445312498,-3.955949560546875,-0.46482539062499983,4.329865600340059
442,1789796400.4760244,-0.01638193359374994,-6.418029638671875,2.3469275390625004,6.833698975242388
443,1789796400.4960244,-2.76586435546875,-3.8553587402343754,0.5937732421875002,4.781878638348323
444,1789796400.5212846,0.4147215820312501,-0.363420263671875,0.7853748046875002,0.959625897153556
445,1789796400.5412846,1.9283739257812502,0.10121352539062499,-0.8432384765624998,2.1071120766846825
446,1789796400.565863,2.8289012695312503,-1.5130296386718751,0.5315027343750002,3.251835825638061
447,1789796400.5858629,1.9906444335937503,-3.256603857421875,0.3399011718750002,3.8319272894739034
448,1789796400.5961826,-1.17557138671875,-6.470720068359375,0.7614246093750002,6.620570498386258
449,1789796400.6161826,-2.0713086914062497,-6.212057958984375,0.2249402343750002,6.552143305050407
450,1789796400.6410441,-1.4917139648437499,-3.903259130859375,-0.8144982421874999,4.257234992583035
451,1789796400.6610441,-0.66303720703125,-3.476945654296875,-0.44087519531249986,3.566951129281639
452,1789796400.685882,1.5260106445312502,-2.336916357421875,-0.09120234374999983,2.792526529205068
453,1789796400.705882,1.4014696289062503,-1.6184104980468752,0.06686894531250018,2.141924629108635
454,1789796400.7160149,2.2205663085937504,-1.6711009277343751,-0.5414660156249999,2.8313739575713375
455,1789796400.7360148,2.12955556640625,-2.1548948730468753,-0.48398554687499984,3.068032078365454
456,1789796400.7611003,2.6277196289062505,-3.8218284667968754,-0.11994257812499984,4.639576435387764
457,1789796400.7811003,1.3344090820312502,-5.939025732421875,-0.30196406249999985,6.0945759937520005
458,1789796400.8063328,1.7319823242187502,-5.761794287109375,0.6752039062500003,6.054249457479239
459,1789796400.8263328,2.14871572265625,-4.363102880859375,-0.15826289062499985,4.866075744201125
460,1789796400.835586,2.1247655273437505,-2.571628271484375,-2.2419298828125,4.019222575615059
461,1789796400.855586,2.4361180664062503,-1.163356787109375,-2.859844921875,3.9327831398080675
462,1789796400.8808565,2.0912352539062504,-1.762111669921875,-2.4047912109375,3.641609972616157
463,1789796400.9008565,3.4611864257812504,-2.705749365234375,-2.170079296875,4.900013801634043
464,1789796400.9263828,4.70180654296875,-2.648268896484375,-2.1844494140625,5.821694955782922
465,1789796400.9463828,4.3042333007812505,-3.4961058105468754,-1.6431749999999998,5.783528700258942
466,1789796400.9557185,4.1174217773437505,-3.5487962402343753,-1.307872265625,5.590853844488986
467,1789796400.9757185,4.79281728515625,-1.771691748046875,-2.400001171875,5.645351610306597
468,1789796401.0009434,5.89452626953125,-1.517819677734375,-2.73530390625,6.67316296637945
469,1789796401.0209434,5.94721669921875,-2.006403662109375,-1.9497375,6.5724058336121125
470,1789796401.0461388,5.45863271484375,-1.278317724609375,-2.706563671875,6.2254521306107895
471,1789796401.0661387,5.62628408203125,-0.588552099609375,-3.185567578125,6.492249759557469
472,1789796401.075546,6.10049794921875,-0.19576889648437504,-3.837012890625,7.209512369923177
473,1789796401.095546,6.0861278320312495,-0.8951145996093751,-3.4969201171875,7.076060517000252
474,1789796401.1204712,6.66572255859375,-1.651940771484375,-2.936485546875,7.468849503614581
475,1789796401.1404712,7.43212880859375,-2.015983740234375,-2.5005919921875,8.096523289647894
476,1789796401.1655493,7.74348134765625,-1.651940771484375,-2.840684765625,8.411890490944744
477,1789796401.1855493,7.56145986328125,-0.8232640136718751,-3.69331171875,8.455411897245249
478,1789796401.2113807,7.53750966796875,-0.17181870117187503,-4.5315685546875,8.796515629874554
479,1789796401.2313807,7.80575185546875,-0.22929916992187505,-4.392657421875,8.959786792353611
480,1789796401.2410855,7.26447744140625,-0.39695053710937506,-3.8226427734375,8.218442674797071
481,1789796401.2610855,6.89564443359375,-0.325099951171875,-3.5975109375,7.784451623475898
482,1789796401.2860782,6.85732412109375,0.273654931640625,-4.047774609375,7.9675755667358645
483,1789796401.3060782,7.13035634765625,0.656858056640625,-4.641739453125,8.533416039420127
484,1789796401.3311381,7.28363759765625,0.6903883300781251,-4.7710705078125,8.734479176849527
485,1789796401.351138,7.11598623046875,0.201804345703125,-4.2729064453125,8.302753429830288
486,1789796401.3614025,7.17825673828125,-0.09517807617187503,-3.798692578125,8.121975989250762
487,1789796401.3814025,7.36985830078125,0.393405908203125,-4.1100451171875,8.447606196285445
488,1789796401.4061153,7.62852041015625,0.7095484863281251,-4.7471203125,9.01293148559175
489,1789796401.4261153,7.61894033203125,0.7287086425781251,-4.9530919921875,9.116599604671274
490,1789796401.4511888,7.71474111328125,0.436516259765625,-4.6369494140625,9.011607889747888
491,1789796401.4711888,7.89197255859375,0.470046533203125,-4.5507287109375,9.122132777455278
492,1789796401.4815633,7.87760244140625,0.838879541015625,-5.14948359375,9.448678235154624
493,1789796401.5015633,7.91113271484375,0.901150048828125,-5.0441027343750005,9.425553810641757
494,1789796401.5263429,7.64289052734375,0.599377587890625,-4.9435119140625,9.12202494791065
495,1789796401.5463428,7.99735341796875,0.920310205078125,-5.6428576171875005,9.830893888824066
496,1789796401.5705488,7.98777333984375,0.834089501953125,-5.6524376953125,9.82091035115262
497,1789796401.5905488,7.61415029296875,0.431726220703125,-5.005782421875,9.122473889724839
