imu_index,t_imu,ax,ay,az,mag,vx,vy,vz,velocity
0,1790651243.7338774,-0.01484912109375011,-0.006801855468750008,-0.0075682617187496515,0.018001117201943615,0.0,0.0,0.0,0.0
1,1790651243.7538774,-0.04358935546875011,-0.04033212890625001,0.0020118164062503485,0.05942019806045652,-0.00010659024258580804,-7.937326658883833e-05,-1.7984184509083538e-05,0.00013410826281754965
2,1790651243.7640514,-0.08190966796875011,-0.01159189453125001,0.0020118164062503485,0.08275030592588145,-0.00024844190660981344,-0.00015331479083525632,-2.269024703239436e-05,0.000292820172391126
3,1790651243.7840514,-0.07232958984375011,-0.03554208984375001,0.03075205078125035,0.08625832333565797,-0.0007168231252399706,-0.0003475659518290744,1.8592060515419282e-05,0.0007968582988611326
4,1790651243.8091109,-0.06274951171875011,-0.04991220703125001,0.01638193359375035,0.08183579522398475,-0.0014695380170742832,-0.0007150568035280418,0.00015114529980630228,0.0016412474272795964
5,1790651243.8291109,-0.06274951171875011,-0.07865244140625001,-0.0027782226562496517,0.10065498637043695,-0.002168417493407843,-0.001157204180697896,0.0002614730867218603,0.0024717451560833897
6,1790651243.8542218,-0.07711962890625011,-0.04033212890625001,0.01159189453125035,0.08779800569245139,-0.003177692054080393,-0.0018531575566658278,0.00039581573856517976,0.003699809430131399
7,1790651243.8742218,-0.03879931640625011,-0.03075205078125001,0.01638193359375035,0.05214828213004657,-0.004034843712101885,-0.002430940386986526,0.0005287256877060653,0.004740146179076187
8,1790651243.8984296,-0.010059082031250109,-0.02117197265625001,0.02596201171875035,0.03497804468452957,-0.005005416974495166,-0.0031196554736863617,0.0007423470609238096,0.005944537704643468
9,1790651243.9184296,-0.0052690429687501095,-0.04512216796875001,0.02117197265625035,0.05012010856097218,-0.0057099956115878245,-0.0037027477514426253,0.0009630638871008587,0.006873273080985757
10,1790651243.9295132,-0.053169433593750114,-0.03075205078125001,0.03075205078125035,0.06869036266599109,-0.006090468060988106,-0.004040487430449848,0.0011101962309047488,0.007392690683956319
11,1790651243.9495132,-0.03400927734375011,0.002778222656249992,-0.031518457031249655,0.046451723328661834,-0.006804803054543469,-0.004600471839947517,0.0013347175962856095,0.008321727995020544
12,1790651243.9735503,0.02826123046874989,-0.05470224609375001,-0.012358300781249653,0.06279936682410757,-0.007544914949684569,-0.005266147788780063,0.0014849835127086308,0.009320044536602992
13,1790651243.9935503,-0.03400927734375011,-0.02596201171875001,0.04991220703125035,0.06574104812564996,-0.008076972797394546,-0.00585793586271632,0.0016475881919903478,0.010112736968394634
14,1790651244.019011,-0.07711962890625011,0.012358300781249993,0.05949228515625035,0.0981809388524584,-0.008864909470910159,-0.006524275889796724,0.0020324535153264504,0.0111930184984024
15,1790651244.039011,-0.04837939453125011,-0.01159189453125001,0.03075205078125035,0.0584861219545849,-0.009579258841852326,-0.00696803787984111,0.002424792365428523,0.012091127733571712
16,1790651244.049147,0.023471191406249894,-0.04991220703125001,-0.036308496093749656,0.06603356817065859,-0.009905918197766468,-0.00720595466600973,0.00258957844299561,0.012520340031399142
17,1790651244.0691469,0.009101074218749892,-0.03075205078125001,-0.05067861328124965,0.05997366107966252,-0.010404935195127309,-0.007725986629851616,0.0027354782615507554,0.013245240169164984
18,1790651244.1085591,-0.02921923828125011,-0.05949228515625001,-0.0075682617187496515,0.06671112699012459,-0.011300267641875575,-0.008863806940637922,0.0028076906883611843,0.014633736681395877
19,1790651244.128559,-0.02442919921875011,-0.07865244140625001,0.04033212890625035,0.09170426890686914,-0.01176693063669139,-0.009561808345328906,0.00288798436637884,0.015434678135353408
20,1790651244.139225,0.004311035156249891,-0.05470224609375001,0.04033212890625035,0.06809993666612331,-0.01199456276087718,-0.009984889033764831,0.002988908292623266,0.015890283748974745
21,1790651244.159225,0.023471191406249894,-0.05470224609375001,0.02117197265625035,0.06317820019505953,-0.012315704109247963,-0.010823328694842836,0.0032420233699809145,0.016713220134811184
22,1790651244.1692243,-0.010059082031250109,-0.04991220703125001,0.03554208984375035,0.06209391026906748,-0.012442121067166531,-0.011258095216639695,0.0033921220474956455,0.01711892451476029
23,1790651244.1892242,-0.02442919921875011,-0.006801855468750008,-0.0027782226562496517,0.02551018489574006,-0.012708777640758666,-0.012082322184918462,0.0036964538055256108,0.017920918203005252
24,1790651244.2146153,0.004311035156249891,0.002778222656249992,-0.0075682617187496515,0.00914232632810789,-0.013034844520784069,-0.012979426681205102,0.004005162013909284,0.018825886736391868
25,1790651244.2346153,-0.057959472656250115,-0.03075205078125001,0.03075205078125035,0.07246156032749905,-0.013333627109426994,-0.01362202149490059,0.0042466256045175345,0.01952892497107109
26,1790651244.258917,-0.11064990234375012,-0.03075205078125001,0.01159189453125035,0.11542729978110747,-0.013949530499714344,-0.014397809566029127,0.004573192955523456,0.020562111157917368
27,1790651244.278917,-0.06274951171875011,-0.05470224609375001,-0.017148339843749652,0.08499354391975592,-0.014640476541159759,-0.01506868329670048,0.00479330421850369,0.021549583174150597
28,1790651244.2887325,-0.06274951171875011,-0.04512216796875001,-0.021938378906249653,0.08034179318496586,-0.015021096912808118,-0.01542202976214387,0.004856351176439265,0.02206935661040729
29,1790651244.3087325,-0.1346000976562501,-0.02117197265625001,0.01159189453125035,0.13674725128518195,-0.015976340661788237,-0.016133453155206607,0.004950026333301401,0.02323864308330268
30,1790651244.3338323,-0.12022998046875011,0.04588857421874999,0.04512216796875035,0.13637088945059309,-0.017475050856099367,-0.016845828808617246,0.005156716601836274,0.024814332084183766
31,1790651244.3538322,-0.01963916015625011,-0.02117197265625001,0.04033212890625035,0.04960473424896292,-0.018699926015343222,-0.017291243706180293,0.005424888586465217,0.026040425458532555
32,1790651244.3939931,-0.02921923828125011,-0.06428232421875,0.02596201171875035,0.07523301898226267,-0.020937756264085533,-0.0183088895837923,0.0060822975585793975,0.028471027708125537
33,1790651244.4139931,-0.06274951171875011,-0.07865244140625001,0.03075205078125035,0.10521119896359774,-0.022022975958676052,-0.018954057915858056,0.006445647778781219,0.029762630207060534
34,1790651244.40852,-0.03879931640625011,-0.07865244140625001,0.04033212890625035,0.09653120798408303,-0.022022975958676052,-0.018954057915858056,0.006445647778781219,0.029762630207060534
35,1790651244.42852,0.037841308593749894,-0.05470224609375001,0.03075205078125035,0.07328020872678515,-0.022937958830748638,-0.019820787410573616,0.00690542672338939,0.0310917752328228
36,1790651244.4541986,0.009101074218749892,-0.006801855468750008,0.01638193359375035,0.019936462525307858,-0.02384611277300946,-0.020885137190393862,0.007497978489479514,0.03257369692364309
37,1790651244.4741986,-0.02921923828125011,0.026728417968749994,0.01638193359375035,0.04285487091473635,-0.02447751363438933,-0.021559877089788244,0.007939410303637357,0.03357098762053322
38,1790651244.4991593,-0.010059082031250109,-0.02117197265625001,0.04512216796875035,0.0508472968767125,-0.02522085584552815,-0.02226526156494152,0.008522834974355641,0.03470550616453063
39,1790651244.5191593,-0.010059082031250109,-0.03554208984375001,0.02596201171875035,0.04514921188965702,-0.025757299995828153,-0.02283074769385668,0.009026813282636412,0.03558321094807511
40,1790651244.5437741,-0.03879931640625011,-0.06428232421875,0.006801855468750349,0.07539144114801476,-0.026408688581073213,-0.023606606890567056,0.009614526073249799,0.03670326733508987
41,1790651244.563774,-0.08190966796875011,-0.04033212890625001,0.0020118164062503485,0.0913231719450968,-0.027039627182151065,-0.024299368155293297,0.010033644787012437,0.037713058197501655
42,1790651244.5739515,-0.03400927734375011,-0.03554208984375001,0.01159189453125035,0.05053952032547345,-0.027401013892733382,-0.02465692930520787,0.010225313647569756,0.03825358498628544
43,1790651244.5939515,0.013891113281249892,-0.02117197265625001,0.006801855468750349,0.02621985301574523,-0.02803484076365018,-0.025339259868240614,0.010573062231854882,0.03924054067252549
44,1790651244.619054,-0.01484912109375011,-0.03554208984375001,0.03554208984375035,0.05241160842961485,-0.028712850312238473,-0.026173987880652994,0.011023782824019387,0.040386002555102274
45,1790651244.639054,-0.03400927734375011,-0.03075205078125001,0.03554208984375035,0.05801344433110239,-0.02924529921303567,-0.026838723189274022,0.011435645822795869,0.041308335525349946
46,1790651244.66372,0.009101074218749892,-0.06907236328125001,0.02596201171875035,0.07434949208755026,-0.029849543417863705,-0.027720233390901874,0.011981180084004924,0.0424612206337307
47,1790651244.6837199,0.004311035156249891,-0.04033212890625001,0.01159189453125035,0.04218575191996015,-0.030245877532510984,-0.028491887239707147,0.012413499560981854,0.043366988799573535
48,1790651244.6934044,-0.01484912109375011,-0.05470224609375001,-0.017148339843749652,0.05921906521007212,-0.030416660654131494,-0.028878523047639954,0.01258740391560077,0.0437902395071795
49,1790651244.7134044,-0.04358935546875011,-0.14092294921875,-0.021938378906249653,0.1491328333926692,-0.03080410572996768,-0.02985064917909583,0.01283404025448844,0.04477350528482566
50,1790651244.7392066,-0.06753955078125011,-0.14092294921875,0.0020118164062503485,0.15628472715366626,-0.03144402705631146,-0.031462091680423264,0.013065938552197369,0.046360638484335
51,1790651244.7592065,-0.053169433593750114,-0.10260263671875001,0.01159189453125035,0.11614069807411881,-0.03204670864783327,-0.03288909401874183,0.013239132511031598,0.04779078017962675
52,1790651244.7842543,-0.010059082031250109,-0.12655283203125,-0.0075682617187496515,0.12717736831639773,-0.03280706230440501,-0.034838670805394,0.01343106168762186,0.04970341777572673
53,1790651244.8042543,0.004311035156249891,-0.11218271484375002,-0.026728417968749654,0.11540344388684738,-0.0333317380969095,-0.03651995591764587,0.0135098794793536,0.05125649996180411
54,1790651244.8138433,0.013891113281249892,-0.08823251953125001,0.01159189453125035,0.09006837708013044,-0.033532469304490664,-0.03734926478893027,0.013531114416857731,0.05198543195254157
55,1790651244.8338432,0.0522114257812499,-0.006801855468750008,0.02596201171875035,0.05870540241249745,-0.03378918613341666,-0.03896207388922076,0.013625092028059832,0.053342248116112184
56,1790651244.8592582,0.0809516601562499,-0.006801855468750008,0.04991220703125035,0.09534497852850532,-0.03381265033249899,-0.04073005759681439,0.013871226066809067,0.05472333896011998
57,1790651244.8792582,0.0857416992187499,-0.09302255859375001,0.05470224609375035,0.13783022571245923,-0.0335783056681396,-0.04206239336497214,0.014192785957586064,0.05566132158303934
58,1790651244.904395,0.11927197265624989,-0.09302255859375001,0.06907236328125035,0.16628286513618262,-0.03294144392823058,-0.04383650151335777,0.014769663926487698,0.05678838407199811
59,1790651244.924395,0.1480122070312499,-0.08823251953125001,0.08344248046875036,0.19145557834618396,-0.03210981183869537,-0.045308203761947115,0.01538857547147612,0.05762535552594757
60,1790651244.9343371,0.0857416992187499,-0.03075205078125001,0.08823251953125036,0.12681602862021674,-0.031584116343552585,-0.04601877482239331,0.01577809911929937,0.058002003872070156
61,1790651244.9543371,0.047421386718749896,-0.06907236328125001,0.06428232421875035,0.10560301366225654,-0.030485481774209223,-0.04738352135776386,0.016672920174258674,0.058758394824948275
62,1790651244.9795737,0.02826123046874989,-0.13613291015625,0.05470224609375035,0.14940951142052056,-0.02916388585982117,-0.04923569089584598,0.0178578740938888,0.059946552558000805
63,1790651244.9995737,0.0665815429687499,-0.16966318359375002,0.03554208984375035,0.18569312825661383,-0.02813136311409908,-0.05094205044494796,0.018791453863378552,0.06115214495414206
64,1790651245.0236742,0.1001118164062499,-0.20319345703125002,0.006801855468750349,0.22661911217345926,-0.026772471872022325,-0.053363783727353994,0.019824233764599734,0.06290833735039843
65,1790651245.0436742,0.0665815429687499,-0.19840341796875002,0.01159189453125035,0.20959816350484953,-0.025563900557117502,-0.05567441500301877,0.020580324225529578,0.06462741866151296
66,1790651245.053735,-0.0052690429687501095,-0.23672373046875003,0.03075205078125035,0.23877096977668905,-0.02500087106345004,-0.05699073277515292,0.02093556731293552,0.06566037735875874
67,1790651245.073735,-0.01484912109375011,-0.20319345703125002,0.14092294921875034,0.24772435284823693,-0.024079682142797793,-0.05987482560893573,0.02179334340416024,0.06811589866198856
68,1790651245.0993724,0.0761616210937499,-0.03075205078125001,0.04033212890625035,0.09150388940908963,-0.022958071943508827,-0.06346713581740249,0.02307648569921556,0.0713279369423653
69,1790651245.1193724,-0.00047900390625010895,0.012358300781249993,0.04512216796875035,0.0467863985057855,-0.02210081576787318,-0.06587676372649656,0.024055510252409595,0.0735313649416758
70,1790651245.1444263,-0.02442919921875011,-0.21277353515625003,0.15529306640625035,0.2645473483352525,-0.02123481732850382,-0.06881911358136812,0.02547456069386665,0.07639333153911844
71,1790651245.1644263,0.03305126953124989,-0.36126474609375003,0.13613291015625034,0.38747486681773147,-0.020634274577169914,-0.07167665552653152,0.026874573661641164,0.07928151704079633
72,1790651245.1894145,0.042631347656249895,-0.30857431640625005,0.20319345703125036,0.37191816509668246,-0.019854661337227703,-0.07596671472622873,0.02899732121452171,0.08370181575527721
73,1790651245.2094145,0.0905317382812499,-0.05949228515625001,0.25109384765625037,0.273465624823592,-0.01912452951608509,-0.07943743214763645,0.031122901596472186,0.08743390794883668
74,1790651245.2192416,0.1049018554687499,0.11294912109375,0.24151376953125037,0.28651492824952596,-0.018675545792093684,-0.08084759061783056,0.032373727341627107,0.08906832849745709
75,1790651245.2392416,0.0522114257812499,0.10336904296874999,0.23193369140625036,0.2592381708694073,-0.017663178259798747,-0.08296254961732921,0.035247703794655895,0.0918540860715572
76,1790651245.2643707,-0.08669970703125011,0.14168935546875,0.23672373046875037,0.28918996735622754,-0.016646982394306883,-0.08475944124159447,0.0392003427606048,0.09485753409704771
77,1790651245.2843707,-0.1393901367187501,0.15126943359375,0.18403330078125035,0.2760078034235408,-0.016298653811082926,-0.08553561219418661,0.04250546333592912,0.09689531197581144
78,1790651245.3097236,-0.10106982421875012,0.26144033203125,0.19840341796875036,0.3434094827489508,-0.016380556992312164,-0.08558718174021523,0.04679392864003544,0.09890985837205384
79,1790651245.3297236,-0.11064990234375012,0.35245107421875,0.34210458984375036,0.5034885410799266,-0.016753055035720797,-0.08470092457292303,0.050480245845611255,0.10001583223255825
80,1790651245.3394618,-0.18729052734375012,0.5201024414062501,0.3900049804687504,0.6765265523095692,-0.017124827775665694,-0.08369684261128155,0.0525406249630444,0.10029425936189533
81,1790651245.3594618,-0.21603076171875013,0.58716298828125,0.31336435546875036,0.6997334378850965,-0.018378812654241888,-0.08028312057588385,0.05719248095375224,0.10027033500306529
82,1790651245.3845067,-0.21124072265625013,0.43388173828125004,0.37563486328125034,0.6115370440411747,-0.020516140188482242,-0.07473162197923286,0.06343815781405737,0.10015052270817994
83,1790651245.4045067,-0.06274951171875011,0.31413076171875,0.39479501953125035,0.5084080488403228,-0.02237789984591375,-0.06984135934385508,0.06883324065558191,0.10058131484356572
84,1790651245.4286175,0.1096918945312499,0.25186025390625,0.37563486328125034,0.46536807984207423,-0.024200776713311625,-0.06380677270144582,0.07575481022961782,0.10195966412766837
85,1790651245.4486175,0.0905317382812499,0.29018056640625,0.3181543945312504,0.44002610776591805,-0.02518571142200228,-0.058738859635598495,0.08167573764065802,0.1037087258154709
86,1790651245.4586334,0.2102827148437499,0.37161123046875,0.22235361328125036,0.48140923974492233,-0.02537900632650708,-0.05608441975265035,0.08460217967016449,0.10462831789747533
87,1790651245.4786334,0.56474560546875,0.13689931640625,0.07865244140625036,0.5864002287413667,-0.02454454221979061,-0.050816303733373355,0.09002070542881814,0.10624715847402032
88,1790651245.5042164,0.4785249023437499,-0.03075205078125001,0.02596201171875035,0.4802143238626192,-0.02163549482754234,-0.044884720167514505,0.09611288541112831,0.10826088621012381
89,1790651245.5242164,0.4258344726562499,-0.23193369140625003,-0.07462880859374965,0.4906095131404186,-0.01834588811272408,-0.041337196946489435,0.1000881534465915,0.1098315706998033
90,1790651245.548439,0.4737348632812499,-0.30857431640625005,-0.11294912109374966,0.5765417013447852,-0.013325119028610772,-0.03866709526523133,0.10383976879941778,0.11160376623435993
91,1790651245.568439,0.6413862304687499,-0.12655283203125,-0.21353994140624966,0.6877435732203003,-0.008128748322220408,-0.03744584689098105,0.10598300519606725,0.11269722884374049
92,1790651245.5787363,0.70365673828125,-0.002011816406250008,-0.20395986328124965,0.7326230125812088,-0.004815858342768944,-0.037010675266568434,0.1065985277376551,0.11294347564645167
93,1790651245.5987363,0.5551655273437499,-0.14092294921875,-0.12252919921874966,0.5857315468954719,0.002541679239947657,-0.036506645030571876,0.10712497116420666,0.11320315680968913
94,1790651245.6388812,0.5407954101562499,-0.39479501953125,-0.17521962890624965,0.6921161040221434,0.018394615861695454,-0.03725966506803368,0.10712668554726731,0.11490331278959923
95,1790651245.6588812,0.6605463867187499,-0.43790537109375005,-0.18000966796874965,0.8127029737869615,0.026909796604682977,-0.03882759237603436,0.10659456809198167,0.11659382929529764
96,1790651245.6995296,0.6222260742187499,-0.19840341796875002,-0.12252919921874966,0.6644867254961139,0.04553099700412145,-0.04347615572526705,0.10475297217801585,0.12221470036360253
97,1790651245.7195296,0.6557563476562499,0.007568261718749992,-0.18479970703124965,0.6813402951504803,0.055235720223501615,-0.045706528599025374,0.10352178770903797,0.12592391383552845
98,1790651245.6995296,0.4833149414062499,-0.05949228515625001,-0.14168935546874967,0.5071573109329974,0.055235720223501615,-0.045706528599025374,0.10352178770903797,0.12592391383552845
99,1790651245.7195296,0.4162543945312499,-0.13134287109375,-0.12731923828124966,0.45467445407702917,0.0650490499750841,-0.04767042852844547,0.10181247126669823,0.12988313194629575
100,1790651245.7446477,0.5312153320312499,-0.19840341796875002,-0.26623037109374964,0.6264441361681576,0.07730988246539952,-0.050388127886697644,0.09924634865314255,0.135519810654093
101,1790651245.7646477,0.4258344726562499,-0.09302255859375001,-0.3285008789062497,0.5458030981516435,0.08704360929818421,-0.05266461025126393,0.09661749622589949,0.14030356969633445
102,1790651245.7889183,0.3923041992187499,-0.03554208984375001,-0.36203115234374966,0.5350068972849501,0.0985731855939256,-0.05524682380759472,0.09264886975070091,0.1461256224111441
103,1790651245.8089182,0.3491938476562499,-0.08344248046875001,-0.4386717773437497,0.5668614636978583,0.10776117505204094,-0.0572339787716854,0.08866804312269942,0.15083176404803875
104,1790651245.8196144,0.44978466796874994,-0.29899423828125005,-0.49136220703124966,0.730164790005492,0.11257887364112813,-0.05844411081287424,0.08611232269813603,0.153313564303621
105,1790651245.8396144,0.5216352539062499,-0.29899423828125005,-0.5153124023437496,0.7918634760187574,0.12169302115371776,-0.061264418485232286,0.08054037278618456,0.15826961811538703
106,1790651245.8639076,0.5216352539062499,-0.13613291015625,-0.5392625976562497,0.7625219056370864,0.13300385309632895,-0.06496907385788697,0.07286612618341065,0.1649862959199889
107,1790651245.8839076,0.4976850585937499,-0.12176279296875002,-0.5201024414062497,0.7300843409194285,0.1424479723136876,-0.06794837592210198,0.0659067644861602,0.17103247706727104
108,1790651245.9097009,0.6174360351562499,-0.43311533203125,-0.4674120117187497,0.8872937152087681,0.15495797544431084,-0.07228774809149079,0.05636744937668003,0.18004105650426255
109,1790651245.9297009,0.6797065429687499,-0.57681650390625,-0.5201024414062497,1.0320972886748125,0.1651488416290794,-0.07666265907675271,0.048598960556398604,0.18844936231069487
110,1790651245.9540956,0.76592724609375,-0.5528663085937501,-0.6111131835937497,1.1250622314560752,0.1783594470398131,-0.08326534483747751,0.038475083888191236,0.20056306259990966
111,1790651245.9740956,0.6222260742187499,-0.45706552734375006,-0.6063231445312497,0.9816832173965083,0.1896477571762662,-0.08938145854583332,0.029593899418516437,0.21173359633407687
112,1790651245.9841802,0.6222260742187499,-0.45706552734375006,-0.5680028320312497,0.9584891240484774,0.1954271325308167,-0.09269420785686676,0.02489925098167753,0.217724488744096
113,1790651246.0041802,0.90004833984375,-0.6917774414062501,-0.6159032226562496,1.2915029315384545,0.207453021023952,-0.10000187880404864,0.015209473621684014,0.23079960958405585
114,1790651246.0288856,0.9287885742187499,-0.9983399414062502,-0.6254833007812497,1.50018672629861,0.22346863700028652,-0.11080642213294721,0.0027352199841122696,0.2494469409253844
115,1790651246.0488856,0.6988666992187499,-1.2378418945312502,-0.4961522460937497,1.5056009665371162,0.2369305868600368,-0.12159538155532205,-0.007530862182220818,0.2664174425420254
116,1790651246.0740623,0.6413862304687499,-1.21389169921875,-0.35245107421874966,1.4174382222111295,0.25386579688289546,-0.13776921724216093,-0.020118089775886333,0.28953918142927715
117,1790651246.0940623,0.6749165039062499,-1.1180909179687502,-0.3955614257812497,1.3645909385802517,0.2672753287308328,-0.1521881683655633,-0.029739320022573693,0.30900124125000666
118,1790651246.103837,0.64617626953125,-0.8690088867187501,-0.5344725585937496,1.2076345193771305,0.27381447177621543,-0.15963489957914936,-0.03441802401844916,0.3188138430104118
119,1790651246.123837,0.5360053710937499,-0.8785889648437502,-0.4195116210937497,1.1114001652057042,0.28696052098593344,-0.17520753587798538,-0.043986129975744186,0.3390852412936855
120,1790651246.1492753,0.4976850585937499,-1.0031299804687501,-0.25186025390624966,1.1477777497235342,0.30314524823320893,-0.1956336480044025,-0.05561138062695807,0.3650509435861257
121,1790651246.1692753,0.44978466796874994,-1.0318702148437502,-0.21832998046874966,1.1466169230361682,0.3153824260626591,-0.21233656447941512,-0.06408562018433431,0.38556433704182264
122,1790651246.193976,0.4689448242187499,-1.0270801757812502,-0.44346181640624965,1.2130380530942664,0.3299307400361333,-0.23368522792930593,-0.07420769388148844,0.41105943707007986
123,1790651246.213976,0.3156635742187499,-1.02229013671875,-0.3572411132812497,1.1279813069104574,0.3411203914785999,-0.25145229686410236,-0.08237516894712928,0.43171408077547574
124,1790651246.224246,0.3060834960937499,-0.9600196289062501,-0.09378896484374966,1.011988717522448,0.3464833619217491,-0.26073416706013924,-0.08628752216713723,0.44212957653032736
125,1790651246.244246,0.3970942382812499,-0.8163184570312502,-0.0027782226562496517,0.9077815683781946,0.3564153774432345,-0.2787628214941764,-0.09290843634635848,0.4619227310597766
126,1790651246.2691789,0.44020458984374994,-0.7253077148437501,0.05949228515625035,0.8505237763428366,0.36850553319051166,-0.30074962857023063,-0.09981821898958344,0.48601475689469287
127,1790651246.2891788,0.40188427734374993,-0.7013575195312501,0.03554208984375035,0.809120870284284,0.37801210148870695,-0.3178808987041478,-0.10438696769679166,0.5048148706781489
128,1790651246.3142197,0.3204536132812499,-0.6534571289062501,-0.05067861328124965,0.7295649795785971,0.38948594800023884,-0.33865707331341083,-0.10927763002876544,0.5275694432200877
129,1790651246.3342197,0.2725532226562499,-0.7157276367187501,-0.055468652343749654,0.7678724376718742,0.39816493293351923,-0.35481557820436055,-0.11275707076529377,0.5451087647084919
130,1790651246.344302,0.44020458984374994,-0.7061475585937501,-0.17042958984374967,0.8493943139212357,0.4024228065724469,-0.36281460698126144,-0.11441881366660547,0.5537781317544831
131,1790651246.364302,0.3970942382812499,-0.7779981445312502,-0.2901805664062497,0.9204182245534287,0.4108580855754344,-0.37852823234168864,-0.11791164415832563,0.5709563424558431
132,1790651246.403995,0.3491938476562499,-0.8833790039062501,-0.19916982421874965,0.970548003275831,0.42730974367495606,-0.409982368271118,-0.12526069447522803,0.6052845619319625
133,1790651246.423995,0.41146435546874993,-0.9360694335937502,-0.11294912109374966,1.0287304818492007,0.4354967353733044,-0.42618288649166636,-0.12887636363000357,0.6228148812943276
134,1790651246.4344058,0.4689448242187499,-0.9216993164062501,-0.13210927734374966,1.0425410012011953,0.43980657334913964,-0.4348015109777183,-0.13066749209777317,0.632104555750661
135,1790651246.4544058,0.44020458984374994,-0.9360694335937502,-0.24707021484374966,1.0635082305703916,0.44820791830532286,-0.4516616887568294,-0.13416103091799195,0.65029824030151
136,1790651246.4793835,0.3444038085937499,-0.9504395507812501,-0.27102041015624967,1.0466142487967602,0.45859621529571215,-0.47309370093118525,-0.1388401588717532,0.6733533457701466
137,1790651246.4993834,0.4162543945312499,-1.0749805664062502,-0.2901805664062497,1.1887201942583174,0.46680754799708696,-0.4907186033161938,-0.14286660624831116,0.6921884871106703
138,1790651246.5097163,0.5312153320312499,-1.08935068359375,-0.43388173828124965,1.2872948394385806,0.4711477696399376,-0.5001357717552423,-0.14519592260466838,0.7022804759972474
139,1790651246.5297163,0.4785249023437499,-1.1468311523437502,-0.5919530273437497,1.3764505660322928,0.4798030891731042,-0.5189835529954978,-0.15056696007326464,0.7226516049422353
140,1790651246.5541253,0.4066743164062499,-1.32885263671875,-0.4674120117187497,1.466188022880365,0.490402511022954,-0.5430681574544389,-0.15807815589974908,0.7486029320215378
141,1790651246.5741253,0.4833149414062499,-1.3623829101562501,-0.30455068359374965,1.477305535544276,0.49911958992680755,-0.5638790226917775,-0.16446736254616307,0.7707979181493874
142,1790651246.5994432,0.52642529296875,-1.2665821289062502,-0.33329091796874966,1.4115370042412545,0.5104166104243036,-0.5912637572385523,-0.17255338722150035,0.7999328835986792
143,1790651246.6194432,0.50726513671875,-1.1899415039062502,-0.3189208007812497,1.3322871983247133,0.5195526516692129,-0.6133363165358177,-0.17896115293508152,0.823494680795261
144,1790651246.6289098,0.5312153320312499,-1.2234717773437502,-0.18000966796874965,1.345910992415162,0.5239657015806704,-0.623930354016148,-0.18189344801482096,0.8348139730061784
145,1790651246.6489098,0.5791157226562499,-1.2234717773437502,-0.09378896484374966,1.3568546643287953,0.533556047708739,-0.6466252889391133,-0.18756989204141938,0.8590627362088241
146,1790651246.6743839,0.5168452148437499,-1.1133008789062502,-0.10815908203124966,1.232179455317347,0.5460329210847534,-0.6756604726878214,-0.19410132181938017,0.8901372637931239
147,1790651246.6943839,0.4689448242187499,-0.9935499023437502,-0.12731923828124966,1.1060112318802857,0.5558379786733884,-0.6981972186230202,-0.1988132532864218,0.9143095341901288
148,1790651246.7192352,0.44020458984374994,-0.9552295898437502,-0.09378896484374966,1.0559545540216329,0.5678884233395591,-0.725632359543348,-0.2042020237672301,0.9437891973794622
149,1790651246.7392352,0.4066743164062499,-0.9025391601562501,-0.036308496093749656,0.9905953977929788,0.5774020589927161,-0.74718650043192,-0.20808345294759925,0.966943394179475
150,1790651246.749355,0.3348237304687499,-0.8354786132812502,-0.04588857421874965,0.901242034627325,0.582056635515818,-0.757776011823789,-0.20981523026229085,0.9782825981757924
151,1790651246.769355,0.30129345703124993,-0.8163184570312502,-0.12252919921874966,0.8787303199508429,0.5908298212546534,-0.7780425424061529,-0.21297699042904242,0.9998946314136548
152,1790651246.7939098,0.28213330078124993,-0.8498487304687501,-0.08420888671874965,0.899407138448145,0.6010597575501212,-0.8022606488775933,-0.21665726044293449,1.0255902443892224
153,1790651246.8139098,0.3348237304687499,-0.8546387695312501,-0.05067861328124965,0.9192837857348566,0.6090676873175427,-0.8215843071731742,-0.21940755402864465,1.0459942142729075
154,1790651246.8383489,0.28213330078124993,-0.9264893554687501,-0.13689931640624967,0.9781222561822841,0.6185160648174032,-0.8449197552938972,-0.22260799872050327,1.0705166212709885
155,1790651246.8583488,0.3252436523437499,-1.09414072265625,-0.3093407226562497,1.1826322492889048,0.6259994780998572,-0.8641829768327468,-0.22550360688869017,1.0906600940479168
156,1790651246.8684247,0.3396137695312499,-1.33364267578125,-0.43388173828124965,1.4429808252136118,0.6297064651833427,-0.8742665573964417,-0.227305213163605,1.1011538973308308
157,1790651246.8884246,0.2102827148437499,-1.57314462890625,-0.4290916992187497,1.6441175535700223,0.6367857676243125,-0.8956398326380808,-0.23163935672086192,1.1230866463630083
158,1790651246.913732,0.2965034179687499,-1.64978525390625,-0.3955614257812497,1.7222585469202225,0.6453619349618677,-0.9247455082935572,-0.23786625326398408,1.1524871524874718
159,1790651246.933732,0.3875141601562499,-1.61146494140625,-0.30455068359374965,1.6851521001323508,0.6521489080672779,-0.9491888019650678,-0.2430992708782969,1.1770109751275828
160,1790651246.9585955,0.4976850585937499,-1.64499521484375,-0.09857900390624966,1.7214579560411716,0.6609713806549475,-0.9810905255392476,-0.2493807357791681,1.2089716856591572
161,1790651246.9785955,0.4976850585937499,-1.6593653320312503,-0.04109853515624965,1.7328799185998536,0.668496650403061,-1.0078593240498765,-0.25388509697567563,1.2357693276419894
162,1790651246.9884138,0.3635639648437499,-1.5012940429687502,-0.15126943359374967,1.5520776403022296,0.6722709870836476,-1.0213568026772397,-0.25590632614761893,1.249242188773605
163,1790651247.0084138,0.28213330078124993,-1.6402051757812501,-0.10336904296874966,1.6675003379650633,0.67977463090908,-1.0494393407953129,-0.25978795338892546,1.2770694027978602
164,1790651247.0338838,0.2007026367187499,-1.6593653320312503,0.01159189453125035,1.6714990952889754,0.6888194893843533,-1.086141046292669,-0.26416504230170657,1.312995746745479
165,1790651247.0538838,0.11927197265624989,-1.5491944335937502,-0.04588857421874965,1.5544564830779288,0.6953364487377789,-1.1154504635269313,-0.26713797870668277,1.3412998222594394
166,1790651247.079002,-0.11543994140625012,-1.4007032226562501,-0.0027782226562496517,1.4054549500260087,0.7023006574180369,-1.1522960657238681,-0.27040333151829243,1.3762740999483727
167,1790651247.099002,-0.06274951171875011,-1.09893076171875,0.05470224609375035,1.1020792421601975,0.7067467624612856,-1.1809826830012657,-0.2725354422168494,1.4030276729497215
168,1790651247.1092167,0.2965034179687499,-0.6774073242187502,0.02117197265625035,0.7397588878807169,0.708856029800467,-1.1947972652986583,-0.27340292666314175,1.415897784607916
169,1790651247.1292167,0.023471191406249894,-0.6199268554687501,0.09302255859375036,0.627306463672047,0.7128463380967887,-1.2197341745949168,-0.2746753454726826,1.439217809722796
170,1790651247.1538322,-0.5800737304687501,-0.6295069335937501,0.18882333984375035,0.8765949839534143,0.7159932626316787,-1.248128853361853,-0.2754861663479517,1.4650476492515256
171,1790651247.1738322,-0.5848637695312502,-0.8019483398437501,0.20319345703125036,1.0131507043222943,0.7164191882317152,-1.2698859777526676,-0.2754581111255154,1.4838274902239394
172,1790651247.1984444,0.5695356445312499,-0.22714365234375003,-0.21353994140624966,0.6492799055626696,0.7168364201003287,-1.2945439587386365,-0.2754478635513987,1.505181065461556
173,1790651247.2184443,0.78508740234375,0.12731923828125,-0.34287099609374966,0.8661021520107746,0.7191565406381267,-1.3117253086280243,-0.27627540101848375,1.5212289480698844
174,1790651247.2282355,-0.15376025390625012,0.44346181640625,0.03075205078125035,0.47036824607842914,0.7205856034439079,-1.3184557303514781,-0.27684895886772426,1.5278136243709222
175,1790651247.2482355,-1.03991748046875,0.97036611328125,0.27504404296875035,1.448684915901877,0.7212763169850793,-1.3280207706238325,-0.27738611226027016,1.5364965824650394
176,1790651247.273652,0.0953217773437499,1.66013173828125,0.06428232421875035,1.6641081235579798,0.720221798902815,-1.333338618851791,-0.27731950963869595,1.540589959256731
177,1790651247.293652,1.33115185546875,1.25297841796875,-0.16084951171874967,1.8351546920174135,0.7216561894720256,-1.3325258178192012,-0.27741981290235457,1.5405760168030633
178,1790651247.33329,1.04853955078125,0.95120595703125,-0.28060048828124967,1.4432479330551482,0.7311470634064567,-1.3246038416986814,-0.278901151664932,1.5384853649517813
179,1790651247.35329,0.1432221679687499,1.01347646484375,-0.20874990234374965,1.0446165114138195,0.7370051551154269,-1.318259239732343,-0.2802704938720671,1.5360779835482643
180,1790651247.3638792,0.0905317382812499,1.43020986328125,0.02596201171875035,1.433307459938614,0.7398271635140232,-1.3134631897290043,-0.28103191735772015,1.5334629833224054
181,1790651247.3838792,1.06769970703125,1.99064443359375,0.01638193359375035,2.2589635440043447,0.7460950162310988,-1.3006322411595874,-0.28219080558326876,1.5257567469109972
182,1790651247.3933258,1.78620556640625,2.03854482421875,-0.2901805664062497,2.725876021929387,0.7506334269511261,-1.2926261824087701,-0.28285006347501346,1.5212945630327093
183,1790651247.4133258,1.33594189453125,1.36793935546875,-0.22791005859374966,1.9256016775574878,0.7634838930178219,-1.27310888926637,-0.2848135883382524,1.5115662998786428
184,1790651247.4390728,0.7323969726562499,1.12843740234375,-0.23270009765624966,1.365256617641379,0.7815395534765999,-1.2469314919508108,-0.2878516294583365,1.4995001766751805
185,1790651247.4590728,1.01979931640625,1.16675771484375,-0.09378896484374966,1.552453084900322,0.7960894366775434,-1.2262045809321687,-0.2903472866878771,1.4905158879983857
186,1790651247.4841917,1.45090283203125,1.12843740234375,-0.060258691406249655,1.8390544061812326,0.8162767675945037,-1.1997535963707164,-0.29330174080066107,1.480453432052389
187,1790651247.5041916,1.67603466796875,1.14759755859375,-0.3189208007812497,2.056157299890844,0.8346296022191106,-1.1784379829906289,-0.2958700324192717,1.474063000261262
188,1790651247.513739,1.50838330078125,0.83624501953125,-0.45304189453124966,1.783191765617771,0.8443568298504206,-1.1683682392008166,-0.2974649347529877,1.4719063101623922
189,1790651247.533739,1.33115185546875,0.32371083984375,-0.4674120117187497,1.447490227548777,0.8659361805771982,-1.1486983795290848,-0.30168545648795614,1.4698188836117592
190,1790651247.5588567,1.42695263671875,0.06504873046875,-0.40035146484374967,1.4834778259808015,0.8941679288489781,-1.1269684396823312,-0.30782557822170864,1.4711732513982263
191,1790651247.5788567,1.42695263671875,0.07462880859375,-0.4290916992187497,1.4919393328313149,0.9175564434505509,-1.1120517819812794,-0.31322546611226254,1.4753573076873978
192,1790651247.6041734,1.65687451171875,0.10815908203124999,-0.5919530273437497,1.7627648513600784,0.9485770109552829,-1.0956549645491378,-0.3209742495698068,1.4843458545571284
193,1790651247.6241734,1.69040478515625,-0.20798349609375003,-0.5823729492187497,1.7999677009069555,0.9744280027764355,-1.084794361500133,-0.3279389866405324,1.4946011903836331
194,1790651247.6337392,1.90595654296875,-0.6151368164062501,-0.8985155273437497,2.195084007381408,0.9875178399026365,-1.0809695403657584,-0.3318329323505233,1.5012660411522254
195,1790651247.6537392,1.90595654296875,-1.1420411132812502,-1.1907079101562497,2.520855722848638,1.0164984019897587,-1.0768079964412973,-0.34188691805866783,1.5197602202937504
196,1790651247.678842,1.81015576171875,-1.4246534179687502,-0.9751561523437497,2.50144573486364,1.0544133377873242,-1.0772005123037753,-0.35669093960862536,1.5489922068913728
197,1790651247.698842,2.20293896484375,-1.2665821289062502,-1.0517967773437498,2.750172146052359,1.086109468914262,-1.081503178695232,-0.36975684482384974,1.576706386201058
198,1790651247.7239442,2.56219189453125,-1.2378418945312502,-1.3727293945312498,3.1593457947601244,1.1288953529277632,-1.0908084234087283,-0.38826065941329124,1.6171005145288213
199,1790651247.7439442,2.05444775390625,-1.5827247070312502,-1.6313915039062497,3.0638556282558564,1.164796296587091,-1.1013410833287132,-0.40529822090259265,1.6534718752484037
200,1790651247.7536829,1.73351513671875,-1.6976856445312503,-1.5451708007812497,2.876588966200677,1.182422230923644,-1.108096508745982,-0.4146701382440634,1.6727078431181077
201,1790651247.7736828,2.53824169921875,-1.85096689453125,-1.6840819335937498,3.564390737189234,1.2195979399402488,-1.125211848479854,-0.43587376397814714,1.7156651121913116
202,1790651247.7986343,2.61009228515625,-1.9898780273437502,-1.7176122070312498,3.704374170420746,1.2686548564717406,-1.150549205744536,-0.4647246860517311,1.7746035200896553
203,1790651247.8186343,2.21730908203125,-1.9467676757812502,-1.6313915039062497,3.3716171472666483,1.3093195209514055,-1.1737170742307028,-0.4894049623132834,1.825225080756334
204,1790651247.8445337,2.54303173828125,-2.0617286132812502,-1.6697118164062497,3.675006509732335,1.3633269253131322,-1.2070048758366874,-0.5229834309051474,1.8944742660111842
205,1790651247.8645337,2.83522412109375,-2.29644052734375,-1.7750926757812497,4.057473218651099,1.4068439502527303,-1.2353917361889541,-0.55019103503404,1.9514386532090866
206,1790651247.8746035,2.63883251953125,-2.36350107421875,-1.5451708007812497,3.864857978963237,1.4296021024976726,-1.2510597973366855,-0.5643426346391778,1.9817657271356175
207,1790651247.8946035,2.90228466796875,-2.3347608398437503,-1.3870995117187497,3.9747213145835474,1.476334236431852,-1.2845581099671817,-0.5926318617917998,2.0447163224159217
208,1790651247.9192073,3.26153759765625,-2.37308115234375,-1.5882811523437497,4.334948520504579,1.536574392039625,-1.3282734270407912,-0.6277033332856577,2.1258839652889234
209,1790651247.9392073,3.08430615234375,-2.56468271484375,-1.7271922851562498,4.367348744845903,1.5877159812481334,-1.3658850894691885,-0.6569091120456653,2.194997425108649
210,1790651247.9787629,2.84480419921875,-2.63653330078125,-1.6888719726562498,4.230426375443132,1.6912804356049946,-1.4445447957646809,-0.7161416331304704,2.336663864900945
211,1790651247.9987628,2.93581494140625,-2.60779306640625,-1.7271922851562498,4.28984699462393,1.7444607627386683,-1.4862172480134928,-0.7467223775595752,2.410306903731515
212,1790651248.0088532,2.92623486328125,-2.81855478515625,-1.8852635742187498,4.478986525575388,1.771702892379595,-1.5081946078542443,-0.7625704552183538,2.448488475202358
213,1790651248.0288532,2.60530224609375,-3.09158701171875,-1.9475340820312497,4.487582761933479,1.8258970828579157,-1.554086745757455,-0.7950201108980884,2.526092386921043
214,1790651248.038676,2.55261181640625,-3.31671884765625,-1.8277831054687497,4.566972966888681,1.8523215080971802,-1.5779664824690995,-0.8113482386141038,2.565026150638142
215,1790651248.058676,2.83043408203125,-3.25923837890625,-1.5499608398437497,4.586542326012992,1.906127706022915,-1.629158060715652,-0.8446732507523025,2.645931162936675
216,1790651248.0843108,3.05556591796875,-2.76586435546875,-1.4158397460937497,4.357876879688501,1.9760648733155664,-1.696514095827546,-0.8866822078091253,2.7512175120368956
217,1790651248.1043108,2.94060498046875,-2.29644052734375,-1.4302098632812497,3.995784904097245,2.031438741929983,-1.74877545985341,-0.91880999156258,2.8335791451439656
218,1790651248.1292984,2.96455517578125,-2.15752939453125,-1.6601317382812497,4.024867434707199,2.101311307799948,-1.8126229711194355,-0.9587205353716995,2.9360273010755837
219,1790651248.1492984,2.96934521484375,-2.42577158203125,-1.8277831054687497,4.247607544694173,2.157748841990218,-1.862935557771155,-0.9911049081940319,3.0180619437918357
220,1790651248.158577,2.84480419921875,-2.53115244140625,-1.8469432617187498,4.232120393554246,2.184050324309201,-1.8862252048742285,-1.0064325078653593,3.056276776652617
221,1790651248.178577,2.72984326171875,-2.3922413085937504,-1.6170213867187497,3.9736155925302374,2.2406014394117832,-1.9362812044147113,-1.039711430896846,3.1385473666015313
222,1790651248.2034824,2.73463330078125,-2.35392099609375,-1.2769286132812496,3.8274939619820594,2.3106669371377797,-1.998129991868302,-1.0803422164385057,3.2401920411303666
223,1790651248.2234824,2.72026318359375,-2.59821298828125,-1.0470067382812498,3.904710697413488,2.3666746556954066,-2.0477749965962317,-1.111561920762828,3.3211596267396746
