imu_index,t_imu,ax,ay,az,mag,vx,vy,vz,velocity
0,1790994593.932995,0.010729687500000045,-0.14767690429687494,-0.07055727539062509,0.16401805805186367,0.0,0.0,0.0,0.0
1,1790994593.952995,0.010729687500000045,-0.08061635742187492,-0.027446923828125087,0.08583389135677146,4.586937031801809e-05,-0.0005307274394150297,-0.00023696659896199745,0.0005830341183027127
2,1790994593.9780362,-0.03717070312499996,-0.10935659179687493,0.006083349609374913,0.11566128342148507,4.502733631781358e-05,-0.001452337925781895,-0.0005292803664097239,0.0015464315755788053
3,1790994593.9980361,-0.06112089843749996,-0.12851674804687493,0.06356381835937491,0.15586108481200406,-0.00010298156813522941,-0.0024348134495035317,-0.0006232566129899094,0.0025154265131175136
4,1790994594.0073452,-0.08507109374999997,-0.18599721679687492,-0.01786684570312509,0.20530776854124214,-0.00026360727278440467,-0.0030431023459722767,-0.0006285322522132993,0.003118495386303967
5,1790994594.0273452,0.03946992187500004,-0.09019643554687493,-0.07055727539062509,0.12112638370201878,-0.0006253400111103668,-0.004568235918025916,-0.0007708025609442074,0.004674822576333325
6,1790994594.0528076,0.10174042968750005,-0.04229604492187493,-0.05139711914062509,0.12158015588485653,-0.0007471235538509318,-0.006471681254481365,-0.0011576545078117904,0.006616722438169921
7,1790994594.0728076,0.13048066406250006,-0.023135888671874924,0.015663427734374912,0.13343843526967172,-0.000480101122321765,-0.007840665818575057,-0.0014695369966005486,0.007991625401043497
8,1790994594.097912,0.19275117187500004,0.06308481445312508,0.006083349609374913,0.20290321637726916,0.0004133902262414946,-0.00922607723103347,-0.0017613522224242794,0.009401795264926011
9,1790994594.117912,0.19754121093750004,0.07745493164062509,0.001293310546874913,0.21218734435936196,0.0016038721467138252,-0.00995342432869845,-0.0019478952262215608,0.010268269452174857
10,1790994594.1280656,0.10653046875000005,0.10619516601562508,0.06835385742187491,0.1652222862740705,0.0023491505951432415,-0.010127440879086744,-0.00197535593714911,0.010582324808684023
11,1790994594.1480656,0.06342011718750004,0.2019959472656251,0.12104428710937491,0.24387741473459615,0.003851890440344727,-0.009956509276893557,-0.0017372362570582459,0.010816058744206427
12,1790994594.1734314,0.09216035156250005,0.2259461425781251,0.03482358398437491,0.24649111900345386,0.005767899370766778,-0.00895810371612293,-0.0011840027885009724,0.010719988243616935
13,1790994594.1934314,0.16401093750000006,0.14930551757812507,-0.013076806640625088,0.22217724471875386,0.007436250384543184,-0.007726103035904662,-0.0007806098386093435,0.010751736586392339
14,1790994594.2176425,0.13527070312500006,0.10619516601562508,0.03482358398437491,0.1754658326014922,0.009696389788535226,-0.00599445660174718,-0.00032603970595437555,0.011404375772978518
15,1790994594.2376425,-0.022800585937499958,0.11098520507812508,0.09230405273437492,0.1461424668483363,0.011452062138770064,-0.0044528028034179976,0.00018383008823352677,0.012288652226249952
16,1790994594.2782798,-0.08507109374999997,0.14451547851562507,-0.03702700195312509,0.17173471808594237,0.014155486802129384,-0.0010115222186552028,0.0012328916171247969,0.014245034417075619
17,1790994594.2982798,0.03467988281250005,0.18762583007812508,-0.1998883300781251,0.2763358298987225,0.01521083707041637,0.000926297199306174,0.0013163780568215884,0.015295765494824923
18,1790994594.2933047,0.13048066406250006,0.17804575195312508,-0.2190484863281251,0.31097866943793356,0.01521083707041637,0.000926297199306174,0.0013163780568215884,0.015295765494824923
19,1790994594.3133047,0.09695039062500005,0.16846567382812508,-0.0945074707031251,0.21612895113659894,0.016525053392383412,0.0033123691942236323,0.0003722195909829051,0.01685786839205585
20,1790994594.337544,0.03467988281250005,0.13493540039062507,-0.03702700195312509,0.14415705124656153,0.018118218277527652,0.006321999355093118,-0.000839548149187685,0.019207872096948672
21,1790994594.357544,0.03946992187500004,0.13493540039062507,-0.0849273925781251,0.16425011117657085,0.01934679260968693,0.008837578187252577,-0.0018723403507952307,0.021351974870893218
22,1790994594.383244,0.09695039062500005,0.14930551757812507,-0.1088775878906251,0.20867641209895454,0.020951660120821215,0.01213310799408453,-0.003373973202584666,0.024445205390552303
23,1790994594.403244,0.12569062500000006,0.13972543945312507,-0.06097719726562509,0.19758428639350475,0.022347202013312566,0.01474656654719626,-0.004622048617444719,0.02717024100328725
24,1790994594.4128776,0.15443085937500006,0.11577524414062508,-0.027446923828125087,0.19495161222916135,0.02312096512881358,0.01600118736015853,-0.005196930807264912,0.028594144771932065
25,1790994594.4328775,0.17359101562500004,0.15409555664062508,0.049193701171874916,0.2372747384722841,0.024978431041368206,0.018619980040810225,-0.00617878580647126,0.031761660347828305
26,1790994594.457442,0.19754121093750004,0.17804575195312508,0.07793393554687492,0.277121847058351,0.027601362362724795,0.021965896310193134,-0.006969622948408592,0.03595707787114494
27,1790994594.477442,0.23107148437500005,0.18283579101562508,0.044403662109374915,0.29798429921104697,0.030059493051973498,0.02482277558476679,-0.007333419381618646,0.03966764865857362
28,1790994594.5030327,0.25502167968750006,0.14451547851562507,-0.05139711914062509,0.29759442954663917,0.03366592414788035,0.02855821402390809,-0.0077425083789088005,0.04482089326378544
29,1790994594.5230327,0.26460175781250006,0.08703500976562507,-0.07055727539062509,0.2873456320755823,0.03684112617690736,0.031387007171588356,-0.008197199368454035,0.049087746685484865
30,1790994594.532502,0.23107148437500005,0.08224497070312509,0.025243505859374914,0.24656743638464526,0.038470993225244304,0.032645660948000664,-0.008412368832121176,0.05115197403655359
31,1790994594.552502,0.18317109375000004,0.13972543945312507,0.044403662109374915,0.23461997618417696,0.0420184227469078,0.03523825106416706,-0.008694187420799313,0.05552360834012064
32,1790994594.577572,0.15922089843750006,0.13972543945312507,-0.06576723632812509,0.221810329569777,0.04644193996483953,0.03852605614133922,-0.009034629814309825,0.06101422232057864
33,1790994594.597572,0.18796113281250004,0.15888559570312508,-0.1471979003906251,0.2867773384518093,0.04996227971818126,0.04120341815664874,-0.009584929676211027,0.06546618928368558
34,1790994594.6231377,0.17359101562500004,0.04871469726562508,-0.0992975097656251,0.20583235382479334,0.05448051788478595,0.04451053658933555,-0.01065548820205138,0.07115373584913948
35,1790994594.6431377,0.11132050781250005,0.11098520507812508,-0.02265688476562509,0.15881846754439227,0.05791230878379639,0.0469491703915665,-0.011550292617841596,0.07544182771303921
36,1790994594.6524417,0.09695039062500005,0.16367563476562508,-0.05139711914062509,0.1970552093049712,0.05941464779770694,0.04810512001679445,-0.011955793433617442,0.07737663692215557
37,1790994594.6724417,0.13048066406250006,0.17325571289062508,-0.1280377441406251,0.25186585649517856,0.06250080812119449,0.05072262171523765,-0.012965860427199749,0.08153066236752339
38,1790994594.6983283,0.14006074218750006,0.13972543945312507,-0.16156801757812508,0.25542990082722816,0.0664213898077424,0.05420999146146431,-0.014639381474885143,0.08697606388088225
39,1790994594.7183282,0.15443085937500006,0.2211561035156251,-0.1280377441406251,0.29858428688418137,0.06943781758654034,0.05704150882547108,-0.016172810100091816,0.0913066483165469
40,1790994594.7433035,0.09216035156250005,0.3456971191406251,0.06835385742187491,0.36424206018347355,0.07310151034603363,0.06110882617570848,-0.017912266561651922,0.09694827870993837
41,1790994594.7633035,0.053840039062500046,0.4319178222656251,0.1689446777343749,0.4668983391828498,0.07581428328740389,0.06504375594055584,-0.01874031816308234,0.10163510841284559
42,1790994594.7725935,0.09216035156250005,0.4941883300781251,0.039613623046874914,0.5042666706380955,0.07698707812449743,0.06724262577893472,-0.018921940560054164,0.10395489769294927
43,1790994594.7925935,0.12090058593750005,0.4271277832031251,-0.008286767578125088,0.4439862220620596,0.07945279799662125,0.07264836960415917,-0.019207306023795136,0.10935928547830832
44,1790994594.8183422,0.020309765625000045,0.5229285644531251,0.015663427734374912,0.5235571726842624,0.08242378867496247,0.08039870010943903,-0.019505342272685758,0.11678223450506933
45,1790994594.8383422,-0.06112089843749996,0.5804090332031251,-0.01786684570312509,0.5838918001008173,0.08432409766827359,0.08717067552936617,-0.019705418711310037,0.12287222487772664
46,1790994594.862607,-0.0036404296874999564,0.4893982910156251,-0.07055727539062509,0.4944717070650985,0.08616594518368853,0.09610121307556015,-0.020072668245458645,0.13062513262953984
47,1790994594.882607,0.08737031250000005,0.4606580566406251,-0.0849273925781251,0.4764998202144299,0.08758194252118419,0.10378305151643837,-0.02056319089877178,0.1373476001165912
48,1790994594.9082508,-0.09465117187499997,0.4079676269531251,-0.11366762695312509,0.43395478842412816,0.08911118333006379,0.1138258242131343,-0.02147974889799684,0.14614547842819012
49,1790994594.9282508,-0.19045195312499996,0.3313270019531251,-0.1280377441406251,0.4030424203443026,0.08969730403989762,0.12159239006284861,-0.022449917634317657,0.15275573467143355
50,1790994594.9383464,-0.10423124999999996,0.3361170410156251,-0.1088775878906251,0.36836550854082784,0.0897256616985886,0.12543010648862868,-0.023045566504255918,0.15593108771665892
51,1790994594.9583464,-0.09465117187499997,0.3696473144531251,-0.1328277832031251,0.40403118866044824,0.0894750898374658,0.13295108618186313,-0.024411137887392284,0.16210393786492988
52,1790994594.982633,0.010729687500000045,0.4031775878906251,-0.15677797851562508,0.4327200343392898,0.08906358914740665,0.1421218543607389,-0.026348182554211015,0.16977977241904632
53,1790994595.002633,0.03946992187500004,0.2977967285156251,-0.1759381347656251,0.34813071325614864,0.08885085052946173,0.14959257347174199,-0.028203128566544392,0.17626068233910905
54,1790994595.0280216,0.08737031250000005,0.3265369628906251,-0.12324770507812509,0.35979154582508693,0.08886282418546412,0.15884238075385398,-0.03077432696471529,0.18459296477899756
55,1790994595.0480216,0.22628144531250005,0.4941883300781251,0.05398374023437492,0.5462047622346518,0.0893413188666339,0.16626708677434382,-0.03259988288881921,0.1915446886907112
56,1790994595.0582044,0.19275117187500004,0.546878759765625,-0.17114809570312509,0.6045833795307146,0.0898684191059619,0.17027536842467245,-0.0334794122115358,0.19542493414810885
57,1790994595.0782044,0.40351289062500006,0.5804090332031251,-0.3866998535156251,0.8057506285652748,0.09164279283129223,0.1786580078750125,-0.03578453190327956,0.20395494105150777
58,1790994595.1033723,0.19754121093750004,0.7959607910156251,-0.2525787597656251,0.8581212855637685,0.09467527849224,0.19022243193912533,-0.03945687633610156,0.21611299604748618
59,1790994595.1233723,0.3316623046875001,0.7624305175781251,-0.2717389160156251,0.8747240804747625,0.09751741127384658,0.200371343527893,-0.04272388053162836,0.226900089855439
60,1790994595.1480138,0.37477265625000006,1.0067225097656252,-0.3483795410156251,1.12929759591515,0.10179945043135775,0.21426954249444455,-0.04729135009399719,0.24189054703030058
61,1790994595.1680138,0.31729218750000004,0.9923523925781251,-0.3244293457031251,1.0911883447221302,0.1057916913579033,0.22685640856983386,-0.051451623271573856,0.25554448068164026
62,1790994595.1786077,0.18796113281250004,0.9252918457031252,-0.2669488769531251,0.9812013504268067,0.10799060601907634,0.23404717783226822,-0.053794622746395133,0.26331333782405275
63,1790994595.1986077,0.3412423828125001,0.9396619628906251,-0.2477887207031251,1.029956415795691,0.11231300197395466,0.2483836106888681,-0.05832653229215,0.2787662333218784
64,1790994595.2233868,0.33645234375000005,0.9684021972656252,-0.2765289550781251,1.0618244950463136,0.11812441781297577,0.2670274853926295,-0.06407354871848622,0.2989355711255281
65,1790994595.2433867,0.3220822265625001,0.8678113769531252,-0.2046783691406251,0.9480120154464303,0.12309920975613746,0.2825726553502442,-0.06873816806233465,0.3157936933234088
66,1790994595.2679374,0.34603242187500005,0.8103309082031251,-0.2669488769531251,0.9206716682316852,0.1295201312361585,0.301882523972369,-0.07447366158551372,0.3368305938380795
67,1790994595.2879374,0.3891427734375001,0.7576404785156251,-0.2477887207031251,0.8870459080068552,0.135069025520759,0.3176054934768853,-0.07921727888689212,0.3541077073660879
68,1790994595.2976844,0.46578339843750005,0.7001600097656251,-0.2669488769531251,0.8822924211629168,0.13799262420661285,0.3251844111446562,-0.08155860523140504,0.3625447167925861
69,1790994595.3176844,0.48494355468750006,0.7528504394531251,-0.2573687988281251,0.9317686054101328,0.14451781922650458,0.34058246405691756,-0.08642863430640474,0.379936473275647
70,1790994595.3427644,0.31250214843750007,0.7001600097656251,-0.2908990722656251,0.8200633526125009,0.15297301499864926,0.3597283506962599,-0.09265088657682159,0.40173301631294805
71,1790994595.3627644,0.40830292968750004,0.6570496582031251,-0.2525787597656251,0.8137699709506246,0.15978541728843104,0.3747418430418059,-0.09768373942309105,0.4189330990171174
72,1790994595.3883333,0.5136837890625001,0.6762098144531251,-0.2717389160156251,0.8916124644629436,0.16895639998570508,0.39361348838105,-0.10415831905310317,0.4408251339926032
73,1790994595.4083333,0.3604025390625001,0.6618396972656251,-0.1903082519531251,0.7772637942171275,0.17636502082719996,0.4081677131606701,-0.10915612972460721,0.4578433829320295
74,1790994595.4185073,0.30771210937500004,0.7911707519531251,-0.15198793945312508,0.8624025943498155,0.1800782925220998,0.4155696390192043,-0.11157835781673157,0.4664504756619992
75,1790994595.4385073,0.23107148437500005,0.9444520019531252,-0.2525787597656251,1.0045793372199496,0.18709104106434274,0.4305410846264989,-0.1162325527248172,0.4836100593565327
76,1790994595.4625056,0.24544160156250006,0.8390711425781251,-0.1759381347656251,0.8917601635808434,0.19510119434179166,0.44902097586384315,-0.12175076648360855,0.5044874249559227
77,1790994595.4825056,0.27897187500000004,0.8199109863281251,-0.1998883300781251,0.8888389488788146,0.2015620782333879,0.4646003059759095,-0.12622351998382073,0.5219320767032595
78,1790994595.5084875,0.32687226562500005,0.9444520019531252,-0.3292193847656251,1.05224543968294,0.20987696632773292,0.485241612904551,-0.13219351913313193,0.5449613659608763
79,1790994595.5284874,0.32687226562500005,0.9779822753906251,-0.3292193847656251,1.0824417824153416,0.21629802134372708,0.5016308882411785,-0.1370873524424932,0.5632151669429166
80,1790994595.5370514,0.17838105468750004,0.8247010253906251,-0.3004791503906251,0.8956781239771603,0.21895961773269365,0.5087539581002132,-0.13927301683606574,0.5711137166089604
81,1790994595.5570514,0.07779023437500004,0.7911707519531251,-0.1855182128906251,0.8163452006500205,0.22462728391793058,0.5253174339019699,-0.14434067161842823,0.5892792653105623
82,1790994595.5818925,0.21670136718750005,0.8965516113281251,-0.2477887207031251,0.9550725231225535,0.2311595640859538,0.5459486275546854,-0.15049811595966528,0.6116733858070512
83,1790994595.6018925,0.28855195312500004,0.9109217285156251,-0.2477887207031251,0.987137211962875,0.2363878085963952,0.5627787902066322,-0.1554553278065614,0.6298932621507329
84,1790994595.627913,0.3987228515625001,0.6522596191406251,-0.06576723632812509,0.7672990632692342,0.24351082931647874,0.5844414303684459,-0.161549293601437,0.653427489312041
85,1790994595.647913,0.37477265625000006,0.9827723144531251,-0.1903082519531251,1.0688840894548328,0.24932475267079243,0.6010468227634713,-0.16591477549087366,0.6715264910445473
86,1790994595.6726136,0.39393281250000006,0.9875623535156252,-0.1471979003906251,1.0733730408040296,0.25685214694737746,0.6221289426627177,-0.171122809907534,0.6944785545722476
87,1790994595.6926136,0.39393281250000006,1.456986181640625,-0.2717389160156251,1.5335689853192898,0.26321460241927885,0.6403053322797649,-0.17533559513182026,0.7141536364066691
88,1790994595.7027175,0.5136837890625001,1.4138758300781251,-0.3819098144531251,1.5520215863190612,0.2666345425319383,0.6502861258686062,-0.17763997263179948,0.7249289514463078
89,1790994595.7227175,0.5520041015625001,1.380345556640625,-0.47771059570312513,1.5614960125233668,0.2739871569852354,0.6712702410239958,-0.18280654067843727,0.7477238327030126
90,1790994595.7478626,0.32687226562500005,2.1754920410156253,-1.004614892578125,2.4184420979107415,0.28350209917294317,0.7004011270034539,-0.19112336186489717,0.7793993317893685
91,1790994595.7678626,0.25981171875000003,2.443734228515625,-1.1195758300781251,2.7005164595154403,0.2908149545522624,0.7270246716130088,-0.19993245351904565,0.8081529538988167
92,1790994595.792168,0.19275117187500004,2.8939979003906253,-1.3447076660156252,3.196969747865269,0.29919395117214603,0.7642563658735092,-0.21352419647220905,0.848055066416849
93,1790994595.812168,0.25023164062500003,3.2388807128906256,-1.603369775390625,3.6226728782683306,0.30571897990402214,0.7994967879747027,-0.22745283559829368,0.885660206330355
94,1790994595.822166,0.21191132812500005,3.2388807128906256,-1.521939111328125,3.584906322613303,0.30883812896654833,0.8193285004795967,-0.23571491048866566,0.9067754411255207
95,1790994595.842166,0.15443085937500006,3.4400623535156254,-1.5075689941406252,3.7590746412510807,0.31469120670574263,0.8630672484343496,-0.25430737511211354,0.9531987578329972
96,1790994595.8678777,-0.0036404296874999564,3.6604041503906255,-1.4548785644531252,3.9389393793546015,0.32137794774041334,0.9245552493487967,-0.2803370520439251,1.0181724103220113
97,1790994595.8878777,0.0011496093750000436,3.4592225097656257,-1.3111773925781252,3.699379386934906,0.3257953177945759,0.9758890107104089,-0.3016963047481024,1.0721579224260152
98,1790994595.912643,0.23586152343750005,3.2388807128906256,-1.3447076660156252,3.5148567022873545,0.3308849299893489,1.0423600564584081,-0.32911046129525956,1.1420652432886707
99,1790994595.932643,0.18317109375000004,3.3538416503906254,-1.521939111328125,3.6875607281875005,0.33500721708597747,1.09787784662056,-0.3522287376595962,1.2006792599329605
100,1790994595.9423177,0.17838105468750004,3.3538416503906254,-1.5506793457031252,3.6992810179488407,0.336964559918387,1.1255727441906267,-0.3639640040245484,1.2300117533305899
101,1790994595.9623177,0.21670136718750005,3.2197205566406257,-1.4692486816406252,3.5457371072737285,0.3409965139629777,1.184096969542163,-0.3891144312153669,1.2921974680341608
102,1790994595.9878855,0.25023164062500003,3.2197205566406257,-1.4165582519531252,3.5264505693403096,0.3462731439539926,1.2600393835632184,-0.421977445236948,1.3731967457880387
103,1790994596.0078855,0.25981171875000003,3.1814002441406255,-1.4165582519531252,3.4921980075296926,0.35054663407784986,1.3201350880134919,-0.4480776999167472,1.4375024237998288
104,1790994596.0320122,0.24065156250000005,3.0760193847656256,-1.4117682128906253,3.3930661527468016,0.35583421434503326,1.393079388054756,-0.4799584823710121,1.5157995627131728
105,1790994596.0520122,0.12090058593750005,3.1095496582031257,-1.2920172363281253,3.3694546394750846,0.36010222874003495,1.4537550816542457,-0.5064777034868143,1.581011422067646
106,1790994596.0628965,0.05863007812500005,3.1814002441406255,-1.3015973144531252,3.4378627908150383,0.36222309245121226,1.4869580357365844,-0.5208622554722752,1.616646918137101
107,1790994596.0828965,0.19275117187500004,3.0903895019531253,-1.3159674316406251,3.364436144316027,0.3659127057453793,1.5482248534855927,-0.5472555915017066,1.6823736171273824
108,1790994596.1066854,0.31729218750000004,2.9562684082031256,-1.162686181640625,3.1924968896721633,0.3705530210142306,1.6209557352362391,-0.5783623964100916,1.7604857564204415
109,1790994596.1266854,0.21670136718750005,2.9562684082031256,-1.1962164550781251,3.196469332135137,0.3746700608504373,1.681799289309663,-0.6041302126150491,1.8258696059178108
110,1790994596.1522126,0.15922089843750006,3.0472791503906254,-1.2153766113281252,3.2845702644741963,0.3798563924373428,1.7593030390203055,-0.6367030386400593,1.9091434784727626
111,1790994596.1722126,0.21670136718750005,3.0233289550781257,-1.2968072753906252,3.2968449406456437,0.3838741370112535,1.8200229261497678,-0.6621633363118394,1.9744120868583954
112,1790994596.1825042,0.38435273437500006,2.9418982910156255,-1.2153766113281252,3.206186658082407,0.38609540257217095,1.8511857135190974,-0.6752385522866172,2.007960484750311
113,1790994596.2025042,0.25023164062500003,3.0903895019531253,-1.3159674316406251,3.3682181385549823,0.3907164419301908,1.9117099125157726,-0.7006336611987296,2.0732056470139155
114,1790994596.227961,0.20712128906250005,3.0424891113281256,-1.282437158203125,3.3082146674109927,0.39658924383594585,1.9889015325114503,-0.7330701754652881,2.156479588706898
115,1790994596.247961,0.19754121093750004,3.0137488769531253,-1.3878180175781252,3.323814626790934,0.4011180623724811,2.049534027380205,-0.7587364832906908,2.2219735552942796
116,1790994596.2726154,0.15922089843750006,3.1718201660156256,-1.2728570800781251,3.421397317814411,0.406523096450599,2.124503120499014,-0.7905497604505459,2.3029857708432
117,1790994596.2926154,0.28376191406250006,3.3490516113281257,-1.3973980957031251,3.6399710104733867,0.41091451268395734,2.18597798938806,-0.816491404312545,2.3693899468301183
118,1790994596.3176768,0.44662324218750005,3.1334998535156253,-1.282437158203125,3.415104495792863,0.41696468438705636,2.263640058599277,-0.8491591132446721,2.453364437365108
119,1790994596.3376768,0.3604025390625001,3.1191297363281256,-1.2920172363281253,3.395315720397446,0.4222792603191912,2.325699832047236,-0.8751804155342023,2.5205436402123422
120,1790994596.3475497,0.03946992187500004,3.4017420410156256,-1.488408837890625,3.713322993904098,0.4248053451864032,2.3565685646114027,-0.8881577515560974,2.5539575510690793
121,1790994596.3675497,-0.03238066406249996,3.2915711425781256,-1.4309283691406252,3.5892959047241626,0.4291655970754246,2.419760814715241,-0.9148821839584967,2.622295734784531
122,1790994596.3925552,0.28855195312500004,3.1861902832031257,-1.4261383300781252,3.502704852959822,0.43427983132946657,2.499066140966756,-0.9486414525568581,2.7081084088963663
123,1790994596.4125552,0.22149140625000005,3.3155213378906256,-1.565049462890625,3.6730260013162006,0.43852179571079125,2.5627342377389826,-0.9760793889456134,2.777163861229197
124,1790994596.436742,0.10174042968750005,3.2197205566406257,-1.6177398925781252,3.6047238365686076,0.4434686364194456,2.640036372535904,-1.0100576221267406,2.8612362502625652
125,1790994596.456742,-0.05154082031249996,3.4879627441406256,-1.6991705566406252,3.8801702464229453,0.44702087522499556,2.7044305132786914,-1.0389149446547246,2.9314017681421114
126,1790994596.4670646,-0.05154082031249996,3.9382264160156257,-1.9051422363281252,4.375140077826434,0.448499471700474,2.7384301482455844,-1.0543653643616813,2.968473980768819
127,1790994596.4870646,-0.10423124999999996,3.7849451660156257,-1.7518609863281251,4.172012821006207,0.4507008773883925,2.8060080434066474,-1.0852957739191749,3.0421504462186433
128,1790994596.5121784,-0.19045195312499996,3.8280555175781257,-1.8620318847656252,4.2611552109719355,0.45249547564696163,2.8924758919407565,-1.1251158875369518,3.136407929674886
129,1790994596.5321784,-0.24314238281249997,3.9573865722656256,-1.7949713378906251,4.352234920649031,0.4530598796471694,2.962685639806896,-1.1575563170612269,3.21289683650631
130,1790994596.5579515,-0.13297148437499998,3.8567957519531255,-1.7087506347656252,4.220471966469211,0.4529510826626456,3.0546949278666493,-1.199862742959406,3.313004133345077
131,1790994596.5779514,-0.18566191406249996,3.8567957519531255,-1.8332916503906251,4.274377392557776,0.452401370187614,3.1269549198832562,-1.2330812529063364,3.39160779675345
132,1790994596.5878675,-0.33894316406249997,3.6843543457031256,-1.5410992675781252,4.00803397761247,0.45177955163253913,3.163016074791875,-1.249590189181306,3.430779954115867
133,1790994596.6078675,-0.06112089843749996,3.5550232910156256,-1.5506793457031252,3.8789860527049655,0.45011341801115123,3.2356979323279043,-1.2825305704324312,3.509590839747348
134,1790994596.6323142,0.17838105468750004,3.5214930175781256,-1.761441064453125,3.9414981285121367,0.44859732412297604,3.3241882498226176,-1.3228279805058156,3.6057372263488845
135,1790994596.6523142,0.13048066406250006,3.4161121582031253,-1.5027789550781252,3.734326186736117,0.4480063412744561,3.3961298394206216,-1.3557466808151732,3.684081517904649
136,1790994596.677218,0.14485078125000006,3.2819910644531256,-1.3399176269531252,3.5479326858043105,0.44789509769330843,3.4847842428976037,-1.3958977495537301,3.7805901345285093
137,1790994596.697218,0.06342011718750004,3.2867811035156254,-1.3830279785156252,3.5664714386979863,0.4481315658929635,3.555155263701841,-1.4273903597257955,3.857122514053024
138,1790994596.7078497,0.24544160156250006,3.2532508300781253,-1.4548785644531252,3.5721917894321913,0.44848469619714926,3.5921674676446096,-1.443883260081827,3.8973843160601778
139,1790994596.7278497,0.5567941406250001,3.3059412597656257,-1.2776471191406251,3.5877081109119517,0.4502526952529244,3.661187841690517,-1.4743537829392015,3.972498329639941
140,1790994596.7522445,0.3508224609375001,3.3155213378906256,-1.4213482910156252,3.6243605098664404,0.45374629862912663,3.744861309042918,-1.5108830462968164,4.063574720252283
141,1790994596.7722445,0.29813203125000004,3.2772010253906254,-1.4213482910156252,3.584572531453598,0.4571543188202582,3.813059960165788,-1.540603255733953,4.137858712258502
142,1790994596.797056,0.16401093750000006,3.2915711425781256,-1.4117682128906253,3.5853074709431945,0.46160802684472585,3.897198342188562,-1.5772149616351168,4.229520531219871
143,1790994596.817056,0.14964082031250006,3.2053504394531256,-1.4788287597656251,3.533213596078799,0.46513003034407524,3.9645924172309233,-1.606635924374996,4.302977803031886
144,1790994596.827197,0.20712128906250005,3.1718201660156256,-1.7758111816406252,3.6409954334997696,0.46691935691577574,3.9984895511288654,-1.6217917491782619,4.340062309927363
145,1790994596.847197,0.10653046875000005,3.3777918457031255,-1.8572418457031252,3.8561864279494285,0.4703893528877457,4.065137063763004,-1.6526476310695792,4.413371691005612
146,1790994596.8726459,-0.13297148437499998,3.6412439941406256,-1.8332916503906251,4.078884346964749,0.4740919468553505,4.150618299372568,-1.6930645547834176,4.507644953611974
147,1790994596.8926458,0.03946992187500004,3.6412439941406256,-1.6560602050781252,4.000343873024093,0.4764250544723325,4.218644110976584,-1.7252973779616112,4.582640069873215
148,1790994596.9177334,0.25981171875000003,3.5310730957031256,-1.5123590332031251,3.8500921004190762,0.47947578859423606,4.304670064546652,-1.7656263826904184,4.677340902660891
149,1790994596.9377334,0.46578339843750005,3.3969520019531254,-1.5027789550781252,3.7436054366958915,0.4826314342132046,4.3733554367349,-1.7974770307821133,4.75290380225591
150,1790994596.947815,0.5615841796875001,3.1430799316406257,-1.4788287597656251,3.5187018555523086,0.48476032698035615,4.407729757818274,-1.8133783694959866,4.790763540765372
151,1790994596.967815,0.729235546875,2.9562684082031256,-1.2201666503906252,3.2802612760100986,0.4902864010962697,4.47484248577194,-1.844240498207512,4.8647527216497055
152,1790994596.9929733,0.6669650390625,3.0472791503906254,-0.9710846191406252,3.267071765552227,0.4988295267729902,4.557929621876135,-1.8813739413081227,4.956119575009238
153,1790994597.0129733,0.8346164062500001,3.1718201660156256,-0.8561236816406251,3.389686632919178,0.5068546393910585,4.623401723738061,-1.909206481843763,5.027704696464436
154,1790994597.0376318,0.7819259765625001,2.7263465332031256,-1.205796533203125,3.0819342840846877,0.5182544413412079,4.702923458931915,-1.9421878407288178,5.114505874003557
155,1790994597.0576317,0.5903244140625,2.232972509765625,-1.2776471191406251,2.639513459760258,0.5281720484031557,4.765186179366964,-1.9686509589585042,5.1828131005229725
156,1790994597.0830016,0.43704316406250004,2.0461609863281254,-1.1052057128906252,2.366275803246765,0.5408202355967573,4.840461238004511,-2.0017180020090315,5.2658737625794
157,1790994597.1030016,0.7627658203125001,2.0222107910156253,-1.162686181640625,2.4541775275874196,0.5510953108721339,4.897004495369369,-2.0272775739909776,5.328622095001654
158,1790994597.1127746,1.1794992187500002,2.0126307128906253,-1.3063873535156252,2.6736770019821106,0.5567867341663023,4.9234473822489555,-2.0397036057243154,5.3582400461646404
159,1790994597.1327746,1.2705099609375001,2.0988514160156253,-1.3399176269531252,2.7954878061568964,0.5703618718806641,4.975611521018279,-2.065287915921497,5.417327463670293
160,1790994597.1576774,1.2992501953125002,2.204232275390625,-1.0285650878906252,2.7576506548003414,0.5895289730970785,5.03885744578147,-2.09678924743734,5.489458435692641
161,1790994597.1776774,1.3040402343750002,2.395833837890625,-0.7555328613281251,2.8304364709700147,0.6065183830907575,5.088932555106054,-2.1209698685079648,5.546495495586736
162,1790994597.2022066,1.1268087890625,2.4724744628906254,-0.5735113769531252,2.7770025776454466,0.6287017325230732,5.150091680342855,-2.148623022835455,5.615629179234752
163,1790994597.2222066,0.805876171875,2.5634852050781256,-0.4346002441406251,2.7220893029541546,0.6469749354693134,5.200031966291773,-2.1693002173362843,5.671399514274855
164,1790994597.231997,0.4801535156250001,2.6880262207031254,-0.4585504394531251,2.768808564577412,0.6555226000856185,5.224667871045496,-2.178559682858248,5.698507395251279
165,1790994597.251997,0.3699826171875001,2.7502967285156257,-0.49687075195312513,2.819201975036753,0.6716398784852006,5.27560287497021,-2.1960708523410344,5.753765115927782
166,1790994597.2778513,0.3699826171875001,2.6688660644531255,-0.4825006347656251,2.7372504579522237,0.6907845684104932,5.342078981287175,-2.217211391731339,5.825033692425094
167,1790994597.2978513,0.24065156250000005,2.5682752441406254,-0.49687075195312513,2.6269433660331822,0.704288707224282,5.393644652065568,-2.2325809646889434,5.879782562286684
168,1790994597.3222487,0.11611054687500005,2.7502967285156257,-0.8225934082031251,2.8730251772650024,0.7189438093133902,5.456844485810504,-2.2509318706655463,5.946488562979706
169,1790994597.3422487,0.13527070312500006,2.8652576660156255,-1.172266259765625,3.098742945061776,0.7295324923774025,5.509305179304675,-2.2667109889755155,6.001886363776813
170,1790994597.3527884,0.17359101562500004,2.7502967285156257,-1.129155908203125,2.9781301181478783,0.7345197438955147,5.537243455778233,-2.27559833215304,6.031495014673302
171,1790994597.3727884,0.27897187500000004,2.7023963378906255,-1.1147857910156251,2.9365828157802754,0.7432427094136552,5.5904851636521204,-2.293298964936618,6.08811581958576
172,1790994597.3976374,0.30292207031250007,2.7886170410156255,-1.1914264160156252,3.047563565687349,0.7535393249337179,5.656946151733092,-2.3162902839446424,6.159063399359172
173,1790994597.4176373,0.3220822265625001,2.7790369628906255,-1.129155908203125,3.0169150579374677,0.7615210871445395,5.710765794094634,-2.3355002790572468,6.2166970229088365
174,1790994597.4575858,0.30292207031250007,2.5970154785156256,-1.0764654785156251,2.827548249414681,0.7769452104403215,5.818248769465007,-2.3747235650270975,6.332059271177286
175,1790994597.4775858,0.5328439453125001,2.5155848144531254,-1.172266259765625,2.8260038592592625,0.784762561184056,5.871656814522904,-2.394788045472714,6.389617813900018
176,1790994597.47305,0.6334347656250001,2.4724744628906254,-1.2776471191406251,2.8542515188744355,0.784762561184056,5.871656814522904,-2.394788045472714,6.389617813900018
177,1790994597.49305,0.50889375,2.1850721191406253,-1.3399176269531252,2.613214928331472,0.793611092174054,5.923590209801066,-2.416334612548527,6.446503897390645
178,1790994597.517202,0.5567941406250001,1.8880896972656251,-1.4117682128906253,2.422393838103813,0.8046240607438339,5.984275441522497,-2.4434355045052074,6.513781505685755
179,1790994597.537202,0.43704316406250004,1.979100439453125,-1.4309283691406252,2.4810081165342375,0.813866629684183,6.032791375647207,-2.4667753361239493,6.5682517637424835
180,1790994597.5624838,0.20712128906250005,1.9695203613281251,-1.5315191894531253,2.5034897063363646,0.8250190318617723,6.0924080248138965,-2.4974707899829447,6.635921359582928
181,1790994597.5824838,0.07300019531250004,1.8114490722656251,-1.4979889160156252,2.3517328850091213,0.8329382786414924,6.138166722680401,-2.5226551931870067,6.688397873568877
182,1790994597.5925272,-0.03717070312499996,1.8449793457031252,-1.330337548828125,2.2748908635501537,0.8363455516534951,6.160452774295753,-2.535535456225976,6.714133772563509
183,1790994597.6125271,-0.4443240234375,1.6869080566406252,-0.9471344238281252,1.9849801626623307,0.8413906486097557,6.203473201342344,-2.560753505045561,6.763762007710184
184,1790994597.6372235,-0.09465117187499997,1.9264100097656252,-0.2382086425781251,1.9433882081204001,0.8456876575810637,6.255319946930241,-2.5894177887428733,6.822704723004384
185,1790994597.6572235,0.20712128906250005,2.9562684082031256,0.049193701171874916,2.9639234386127016,0.8488142524281886,6.298333192254738,-2.609432662125113,6.870125577742254
186,1790994597.682876,-0.343733203125,3.2772010253906254,0.27911557617187494,3.3069781645202463,0.8519601523325393,6.357220764283648,-2.6306219982695955,6.932551048840648
187,1790994597.702876,-0.7413064453125,2.7981971191406254,0.039613623046874914,2.894997686106096,0.852417379164774,6.405358588504806,-2.6441860570159705,6.981901885571874
188,1790994597.7278907,-0.09944121093749995,2.2952430175781253,-0.5974615722656251,2.37381326024352,0.8513261426756864,6.466090817084474,-2.659652899485742,7.043354328850008
189,1790994597.7478907,0.21191132812500005,1.8785096191406252,-0.8369635253906251,2.067416925302166,0.8507532418374429,6.513625148049764,-2.6723158229814676,7.091711042164673
190,1790994597.7574003,-0.06591093749999996,1.744388525390625,-0.9136041503906251,1.9702558521185984,0.8506258300480055,6.535420386141047,-2.678682165102435,7.114114285557319
191,1790994597.7774003,-0.38205351562499995,1.9551502441406252,-0.8657037597656251,2.1721004501718855,0.8497261134740254,6.579932433854603,-2.6927320583060563,7.1601921231095895
192,1790994597.802736,-0.2958328125,2.146751806640625,-0.8609137207031251,2.3317874703242887,0.8474692149569775,6.63565613190222,-2.711141481759285,7.21806237887061
193,1790994597.822736,-0.17608183593749996,2.1228016113281254,-0.8800738769531251,2.304738927275649,0.845246994190606,6.679450330521672,-2.7261054436930263,7.263687086406399
194,1790994597.8480914,-0.05154082031249996,2.060531103515625,-0.9423443847656251,2.2663754817357846,0.8424194638435353,6.734598324042436,-2.7456962554955653,7.321429714659561
195,1790994597.8680913,-0.13776152343749995,2.0892713378906254,-0.9040240722656251,2.2806342284344567,0.8402397374850616,6.777798074395526,-2.7616008491047386,7.36688460636548
196,1790994597.8773458,-0.15213164062499995,2.1850721191406253,-0.9806646972656251,2.399872382104523,0.8391812087309372,6.797755926949606,-2.769164492787477,7.387962014762971
197,1790994597.8973458,-0.041960742187499955,2.094061376953125,-0.8417535644531251,2.2572998953619976,0.8369456047086841,6.840836223412897,-2.7857921623451865,7.433582995607374
198,1790994597.9228346,-0.12818144531249998,2.027000830078125,-0.7986432128906251,2.1824284248414814,0.834198570912331,6.895382217160959,-2.8069404268905416,7.491401586923786
199,1790994597.9428346,-0.06112089843749996,1.9886805175781253,-0.5447711425781251,2.0628527729836863,0.8320824626792466,6.937785596935715,-2.823060541653918,7.536239183809808
200,1790994597.9675782,-0.08507109374999997,2.1515418457031252,-0.6070416503906251,2.237156447393075,0.8295858604184997,6.990060370403424,-2.8421499853004977,7.591243193353403
201,1790994597.9875782,-0.24314238281249997,2.0461609863281254,-0.6884723144531251,2.172530121323861,0.8273782578624864,7.032272139012814,-2.857208597221561,7.635512241281276
202,1790994597.9980505,-0.17129179687499996,1.9312000488281251,-0.7076324707031251,2.0638842559271167,0.8260702075466745,7.054183368836487,-2.865007311806473,7.6584699441644375
203,1790994598.0180504,-0.24314238281249997,2.027000830078125,-0.7315826660156252,2.1686548320725634,0.8233251609480999,7.095689797796491,-2.8798260114692074,7.701952731842624
204,1790994598.0418699,-0.24314238281249997,1.9982605957031252,-0.4393902832031251,2.0603949736962743,0.8196775473910201,7.144898857409008,-2.8969192823973096,7.753295576271219
205,1790994598.0618699,-0.19524199218749996,2.074901220703125,-0.3244293457031251,2.1091678244137,0.8164166628032825,7.186129192653931,-2.910264510340769,7.795936663478282
206,1790994598.0874238,-0.334153125,2.2281824707031253,-0.4250201660156251,2.2928361422517525,0.8118605902016246,7.239154188929015,-2.926194363379914,7.850291997199048
207,1790994598.1074238,-0.3964236328125,2.1850721191406253,-0.5064508300781251,2.2777586144683517,0.8077337588646597,7.2810494081893005,-2.9381890429468838,7.892975938250194
208,1790994598.1325898,-0.21919218749999997,1.9982605957031252,-0.5543512207031251,2.085280772293239,0.8021579297967469,7.3337545961603166,-2.9530202559655674,7.946555382880139
209,1790994598.1525898,-0.27188261718749995,2.0892713378906254,-0.5256109863281251,2.1714607502344667,0.797654773228897,7.375488928253768,-2.9646588750432317,7.988948135607175
210,1790994598.1774416,-0.4634841796875,2.276082861328125,-0.5399811035156251,2.3847327667070313,0.7915278890728648,7.427705350584339,-2.9789377542385282,8.041852604835968
211,1790994598.1974416,-0.4826443359375,2.2617127441406253,-0.6118316894531252,2.3922015191533785,0.7859175752607458,7.47023091373471,-2.9904330026827726,8.084844208960105
212,1790994598.2087119,-0.5401248046875,2.223392431640625,-0.8992340332031251,2.4584203375717264,0.7823657873165226,7.4943912601356,-2.997216344185638,8.109334275944839
213,1790994598.2287118,-0.7413064453125,2.103641455078125,-0.8657037597656251,2.3925479341190647,0.7750861611346924,7.537325027797476,-3.0100956723103236,8.15307936232109
214,1790994598.2381353,-0.6023953125,1.8401893066406252,-0.7459527832031251,2.074999361822785,0.7712210014763057,7.557307304161919,-3.0163928866688052,8.173512193017356
215,1790994598.2581353,-0.3772634765625,1.8258191894531253,-0.6693121582031252,1.98088924688934,0.7627787666703955,7.598854338223249,-3.029875956759063,8.216116297482902
216,1790994598.2831407,0.16401093750000006,1.696488134765625,-0.7172125488281251,1.849152621937063,0.7534070335334253,7.649613271207137,-3.0468050818966703,8.268447651420269
217,1790994598.3031406,0.3987228515625001,1.4905164550781251,-0.6309918457031252,1.6669642841286758,0.7478797220367482,7.68890244319765,-3.060336722015598,8.309284308035304
218,1790994598.3274498,0.06821015625000004,1.385135595703125,-0.5447711425781251,1.48997612117959,0.7430205403847365,7.734736517834039,-3.0764604392328194,8.357202723274915
219,1790994598.3474498,-0.23356230468749997,1.4042957519531252,-0.5783014160156251,1.536564491614396,0.7393743688594702,7.770973540496495,-3.0894207528304745,8.395190576302756
220,1790994598.3581476,-0.19045195312499996,1.5096766113281253,-0.6022516113281251,1.636490886191433,0.7373764024372573,7.7897870093554955,-3.0962604749079,8.414947090651957
221,1790994598.3781476,-0.31499296875,1.5288367675781251,-0.5735113769531252,1.6629725589303446,0.7334432591873473,7.824241335170835,-3.1088931479570734,8.451148329715773
222,1790994598.4180455,-0.2575125,1.4426160644531252,-0.5016607910156251,1.5489084370345771,0.7250608398193469,7.891555874988114,-3.1335311911640655,8.52181817897431
223,1790994598.4380455,-0.29104277343749996,1.576737158203125,-0.5399811035156251,1.6918586093945944,0.7206663679193184,7.924766749652209,-3.1455916020006303,8.556636873025532
224,1790994598.4625835,-0.25272246093749995,1.6390076660156252,-0.6070416503906251,1.7659882040459012,0.7150827951231008,7.9653194038481265,-3.1602799417078313,8.599129369835145
225,1790994598.4825835,-0.5401248046875,1.495306494140625,-0.36753969726562513,1.6317970906714916,0.7100252193984247,7.99811579829024,-3.1719179117811094,8.633368715288347
226,1790994598.5072937,-0.5928152343749999,1.6054773925781252,-0.3100592285156251,1.739288442258571,0.7026142001211887,8.03830460251871,-3.1853956861596906,8.674949756309266
227,1790994598.5272937,-0.5592849609375,1.4138758300781251,-0.2956891113281251,1.5489598383973628,0.6957874558430105,8.070482518703118,-3.195576678987325,8.707957199004182
228,1790994598.521895,-0.4922244140625,1.068993017578125,-0.2142584472656251,1.1962180518846193,0.6957874558430105,8.070482518703118,-3.195576678987325,8.707957199004182
229,1790994598.541895,-0.5018044921875,0.9205018066406251,-0.15198793945312508,1.0593543591015313,0.6880234179900633,8.09988095729844,-3.2041319978785934,8.737729087465352
230,1790994598.5682323,-0.4922244140625,0.9157117675781251,-0.16156801757812508,1.052101297111809,0.6773693111811127,8.136414883532275,-3.2143276762930615,8.774507322424379
231,1790994598.5882323,-0.33894316406249997,0.7768006347656251,-0.2046783691406251,0.8718915812364763,0.6692456580073711,8.162535191674166,-3.2214580467121126,8.800719428138086
232,1790994598.6119795,-0.4539041015625,0.4127576660156251,-0.1471979003906251,0.6309239622564157,0.6596347094660867,8.19101595232237,-3.2292811303028923,8.82927612546251
233,1790994598.6319795,-0.5401248046875,0.2067859863281251,-0.07534731445312509,0.5832430596035445,0.6512634488110318,8.212333874934208,-3.2352152822503624,8.850603915872377
234,1790994598.643209,-0.24793242187499998,-0.056666162109374925,-0.0034967285156250875,0.2543496940342585,0.6466045115594671,8.222634389766617,-3.238113788551061,8.860880013280068
235,1790994598.663209,-0.14255156249999995,-0.14288686523437494,-0.05139711914062509,0.20827690242476102,0.6389657783125783,8.23792866219146,-3.2425840800849826,8.87615330115646
236,1790994598.687483,0.005939648437500044,-0.3153282714843749,-0.027446923828125087,0.3165762654535423,0.6308365639124575,8.252872801556746,-3.2473393996196918,8.891179754417651
237,1790994598.707483,-0.08028105468749996,-0.3153282714843749,0.03482358398437491,0.32724554777808335,0.625031887114233,8.262392705729248,-3.250658646332184,8.90081904762543
238,1790994598.7474582,-0.11860136718749996,-0.20994741210937493,0.14020444335937493,0.27892917754849544,0.614573776748281,8.276991661930381,-3.2557731097965195,8.915511787957312
239,1790994598.7674582,-0.03238066406249996,-0.15725698242187494,0.14020444335937493,0.21315616778145205,0.6098998500846078,8.282649260770626,-3.2575274920953046,8.921084125028422
240,1790994598.7624745,0.07300019531250004,-0.25305776367187494,0.21684506835937492,0.34115838541952276,0.6098998500846078,8.282649260770626,-3.2575274920953046,8.921084125028422
241,1790994598.7824745,0.0011496093750000436,-0.29137807617187494,0.2551653808593749,0.3873136667669344,0.606685952524016,8.285397072149404,-3.2576317806142723,8.923454337096144
242,1790994598.8075712,-0.13776152343749995,-0.15246694335937494,0.23600522460937493,0.31292630474297495,0.6030008432879527,8.28749248518838,-3.2568185102331784,8.924853417152425
243,1790994598.8275712,-0.27188261718749995,-0.04229604492187493,0.1737347167968749,0.32541183869866847,0.5998901566511697,8.288619732845522,-3.2556530074374197,8.925265361914986
244,1790994598.8525977,-0.2958328125,0.04392465820312508,0.10188413085937492,0.31595380148194413,0.5955159403111308,8.28982176394774,-3.2538960095549903,8.925448075821414
245,1790994598.8725977,-0.34852324218749997,-0.03750600585937493,0.09709409179687492,0.36373398725204414,0.5915780995732359,8.290647904829312,-3.2524040530400837,8.925409763925513
246,1790994598.8832047,-0.39163359374999995,0.06787485351562508,0.039613623046874914,0.3994409926687639,0.5892141149249522,8.291044486761821,-3.251622727419943,8.925337098180904
247,1790994598.9032047,-0.4347439453125,0.11577524414062508,-0.02265688476562509,0.45046591388137475,0.5841857607995341,8.291955568676363,-3.25034505158456,8.925387560794439
248,1790994598.9276466,-0.6263455078125,0.2498963378906251,-0.12324770507812509,0.6855267111171296,0.5770172533193518,8.293572315853178,-3.249285286668898,8.926037505135044
249,1790994598.9476466,-0.611975390625,0.17325571289062508,-0.11366762695312509,0.6461050612686878,0.5701739001249945,8.295331530829738,-3.248903566711611,8.927093472600879
250,1790994598.971827,-0.5736550781249999,0.2115760253906251,-0.17114809570312509,0.6349301015399257,0.5609910240786613,8.297837324907377,-3.249027807254825,8.928885534714729
251,1790994598.991827,-0.5688650390625,0.2451062988281251,-0.11366762695312509,0.6297657181920564,0.552821245448338,8.30028404055936,-3.2495423774623067,8.930837147004016
252,1790994599.0021236,-0.516174609375,0.3121668457031251,-0.07055727539062509,0.6073406754287259,0.5484081927439057,8.30178508675353,-3.249909822589299,8.932093876996277
253,1790994599.0221236,-0.4922244140625,0.2642664550781251,-0.05139711914062509,0.5610376965362361,0.5396095063584468,8.305128010520335,-3.250699417508027,8.93495251209926
254,1790994599.0477996,-0.5592849609375,0.4606580566406251,-0.06576723632812509,0.727551264209621,0.527983209602561,8.310171902198535,-3.2517866719020323,8.939342250594947
255,1790994599.0677996,-0.50659453125,0.3169568847656251,0.049193701171874916,0.5995996215206649,0.5186866678009803,8.314677863790754,-3.2525313989205973,8.943258038261607
256,1790994599.092168,-0.5113845703125,0.2642664550781251,0.001293310546874913,0.5756323572258856,0.5071980821609974,8.320406789399962,-3.2532104132993385,8.948172831860147
257,1790994599.112168,-0.5688650390625,0.2163660644531251,-0.05139711914062509,0.6107891374037927,0.4975630357239063,8.325124353793658,-3.253759263332916,8.952218374479692
258,1790994599.1375375,-0.5544949218749999,0.2115760253906251,-0.03702700195312509,0.5946427766137359,0.4850370981139573,8.331025083105644,-3.254519278918528,8.95729510838705
259,1790994599.1575375,-0.6263455078125,0.18283579101562508,0.030033544921874916,0.6531765729523542,0.4748722355235706,8.335570766184688,-3.255039053890207,8.961167495393354
260,1790994599.1675901,-0.6550857421875,0.16846567382812508,0.030033544921874916,0.6770672246507626,0.4695632697859209,8.337777724978759,-3.255215834563725,8.963004919393853
261,1790994599.1875901,-0.6646658203125,0.2163660644531251,0.006083349609374913,0.6990221267464231,0.4586057078229231,8.342087137000801,-3.2554606112241187,8.966535606787813
262,1790994599.212613,-0.5784451171875,0.10140512695312508,0.025243505859374914,0.5878086320891455,0.4446196079267748,8.347266469829664,-3.2556621339179266,8.970723496146928
263,1790994599.232613,-0.5688650390625,-0.027925927734374925,0.07793393554687492,0.5748573635409305,0.4333968408816035,8.350895396591959,-3.255644277337917,8.973544807213594
264,1790994599.2571604,-0.631135546875,-0.04229604492187493,0.10667416992187492,0.6414829790990245,0.41947928306356946,8.354552038989494,-3.2552857754069073,8.976156645283638
265,1790994599.2771604,-0.6455056640625,-0.051876123046874924,0.05877377929687492,0.6502484537559327,0.407925874595329,8.356943147528263,-3.254789327230696,8.977669845502161
266,1790994599.2878315,-0.5353347656249999,-0.09977651367187493,0.044403662109374915,0.5463610062733348,0.40174106013152405,8.357906199255844,-3.2544815995928564,8.978175894748517
267,1790994599.3078315,-0.4730642578125,-0.12851674804687493,0.030033544921874916,0.4911296777520268,0.39037555530856377,8.359097978681685,-3.2538797089691442,8.978565879461142
268,1790994599.3320744,-0.4347439453125,-0.20994741210937493,0.03482358398437491,0.48403811403526736,0.3770148196588136,8.359710495888063,-3.2531416427783797,8.978297739398167
269,1790994599.3520744,-0.5353347656249999,-0.22910756835937493,0.05877377929687492,0.5852588711836473,0.3661906713903785,8.359481433287954,-3.2524836881312247,8.977398040794395
270,1790994599.377602,-0.497014453125,-0.3249083496093749,0.12583432617187493,0.6069786486394397,0.3524707257612837,8.358172209578628,-3.251416407343764,8.975243002361296
271,1790994599.397602,-0.37247343749999995,-0.35364858398437493,0.08272397460937492,0.520237482859888,0.34202980404657723,8.356282507798579,-3.250392822848366,8.972708355887915
272,1790994599.4076567,-0.4251638671875,-0.20994741210937493,0.020453466796874913,0.47461623878378273,0.33696669148345415,8.355049995228322,-3.2498776187987874,8.971182280563882
273,1790994599.4276567,-0.50659453125,-0.04708608398437493,0.030033544921874916,0.5096637442647506,0.32700850268621195,8.352580551606062,-3.2489307974431707,8.968170814523528
274,1790994599.452147,-0.38205351562499995,-0.25305776367187494,0.19768491210937492,0.4990816015760588,0.3150113620340475,8.34945895585123,-3.247527038858907,8.964325344484912
275,1790994599.472147,-0.5209646484375,-0.4542394042968749,0.24079526367187493,0.7319289312114909,0.30532901949449653,8.346231155053184,-3.245894900037229,8.960392514048342
276,1790994599.497674,-0.5497048828125,-0.530880029296875,0.1833147949218749,0.7858838194869545,0.2927748364670203,8.340843282823498,-3.2433122256681064,8.954019095727816
277,1790994599.517674,-0.5544949218749999,-0.47339956054687493,0.13541440429687493,0.741558374777208,0.2827579435042545,8.335748752718786,-3.2411141722175447,8.948155139491993
278,1790994599.5428572,-0.564075,-0.2674278808593749,0.09230405273437492,0.6310454145599398,0.2699243047980429,8.328896912621932,-3.238331523087664,8.940367663850695
279,1790994599.5628572,-0.5018044921875,-0.17641713867187495,0.05398374023437492,0.5346447413062424,0.25966210662863365,8.323605793639912,-3.2362336572336226,8.934374410206146
280,1790994599.5728605,-0.58323515625,-0.19557729492187492,0.08272397460937492,0.6206907295506293,0.2544851660309772,8.321077228794673,-3.2352392017324103,8.931509482709023
281,1790994599.5928605,-0.6790359375,-0.15725698242187494,0.13062436523437493,0.7091419376470561,0.2437938987862269,8.31625085196837,-3.233229169278099,8.925986475399835
282,1790994599.617812,-0.631135546875,-0.17641713867187495,0.049193701171874916,0.6571720517348288,0.2300046713401474,8.310508354512628,-3.2307611503123037,8.919376035891174
283,1790994599.637812,-0.6359255859375,-0.2865880371093749,0.030033544921874916,0.6981662178054245,0.21870917381964694,8.305901356055617,-3.2289607932922375,8.914147118140797
284,1790994599.6471093,-0.8083669921875,-0.3153282714843749,0.08272397460937492,0.8716262781896619,0.2132387770000451,8.30366123501,-3.2281707765306957,8.911641108363323
285,1790994599.6671093,-0.822737109375,-0.39196889648437494,0.11146420898437492,0.9181286602859219,0.20078965494150908,8.298504291323088,-3.226434970885799,8.905917840402195
286,1790994599.6922774,-0.65987578125,-0.46381948242187493,0.08751401367187492,0.811309596604992,0.18467486768193048,8.291372775537495,-3.2242026746655923,8.898114979983031
287,1790994599.7122774,-0.6455056640625,-0.4542394042968749,0.11146420898437492,0.7971419375727645,0.17183197706124625,8.285178667564393,-3.2223963910458684,8.891431284266348
288,1790994599.7372012,-0.6742458984374999,-0.36801870117187496,0.09709409179687492,0.7742561324483554,0.1557609917877691,8.277080445999655,-3.2200932074900295,8.882754215953293
289,1790994599.7572012,-0.669455859375,-0.42070913085937495,0.07314389648437492,0.7940512263279287,0.14278377096233105,8.270373734284666,-3.218266899255982,8.875624527031471
290,1790994599.7678807,-0.6742458984374999,-0.502139794921875,0.10667416992187492,0.8474262703813796,0.13581743667859994,8.266590535944806,-3.2172939499501485,8.871637155872866
291,1790994599.7878807,-0.6742458984374999,-0.5548302246093749,0.21684506835937492,0.8997032251646444,0.12270544075858418,8.25898285195519,-3.215259896040404,8.863619496185935
292,1790994599.8129456,-0.65987578125,-0.47339956054687493,0.21205502929687492,0.8393512530856022,0.10622976389890834,8.248945742229026,-3.21228682054748,8.852975614924025
293,1790994599.8329456,-0.6455056640625,-0.46860952148437496,0.1833147949218749,0.8184599929134184,0.0930972730266947,8.240725186545223,-3.2096773153239453,8.844221117255659
294,1790994599.8570106,-0.6742458984374999,-0.45902944335937496,0.1737347167968749,0.8339660144460921,0.07728384278939915,8.230643222652361,-3.2063639765180167,8.833472171284741
295,1790994599.8770106,-0.65987578125,-0.4542394042968749,0.15457456054687493,0.8158815954932046,0.0641117558857142,8.222151230653543,-3.203530907854355,8.824425842770648
296,1790994599.9028888,-0.640715625,-0.5165099121093749,0.1641546386718749,0.8391935097603346,0.0471005049294415,8.210927439918345,-3.1997964203417912,8.812505036185838
297,1790994599.9228888,-0.7221462890625,-0.540460107421875,0.14020444335937493,0.9128251072680444,0.033881128758490524,8.20196881798386,-3.196886610703188,8.8030406351305
298,1790994599.9329007,-0.7221462890625,-0.6171007324218749,0.15457456054687493,0.9623938235102165,0.027171686722825914,8.19728766012384,-3.1954271197858772,8.798125809582459
299,1790994599.9529006,-0.7125662109374999,-0.5979405761718749,0.1593645996093749,0.9437587685479991,0.013627149460742696,8.187516606888131,-3.1924780311592973,8.787919541433347
300,1790994599.978215,-0.650295703125,-0.545250146484375,0.14978452148437493,0.8617526481655706,-0.0035323730217899016,8.174833887486564,-3.188718281647104,8.77472767927121
301,1790994599.998215,-0.6742458984374999,-0.48297963867187493,0.14020444335937493,0.8411504912137415,-0.017042758984495338,8.164774391535584,-3.1857584173284774,8.764296207562152
302,1790994600.0226805,-0.69819609375,-0.47339956054687493,0.09709409179687492,0.8491243677551558,-0.03360900437462866,8.15255977857871,-3.18224536477771,8.75168818400905
303,1790994600.0426805,-0.7508865234375,-0.43986928710937495,0.06356381835937491,0.8725571155096888,-0.047293741956774424,8.142702508472974,-3.179563320828306,8.741593890743097
304,1790994600.0526185,-0.6550857421875,-0.40154897460937494,0.09230405273437492,0.7738856160818461,-0.0541216442077798,8.13791198672587,-3.17831434193238,8.736716929842776
305,1790994600.0726185,-0.5018044921875,-0.4254991699218749,0.07793393554687492,0.6625186716565683,-0.06753681373659919,8.1284767307802,-3.175922477093922,8.727151812851387
306,1790994600.0977895,-0.6359255859375,-0.5117198730468749,0.1689446777343749,0.8335471693046737,-0.08403580227132852,8.116613865896406,-3.172897666781322,8.715145567802729
307,1790994600.1177895,-0.7413064453125,-0.521299951171875,0.18810483398437491,0.9255659422871734,-0.09724471279883314,8.10705241207689,-3.170319200746976,8.705439631687419
308,1790994600.1420245,-0.841897265625,-0.2961681152343749,0.14978452148437493,0.9049541210606409,-0.11372741605187477,8.09571836962928,-3.167049252920819,8.693893881106504
309,1790994600.1620245,-0.841897265625,-0.3344884277343749,0.14978452148437493,0.918209625865123,-0.12781512610255735,8.086821964541707,-3.1643061495577167,8.684806250042865
310,1790994600.1729522,-0.8083669921875,-0.35364858398437493,0.23600522460937493,0.9133580793179313,-0.13571035172877716,8.08212625585682,-3.162715995120126,8.679974342183577
311,1790994600.1929522,-0.6934060546874999,0.04871469726562508,0.18810483398437491,0.7201170092250668,-0.15024546458450153,8.074363828933972,-3.1596060570019135,8.671853053244655
312,1790994600.2173033,-0.707776171875,-0.765591943359375,0.22163510742187492,1.065926945926746,-0.1678472224553449,8.065021052932812,-3.155639186703975,8.662031860423811
313,1790994600.2373033,-0.7125662109374999,-0.803912255859375,0.044403662109374915,1.0751731048065973,-0.18226585867112943,8.056144427810326,-3.152470780712765,8.652904478163633
314,1790994600.2625387,-0.88979765625,-0.41112905273437494,0.001293310546874913,0.9801880634462083,-0.20076265826088877,8.044324537540604,-3.1489861571819526,8.64104025730429
315,1790994600.2825387,-0.7413064453125,-0.5739903808593749,0.19768491210937492,0.9581646662534765,-0.21566978872811787,8.034884321957396,-3.1463402532193876,8.631647381238151
316,1790994600.2926593,-0.6838259765625,-0.808702294921875,0.22163510742187492,1.0820071574973384,-0.22316349383680972,8.029774299394312,-3.1448838942499315,8.626550408622641
317,1790994600.3126593,-0.6838259765625,-0.8757628417968749,0.1593645996093749,1.122486345975955,-0.23780241367765104,8.018664116859656,-3.1418660971064196,8.615500378916495
318,1790994600.337108,-0.631135546875,-0.837442529296875,0.24079526367187493,1.0759295643354914,-0.2554244212957814,8.003978468078346,-3.137996648832103,8.600926457105512
319,1790994600.3571079,-0.564075,-1.1008946777343749,0.25037534179687493,1.2620766652104678,-0.26947042933481474,7.990859523394325,-3.134569331851222,8.587897014466924
320,1790994600.382662,-0.6023953125,-1.278126123046875,0.3030657714843749,1.4451073872838058,-0.28696076265975723,7.972052100627775,-3.129786376547629,8.569219564070764
321,1790994600.402662,-0.669455859375,-1.191905419921875,0.1785247558593749,1.3786517929286244,-0.3005040266364593,7.955835370684263,-3.125882118180362,8.553172401642287
322,1790994600.412665,-0.69819609375,-1.306866357421875,0.025243505859374914,1.4818956427754792,-0.30728759205355727,7.9470666753838355,-3.1240694638670097,8.544595041445362
323,1790994600.4326649,-0.7892068359375,-1.297286279296875,0.11625424804687493,1.5229294699792744,-0.32104745712076765,7.9282579317920705,-3.120776586482292,8.526405561869765
324,1790994600.4573696,-0.9089578125,-1.278126123046875,0.22163510742187492,1.5839611144726775,-0.3386410826599901,7.903737823231299,-3.1166931691293396,8.50279516816321
325,1790994600.4773695,-0.793996875,-1.469727685546875,0.32701596679687495,1.702195626158414,-0.35330217262810376,7.882743081522739,-3.1130602808750334,8.48254709546844
326,1790994600.5022273,-0.688616015625,-1.455357568359375,0.20726499023437492,1.623334976193459,-0.3715550485400348,7.855109735258708,-3.108226217997494,8.455877975071466
327,1790994600.5222273,-0.918537890625,-1.531998193359375,0.22642514648437492,1.8005550999429825,-0.38644874423510617,7.831730524863125,-3.104269714078514,8.433376316976423
328,1790994600.5479653,-1.0287087890625,-1.474517724609375,0.35575620117187495,1.8327593315964557,-0.4064993205192724,7.800353171432186,-3.0988180148431117,8.403179421253066
329,1790994600.5679653,-0.8850076171875,-1.565528466796875,0.3940765136718749,1.8410361651686937,-0.4226133246796198,7.775068322843405,-3.09409241225166,8.378764664473696
330,1790994600.5775921,-0.81315703125,-1.469727685546875,0.4132366699218749,1.7297654096733488,-0.43043234348087905,7.762531724866042,-3.0915760768061586,8.366601067371766
331,1790994600.597592,-0.6790359375,-1.455357568359375,0.3940765136718749,1.6536177777301488,-0.4464781566671563,7.736005850160592,-3.0859215369858735,8.34074582939278
332,1790994600.6229668,-0.6071853515625,-1.613428857421875,0.23121518554687492,1.7393352727813027,-0.46623014801729706,7.701559514541772,-3.078633555368702,8.307188096774459
333,1790994600.6429667,-0.793996875,-1.565528466796875,0.23121518554687492,1.770528418266314,-0.4815649499594124,7.673713439666865,-3.073057259297227,8.280185002406206
334,1790994600.667112,-0.976018359375,-1.273336083984375,0.24079526367187493,1.6223375048431008,-0.500506526150214,7.639997476420436,-3.066480216641791,8.247628091850714
335,1790994600.687112,-0.6790359375,-1.326026513671875,0.2647454589843749,1.5131180646037303,-0.5163252669027357,7.612360098294876,-3.0610912196205278,8.221003436454218
336,1790994600.6973417,-0.5305447265625,-1.440987451171875,0.21684506835937492,1.5507882914794904,-0.524130602534854,7.598221624343229,-3.058378825234627,8.207397016094333
337,1790994600.7173417,-0.8562673828125,-1.369136865234375,0.27911557617187494,1.6387907405993412,-0.5391820727846713,7.570510496752151,-3.0531273072926646,8.180766030365557
338,1790994600.7429857,-0.9520681640625,-1.081734521484375,0.14499448242187493,1.44831169432728,-0.5590642556483333,7.535595093314059,-3.046588122792216,8.147358187919638
339,1790994600.7629857,-0.688616015625,-1.2206456542968749,0.15457456054687493,1.4099862145061404,-0.5747055924497876,7.5089953786214485,-3.041803808134215,8.122060608080387
340,1790994600.787992,-0.5928152343749999,-1.278126123046875,0.20247495117187492,1.4233876472605678,-0.5937320013177225,7.47603966255227,-3.036049552743434,8.090814768127931
341,1790994600.807992,-0.688616015625,-1.369136865234375,0.23600522460937493,1.5506212428449389,-0.6085888354842843,7.449664547013607,-3.0314799280733147,8.065838628934934
342,1790994600.8171768,-0.8850076171875,-1.235015771484375,0.27911557617187494,1.5448002923215673,-0.6154723000199944,7.437574959607927,-3.029341300294197,8.054392351105507
343,1790994600.8371768,-0.956858203125,-1.417037255859375,0.28869565429687494,1.7340465351861156,-0.6309755270194062,7.411220571438683,-3.0245312520419505,8.029452644408073
344,1790994600.8622875,-0.9089578125,-1.498467919921875,0.32701596679687495,1.7828488030340293,-0.6510345735040616,7.377604209291605,-3.018238364158524,7.997665453601641
345,1790994600.8822875,-0.918537890625,-1.2206456542968749,0.30785581054687494,1.5583526141265795,-0.6673558091027818,7.3507672318136645,-3.013025765970222,7.972293706245976
346,1790994600.9072447,-0.69819609375,-1.081734521484375,0.23121518554687492,1.3080855561951077,-0.6876936203338847,7.317992186603908,-3.0064878343719426,7.9413412756832376
347,1790994600.9272447,-0.7796267578125,-1.096104638671875,0.15457456054687493,1.3539411195408357,-0.7037637790814963,7.292400182826708,-3.0014557332490863,7.917267230673213
348,1790994600.937041,-1.00475859375,-1.302076318359375,0.26953549804687493,1.6666109189772396,-0.7117655737736492,7.279983027261115,-2.999049029330085,7.905634584873307
349,1790994600.957041,-0.9808083984375,-1.326026513671875,0.2743255371093749,1.672000577068282,-0.7286297002702495,7.254492976239389,-2.9940568056850694,7.881811069677553
350,1790994600.9979992,-0.96643828125,-1.196695458984375,0.1833147949218749,1.5490924075265902,-0.7639671592589035,7.2023723848717855,-2.983960915413438,7.833379636881186
351,1790994601.0179992,-0.793996875,-1.096104638671875,0.1737347167968749,1.364573254995223,-0.7812748780176262,7.17730015869431,-2.9792349692062206,7.810241289790989
352,1790994601.027627,-0.7892068359375,-1.263756005859375,0.2743255371093749,1.5149855354248332,-0.7895001070308507,7.165337014136537,-2.9769776555465435,7.799215403281296
353,1790994601.047627,-0.9424880859375,-1.397877099609375,0.27911557617187494,1.708873805349069,-0.8066210565460038,7.140221065420264,-2.9721617222546923,7.776061965749158
354,1790994601.0570545,-0.8945876953125,-1.464937646484375,0.2839056152343749,1.739807992582319,-0.8147798609921274,7.128133630250901,-2.9698340235544225,7.764925588829148
355,1790994601.0770545,-0.7413064453125,-1.551158349609375,0.21684506835937492,1.7328154128748152,-0.8319458552749271,7.10181313230354,-2.964885535107553,7.740699574880693
356,1790994601.1026938,-0.784416796875,-1.560738427734375,0.30785581054687494,1.7736937027327682,-0.8535850283574783,7.067148433223428,-2.9584843381827746,7.708814692098985
357,1790994601.1226938,-0.956858203125,-1.426617333984375,0.3413860839843749,1.7513877631325614,-0.8705446645144964,7.039683179480078,-2.953266200384259,7.68353880257668
358,1790994601.1472213,-0.7892068359375,-1.522418115234375,0.35575620117187495,1.751332870175316,-0.8914357622348991,7.005627852610269,-2.9465442600779803,7.652163249961319
359,1790994601.1672213,-0.822737109375,-1.666119287109375,0.22642514648437492,1.8719289989155714,-0.9083332437721126,6.977241388626503,-2.941012028763991,7.626042120932636
360,1790994601.177766,-1.0813992187500001,-1.412247216796875,0.23121518554687492,1.793690869043801,-0.917411810317448,6.962085345358843,-2.9381708115939604,7.612169500469167
361,1790994601.197766,-0.88979765625,-1.254175927734375,0.2551653808593749,1.5587836598981537,-0.9350048047238189,6.933651580678736,-2.9328607134488878,7.586265892492649
362,1790994601.2229972,-0.58323515625,-1.239805810546875,0.22163510742187492,1.3879495005920286,-0.9566576608423796,6.898441932547328,-2.9262643032175313,7.554251633951632
363,1790994601.2429972,-0.7029861328125,-1.508047998046875,0.1833147949218749,1.6739183317525115,-0.9731760444394477,6.870596937100108,-2.921212412990686,7.5289877040257585
364,1790994601.2680004,-1.00475859375,-1.541578271484375,0.25037534179687493,1.8570652144195512,-0.9939315171632809,6.835289040464444,-2.9150308156393696,7.497098157529416
365,1790994601.2880003,-0.976018359375,-1.436197412109375,0.30785581054687494,1.763533397606693,-1.011014584358187,6.8068161022026725,-2.9099905246235367,7.471475141656385
366,1790994601.3130429,-0.5976052734375,-1.450567529296875,0.25037534179687493,1.5886994780859756,-1.0321518057109818,6.771090213000651,-2.903577634830634,7.439338888914411
367,1790994601.3330429,-0.5880251953125,-1.546368310546875,0.25995541992187493,1.6746956148902579,-1.0482791339847806,6.742342493843732,-2.898458785118685,7.413442842301441
368,1790994601.3420966,-0.8562673828125,-1.565528466796875,0.2839056152343749,1.806841334921678,-1.0554653695947063,6.729167797381102,-2.896119842291549,7.401568518404686
369,1790994601.3620965,-0.9089578125,-1.306866357421875,0.22642514648437492,1.6079093034205554,-1.0716066708212637,6.700121317555643,-2.890962555803597,7.375474969516923
370,1790994601.387962,-0.65987578125,-1.335606591796875,0.2551653808593749,1.511419990049315,-1.092394001833022,6.663064719008964,-2.884358971689618,7.342294108962753
371,1790994601.407962,-0.5305447265625,-1.460147607421875,0.2839056152343749,1.5792755113357242,-1.1078419819524503,6.634515860238421,-2.8792101991422987,7.316690913765356
372,1790994601.4321046,-0.54491484375,-1.455357568359375,0.21684506835937492,1.5690824141490407,-1.1256398175767597,6.599944023199453,-2.8730205598902447,7.285641580933864
373,1790994601.4521046,-0.77483671875,-1.263756005859375,0.24079526367187493,1.5018100885517167,-1.1401518183133366,6.571521540712074,-2.8679756553687175,7.26017395718819
374,1790994601.4627948,-0.7029861328125,-1.330816552734375,0.28869565429687494,1.5325166820522313,-1.1479299882393164,6.556527987801482,-2.8652590536556377,7.246758720785374
375,1790994601.4827948,-0.5784451171875,-1.373926904296875,0.29827573242187494,1.5202770486002415,-1.162221276152197,6.528627556030595,-2.8600585536218417,7.22174985652704
376,1790994601.5076528,-0.6838259765625,-1.268546044921875,0.26953549804687493,1.466109279356749,-1.179672849671217,6.494225206740731,-2.8535058038015633,7.190902894661234
377,1790994601.5276527,-0.669455859375,-1.426617333984375,0.2743255371093749,1.5995820284019675,-1.1936376201159864,6.466655253776189,-2.8482086931239845,7.166218926249349
378,1790994601.552864,-0.650295703125,-1.488887841796875,0.21684506835937492,1.6391135685562415,-1.2110960827584565,6.43160174224531,-2.8416042005599684,7.134911991409974
379,1790994601.572864,-0.707776171875,-1.268546044921875,0.18810483398437491,1.4647660584985067,-1.2249054169120206,6.4038290387888335,-2.8365433718964463,7.110231918795981
380,1790994601.5827644,-0.6550857421875,-1.120054833984375,0.19768491210937492,1.3125317082740533,-1.2317278532081033,6.390369675847069,-2.8341274964272625,7.0983277442197235
381,1790994601.6027644,-0.5928152343749999,-1.244595849609375,0.25995541992187493,1.4028633402148358,-1.245314594097039,6.363711461740811,-2.829292706417306,7.07478121394214
382,1790994601.6274254,-0.7317263671875,-1.373926904296875,0.2551653808593749,1.577405460361197,-1.2620046513492735,6.330927921328145,-2.8232726242217883,7.045862076123808
383,1790994601.6474254,-0.8371072265625,-1.522418115234375,0.21205502929687492,1.7502779098780417,-1.2758631087193562,6.303984234923054,-2.818421880098082,7.022218011466537
384,1790994601.6730065,-0.8179470703125,-1.354766748046875,0.28869565429687494,1.6086564369859115,-1.2941053664040771,6.269170972982349,-2.8121874250975356,6.991824618918654
385,1790994601.6930065,-0.631135546875,-1.345186669921875,0.3030657714843749,1.5164788548839474,-1.3084019159228915,6.241985826087817,-2.8071566646633057,6.9681009727640655
386,1790994601.7022493,-0.4060037109375,-1.455357568359375,0.25995541992187493,1.5331280068613617,-1.3147368144019185,6.229365645203872,-2.8047901994741404,6.957037968550707
387,1790994601.7222493,-0.516174609375,-1.623008935546875,-0.03702700195312509,1.7035155505900355,-1.327771688883161,6.201536140721823,-2.800103231417912,6.932719976248543
388,1790994601.7474718,-0.611975390625,-1.694859521484375,0.05877377929687492,1.8029190313016563,-1.3438786501109525,6.165427673597897,-2.7950378558047833,6.901503085558436
389,1790994601.7674718,-0.564075,-1.397877099609375,0.23121518554687492,1.5250250664381861,-1.3564988107054774,6.136451477853767,-2.7911888112370544,6.876544244275171
390,1790994601.792211,-0.37247343749999995,-1.766710107421875,0.4132366699218749,1.852232601666918,-1.371505611261312,6.100113615163891,-2.785946104715303,6.844991560112219
391,1790994601.812211,-0.343733203125,-1.603848779296875,0.4611370605468749,1.7038576262095555,-1.3828920843462826,6.070087635389269,-2.781031935338106,6.81854038952793
392,1790994601.8235257,-0.21440214843749997,-1.306866357421875,0.40844663085937494,1.385891989902572,-1.3888411554832127,6.053178949808809,-2.7779309212649106,6.803437025275691
393,1790994601.8435256,-0.20482207031249997,-1.326026513671875,0.2551653808593749,1.3657993143346485,-1.39840833991011,6.023824685621311,-2.7722762986724265,6.776984993668772
394,1790994601.8681118,-0.3868435546875,-1.335606591796875,0.22163510742187492,1.4080536299077642,-1.409496240634795,5.988244030114692,-2.765488497943731,6.744899765661973
395,1790994601.8881118,-0.516174609375,-1.330816552734375,0.36533627929687496,1.4734244199706084,-1.4185174302899923,5.959642364363676,-2.759914656837452,6.719126261961519
396,1790994601.9123347,-0.477854296875,-1.225435693359375,0.38449643554687496,1.3703557481724682,-1.4296103597580434,5.925553767536368,-2.7528143112532795,6.688345076693698
397,1790994601.9323347,-0.31020292968749996,-1.258965966796875,0.35575620117187495,1.3445384478741178,-1.4385776396432368,5.897903246589456,-2.7467207973581766,6.663275731203977
398,1790994601.957898,-0.4634841796875,-1.249385888671875,0.22642514648437492,1.3516845159257673,-1.4498033860851933,5.8630535294528165,-2.7389843846944797,6.631693751006105
399,1790994601.977898,-0.5784451171875,-1.321236474609375,0.1689446777343749,1.4521731575714523,-1.4588315883807663,5.836021952635325,-2.7332464862241537,6.607418420938368
400,1790994601.9879596,-0.4634841796875,-1.373926904296875,0.1641546386718749,1.4592599043929366,-1.4634785396201202,5.8224287382873925,-2.7305414539365835,6.595324289224122
401,1790994602.0079596,-0.4443240234375,-1.1823253417968749,0.1641546386718749,1.2736811991453274,-1.4726915853713267,5.7956277192934,-2.7254786576220167,6.571632603806959
402,1790994602.033105,-0.324573046875,-1.244595849609375,0.20247495117187492,1.302060903903752,-1.483987406328021,5.762409191893229,-2.7193767433909626,6.542368698678742
403,1790994602.0531049,-0.30062285156249996,-1.282916162109375,0.1689446777343749,1.328454094810125,-1.4925619676662938,5.736159869700061,-2.7146942918603956,6.519266552024139
404,1790994602.0778534,-0.21919218749999997,-1.364346826171875,0.21684506835937492,1.3987527518536238,-1.5025456702575353,5.703636743078958,-2.7090531386163796,6.490615109221719
405,1790994602.0978534,-0.18087187499999996,-1.359556787109375,0.20247495117187492,1.3864001581048797,-1.5100036498886347,5.677210499179888,-2.704549206498916,6.467257261393679
406,1790994602.1081364,-0.27188261718749995,-1.167955224609375,0.19289487304687492,1.2145978743060726,-1.5136121684281283,5.663712221182157,-2.702275944813097,6.455304268793016
407,1790994602.1281364,-0.23835234374999997,-1.191905419921875,0.2551653808593749,1.2419982855863245,-1.5203431718501261,5.637856897632439,-2.69784566807319,6.432359210049937
408,1790994602.1525736,-0.13776152343749995,-1.196695458984375,0.2743255371093749,1.2354403098506994,-1.52802320509171,5.6066262343584965,-2.6922740192634764,6.4044868679619285
409,1790994602.1725736,-0.07070097656249996,-1.1823253417968749,0.19289487304687492,1.2000417801017422,-1.5336785932392294,5.581331772079647,-2.68769721409544,6.381782720528989
410,1790994602.197206,-0.10423124999999996,-1.167955224609375,0.1833147949218749,1.18683944752698,-1.5399222833734234,5.5505095097448045,-2.682210824425987,6.354035832702351
411,1790994602.217206,-0.21919218749999997,-1.009883935546875,0.11625424804687493,1.0399162603429297,-1.5447164743797563,5.525970900259145,-2.6779750626869507,6.3319865613489945
412,1790994602.2272553,-0.33894316406249997,-1.043414208984375,0.20247495117187492,1.1156127400792988,-1.5471847283461937,5.513942949436246,-2.6759257530511613,6.321228208909073
413,1790994602.2472553,-0.30062285156249996,-1.009883935546875,0.19768491210937492,1.072062958334493,-1.5523195013513862,5.490515907165726,-2.671858796630769,6.3003404820889575
414,1790994602.273015,-0.14734160156249995,-1.029044091796875,0.23121518554687492,1.0649421357240654,-1.5588064472089864,5.460929095941432,-2.6665777156339536,6.273935036663641
415,1790994602.293015,-0.21919218749999997,-0.9332433105468749,0.23121518554687492,0.9861281629529712,-1.5636372749975398,5.43845999884888,-2.6623988476220943,6.253812941770848
416,1790994602.3178766,-0.31978300781249996,-0.9715636230468749,0.25995541992187493,1.0553548531467214,-1.5697465970438254,5.41116701102404,-2.6570675352541926,6.229353151574191
417,1790994602.3378766,-0.286252734375,-1.0625743652343749,0.20726499023437492,1.1198051999197247,-1.5748331155860602,5.389453257777896,-2.652721231244013,6.209930409466118
418,1790994602.3479164,-0.21919218749999997,-1.105684716796875,0.11625424804687493,1.1331809026841941,-1.577384085944455,5.3785555015239455,-2.650623092033823,6.2002260131052696
419,1790994602.3679163,-0.25272246093749995,-1.096104638671875,0.10667416992187492,1.129908580243919,-1.582411408549599,5.35680010622696,-2.6467360084429865,6.180982506233925
420,1790994602.3924673,-0.22877226562499997,-1.110474755859375,0.1737347167968749,1.1470286329210027,-1.5885435769243403,5.33003718751785,-2.6421638455126275,6.157418038646138
421,1790994602.4124672,-0.22877226562499997,-1.0625743652343749,0.24558530273437493,1.1143218440341034,-1.5934760388398104,5.308245957797738,-2.6383689271991857,6.13821078416527
422,1790994602.4379377,-0.27667265625,-1.029044091796875,0.3222259277343749,1.1132425836639401,-1.5997809593925543,5.280661423425827,-2.6331762567159047,6.113779631768308
423,1790994602.4579377,-0.21919218749999997,-1.043414208984375,0.36533627929687496,1.1270443751432364,-1.6047329013435685,5.259141764477107,-2.6286791272790357,6.094562637114693
424,1790994602.4675863,-0.22398222656249997,-1.081734521484375,0.3413860839843749,1.1562275170247038,-1.6070842153933662,5.248779474473666,-2.626323601189225,6.085226479366738
425,1790994602.4875863,-0.20961210937499997,-1.144005029296875,0.21205502929687492,1.1822233625264218,-1.6118774311756772,5.227183352693684,-2.6213431941390133,6.065726238239772
426,1790994602.5136006,-0.10902128906249996,-1.081734521484375,0.1833147949218749,1.102560443003978,-1.6177985359809468,5.19896388070671,-2.6150654103058133,6.040286800814427
427,1790994602.5336006,-0.08507109374999997,-1.167955224609375,0.24079526367187493,1.1955496044459906,-1.6219590298758042,5.177148336098847,-2.6103268056857045,6.020583196090563
428,1790994602.557666,-0.10902128906249996,-1.167955224609375,0.23121518554687492,1.1956025720065429,-1.6265646382040613,5.150619622350665,-2.604628296994114,5.996555976717143
429,1790994602.577666,-0.09465117187499997,-1.139214990234375,0.22642514648437492,1.1653488684820903,-1.6301235709952284,5.128418856367213,-2.5999163825638782,5.97641598446603
430,1790994602.5877154,-0.09465117187499997,-1.115264794921875,0.25037534179687493,1.146936013432896,-1.631786259570735,5.117237761884791,-2.597544570862621,5.966245595531698
431,1790994602.6077154,-0.06112089843749996,-1.076944482421875,0.30785581054687494,1.1217488054516487,-1.6348326066530903,5.095034938696938,-2.5926949467140155,5.9459335486561775
432,1790994602.6322181,-0.05633085937499996,-1.052994287109375,0.28869565429687494,1.0933047677627714,-1.63822081703157,5.0679994256117995,-2.5865484165413424,5.921031863997157
433,1790994602.652218,-0.03717070312499996,-1.048204248046875,0.2743255371093749,1.0841440435222012,-1.6407118058569639,5.046090421720344,-2.581439429719966,5.900745148146051
434,1790994602.6779394,0.05863007812500005,-1.067364404296875,0.09709409179687492,1.0733738958456305,-1.6433934499455431,5.0180593054472045,-2.575138001115902,5.874776331835996
435,1790994602.6979394,-0.008430468749999956,-1.086524560546875,0.13541440429687493,1.0949629009085202,-1.645090529352607,4.99630187231018,-2.5706244361506894,5.854695999003783
436,1790994602.7229967,-0.03238066406249996,-1.033834130859375,0.05398374023437492,1.0357488893281908,-1.6469745082086003,4.9691467907768985,-2.565461838411819,5.829797535363013
437,1790994602.7429967,-0.11381132812499996,-1.105684716796875,0.12583432617187493,1.1186268318840256,-1.6484719700040682,4.947514315371195,-2.5616895784780938,5.810130053034551
438,1790994602.7529228,-0.09944121093749995,-0.976353662109375,0.07793393554687492,0.9844941473959754,-1.649262444631881,4.936838478485118,-2.5599465207918035,5.800497130698234
439,1790994602.7729228,-0.05633085937499996,-1.038624169921875,0.015663427734374912,1.0402685590904974,-1.6508499153897451,4.915531954737417,-2.5568208627927347,5.781443830532228
440,1790994602.79791,-0.05633085937499996,-1.067364404296875,0.1833147949218749,1.0844557396755286,-1.6527468752373753,4.8889586135161425,-2.5531286521445495,5.757773395391836
441,1790994602.81791,-0.022800585937499958,-0.985933740234375,0.14978452148437493,0.9975071978326475,-1.6541561634691193,4.867799572957514,-2.550117018750173,5.738885092502507
442,1790994602.8424358,0.06821015625000004,-0.9524034667968749,-0.1040875488281251,0.9604994569511233,-1.6555416081380048,4.842178970333354,-2.54689378299695,5.716133583015994
443,1790994602.8624358,0.044259960937500044,-1.057784326171875,-0.11845766601562509,1.065316311465729,-1.656333216723615,4.8214049071338145,-2.544993431788853,5.697927392587977
444,1790994602.8722281,-0.013220507812499957,-1.158375146484375,0.06835385742187491,1.1604654288878957,-1.6566398677601353,4.811131673247886,-2.5442393518637156,5.688989146443613
445,1790994602.8922281,-0.19524199218749996,-1.0625743652343749,0.22642514648437492,1.1038351616645707,-1.6574849231500381,4.789965390862804,-2.542488062326725,5.670561723780727
446,1790994602.918225,-0.13297148437499998,-1.067364404296875,0.32701596679687495,1.1242275702708098,-1.6590585402991667,4.762426504955212,-2.539474032061242,5.646424515988229
447,1790994602.938225,-0.23835234374999997,-1.019464013671875,0.38928647460937493,1.1169882158093174,-1.660644549812907,4.741287956948983,-2.53642863598685,5.627701310214224
448,1790994602.963125,-0.22398222656249997,-0.803912255859375,0.2839056152343749,0.8815017591011451,-1.6631863516638166,4.715512953861253,-2.5319486635650086,5.604731509476855
449,1790994602.983125,-0.16650175781249996,-0.8326524902343749,0.21205502929687492,0.8752144538901633,-1.6655074449704446,4.695460705622191,-2.528146105547948,5.586840700994729
450,1790994602.9928222,-0.09944121093749995,-0.947613427734375,0.25037534179687493,0.9851637298617473,-1.6666574579157507,4.685901776138438,-2.5262426312529134,5.578290452244595
451,1790994603.0128222,-0.11381132812499996,-0.981143701171875,0.27911557617187494,1.0264022046062544,-1.66899340329511,4.666251056970743,-2.5221114493052177,5.560619036549764
452,1790994603.0376198,-0.24793242187499998,-0.856602685546875,0.32701596679687495,0.9498305581749916,-1.6721280419265347,4.64212323021897,-2.5166302879551328,5.5388399759686875
453,1790994603.0576198,-0.38205351562499995,-0.8134923339843749,0.31743588867187494,0.9531527735204209,-1.6752219633095629,4.623077321071617,-2.5119060151563466,5.521674055206455
454,1790994603.0829737,-0.32936308593749997,-0.827862451171875,0.20247495117187492,0.9136916253805938,-1.67990858333792,4.599433444428056,-2.5058267792411923,5.500549854847062
455,1790994603.1029737,-0.21919218749999997,-0.847022607421875,0.15457456054687493,0.8884738641699295,-1.6838738289645554,4.5810677245218505,-2.5012150326986315,5.484313011519782
456,1790994603.113267,-0.10423124999999996,-0.928453271484375,0.14020444335937493,0.9447470120324875,-1.6858581593313537,4.57166273963508,-2.4989699951934727,5.4760450121624356
457,1790994603.133267,-0.12818144531249998,-0.995513818359375,0.1593645996093749,1.016304738292369,-1.6894840324966482,4.553243829533596,-2.4948128123090076,5.459897126842966
458,1790994603.1574814,-0.20003203124999996,-0.966773583984375,0.1737347167968749,1.0024209335585947,-1.6938115465411705,4.530724920422267,-2.4899296450234782,5.440240389624184
459,1790994603.1774814,-0.19524199218749996,-0.9332433105468749,0.20726499023437492,0.9757157825774319,-1.697442622156339,4.512065321198168,-2.485929880150539,5.424010719688651
460,1790994603.2024279,-0.18087187499999996,-0.866182763671875,0.22642514648437492,0.9133759150583802,-1.7019960829449992,4.488915247025211,-2.4808778014549704,5.4038787391176335
461,1790994603.2224278,-0.16650175781249996,-0.918873193359375,0.1833147949218749,0.9516591274539202,-1.7056201397525894,4.470461839147152,-2.4768204076113225,5.387838940425047
462,1790994603.2332582,-0.20003203124999996,-0.9140831542968749,0.1737347167968749,0.951706140736633,-1.7075859941966567,4.460478999057132,-2.4746627952527955,5.379189416521292
463,1790994603.2532582,-0.16650175781249996,-0.928453271484375,0.1737347167968749,0.9591308901840151,-1.711221505534777,4.442045592747826,-2.470754886854136,5.3632711846380365
464,1790994603.2780814,-0.06591093749999996,-0.9332433105468749,0.1785247558593749,0.9524486426140095,-1.7154896128395736,4.419132603973448,-2.4659762808814225,5.343470464139517
465,1790994603.2980814,-0.11381132812499996,-0.909293115234375,0.21684506835937492,0.9416946275167937,-1.718682178826633,4.400677005033684,-2.4621106324933315,5.327458615614504
466,1790994603.3232772,-0.20003203124999996,-0.909293115234375,0.22163510742187492,0.9570521949092125,-1.7226939213691586,4.377477744838278,-2.4571426124296543,5.30730963587902
467,1790994603.3432772,-0.16650175781249996,-0.8949229980468749,0.1641546386718749,0.9249631090942778,-1.725950500355662,4.359118557782763,-2.4532119357110367,5.291414605944154
468,1790994603.3678539,-0.15692167968749995,-0.890132958984375,0.11146420898437492,0.9107059723701925,-1.7299481773018544,4.336651913693548,-2.4485982732724816,5.272087254642596
469,1790994603.3878539,-0.14734160156249995,-0.961983544921875,0.10188413085937492,0.978520446578624,-1.7331698145957768,4.31833328476485,-2.445086923443085,5.2564560330822045
470,1790994603.3973584,-0.16650175781249996,-0.966773583984375,0.09709409179687492,0.985799807621459,-1.7346948964389741,4.309558685125696,-2.443526694611949,5.249027067138722
471,1790994603.4173584,-0.12818144531249998,-0.957193505859375,0.015663427734374912,0.965865018286796,-1.7378647036685628,4.2909783648480895,-2.440566911250272,5.233453535108638
472,1790994603.4428098,-0.14255156249999995,-0.918873193359375,-0.0945074707031251,0.9346553137196347,-1.7418102317121362,4.26729914170856,-2.4375158556511285,5.213945568825431
473,1790994603.4628098,-0.17129179687499996,-0.9332433105468749,-0.2046783691406251,0.970658122693682,-1.7449163662813874,4.248704705441275,-2.4359267165630096,5.199034888113458
474,1790994603.4882603,-0.18087187499999996,-0.995513818359375,-0.2429986816406251,1.040581931896552,-1.748948308849639,4.224910526361063,-2.435062350031581,5.180561532433125
475,1790994603.5082603,-0.16171171874999996,-0.923663232421875,-0.0849273925781251,0.9415503751362562,-1.7521553742299107,4.20613812033307,-2.4349768733780413,5.166309971018742
476,1790994603.5180097,-0.32936308593749997,-0.727271630859375,0.25037534179687493,0.8367149330632446,-1.7538432999570206,4.1971525924825075,-2.434820479566796,5.159496775181146
477,1790994603.5380096,-0.46827421874999997,-0.6123106933593749,0.32701596679687495,0.8373437595684678,-1.7579829792891306,4.179475217613987,-2.4336816906136076,5.146000759944336
478,1790994603.5626864,-0.4826443359375,-0.645840966796875,0.20726499023437492,0.8324751561353215,-1.7640844520530528,4.158607268981241,-2.431498542812856,5.130126074016113
479,1790994603.5826864,-0.3868435546875,-0.8326524902343749,0.1785247558593749,0.9353230424572123,-1.769592020963599,4.142013485731321,-2.4294158761563494,5.117596421754913
480,1790994603.6075802,-0.26230253906249995,-0.880552880859375,0.48987729492187493,1.0412280067633375,-1.77663092743521,4.121258888717419,-2.4259645162768306,5.101617009771108
481,1790994603.6275802,-0.4443240234375,-0.7129015136718749,0.801229833984375,1.1608710750406213,-1.782497745286204,4.104695366242011,-2.421670918969076,5.088252381847776
482,1790994603.6379423,-0.45869414062499997,-0.641050927734375,0.7102190917968749,1.0610173254690933,-1.7857832339118436,4.096348688857398,-2.418605414914663,5.0812150606207265
483,1790994603.6579423,-0.4251638671875,-0.760801904296875,0.657528662109375,1.091754456386108,-1.792499142617705,4.080552478909761,-2.4115245756429817,5.067485815308403
484,1790994603.68331,-0.32936308593749997,-0.660211083984375,0.7293792480468749,1.037474243186558,-1.8011753123031473,4.0608185222983275,-2.401251807897524,5.049800968515753
485,1790994603.70331,-0.21919218749999997,-0.559620263671875,0.600048193359375,0.8492808068754786,-1.8078124094163528,4.045764225502459,-2.3923734563643264,5.035855898525281
486,1790994603.7278616,-0.0036404296874999564,-0.799122216796875,0.21684506835937492,0.8280285947830808,-1.8151481748100695,4.027553940002652,-2.3816051778584897,5.0187644753813245
487,1790994603.7478616,0.18796113281250004,-1.201485498046875,-0.1280377441406251,1.2228206955190632,-1.81995110799931,4.011943906846808,-2.374015820101064,5.004384783495697
488,1790994603.7580545,0.31250214843750007,-1.570318505859375,-0.2286285644531251,1.6173524115375628,-1.8216491395070395,4.003062732461291,-2.3710007888182054,4.996454900032997
489,1790994603.7780545,0.3795626953125001,-1.661329248046875,-0.16635805664062508,1.712237633361132,-1.8234430723855843,3.9834029697635955,-2.366564706314847,4.979264239516466
490,1790994603.803321,0.4705734375000001,-1.546368310546875,-0.02265688476562509,1.6165418789414168,-1.8237584479566014,3.956213331612045,-2.3621593167643797,4.955553999251214
491,1790994603.8233209,0.5376339843750001,-1.393087060546875,0.2934856933593749,1.5218001549561964,-1.822458332235164,3.933510163724388,-2.3587889981506995,4.935356331477315
492,1790994603.8475957,0.4993136718750001,-1.239805810546875,0.542567724609375,1.4425021062635865,-1.8192291481308727,3.9052942584747745,-2.35378977531959,4.909301808310839
493,1790994603.8675957,0.585534375,-1.383506982421875,0.4228167480468749,1.560678082483911,-1.8153404370028512,3.8815993190299496,-2.3488406777018915,4.886647798331547
494,1790994603.8775563,0.5567941406250001,-1.747549951171875,0.1737347167968749,1.8423176432677524,-1.8128408611463416,3.8692295331200204,-2.3462999325808167,4.874674608775311
495,1790994603.8975563,0.21670136718750005,-1.958311669921875,0.21684506835937492,1.9821619163844604,-1.8074145577326965,3.8425590584576,-2.3413777380407157,4.849129531517105
496,1790994603.9677596,-0.09944121093749995,-1.852930810546875,0.20726499023437492,1.867136823932159,-1.7906070002470902,3.7429167398471526,-2.3244586208269924,4.755923362576278
497,1790994603.9877596,-0.21440214843749997,-1.781080224609375,-0.013076806640625088,1.7939860787144124,-1.7870077540641995,3.7133369810209387,-2.3200703134651506,4.729164250385638
498,1790994603.9682832,-0.10423124999999996,-1.8960411621093751,-0.2334186035156251,1.9131964055885158,-1.7870077540641995,3.7133369810209387,-2.3200703134651506,4.729164250385638
499,1790994603.9882832,-0.20003203124999996,-1.967891748046875,-0.2477887207031251,1.9934919101076576,-1.7852699503792544,3.6814813861342386,-2.3179358530424023,4.702480261627839
500,1790994603.997316,-0.516174609375,-1.881671044921875,0.15457456054687493,1.9572979955615022,-1.7850880201706096,3.6666443989966324,-2.31717960074781,4.690430864064813
501,1790994604.0173159,-0.7892068359375,-1.464937646484375,0.24079526367187493,1.6813304544272276,-1.7867036899047786,3.633700635561026,-2.3151632468624843,4.664340386809136
502,1790994604.0423858,-0.71735625,-1.536788232421875,0.15457456054687493,1.7030006915714018,-1.7912578537812573,3.5929559286494395,-2.3122714815810936,4.63298353207557
503,1790994604.0623858,-0.5736550781249999,-1.900831201171875,0.049193701171874916,1.9861166693429924,-1.7962825564122633,3.560170438488675,-2.3100049177527255,4.608423514999614
504,1790994604.0877986,-0.5353347656249999,-1.9774718261718751,0.025243505859374914,2.0488082802396073,-1.803823151183904,3.517368745836087,-2.307415052626756,4.57709788840266
505,1790994604.1077986,-0.6167654296875,-1.752339990234375,-0.013076806640625088,1.857758337218308,-1.810595608182004,3.483141685161764,-2.3056643028808823,4.552649814433203
506,1790994604.1471376,-0.46827421874999997,-1.479307763671875,0.05877377929687492,1.5527673878397383,-1.8251198929358978,3.416382305576546,-2.3026023778659197,4.50607461012361
507,1790994604.1671376,-0.5544949218749999,-1.421827294921875,0.15457456054687493,1.5339331047142435,-1.8329305695973,3.3831812088448063,-2.3009591753853855,4.483298193477106
508,1790994604.16216,-0.5784451171875,-1.225435693359375,0.039613623046874914,1.3556771855010812,-1.8329305695973,3.3831812088448063,-2.3009591753853855,4.483298193477106
509,1790994604.18216,-0.707776171875,-1.167955224609375,-0.1424078613281251,1.3730792093446085,-1.841947610751026,3.352228076411785,-2.299678563105611,4.4630399472380216
510,1790994604.2074685,-0.4634841796875,-1.493677880859375,-0.2238385253906251,1.5798717929117532,-1.853869715453462,3.313882196421444,-2.298996303879222,4.438922407396285
511,1790994604.2274685,-0.13776152343749995,-1.704439599609375,-0.07534731445312509,1.71165703452873,-1.8627797509056938,3.283327807619726,-2.2989868035365966,4.419901606994058
512,1790994604.2527914,-0.09465117187499997,-1.531998193359375,0.2647454589843749,1.5575838554782684,-1.8728103552152826,3.2442977115791374,-2.2986168705603425,4.395056971824579
513,1790994604.2727914,-0.02759062499999996,-1.326026513671875,0.6671087402343749,1.484635183755852,-1.879727544253889,3.2138086784470485,-2.2969707441930143,4.374701871209846
514,1790994604.282923,-0.17129179687499996,-1.1008946777343749,0.743749365234375,1.3395794449852816,-1.8828571642936172,3.198836160744243,-2.295189864713661,4.364126533397156
515,1790994604.302923,-0.16171171874999996,-1.177535302734375,0.6479485839843749,1.3537272386467563,-1.888607913017145,3.1702958710268607,-2.2901141511113163,4.343067876982956
516,1790994604.327221,0.13048066406250006,-1.493677880859375,0.537777685546875,1.5928916016273353,-1.894603417840634,3.135955466210661,-2.2827118404826283,4.316771032106002
517,1790994604.347221,0.30292207031250007,-1.867300927734375,0.5138274902343749,1.9602533573802714,-1.8981480498685595,3.1068878499238193,-2.2759554315937094,4.293680386081966
518,1790994604.3724806,0.24544160156250006,-1.943941552734375,0.44676694335937495,2.0096644102694303,-1.9009144890149743,3.0684622876807484,-2.2668823315916957,4.262357588324639
519,1790994604.3924806,0.15922089843750006,-1.828980615234375,0.36533627929687496,1.8718952915088072,-1.9021693294691586,3.036942227530385,-2.2595579157623784,4.2363744199509545
520,1790994604.402566,-0.041960742187499955,-1.603848779296875,0.20726499023437492,1.6177300105128352,-1.902618492970052,3.020835266638735,-2.255985353335979,4.223135417249417
521,1790994604.422566,-0.09465117187499997,-1.546368310546875,0.11146420898437492,1.5532669011105014,-1.903580526317231,2.988959848747823,-2.2494853036340086,4.19734248410422
522,1790994604.4475768,-0.15213164062499995,-1.948731591796875,0.25995541992187493,1.971871109706006,-1.9050660484022313,2.948521371628278,-2.241879290699042,4.165222404840927
523,1790994604.4675767,-0.2575125,-2.303194482421875,0.4707171386718749,2.3648661983618133,-1.9066902309063707,2.9146572510475197,-2.2356134374214798,4.138678770972345
524,1790994604.4931672,-0.305412890625,-2.159493310546875,0.504247412109375,2.238515991605962,-1.9095370941320273,2.8692616867960803,-2.2269275023514847,4.103437661511564
525,1790994604.5131671,-0.14255156249999995,-1.7762901855468751,0.49466733398437496,1.8493846388873658,-1.9121002412187036,2.8332012685528274,-2.2196589740515114,4.075542015693788
526,1790994604.5227008,0.12090058593750005,-1.714019677734375,0.5713079589843749,1.8107659129052474,-1.9131542587345336,2.816094646664177,-2.2159517128274033,4.062141094332818
527,1790994604.5427008,0.015519726562500044,-1.637379052734375,0.580888037109375,1.7374354479815004,-1.9148291071998491,2.7805637603502436,-2.207612791582383,4.033814518878009
528,1790994604.56714,0.11132050781250005,-1.488887841796875,0.4419769042968749,1.557087937414595,-1.9163362347928903,2.7379285066650687,-2.1970765211378795,3.9994677536048133
529,1790994604.58714,0.23107148437500005,-1.570318505859375,0.36533627929687496,1.6287310513728686,-1.9168710041659964,2.7036826496688064,-2.1885365303612767,3.9716478269678284
530,1790994604.6126723,-0.08986113281249997,-1.455357568359375,0.5904681152343749,1.573147567801474,-1.9171808875929128,2.66072781197791,-2.177439315534977,3.936533629733364
531,1790994604.6326723,-0.42037382812499996,-1.187115380859375,0.858710302734375,1.524250788704906,-1.9181525671499517,2.6281637413387657,-2.167876757204163,3.9097625959356876
532,1790994604.642314,-0.31020292968749996,-1.235015771484375,0.681478857421875,1.4442656426415739,-1.9190790299322846,2.613068448921305,-2.1628445567724017,3.897292344517388
533,1790994604.662314,0.049050000000000045,-1.172745263671875,0.7341692871093749,1.384464480620396,-1.9211042819110715,2.5828410555020342,-2.151848398880263,3.871971217833039
534,1790994604.6874094,-0.18087187499999996,-0.779962060546875,0.580888037109375,0.9891846959568902,-1.923512440809994,2.546926474555021,-2.1376452087527538,3.841387980306558
535,1790994604.7074094,-0.69819609375,-1.531998193359375,0.49466733398437496,1.754762668025325,-1.9264623587906138,2.51912954627201,-2.126410456668282,3.818231569845644
536,1790994604.7322752,-0.31978300781249996,-2.3127745605468752,0.2839056152343749,2.351975709559946,-1.9314783028711402,2.4825834738890555,-2.1130855755105054,3.789321811184634
537,1790994604.7522752,-0.17129179687499996,-1.699649560546875,0.10667416992187492,1.7115866577162762,-1.9356441522333772,2.45157948217652,-2.103389918446909,3.7657946559163658
538,1790994604.7772627,-0.5018044921875,-1.153585107421875,0.4228167480468749,1.3271549837430547,-1.9413295735193707,2.413307102875903,-2.0921011431820205,3.737606035835733
539,1790994604.7972627,-0.43953398437499996,-1.330816552734375,0.686268896484375,1.560521649556407,-1.9466096030019486,2.3835422491950142,-2.0827573037967513,3.71597101532234
540,1790994604.8072622,-0.31499296875,-1.206275537109375,0.5329876464843749,1.3558750211931048,-1.9494193762202638,2.3689900630639826,-2.0778719634853755,3.705388200974017
541,1790994604.8272622,-0.20482207031249997,-1.029044091796875,0.5713079589843749,1.1946868239618476,-1.9549759402841977,2.340897190704219,-2.0679100470912744,3.6848314137010423
542,1790994604.8527691,-0.267092578125,-1.139214990234375,0.8730804199218749,1.459937895567864,-1.9619023026717652,2.306295256046826,-2.0543477093660036,3.6590166663012367
543,1790994604.872769,-0.3964236328125,-1.187115380859375,0.9688812011718749,1.5827587959349378,-1.9675138841781366,2.2797441358449704,-2.0425456915477485,3.638727402734854
544,1790994604.897466,-0.17608183593749996,-1.086524560546875,0.6718987792968749,1.2895690765675683,-1.974464320866328,2.247664274483234,-2.0271189486524333,3.613822806550996
545,1790994604.917466,-0.17608183593749996,-1.115264794921875,0.705429052734375,1.3313341144059105,-1.9797768772852464,2.2222795210931796,-2.014434008520964,3.593881902398755
546,1790994604.927862,-0.477854296875,-1.005093896484375,0.7916497558593749,1.3657480755045024,-1.9826340013523105,2.209410516526178,-2.0076621413054365,3.5837186953618274
547,1790994604.947862,-0.3676833984375,-0.904503076171875,0.844340185546875,1.2908242503223533,-1.9885743964725888,2.185502184721255,-1.9941345158280361,3.564746891007048
548,1790994604.972224,-0.07070097656249996,-0.942823388671875,0.681478857421875,1.1654732958873975,-1.995526017247007,2.1573723896942574,-1.9773402415547117,3.542069189639929
549,1790994604.992224,0.08737031250000005,-1.076944482421875,0.3413860839843749,1.1331316993463092,-2.000351888286426,2.1347136320514135,-1.9640868187739118,3.5236411564628187
550,1790994605.0169406,-0.013220507812499957,-1.206275537109375,0.26953549804687493,1.2360925685249904,-2.00528380419505,2.1066790672864832,-1.9490321722660888,3.501140705032902
551,1790994605.0369406,-0.08986113281249997,-1.029044091796875,0.34617612304687495,1.0894240103009325,-2.008830577423693,2.0840440358951637,-1.9377540834818539,3.4833217939767223
552,1790994605.0470047,0.0011496093750000436,-0.818282373046875,0.25037534179687493,0.8557307844298008,-2.0104145838572163,2.072968071385264,-1.9324798721614371,3.4746858678559147
553,1790994605.0670047,0.21191132812500005,-1.096104638671875,0.1641546386718749,1.1284053063076214,-2.012770643497962,2.0513873444295627,-1.922949056244806,3.457913933736027
554,1790994605.0922568,0.7004953125000001,-1.589478662109375,0.1833147949218749,1.746636886754866,-2.0135711890305967,2.023140328035412,-1.9120623624272308,3.4356292288354005
555,1790994605.1122568,1.074118359375,-1.479307763671875,-0.0945074707031251,1.8305773328720718,-2.0114482067944586,1.999520962118178,-1.9046001139628448,3.416359108857546
556,1790994605.138417,0.4897335937500001,-0.938033349609375,-0.4489703613281251,1.149486817313614,-2.0060195455215535,1.9685178181482863,-1.8973698153340781,3.391045418970773
557,1790994605.158417,0.044259960937500044,-0.818282373046875,-0.4250201660156251,0.9231398202338384,-2.0016907919491036,1.9457362482214258,-1.8939822589343276,3.373399527386965
558,1790994605.1671367,0.23586152343750005,-1.110474755859375,-0.1424078613281251,1.1441437150145288,-1.9999034199363592,1.9360323363148009,-1.893097959444573,3.3662523346271738
559,1790994605.1871367,0.6046945312500001,-1.579898583984375,0.049193701171874916,1.6923814676468418,-1.9951579080486894,1.9130779328873757,-1.8915137410975513,3.349380015482076
560,1790994605.2275727,0.9447873046875,-1.421827294921875,0.025243505859374914,1.707294099524625,-1.9823034728060092,1.8645266949304362,-1.8885654638813638,3.3125015269086915
561,1790994605.2475727,0.9447873046875,-0.9332433105468749,-0.02265688476562509,1.328186531405301,-1.9740648937994119,1.8405823390691713,-1.8873220788492462,3.293426814297908
562,1790994605.2566204,0.6765451171875001,-0.808702294921875,-0.013076806640625088,1.0544589609245454,-1.9697967109367969,1.830192974305074,-1.8868682087046054,3.284810046659198
563,1790994605.2766204,0.6190646484375001,-0.9524034667968749,0.030033544921874916,1.1363166003945933,-1.9598337279430214,1.8080305425431336,-1.8859899883488285,3.2660191242709944
564,1790994605.287714,0.8441964843750001,-1.364346826171875,-0.1280377441406251,1.6095041566398633,-1.9539189248499806,1.7956538326047464,-1.8856574673367406,3.255437902273338
565,1790994605.307714,1.1028585937500002,-1.795450341796875,-0.4393902832031251,2.1524411324447565,-1.941934433639969,1.7719479306183994,-1.8859990495938324,3.235413610104318
566,1790994605.3322237,1.1172287109375,-1.891251123046875,-0.6309918457031252,2.2854280807570757,-1.9253696255101205,1.7404774084888925,-1.888322466140239,3.2096840250135443
567,1790994605.3522236,0.8633566406250001,-1.838560693359375,-0.6070416503906251,2.119950395029649,-1.9109093468027982,1.7130546420297987,-1.8917910437069478,3.188260355009917
568,1790994605.3779104,0.8346164062500001,-1.819400537109375,-0.4585504394531251,2.053550916227353,-1.8918520863569785,1.6760704672251816,-1.897630515669297,3.160588252486713
569,1790994605.3979104,0.9304171875000001,-1.838560693359375,-0.4202301269531251,2.102991898596035,-1.8765920735550727,1.6461066857245332,-1.9028133611726081,3.1387837961181293
570,1790994605.4069042,0.9447873046875,-1.996631982421875,-0.6309918457031252,2.2972403082116624,-1.8694941924916828,1.6320663521394279,-1.9055035409614607,3.1288325072081586
571,1790994605.4269042,0.7915060546875001,-2.130753076171875,-0.6262018066406251,2.357693620651942,-1.8534735122396182,1.5993365823233134,-1.9124742422546082,3.1065735612437733
572,1790994605.452897,0.8633566406250001,-2.058902490234375,-0.3100592285156251,2.2540188283136193,-1.8325494007652452,1.555012481633179,-1.9219999707047646,3.077399066040859
573,1790994605.472897,0.9352072265625001,-1.891251123046875,-0.1376178222656251,2.1143277967349157,-1.8161666681308952,1.5200981924190344,-1.9289015490062202,3.0544755796673
574,1790994605.5128493,0.9495773437500001,-1.886461083984375,-0.4106500488281251,2.151526438543889,-1.7827016154371347,1.4494950409905547,-1.942263086943145,3.0085622517143125
575,1790994605.5328493,0.9591574218750001,-1.987051904296875,-0.49687075195312513,2.2616893629440358,-1.765598893655473,1.4136426246215048,-1.9493097980378862,2.9858890823590065
576,1790994605.5420544,1.0597482421875002,-1.953521630859375,-0.4537604003906251,2.2683058876654245,-1.7575141963383016,1.396896037111769,-1.9527228922740596,2.9754497782420053
577,1790994605.5620544,1.093278515625,-1.963101708984375,-0.4010699707031251,2.282516890177241,-1.7393538405274396,1.3600935104122955,-1.960308438937139,2.952628543415402
578,1790994605.5728548,1.0118478515625,-1.953521630859375,-0.2286285644531251,2.211866600279279,-1.7293127406927726,1.340027997779676,-1.964300397653968,2.9401825865376616
579,1790994605.5928547,0.9304171875000001,-1.939151513671875,-0.05618715820312509,2.151544034529221,-1.7105944552807957,1.3026054780950809,-1.9710110431612469,2.9168131503859316
580,1790994605.6178715,0.8681466796875,-1.833770654296875,0.07314389648437492,2.0302077478932388,-1.6873183340189595,1.2557383390827537,-1.978114082614949,2.887361643507514
581,1790994605.6378715,0.7627658203125001,-1.666119287109375,0.23600522460937493,1.8475561267679461,-1.6690548396481175,1.218640267528624,-1.9824771809338684,2.863746485343725
582,1790994605.6624472,0.7723458984375001,-1.450567529296875,0.37970639648437493,1.686665731973831,-1.6471497071575565,1.1741478841436537,-1.985899434209869,2.834699626842908
583,1790994605.6824472,0.7819259765625001,-1.402667138671875,0.48508725585937496,1.6775556564628022,-1.6296656613107163,1.1390909076241966,-1.9869695519356405,2.81094045895795
584,1790994605.7079494,0.8825167968750001,-1.397877099609375,0.5138274902343749,1.73116000765365,-1.6075321481081273,1.0957380839909554,-1.986218803766124,2.780263781072478
585,1790994605.7279494,0.9591574218750001,-1.321236474609375,0.5090374511718749,1.710195283723957,-1.5900152537779173,1.0627600614855133,-1.9841840527874501,2.7558290605317266
586,1790994605.7377856,0.9160470703125001,-1.378716943359375,0.44676694335937495,1.7145271495701113,-1.5813091468263483,1.046982174114727,-1.9826283369807358,2.743633614998488
587,1790994605.7577856,0.7915060546875001,-1.555948388671875,0.35575620117187495,1.781577867366403,-1.5637009799805333,1.0153111217296276,-1.9787357963890342,2.718715281270052
588,1790994605.7972534,0.5567941406250001,-1.584688623046875,0.3605462402343749,1.717920643800428,-1.5301742454727596,0.9528900628793974,-1.9700861959346319,2.6703318731675694
589,1790994605.8172534,0.48494355468750006,-1.460147607421875,0.3605462402343749,1.5802515236632166,-1.5141706587643289,0.9214361691700014,-1.9652789129261394,2.6465219823968282
590,1790994605.8125098,0.7388156250000001,-1.455357568359375,0.30785581054687494,1.6609302753615296,-1.5141706587643289,0.9214361691700014,-1.9652789129261394,2.6465219823968282
591,1790994605.8325098,0.9543673828125001,-1.565528466796875,0.19768491210937492,1.8441192494530951,-1.4985080038117964,0.8904621406795835,-1.9601951287896882,2.623130573265941
592,1790994605.8578835,0.8441964843750001,-1.555948388671875,0.20247495117187492,1.7817517218439183,-1.4781949442922624,0.8511200142094544,-1.9539513464306904,2.593721541749888
593,1790994605.8778834,0.6909152343750001,-1.527208154296875,0.24558530273437493,1.6941194611247057,-1.4622828439631999,0.8201366690259547,-1.949096019313085,2.5709668539544044
594,1790994605.902818,0.6573849609375001,-1.522418115234375,0.18810483398437491,1.6689204094350558,-1.4428990537278643,0.7815999686122904,-1.9431396996290022,2.5433537076973365
595,1790994605.922818,0.6478048828125,-1.584688623046875,0.11146420898437492,1.715608774777755,-1.4277256972320023,0.7506655762690361,-1.9386294182536388,2.521940422621116
596,1790994605.9327621,0.5520041015625001,-1.555948388671875,0.09230405273437492,1.6535428493098137,-1.420418162303884,0.7352494729740405,-1.9365712694506627,2.511670325694258
597,1790994605.9527621,0.5376339843750001,-1.455357568359375,0.06835385742187491,1.5529933041582311,-1.4062912016692686,0.7043781115070684,-1.9328118002356287,2.491899862151919
598,1790994605.9772513,0.6957052734375001,-1.445777490234375,0.10667416992187492,1.6079980588563147,-1.389322736979982,0.6669190144687667,-1.9285775087163757,2.4686858541491667
599,1790994605.9972513,0.7627658203125001,-1.402667138671875,0.1641546386718749,1.6050649656460763,-1.3753557973131563,0.6366428492681366,-1.925231888861006,2.4501909135033695
600,1790994606.0223923,0.6765451171875001,-1.321236474609375,0.21684506835937492,1.500133627747955,-1.3577182835534538,0.5991568373008188,-1.9209387120782608,2.4274252591461067
601,1790994606.0423923,0.5759542968750001,-1.249385888671875,0.20726499023437492,1.3912753958429804,-1.3439133026195889,0.569953404280902,-1.917399563088366,2.4098487364439984
602,1790994606.052946,0.5711642578125,-1.2206456542968749,0.22642514648437492,1.3665550737957182,-1.3368132496263674,0.5548994172131861,-1.9154688364148555,2.4008339990254686
603,1790994606.072946,0.6190646484375001,-1.153585107421875,0.23121518554687492,1.329458574397134,-1.3235912344825058,0.5270893068961945,-1.9116723870292918,2.3841577566875696
604,1790994606.098515,0.6525949218750001,-1.225435693359375,0.32701596679687495,1.4263632823219703,-1.3067844834558404,0.49230638071811883,-1.9064763497628567,2.363197691878914
605,1790994606.118515,0.6334347656250001,-1.230225732421875,0.39886655273437494,1.440065790825385,-1.2936811704169373,0.4654968387600103,-1.9019328483004077,2.3468376247689147
606,1790994606.142294,0.7004953125000001,-1.201485498046875,0.3318060058593749,1.429809886095271,-1.2780599426798633,0.4340662259616156,-1.8960380685303835,2.3274043617128166
607,1790994606.162294,0.825036328125,-1.235015771484375,0.34617612304687495,1.525053050457227,-1.2646037445029714,0.40794115461598285,-1.890806809876509,2.311014714041375
608,1790994606.1872225,0.9399972656250001,-1.455357568359375,0.38449643554687496,1.7746825124826247,-1.2470473882173345,0.3752325130143892,-1.883898376600796,2.2901964371297683
609,1790994606.2072225,0.9974777343750001,-1.814610498046875,0.11625424804687493,2.0739547103022176,-1.2321686596202448,0.3480219788083047,-1.8784360602905539,2.273297370799495
610,1790994606.2175016,0.9064669921875,-2.044532373046875,-0.17114809570312509,2.243008404581879,-1.2242008321995752,0.33315947354401093,-1.8760920824759768,2.264814432641072
611,1790994606.2375016,0.9304171875000001,-2.293614404296875,-0.11845766601562509,2.4779780864711833,-1.208268099935036,0.30207224615168937,-1.872649956759135,2.2489947318225845
612,1790994606.263075,0.9112570312500001,-2.317564599609375,0.049193701171874916,2.490765960623381,-1.1874188672650074,0.259440036799527,-1.8690416473775082,2.229481863272963
613,1790994606.283075,0.9016769531250001,-2.188233544921875,0.015663427734374912,2.3667768627157333,-1.1708399374311875,0.22434157661428608,-1.8665457374174648,2.2147659677611444
614,1790994606.3079226,0.9735275390625001,-2.078062646484375,-0.07534731445312509,2.2960351586641763,-1.1498376928839076,0.17932638607330634,-1.8640212310812188,2.1974666829420286
615,1790994606.3279226,1.0214279296875002,-2.245714013671875,-0.03223696289062509,2.467303319116713,-1.1324761022822416,0.14204256732794238,-1.8624554092801973,2.184357654948145
616,1790994606.338016,0.9878976562500001,-2.231343896484375,0.03482358398437491,2.4405020068837957,-1.1235073879110935,0.1226596787004818,-1.8617817573859161,2.1779682182264977
617,1790994606.358016,0.9687375000000001,-2.011002099609375,-0.1328277832031251,2.236118290370664,-1.1054668010871425,0.08365036333990145,-1.8607941593545607,2.1660122656810565
618,1790994606.3823204,0.8394064453125001,-2.1163829589843752,-0.1950982910156251,2.285113422276637,-1.083536063720821,0.03583265819116336,-1.8603717854944364,2.1532109885100468
619,1790994606.4023204,0.5807443359375001,-2.097222802734375,-0.0897174316406251,2.177993729461291,-1.066066134268495,-0.003934385702898786,-1.8605035744392264,2.144291498963275
620,1790994606.4281201,0.6190646484375001,-2.058902490234375,-0.2382086425781251,2.1631143891706857,-1.0445889150184653,-0.055580595472427954,-1.8612826105984444,2.135094414888645
621,1790994606.44812,1.1028585937500002,-2.135543115234375,-0.3914898925781251,2.4351808579290366,-1.0278542535929207,-0.09590300178884639,-1.8627404803588907,2.1296675443713844
622,1790994606.4565747,1.1172287109375,-2.197813623046875,-0.1855182128906251,2.4724485275749686,-1.0204334287146615,-0.11313936361266735,-1.8636301972247664,2.127722352668473
623,1790994606.4765747,0.585534375,-2.1163829589843752,0.06356381835937491,2.196808524289389,-1.0029578850276262,-0.15426861545004836,-1.8656021241768972,2.1237218769380597
624,1790994606.5023534,0.6621750000000001,-1.953521630859375,-0.1376178222656251,2.0672835214032945,-0.9813993695127402,-0.20719855916080843,-1.8679057415448699,2.1201763664126174
625,1790994606.5223534,0.9687375000000001,-1.690069482421875,-0.5304010253906252,2.018938445583575,-0.9647360948459044,-0.2475689484743515,-1.8704269048485958,2.119080678815396
626,1790994606.5474176,1.0118478515625,-1.766710107421875,-0.3148492675781251,2.060153086465358,-0.9432627231146875,-0.29707084404480744,-1.8747014417039265,2.11955210993408
627,1790994606.5674176,0.52805390625,-1.924781396484375,0.24079526367187493,2.0103747688341675,-0.9263884128190474,-0.3361830720728131,-1.8777117561865586,2.1206168887083114
628,1790994606.578375,0.5759542968750001,-1.613428857421875,0.4419769042968749,1.7692426667877648,-0.9176228731607734,-0.3573051154378319,-1.8785525298865617,2.1210040760001094
629,1790994606.598375,0.6909152343750001,-1.1008946777343749,-0.04181704101562509,1.3004159401801552,-0.9021232723709874,-0.39414639537942703,-1.879256709193821,2.1215050220524874
630,1790994606.622891,0.6717550781250001,-1.412247216796875,-0.2190484863281251,1.5791387924118283,-0.8834683170418203,-0.4371531478933575,-1.880470062313312,2.123154915965015
631,1790994606.642891,0.6765451171875001,-1.690069482421875,0.039613623046874914,1.8208836838565203,-0.8685100041154707,-0.47162869612179925,-1.8815805871312128,2.12534438624032
632,1790994606.6673405,0.8537765625000001,-1.819400537109375,0.4132366699218749,2.0518082947674037,-0.8501605150488494,-0.5138879109217124,-1.8819041426411884,2.128007727530535
633,1790994606.6873405,0.5903244140625,-1.488887841796875,0.44676694335937495,1.6627900110860268,-0.8352358262796908,-0.5482334923601923,-1.8808391090595462,2.129726414780659
634,1790994606.6973822,0.30771210937500004,-1.105684716796875,0.49466733398437496,1.2497684611660702,-0.8281900315740575,-0.5648453140394064,-1.8796755602152704,2.1302885177509414
635,1790994606.7173822,-0.08507109374999997,-1.086524560546875,0.47550717773437495,1.189066771775375,-0.8159279872579644,-0.5962563842661193,-1.876250485513911,2.1310973794174974
636,1790994606.7423987,0.42746308593750004,-0.9332433105468749,0.23121518554687492,1.0522016102188674,-0.802248519995071,-0.6334423382128593,-1.8712829501534145,2.132264468402014
637,1790994606.7623987,0.6286447265625,-1.052994287109375,0.19768491210937492,1.2422038823782158,-0.7913684833950054,-0.6616913915865467,-1.8672639139948892,2.133254344591419
638,1790994606.7876184,0.31250214843750007,-1.508047998046875,0.47550717773437495,1.611823015491512,-0.7779266968833826,-0.6968139325896141,-1.861682834205866,2.1346153230855625
639,1790994606.8076184,-0.03717070312499996,-1.330816552734375,0.47550717773437495,1.413704861093546,-0.7684529125444794,-0.7247474922167606,-1.8564942413125722,2.135965747454607
640,1790994606.8177145,0.14964082031250006,-1.167955224609375,0.36533627929687496,1.23287565421928,-0.7643027048407683,-0.738625405953664,-1.8536312103411066,2.1367439666225256
641,1790994606.8377144,0.43704316406250004,-1.349976708984375,0.2647454589843749,1.44344518430971,-0.7564344712559488,-0.7657702280605073,-1.847865255884315,2.1385048878579895
642,1790994606.862418,0.31250214843750007,-1.369136865234375,0.21205502929687492,1.4202678212125919,-0.7467848842882239,-0.7993074453065385,-1.8409281829241022,2.141400623472422
643,1790994606.882418,0.12569062500000006,-1.498467919921875,0.39886655273437494,1.5557309430419148,-0.739487127627836,-0.8266878488551899,-1.8352379792871534,2.1443769379449322
644,1790994606.907891,-0.03717070312499996,-1.560738427734375,0.585678076171875,1.6674246339448042,-0.7314173980632724,-0.8621746718516677,-1.8271967596340775,2.1487123058682034
645,1790994606.927891,-0.08028105468749996,-1.766710107421875,0.604838232421875,1.8691011044904897,-0.7262080835520887,-0.8908486658318158,-1.820044521541825,2.1525686020252954
646,1790994606.9525683,-0.05633085937499996,-1.809820458984375,0.5329876464843749,1.8875113485172195,-0.7209974720473286,-0.9275409555112238,-1.8104374763857773,2.1582060686485467
647,1790994606.9725683,0.18317109375000004,-2.011002099609375,0.518617529296875,2.084860963209029,-0.7172176621672007,-0.9585492166573811,-1.802241851492703,2.163629697279761
648,1790994606.9826112,0.13048066406250006,-2.240923974609375,0.34617612304687495,2.2712559018835887,-0.715368100828775,-0.9749869107117759,-1.798092384791685,2.1669072938149685
649,1790994607.0026112,0.09695039062500005,-2.341514794921875,0.23600522460937493,2.355374572997529,-0.7118961363238633,-1.0096852315635043,-1.790195163762566,2.1750997908393015
650,1790994607.0272412,0.07779023437500004,-2.360674951171875,0.23121518554687492,2.373246301520752,-0.707938966390157,-1.054692848445889,-1.7810654435854156,2.1876354127300512
651,1790994607.0472412,0.20712128906250005,-2.466055810546875,0.22163510742187492,2.4846433566926303,-0.7047803110733694,-1.092997760707861,-1.7740847211453918,2.1997127061483726
652,1790994607.0723133,0.25502167968750006,-2.413365380859375,0.11625424804687493,2.4295850610402785,-0.7005455409506357,-1.1429894405132763,-1.7660109368175416,2.2172017375579163
653,1790994607.0923133,0.13048066406250006,-2.346304833984375,0.08751401367187492,2.3515591168970422,-0.6970959277968767,-1.184025494222039,-1.760230904236168,2.232996179966909
654,1790994607.1024072,0.06342011718750004,-2.331934716796875,0.13541440429687493,2.336723923692672,-0.6954692787064749,-1.2051712819988907,-1.7575825478878624,2.241698407283938
655,1790994607.1224072,0.06342011718750004,-2.5187462402343748,0.3509661621093749,2.5438714552635435,-0.6925394497724449,-1.2480605950388757,-1.7523926707321398,2.2601208398702126
656,1790994607.147555,-0.05154082031249996,-2.686397607421875,0.6910589355468749,2.7743379415131892,-0.6893856800518798,-1.3037175410782667,-1.7448804385255268,2.284631214775109
657,1790994607.167555,0.26939179687500003,-2.379835107421875,0.6144183105468749,2.4725891165085443,-0.6869269564047665,-1.348940963651264,-1.7378439575463995,2.304693469343038
658,1790994607.1928992,0.4514132812500001,-1.987051904296875,0.38928647460937493,2.0745344490204363,-0.6829084860240643,-1.4059529418930639,-1.7283569239436523,2.330297262506525
659,1790994607.2128992,0.25981171875000003,-1.9343614746093751,0.41802670898437494,1.9959966866398082,-0.679146196108283,-1.4500767547908786,-1.7207823754350782,2.3505433699638867
660,1790994607.2229033,0.18796113281250004,-2.068482568359375,0.41802670898437494,2.1186542550588716,-0.6772106093770481,-1.4718403229024843,-1.7169345939333942,2.3606762898414835
661,1790994607.2429032,0.4514132812500001,-2.336724755859375,0.3222259277343749,2.40164237213604,-0.6729623843651552,-1.515431203693372,-1.7092856376484875,2.3814003222829574
662,1790994607.283114,0.52805390625,-2.4708458496093746,0.38928647460937493,2.5564553780090806,-0.6627484674705968,-1.6044248538164712,-1.6940681150888102,2.4255476538792604
663,1790994607.303114,0.3220822265625001,-2.456475732421875,0.561727880859375,2.5403834743557536,-0.6571551024433206,-1.6494398871886247,-1.6862080465523632,2.448632750408695
664,1790994607.3124201,0.18317109375000004,-2.446895654296875,0.41802670898437494,2.489095482705878,-0.6545902019163083,-1.6706663218402873,-1.6824154490562733,2.459702428059014
665,1790994607.33242,0.26460175781250006,-2.609756982421875,0.23600522460937493,2.6337319650222795,-0.6492331396782584,-1.7170264477290336,-1.6745063166631668,2.4846840636995116
666,1790994607.3418345,0.10174042968750005,-2.782198388671875,0.25995541992187493,2.796168058130293,-0.6468310370705754,-1.739382941725146,-1.6709915741182084,2.4972096926882745
667,1790994607.3618345,0.03467988281250005,-2.748668115234375,0.25995541992187493,2.7611511951221974,-0.6422888434863708,-1.7880491610655351,-1.6638650112294402,2.5254903556433885
668,1790994607.3877227,0.21670136718750005,-2.600176904296875,0.21684506835937492,2.618186624335934,-0.6368032104675488,-1.8519795559793888,-1.6550982490939712,2.5641171616720873
669,1790994607.4077227,0.36519257812500006,-2.480425927734375,0.25037534179687493,2.519636127276004,-0.6323281247293114,-1.901581567329062,-1.6486405574171656,2.5949695570642293
670,1790994607.4318867,0.3220822265625001,-2.360674951171875,0.24079526367187493,2.3946827649533455,-0.6264868027458003,-1.9612948252665199,-1.641118558995426,2.6329514295389322
671,1790994607.4518867,0.22149140625000005,-2.341514794921875,0.14020444335937493,2.356142454058826,-0.6215619190879981,-2.0103579540934056,-1.6352551358186704,2.664946093651486
672,1790994607.4624887,0.3220822265625001,-2.4325255371093752,0.09230405273437492,2.455491292492788,-0.6189106163509628,-2.036261156836579,-1.6324282843361049,2.6822065456213267
673,1790994607.4824886,0.43704316406250004,-2.5043761230468746,0.13062436523437493,2.545578366056315,-0.6135206451873149,-2.085201508460362,-1.6275611207330432,2.7154056998316527
674,1790994607.5068324,0.35561250000000005,-2.437315576171875,0.15457456054687493,2.467966929027727,-0.6064969153765466,-2.1448580999868656,-1.6220047967748672,2.7566563692635344
675,1790994607.5268323,0.3891427734375001,-2.303194482421875,0.08272397460937492,2.3373019013281895,-0.6004748943581736,-2.1936289132493147,-1.6177686953247912,2.7910129808674675
676,1790994607.5520933,0.44662324218750005,-2.336724755859375,0.11625424804687493,2.3818627070629144,-0.5924262939963043,-2.254779436664607,-1.6128438796401148,2.8348306125615927
677,1790994607.5720932,0.40830292968750004,-2.322354638671875,0.23600522460937493,2.369755433835967,-0.5857273951220141,-2.302920853060626,-1.6090012106454195,2.8697396977280585
678,1790994607.597734,0.3508224609375001,-2.250504052734375,0.25037534179687493,2.2914040896908587,-0.5769675518712308,-2.364175946411195,-1.603878395352359,2.9145574910403824
679,1790994607.617734,0.4418332031250001,-2.279244287109375,0.26953549804687493,2.33726773913726,-0.5699707311223655,-2.4115831250584727,-1.5997020668569035,2.949516317315299
680,1790994607.6275153,0.5136837890625001,-2.317564599609375,0.27911557617187494,2.390163637362498,-0.5663611259803729,-2.434662907463251,-1.5975634412080062,2.966573334115227
