imu_index,t_imu,ax,ay,az,mag,vx,vy,vz,velocity
0,1791286316.3267574,-0.06519243164062506,-0.18202148437500001,-0.01053808593749913,0.19363089932271157,0.0,0.0,0.0,0.0
1,1791286316.3467574,-0.09393266601562507,-0.124541015625,0.02299218750000087,0.1576783149445245,-0.0003218076899261508,-0.0006919204827107023,5.245087771330956e-06,0.0007631131335758453
2,1791286316.3573172,-0.06040239257812507,-0.1197509765625,0.06610253906250088,0.14952689085025414,-0.0005884633664052218,-0.0011959242741145133,7.81607091079563e-05,0.001335152837492978
3,1791286316.3773172,-0.012502001953125065,-0.1197509765625,0.07568261718750087,0.14221271034917438,-0.001127102921928838,-0.002366561402946143,0.0004082234846062679,0.0026528513497591655
4,1791286316.40254,-0.017292041015625065,-0.17244140625,0.04694238281250088,0.17955121992367243,-0.00176086952256488,-0.004174191010838762,0.000994011320669865,0.0046381667257748335
5,1791286316.42254,-0.022082080078125066,-0.17244140625,0.037362304687500875,0.177819005344243,-0.00224708509530373,-0.005909844994609859,0.001515285312514578,0.006501672774307684
6,1791286316.4322221,-0.03166215820312507,-0.21076171875000002,0.02299218750000087,0.21436332484492077,-0.0024861864876733804,-0.006902322501425433,0.0017736131225533876,0.007547773358657977
7,1791286316.452222,-0.04124223632812507,-0.258662109375,-0.01053808593749913,0.26214129804152475,-0.0030153575649426085,-0.009349051093796381,0.0022458666203411504,0.010076758133211024
8,1791286316.4772675,-0.06040239257812507,-0.27303222656250004,0.018202148437500874,0.28022555911011954,-0.003769553032814096,-0.012952160234762118,0.0027629437622339694,0.013769598507124987
9,1791286316.4972675,-0.12267290039062508,-0.19639160156250002,0.04694238281250088,0.23626656335302157,-0.004556088591965163,-0.016101966345236148,0.0032116352884391333,0.017039538276223926
10,1791286316.5220134,-0.12746293945312506,-0.19160156250000002,0.008622070312500871,0.23028742862550303,-0.005847529302412789,-0.0201347226641046,0.0037866503396140677,0.02130585310419376
11,1791286316.5420134,-0.11788286132812507,-0.18681152343750002,0.008622070312500871,0.22106391469531905,-0.007102742485753248,-0.023472767478909386,0.0042075407637384874,0.024882185659953416
12,1791286316.5520682,-0.12746293945312506,-0.19639160156250002,0.042152343750000876,0.237893426100708,-0.007824151631819683,-0.02518819406196543,0.004425689692777046,0.026744143248900124
13,1791286316.5720682,-0.16099321289062507,-0.124541015625,0.037362304687500875,0.2069425547858977,-0.009476542570330562,-0.028569913425770352,0.00491379219930789,0.030499019099329727
14,1791286316.5972207,-0.13704301757812506,-0.13412109375,0.02299218750000087,0.19312663498764168,-0.011805140800603471,-0.03267285237098199,0.005549418707865229,0.03518057247080071
15,1791286316.6172206,-0.12746293945312506,-0.1772314453125,0.013412109375000873,0.2187182452825454,-0.013775747642300695,-0.03591296684946829,0.006033631066221442,0.03893478027263843
16,1791286316.6427937,-0.13704301757812506,-0.17244140625,0.05173242187500087,0.22625885779223961,-0.016424826046093906,-0.04010516301044169,0.0066848449500418175,0.043850725908981765
17,1791286316.6627936,-0.14183305664062507,-0.124541015625,0.04694238281250088,0.19450107411797146,-0.01860414797520571,-0.043337451389686595,0.007265759642962246,0.04771834320286171
18,1791286316.6723447,-0.12746293945312506,-0.17244140625,0.0038320312500008716,0.2144703335825483,-0.019681682629153985,-0.04486223870000269,0.007537935665659192,0.0495662139606242
19,1791286316.6923447,-0.06519243164062506,-0.239501953125,-0.02011816406249913,0.2490300769368088,-0.02188857757155534,-0.048194133730559315,0.00799795467156427,0.05353271553987736
20,1791286316.716977,-0.07477250976562506,-0.22034179687500002,0.018202148437500874,0.23339398851404697,-0.024457483521585943,-0.05253171798066918,0.008475995162320175,0.058562721830537255
21,1791286316.7369769,-0.046032275390625065,-0.20118164062500002,0.013412109375000873,0.2068161202133238,-0.026411627252497398,-0.05615759691561223,0.008853337317988664,0.06268677154812916
22,1791286316.76246,-0.04124223632812507,-0.19639160156250002,-0.01053808593749913,0.20095182128275124,-0.028694833672831925,-0.060844403347061704,0.009267504680405592,0.06790671204802043
23,1791286316.78246,-0.03645219726562507,-0.21076171875000002,0.013412109375000873,0.21431087105845364,-0.03033451895398459,-0.06458173567595525,0.009548109795309194,0.07198715179635795
24,1791286316.8073654,-0.03166215820312507,-0.18681152343750002,0.06131250000000087,0.19914883933221766,-0.03219732824138342,-0.06928026629864631,0.009984704068910742,0.07704620405729576
25,1791286316.8273654,-0.026872119140625067,-0.1389111328125,0.07089257812500087,0.1582535030878284,-0.03355664790969794,-0.07297597782506283,0.010481022478588094,0.08100243077004644
26,1791286316.83746,-0.007711962890625066,-0.162861328125,0.032572265625000874,0.16626556786722532,-0.03416601047911467,-0.07478999342767392,0.010772287400098205,0.08292708583328366
27,1791286316.85746,-0.03645219726562507,-0.18202148437500001,0.018202148437500874,0.18652587398886847,-0.0352584597790668,-0.07836222825166074,0.011338956549525214,0.08667392767256754
28,1791286316.8825228,-0.050822314453125066,-0.1580712890625,0.032572265625000874,0.16920517888113937,-0.03658615476066977,-0.0828065413659491,0.012037996695009346,0.09132569943663928
29,1791286316.9025228,-0.05561235351562507,-0.1676513671875,0.05173242187500087,0.18405422640199784,-0.037646376125903595,-0.08630968241730677,0.012638609382312855,0.09500708058617549
30,1791286316.9276202,-0.07956254882812507,-0.19639160156250002,-0.005748046874999129,0.21197382004197765,-0.039031689938074474,-0.09073150924095927,0.013365802963769137,0.09967108044679039
31,1791286316.9476202,-0.09393266601562507,-0.20597167968750002,-0.02969824218749913,0.22831921550128106,-0.04023029028465906,-0.09433022733935864,0.0138052062696695,0.10347585112687473
32,1791286316.957408,-0.10351274414062507,-0.1772314453125,0.027782226562500872,0.2071176610524808,-0.04087382790790333,-0.09610853220919628,0.013986583533550248,0.10537145861281409
33,1791286316.977408,-0.10830278320312507,-0.143701171875,0.05652246093750087,0.18861152732063519,-0.04230928230419026,-0.09967858802039829,0.014428066415122318,0.10924314797420998
34,1791286317.0014849,-0.09393266601562507,-0.15328125,0.05173242187500087,0.18706878633117427,-0.044143331757148574,-0.10386800419363551,0.015075306449115469,0.1138615865791686
35,1791286317.0214849,-0.09393266601562507,-0.15328125,0.032572265625000874,0.1827004100551257,-0.045720095239618036,-0.10728586505546717,0.015658759585657534,0.11766809551097984
36,1791286317.0474675,-0.11309282226562507,-0.1389111328125,0.018202148437500874,0.18004890300970203,-0.047864685578641854,-0.11162947429909024,0.01640198882357325,0.12256097623306579
37,1791286317.0674675,-0.13225297851562506,-0.17244140625,0.013412109375000873,0.21773096608801173,-0.04963587279075704,-0.11493845206776306,0.016935692372410403,0.126338376226571
38,1791286317.0775309,-0.12746293945312506,-0.18681152343750002,0.02299218750000087,0.22731913009930738,-0.05058942335904368,-0.11662483459779353,0.01719143123683384,0.12828167097732254
39,1791286317.0975308,-0.06519243164062506,-0.22034179687500002,0.008622070312500871,0.2299454298084549,-0.052489226380454355,-0.12008434748221433,0.017670868826613253,0.13224079930692778
40,1791286317.1227152,-0.08914262695312507,-0.26345214843750003,0.013412109375000873,0.2784480690080748,-0.054814169822171716,-0.12470099887722341,0.018225647771388805,0.1374303699003895
41,1791286317.1427152,-0.09393266601562507,-0.25387207031250003,0.027782226562500872,0.2721143618817795,-0.056658167194748414,-0.12859331921631578,0.018661926427291153,0.1417556247734635
42,1791286317.167338,-0.09872270507812507,-0.18202148437500001,0.0038320312500008716,0.20710547490474948,-0.058943622468183104,-0.13347146063991597,0.019176858781949625,0.147162268763998
43,1791286317.1873379,-0.022082080078125066,-0.22034179687500002,-0.01053808593749913,0.2216961365606235,-0.06070275293867968,-0.13744297018340834,0.019522319178670977,0.1515140759576006
44,1791286317.1965415,0.025818310546874935,-0.22034179687500002,-0.005748046874999129,0.22192370908146752,-0.06138826914125028,-0.13930064481672227,0.019646206323872217,0.15348994318010986
45,1791286317.2165415,-0.04124223632812507,-0.21076171875000002,0.05652246093750087,0.22207253936097174,-0.06267761308348718,-0.14337858616482324,0.019951198209430705,0.15774648161673513
46,1791286317.2419262,-0.07956254882812507,-0.22034179687500002,0.08047265625000087,0.24770255353964837,-0.06429861502736152,-0.14859882657729093,0.020541056614979406,0.16321108467700474
47,1791286317.2619262,-0.05561235351562507,-0.1772314453125,0.037362304687500875,0.18947205831643407,-0.06558695413995755,-0.15269115495407018,0.021112834132974344,0.16751713082455555
48,1791286317.2865648,0.0018681152343749347,-0.22034179687500002,-0.015328124999999129,0.2208822055319266,-0.06703534430221814,-0.157711086187689,0.021752284320889867,0.17274167408414923
49,1791286317.3065648,-0.06998247070312506,-0.1676513671875,0.02299218750000087,0.18312063731755335,-0.06813686458529263,-0.16175668803134302,0.02220498321273712,0.17692065938680446
50,1791286317.3166325,-0.11309282226562507,-0.13412109375,0.06131250000000087,0.1858431513210822,-0.06874641661995612,-0.16371557252967722,0.022462339561307755,0.1789788121129763
51,1791286317.3366325,-0.08914262695312507,-0.15328125,-0.015328124999999129,0.1779789340278285,-0.07007903868493298,-0.1674543824869696,0.022965879381439725,0.18297396944062694
52,1791286317.3613243,-0.03166215820312507,-0.22034179687500002,0.013412109375000873,0.22300870922470825,-0.07170121350552461,-0.17206980968775104,0.023490747515547056,0.18788533376233194
53,1791286317.3813243,-0.08914262695312507,-0.162861328125,0.04694238281250088,0.19150406638726583,-0.07299926590657561,-0.17582227295168268,0.02394264376994374,0.19187395518800712
54,1791286317.4062517,-0.11788286132812507,-0.124541015625,0.037362304687500875,0.1755071946655581,-0.07476148671379985,-0.18033500118729753,0.024579001351689906,0.19675904008793763
55,1791286317.4262516,-0.09872270507812507,-0.162861328125,0.0038320312500008716,0.19048535156300697,-0.07628819485914094,-0.18384369663879954,0.025074776214522296,0.2006168932839246
56,1791286317.4368422,-0.06040239257812507,-0.18681152343750002,-0.02011816406249913,0.1973619386899287,-0.07710175629476956,-0.18570069892812788,0.025284988019847864,0.2026542894322671
57,1791286317.4568422,-0.08914262695312507,-0.1772314453125,0.027782226562500872,0.20032285256663013,-0.07863200455117549,-0.18922762778475827,0.025633916641497678,0.20651194865955422
58,1791286317.4816463,-0.12746293945312506,-0.10059082031250001,0.02299218750000087,0.1639937643668438,-0.08064810860055958,-0.19346246636857642,0.026096204868678485,0.21121755424871355
59,1791286317.5016463,-0.09872270507812507,-0.143701171875,0.018202148437500874,0.1752926624360859,-0.08236916294283832,-0.19673133315716876,0.026474834558989073,0.21491582844133797
60,1791286317.5266342,-0.07956254882812507,-0.19639160156250002,-0.0009580078124991287,0.21189803708217864,-0.08453102604589331,-0.2008401976548727,0.026909252018921345,0.21955952997453254
61,1791286317.5466342,-0.07956254882812507,-0.20597167968750002,0.04694238281250088,0.22573905137001277,-0.08624048870899102,-0.20423911612852255,0.027273774725218698,0.22337165719376242
62,1791286317.5720515,-0.08914262695312507,-0.239501953125,0.05652246093750087,0.26172959725874534,-0.08840871693051447,-0.2087599614087463,0.02786478079878231,0.2284146858799698
63,1791286317.5920515,-0.06519243164062506,-0.18202148437500001,0.06131250000000087,0.20283268122653722,-0.09009040496570173,-0.2124159428993833,0.02843681827689889,0.23247680851739075
64,1791286317.6022155,-0.04124223632812507,-0.20597167968750002,0.04694238281250088,0.21524135800247685,-0.09089798136984896,-0.21429099005972635,0.02876644496707471,0.23454334310300706
65,1791286317.6222155,-0.04124223632812507,-0.2442919921875,0.018202148437500874,0.24841662124749886,-0.09237243163850369,-0.21810252236282202,0.02941548359265401,0.23867686746483208
66,1791286317.645747,-0.06998247070312506,-0.258662109375,-0.02969824218749913,0.269602705144191,-0.0940433060063544,-0.22280202880997557,0.03004428972906561,0.2436956027337589
67,1791286317.665747,-0.08435258789062507,-0.22513183593750002,-0.0009580078124991287,0.24041759589390263,-0.09548191005879285,-0.226922816992791,0.030452578299348023,0.24806877986860223
68,1791286317.691876,-0.050822314453125066,-0.21076171875000002,0.018202148437500874,0.21756545668962995,-0.09734435560689356,-0.2323530957472065,0.03093976909211865,0.2538132265728197
69,1791286317.711876,-0.08914262695312507,-0.20118164062500002,0.013412109375000873,0.22045485964831363,-0.09876604208279267,-0.23650404341127187,0.031304165183971014,0.25820310682957726
70,1791286317.7219293,-0.10830278320312507,-0.19639160156250002,-0.0009580078124991287,0.22427677497412807,-0.0995223604742997,-0.23857738986957552,0.031469251061280824,0.2604115683945585
71,1791286317.7419293,-0.07477250976562506,-0.15328125,0.02299218750000087,0.17208925156513463,-0.10107588428856712,-0.2426078637343614,0.03178145744000408,0.2647356624398705
72,1791286317.7669256,-0.08435258789062507,-0.1484912109375,0.02299218750000087,0.17231842471298867,-0.10302457451748032,-0.2474553483808743,0.0321993355585624,0.26997223858615654
73,1791286317.7869256,-0.06998247070312506,-0.18202148437500001,0.027782226562500872,0.1969802505140103,-0.10458138214642707,-0.25124789383910834,0.03255969623786133,0.2740855769086485
74,1791286317.812024,-0.050822314453125066,-0.258662109375,0.037362304687500875,0.2662422511252834,-0.10646941512136855,-0.25612290316756636,0.03306671689474722,0.2793350777282836
75,1791286317.832024,-0.08914262695312507,-0.21555175781250002,0.05652246093750087,0.24000782659445502,-0.10795818179935397,-0.26013620842974206,0.03355096369780721,0.28363970652691795
76,1791286317.8410747,-0.07477250976562506,-0.20118164062500002,0.018202148437500874,0.2153980012650024,-0.10864210254822548,-0.2619628078751301,0.03378795254271845,0.2856032998635528
77,1791286317.8610747,-0.06040239257812507,-0.24908203125,-0.02969824218749913,0.258016071030111,-0.11012949023322262,-0.26606915036704437,0.03421585051984247,0.28998624419593866
78,1791286317.8872385,-0.08435258789062507,-0.2347119140625,-0.005748046874999129,0.24947561349680092,-0.11206746139727562,-0.2715845945485735,0.03462210158421779,0.29583102916741305
79,1791286317.9072385,-0.07477250976562506,-0.17244140625,0.042152343750000876,0.19262343286772324,-0.1135653488426252,-0.27577899308902437,0.03494067029047132,0.3002865163927457
80,1791286317.9314728,-0.08914262695312507,-0.17244140625,0.02299218750000087,0.195476564364163,-0.11540603835369578,-0.2807258989651823,0.03538718772569574,0.3055778740246716
81,1791286317.9514728,-0.06040239257812507,-0.22034179687500002,-0.015328124999999129,0.2289845145316192,-0.11692157094833816,-0.2847852513200472,0.035711908896882645,0.3099171398285499
82,1791286317.9620755,-0.03166215820312507,-0.258662109375,-0.0009580078124991287,0.2605945065947726,-0.11767770380261391,-0.2869953648477757,0.03584528257116537,0.3122487240950238
83,1791286317.9820755,-0.07956254882812507,-0.1484912109375,0.05652246093750087,0.1776925082611651,-0.1190568951939833,-0.29114970572022814,0.03614247541801676,0.31662118369361913
84,1791286318.0217948,-0.09872270507812507,-0.162861328125,0.04694238281250088,0.19614681236435313,-0.12191617489133366,-0.29909004314443055,0.03695237551794392,0.32509058070742486
85,1791286318.0417948,-0.07956254882812507,-0.19639160156250002,0.037362304687500875,0.21516459316503073,-0.12340738177936554,-0.30302740741411355,0.03742547181041998,0.32932606556722743
86,1791286318.0515053,-0.046032275390625065,-0.239501953125,0.032572265625000874,0.2460510280740027,-0.12411427065971616,-0.3049698103231286,0.037671650811189915,0.33140623208497233
87,1791286318.0715053,-0.026872119140625067,-0.22034179687500002,0.05652246093750087,0.22905764957242322,-0.1254611573719893,-0.30906008472737123,0.03823627133700916,0.33573896173450934
88,1791286318.0818315,-0.06998247070312506,-0.1676513671875,0.06131250000000087,0.1917387539904279,-0.1261272644285452,-0.31115563496660126,0.038575320228883284,0.33795557597775755
89,1791286318.1018314,-0.08914262695312507,-0.17244140625,0.02299218750000087,0.195476564364163,-0.12746256698129854,-0.31511568770972154,0.03925995490135456,0.3421782381757922
90,1791286318.1271303,-0.06040239257812507,-0.20597167968750002,0.0038320312500008716,0.21467991598180075,-0.12918203483589005,-0.32009154795021294,0.04004697171241901,0.3474915209567564
91,1791286318.1471303,-0.04124223632812507,-0.22513183593750002,-0.02011816406249913,0.2297607584753758,-0.13048992744627527,-0.32408181693830096,0.04055139193364801,0.3517116157062785
92,1791286318.1718707,-0.10830278320312507,-0.22513183593750002,0.008622070312500871,0.2499763518787452,-0.13214262379063235,-0.3291129465528134,0.041060443493195514,0.3570195577707271
93,1791286318.1918707,-0.14183305664062507,-0.239501953125,0.008622070312500871,0.27848185147902577,-0.13365344932164447,-0.3332669515497862,0.04143609578375028,0.3614513183606626
94,1791286318.2165892,-0.13704301757812506,-0.21555175781250002,0.027782226562500872,0.2569342349235444,-0.13575763465115917,-0.3384745117809838,0.04189822241012621,0.3670839025789354
95,1791286318.2365892,-0.08435258789062507,-0.18202148437500001,0.018202148437500874,0.20144105357564238,-0.13753686584434338,-0.3426523326139745,0.04228502312102123,0.37163831031316996
96,1791286318.2466643,-0.06040239257812507,-0.1772314453125,0.013412109375000873,0.18772138640710762,-0.13840809959245148,-0.34471270435161255,0.0424745367683964,0.37388198251304655
97,1791286318.2666643,-0.08435258789062507,-0.17244140625,0.0038320312500008716,0.192005422154751,-0.1400952888172416,-0.34871373572910447,0.042820174608557686,0.3782347509000745
98,1791286318.2921605,-0.046032275390625065,-0.162861328125,0.05173242187500087,0.17697182275529155,-0.14217283691381383,-0.3536903910432117,0.04330095617305771,0.38364694847987907
99,1791286318.3121605,-0.0029219238281250654,-0.13412109375,0.07568261718750087,0.1540287764409737,-0.14363150289966736,-0.3574541200000472,0.04381264649907094,0.38771510742229
100,1791286318.336786,-0.017292041015625065,-0.13412109375,0.037362304687500875,0.14029762750219263,-0.14519545642376283,-0.36188860833477277,0.04455695907164909,0.39246707888725646
101,1791286318.356786,-0.026872119140625067,-0.2347119140625,-0.02011816406249913,0.23710026131414524,-0.14634136155619598,-0.36550315995308286,0.04509665365639859,0.3962853292878949
102,1791286318.3672438,-0.05561235351562507,-0.3065625,-0.005748046874999129,0.31161890236741746,-0.14691535996786056,-0.36753420400646236,0.04531623591378033,0.3983956266659353
103,1791286318.3872437,-0.046032275390625065,-0.24908203125,0.013412109375000873,0.2536547128423821,-0.14800091082634007,-0.37166930777248586,0.04568468194655463,0.4026529946617347
104,1791286318.4113197,-0.026872119140625067,-0.21076171875000002,0.013412109375000873,0.21289081134574372,-0.14924332277939173,-0.376730810730573,0.04611012356614758,0.40783062249325264
105,1791286318.4313197,-0.050822314453125066,-0.19639160156250002,-0.005748046874999129,0.2029423781607313,-0.15023712782827137,-0.3809154528216662,0.04642202275390324,0.4120955968861925
106,1791286318.4566174,-0.046032275390625065,-0.17244140625,-0.005748046874999129,0.17857225151179865,-0.15148938257522251,-0.38611436951058575,0.04673554961051089,0.41739376010306595
107,1791286318.4766173,-0.05561235351562507,-0.162861328125,0.027782226562500872,0.1743226840516056,-0.15248336300527554,-0.39011098867979277,0.04697929050612271,0.42147931529148935
108,1791286318.4866278,-0.06040239257812507,-0.143701171875,0.05173242187500087,0.16423982251714503,-0.15299335010225618,-0.39204149654543297,0.04714268754706499,0.4234689282323491
109,1791286318.5066278,-0.026872119140625067,-0.1772314453125,0.018202148437500874,0.1801788394967801,-0.15399033126590359,-0.3958013191766085,0.04752507317964427,0.42735271025940247
110,1791286318.5317283,-0.017292041015625065,-0.2347119140625,0.008622070312500871,0.23550591793380088,-0.1551370224207194,-0.4005876867126339,0.04798348861022072,0.4322503969351021
111,1791286318.5517282,-0.050822314453125066,-0.229921875,0.042152343750000876,0.23921495842339413,-0.15601582199771788,-0.4045263358648949,0.04837012462450937,0.43625928308529077
112,1791286318.5760524,-0.06040239257812507,-0.22034179687500002,0.05173242187500087,0.23425456228709568,-0.15712721490062154,-0.4094194490455418,0.048941095890703085,0.4412578359487388
113,1791286318.5960524,-0.04124223632812507,-0.20118164062500002,0.008622070312500871,0.205546380844775,-0.15805642575918138,-0.4134714932454556,0.04943067502498422,0.4454030770928958
114,1791286318.6061056,-0.017292041015625065,-0.27303222656250004,-0.01053808593749913,0.2737821445591157,-0.15849757410669726,-0.41556031910024893,0.049638407766478515,0.4475218780506713
115,1791286318.6261055,-0.022082080078125066,-0.26345214843750003,-0.0009580078124991287,0.26437770434717084,-0.15930262120976166,-0.41989726893379054,0.04997244164922481,0.4518719802186699
116,1791286318.651456,0.0018681152343749347,-0.19639160156250002,0.032572265625000874,0.1990831572653957,-0.16020841185092566,-0.42544419751599594,0.05039243780925563,0.4573935922334125
117,1791286318.671456,0.016238232421874936,-0.1676513671875,0.037362304687500875,0.17253000586444792,-0.16078867166790356,-0.4297100079251971,0.05077898718523644,0.46160826832646773
118,1791286318.6967447,-0.007711962890625066,-0.18202148437500001,0.05173242187500087,0.189387271533115,-0.1613961437524692,-0.43495795965353784,0.051363418162954706,0.46677118870975626
119,1791286318.7167447,-0.03166215820312507,-0.21555175781250002,0.013412109375000873,0.21827720274006027,-0.16186357161226628,-0.43908219942929666,0.05185401245881966,0.4708310018242504
120,1791286318.7265267,-0.04124223632812507,-0.19639160156250002,0.02299218750000087,0.20198817764330634,-0.16211138615028892,-0.4410990297782869,0.05208467967466445,0.4728226617324158
121,1791286318.7465267,-0.07477250976562506,-0.229921875,0.037362304687500875,0.24464451482043853,-0.16271607774655286,-0.445243489903577,0.052576081139620714,0.4769512884632338
122,1791286318.7717283,-0.11309282226562507,-0.2682421875,0.018202148437500874,0.29167649170018867,-0.16371883057551667,-0.4506240738728996,0.05320742848451586,0.48238671404253874
123,1791286318.7917283,-0.10830278320312507,-0.24908203125,-0.0009580078124991287,0.2716105095907334,-0.16472734141521939,-0.45502959047546093,0.05365917683938795,0.4868945804556389
124,1791286318.8169405,-0.07956254882812507,-0.239501953125,-0.0009580078124991287,0.2523733395303202,-0.16616322284851842,-0.46067407798343746,0.054139612672968476,0.4927087582067886
125,1791286318.8369405,-0.046032275390625065,-0.239501953125,-0.0009580078124991287,0.24388742014974216,-0.16731979205677477,-0.4651985128889343,0.05446068392107482,0.49736458991483257
126,1791286318.8465889,-0.03645219726562507,-0.239501953125,0.008622070312500871,0.24241346565868707,-0.1678537357898878,-0.46740039489999674,0.0545978864108385,0.4996187896504946
127,1791286318.8665888,-0.04124223632812507,-0.21555175781250002,0.0038320312500008716,0.21949525465691636,-0.16891106618444185,-0.47196260843269616,0.054858313192491855,0.5042708464352117
128,1791286318.89217,0.016238232421874936,-0.2682421875,-0.03448828124999913,0.27093724899052,-0.17010856669754326,-0.4778508404217032,0.055082632256418795,0.5102082384006715
129,1791286318.91217,0.04976850585937494,-0.2682421875,-0.02490820312499913,0.2739547296784197,-0.17080535796918733,-0.48256860218614306,0.0551426092830942,0.5148666171790692
130,1791286318.936129,0.044978466796874936,-0.28740234375,-0.04406835937499913,0.2942196287918174,-0.17134462197814754,-0.48837099332914885,0.05507973526952297,0.5204795710145544
131,1791286318.956129,-0.026872119140625067,-0.3209326171875,-0.02969824218749913,0.3234220789478568,-0.17170009190139676,-0.493400523876849,0.05492447384115968,0.5253015289789527
132,1791286318.98129,-0.05561235351562507,-0.3065625,-0.03448828124999913,0.3134688849206184,-0.17223586634082175,-0.4999629574029388,0.05463732093664111,0.5316139475864039
133,1791286319.00129,-0.07956254882812507,-0.29219238281250004,-0.02969824218749913,0.30428370534535976,-0.17280062312285666,-0.5052949802027661,0.054347027121975755,0.5367836358596991
134,1791286319.0114386,-0.06040239257812507,-0.27303222656250004,0.0038320312500008716,0.2796600261645187,-0.17315074274505468,-0.5080249642500403,0.05420213191103575,0.5394519581187189
135,1791286319.0314386,-0.06519243164062506,-0.22513183593750002,0.06610253906250088,0.2435240077822235,-0.17392562670684292,-0.513345256793713,0.05406431699787289,0.5446984731669602
136,1791286319.0571835,-0.10351274414062507,-0.19160156250000002,0.09963281250000088,0.23948432992290802,-0.17509922122016527,-0.5199711651622818,0.05423353863244122,0.551335675051711
137,1791286319.0771835,-0.10830278320312507,-0.13412109375,0.08526269531250087,0.19232183404437406,-0.17619189676455496,-0.5248349946197975,0.05462262272662348,0.5563083560190244
138,1791286319.101876,-0.09393266601562507,-0.086220703125,0.07089257812500087,0.14588732990010375,-0.17771311531364473,-0.5303473212541695,0.055320130930020625,0.5620592045346012
139,1791286319.121876,-0.08914262695312507,-0.10538085937500001,0.09484277343750087,0.1674714457333986,-0.1790350360238769,-0.5344297756299807,0.05604894476208293,0.5664011064721939
140,1791286319.1315978,-0.08914262695312507,-0.09101074218750001,0.09484277343750087,0.1588222742783289,-0.17971121407407373,-0.5362597391536463,0.05648837817908159,0.5683850500940514
141,1791286319.1515977,-0.08435258789062507,-0.0622705078125,0.07089257812500087,0.12656513287743035,-0.18115385784324242,-0.5396896331490922,0.05750539780462441,0.5721787230549206
142,1791286319.1766884,-0.06998247070312506,-0.1389111328125,0.037362304687500875,0.15996809318275762,-0.18298265703909156,-0.5437257036090765,0.058793616570436774,0.5766948785030978
143,1791286319.1966884,-0.08435258789062507,-0.162861328125,0.02299218750000087,0.18484537313257193,-0.18445324654147416,-0.5469129666276765,0.059756969745789985,0.5802651882186067
144,1791286319.2223458,-0.10830278320312507,-0.22034179687500002,0.07089257812500087,0.25554991280150385,-0.1864275658305834,-0.5511258896510409,0.06098811276484978,0.584991054157058
145,1791286319.2423458,-0.07956254882812507,-0.28740234375,0.027782226562500872,0.29950318609622684,-0.18801749983924637,-0.5546788861850082,0.06195185046193241,0.588945904817157
146,1791286319.2519386,-0.06519243164062506,-0.296982421875,-0.02969824218749913,0.3055005689601664,-0.18876985019854237,-0.5565478588520171,0.06234338125471158,0.5909875402434599
147,1791286319.2719386,-0.06998247070312506,-0.3065625,-0.02011816406249913,0.3150918169949981,-0.19030590210403278,-0.5607653052328411,0.06296251428514961,0.5955151905145819
148,1791286319.2965372,-0.03645219726562507,-0.3065625,0.013412109375000873,0.30901329060354193,-0.19210811518301088,-0.5663055495953542,0.06359740964135108,0.6013752022945035
149,1791286319.3165371,-0.026872119140625067,-0.26345214843750003,0.037362304687500875,0.267441745273628,-0.19344860314099346,-0.5709894093922233,0.06411234459273049,0.6062686371770014
150,1791286319.3422382,-0.04124223632812507,-0.3305126953125,-0.01053808593749913,0.3332425769245348,-0.1950441078639864,-0.5772504821859219,0.06472651150697403,0.6127396220975107
151,1791286319.3622382,-0.04124223632812507,-0.354462890625,-0.015328124999999129,0.35718316632169445,-0.19622318272501826,-0.5824193377417594,0.06509395357623107,0.6180234989112227
152,1791286319.3710852,-0.050822314453125066,-0.29219238281250004,0.042152343750000876,0.2995598709834766,-0.19672759937713963,-0.5847918878236004,0.06524990951569874,0.620436016937113
153,1791286319.3910851,-0.06519243164062506,-0.258662109375,0.07089257812500087,0.2760106838561714,-0.19787088510771694,-0.5901771516003127,0.06571915447812715,0.6259240886159357
154,1791286319.4165738,-0.06040239257812507,-0.28261230468750004,0.018202148437500874,0.28956775027216536,-0.19934946186737537,-0.5970455562004688,0.06639778973063773,0.6329393893625623
155,1791286319.4365737,-0.08914262695312507,-0.2442919921875,0.008622070312500871,0.26019094043320434,-0.2005599363712523,-0.6024168891904887,0.06689065117377872,0.6384393124437424
156,1791286319.4614437,-0.08435258789062507,-0.18202148437500001,0.027782226562500872,0.20253155796244232,-0.20216298559720713,-0.6088894193774472,0.06747949508718014,0.6451121453147524
157,1791286319.4814436,-0.08435258789062507,-0.20118164062500002,0.037362304687500875,0.22132635048717975,-0.2035118171365623,-0.6138885607663079,0.06797971961778489,0.650305671998382
158,1791286319.4926476,-0.10351274414062507,-0.19639160156250002,0.05173242187500087,0.2279491014170912,-0.20431195440789165,-0.6166030860258557,0.06829277817821719,0.6531513178137822
159,1791286319.5126476,-0.12267290039062508,-0.1772314453125,0.07568261718750087,0.2284458015419756,-0.20586529140821935,-0.6212823051155139,0.06895890844593801,0.6581242678326736
160,1791286319.5367174,-0.08914262695312507,-0.239501953125,0.037362304687500875,0.2582702756849022,-0.20783668030090666,-0.6268212925666748,0.06984441018145092,0.6640626929191649
161,1791286319.5567174,-0.09393266601562507,-0.18681152343750002,0.042152343750000876,0.21330426886834875,-0.20950364350101466,-0.6313728325402376,0.07058909329672422,0.6689590797668694
162,1791286319.5819683,-0.12746293945312506,-0.21076171875000002,0.04694238281250088,0.25074068343330425,-0.21171185274886375,-0.6370103164075768,0.07155699021235758,0.675073666093034
163,1791286319.6019683,-0.12746293945312506,-0.229921875,0.05173242187500087,0.2679311721517295,-0.21358090124239681,-0.6414667341990639,0.07235663149705217,0.6799498912281162
164,1791286319.6271296,-0.09393266601562507,-0.29219238281250004,0.018202148437500874,0.3074590257679718,-0.21599737182719983,-0.6472175053197445,0.07334370495025413,0.6862395083965955
165,1791286319.6471295,-0.10830278320312507,-0.258662109375,0.02299218750000087,0.28136136970434084,-0.2179333913760755,-0.6519292431682255,0.07407240371553582,0.6913706836182529
166,1791286319.6564372,-0.13704301757812506,-0.239501953125,0.05173242187500087,0.2807458239950526,-0.21887050001716943,-0.6541408400523349,0.07441282139307667,0.6937880096901489
167,1791286319.6764371,-0.13225297851562506,-0.2682421875,0.06610253906250088,0.30629114768721116,-0.22098603334781333,-0.6589418447064186,0.07521133230992756,0.699067898095552
168,1791286319.702162,-0.18015336914062507,-0.26345214843750003,0.09484277343750087,0.3329525831141275,-0.2239017108737742,-0.6652166585163891,0.07639487381173725,0.7060321208306494
169,1791286319.722162,-0.21847368164062508,-0.28261230468750004,0.12837304687500087,0.379578850167341,-0.2264264414244917,-0.6701823899093153,0.07751182643805649,0.7116329477746823
170,1791286319.7467613,-0.25200395507812506,-0.2347119140625,0.20501367187500089,0.4007820874659577,-0.22993398312002739,-0.6763283587570466,0.0792946502819765,0.7187331403349801
171,1791286319.7667613,-0.2663740722656251,-0.162861328125,0.20501367187500089,0.3735097913437905,-0.233135525657137,-0.6811720467328577,0.08114175664459809,0.7245215767974279
172,1791286319.776579,-0.2424238769531251,-0.09580078125000001,0.15232324218750087,0.30190974796386805,-0.23484600230118344,-0.683383525921529,0.0821755731581019,0.7272678413910868
173,1791286319.796579,-0.2567939941406251,-0.09580078125000001,0.17148339843750088,0.3233071311531504,-0.23855665964333767,-0.6875002864286511,0.08445142113375569,0.7325967282421998
174,1791286319.8214157,-0.2855342285156251,-0.11017089843750001,0.18585351562500088,0.35806277632101274,-0.24348372276827668,-0.6922294664998223,0.0875193568890066,0.7390031091774871
175,1791286319.8414156,-0.2951143066406251,-0.1293310546875,0.2337539062500009,0.39807017519238014,-0.24772711249454407,-0.6958256921944487,0.09024867171490705,0.7441014305382521
176,1791286319.8669493,-0.2951143066406251,-0.11017089843750001,0.2241738281250009,0.38663158958202093,-0.25346226676502304,-0.7001869049594938,0.09408741916157165,0.7505712924132552
177,1791286319.8869493,-0.2759541503906251,-0.1149609375,0.2098037109375009,0.36521816410446656,-0.25813725847513225,-0.7034282401547296,0.09729417211558651,0.7555873802465831
178,1791286319.8973727,-0.2424238769531251,-0.143701171875,0.20022363281250088,0.3457005438987151,-0.26061350587320403,-0.7050663490209673,0.09903529196938655,0.7581859567551622
179,1791286319.9173727,-0.2759541503906251,-0.0718505859375,0.20022363281250088,0.34842890659933623,-0.26542968503777725,-0.7080613349028315,0.10247562566897014,0.7630891334175061
180,1791286319.9419425,-0.3478047363281251,-0.0383203125,0.2720742187500009,0.443239169603497,-0.2716082333009641,-0.7113917605307668,0.10693839297879389,0.7689506416154563
181,1791286319.9619424,-0.3286445800781251,0.0,0.2816542968750009,0.4328237550815323,-0.2768978875764254,-0.7137535860058932,0.11085680524452435,0.7735669673335213
182,1791286319.9867492,-0.25200395507812506,-0.067060546875,0.20501367187500089,0.33171330389036596,-0.2835550029523071,-0.7163683952711895,0.11589338614767289,0.7791138520110367
183,1791286320.0067492,-0.2567939941406251,0.0431103515625,0.2720742187500009,0.37659797974360015,-0.28888030053860825,-0.7181962415514004,0.12006057123152071,0.7833723317696848
184,1791286320.0174277,-0.22805375976562509,0.1197509765625,0.3774550781250009,0.45696952823274817,-0.29168543224787685,-0.7188953535889793,0.12247199929714411,0.7854236509103185
185,1791286320.0374277,-0.15141313476562507,0.239501953125,0.3582949218750009,0.4567957683381667,-0.29672033984963175,-0.7194694456504852,0.12741456353145572,0.7886150609169272
186,1791286320.0624142,-0.08435258789062507,0.18681152343750002,0.2193837890625009,0.30023849066418035,-0.3025088687905774,-0.7192801834940332,0.13374577131874427,0.7916839832975091
187,1791286320.0824142,-0.07477250976562506,0.1293310546875,0.17148339843750088,0.22742912272377583,-0.30668587796141045,-0.7186772024292816,0.13863961385417012,0.7935830716202136
188,1791286320.107056,-0.09393266601562507,0.0431103515625,0.2337539062500009,0.2555831309843815,-0.3113721465359627,-0.7177270207711479,0.14451374688573698,0.7955934345018162
189,1791286320.127056,-0.017292041015625065,0.1484912109375,0.2337539062500009,0.2774698958361166,-0.3147719714573148,-0.7167841022989119,0.1492674862382913,0.7969577314835964
190,1791286320.137116,0.021028271484374937,0.17244140625,0.20022363281250088,0.26508061024475804,-0.3162227593782022,-0.7161388088471164,0.15162740236708416,0.7973973264529551
191,1791286320.157116,-0.07956254882812507,0.086220703125,0.14274316406250087,0.18476963957850653,-0.3187621705268561,-0.7146603687602016,0.15612974958861556,0.7979506643534195
192,1791286320.1823037,-0.06040239257812507,-0.023950195312500002,-0.0009580078124991287,0.064984449398588,-0.3217449632500699,-0.712960094878733,0.16121726382467938,0.7986381686479785
193,1791286320.2023036,-0.007711962890625066,-0.086220703125,-0.06322851562499913,0.10719761754412513,-0.32386031437084184,-0.7119777832842484,0.16455470590071636,0.7992972653204838
194,1791286320.2273042,0.05934858398437494,-0.05748046875,-0.07280859374999914,0.11012424815871637,-0.32601110764217867,-0.7112034981954439,0.1678457472324248,0.8001661408829595
195,1791286320.2473042,-0.03645219726562507,-0.0622705078125,-0.005748046874999129,0.07238383018047508,-0.3274392676505041,-0.7108566231813768,0.1699657671347593,0.8008882410911248
196,1791286320.2574906,-0.17057329101562507,-0.11017089843750001,0.07568261718750087,0.21670425241507577,-0.3282157160355679,-0.7108381949377373,0.1709370031011751,0.8013962532132854
197,1791286320.2774906,0.0018681152343749347,-0.1293310546875,0.05173242187500087,0.13930633522623115,-0.32976457640974927,-0.7111666929104422,0.17274900634904944,0.8027110066234675
198,1791286320.3011081,-0.06519243164062506,-0.1389111328125,-0.09675878906249913,0.18140732957438843,-0.33143140439117746,-0.7119715619570356,0.17448803969539006,0.8044851501730713
199,1791286320.321108,-0.14183305664062507,-0.29219238281250004,-0.15423925781249914,0.35955910943851765,-0.33294173237421276,-0.7131975648619514,0.17536330676730744,0.8063828204033888
200,1791286320.3474898,-0.06519243164062506,-0.3496728515625,-0.13507910156249914,0.38048327156656925,-0.33504477612671996,-0.7158422032234164,0.17577222383784333,0.8096795270960355
201,1791286320.3674898,0.06413862304687494,-0.4646337890625,-0.09196874999999913,0.4779713086383818,-0.3364015260516752,-0.7187678265116425,0.17569515228834356,0.8128111476202764
202,1791286320.3917272,0.06892866210937494,-0.44068359375000005,-0.13028906249999914,0.464680998178032,-0.33755721058981686,-0.7234271725914759,0.17521174036892062,0.8173071016625153
203,1791286320.4117272,0.011448193359374935,-0.36404296875000003,-0.18776953124999915,0.4097752324059515,-0.33824723661560085,-0.7279023026720778,0.17439559029808202,0.821381018303211
204,1791286320.4212763,0.16951948242187495,-0.354462890625,-0.20213964843749913,0.4418611017290918,-0.3383976695647214,-0.7302330679647712,0.1737851175422095,0.8233799750997325
205,1791286320.4412763,0.17909956054687495,-0.44068359375000005,-0.19734960937499915,0.5150005346686192,-0.33814255173602453,-0.7355751621341492,0.17209908207078636,0.827664967539908
206,1791286320.4665658,0.24616010742187494,-0.4742138671875,-0.20692968749999913,0.5729690095351757,-0.3370617530294447,-0.7430521784087954,0.1695201178768917,0.833351207809969
207,1791286320.4865658,0.28448041992187495,-0.469423828125,-0.25004003906249916,0.6031648703835726,-0.3355392648067108,-0.749493789789495,0.1671010477007068,0.8380037585254148
208,1791286320.5122206,0.18867963867187496,-0.5460644531250001,-0.26441015624999914,0.6353732161054664,-0.33296883888467804,-0.7584711808150304,0.16347360507394668,0.8443165279390366
209,1791286320.5322206,0.13119916992187494,-0.7328759765625,-0.25483007812499914,0.7869299765085965,-0.3307857448890772,-0.7663384001764043,0.16029104388938414,0.849933509962927
210,1791286320.5422838,0.25574018554687494,-0.9244775390625001,-0.20692968749999913,0.9812653353214174,-0.3295600301360578,-0.7709539608336772,0.15858140202415089,0.8533040983473358
211,1791286320.5622838,0.15035932617187495,-0.890947265625,-0.13507910156249914,0.9135870625016844,-0.32688024882985844,-0.7814742851495032,0.1551802457342561,0.8611815511790422
212,1791286320.5869505,0.15514936523437495,-0.8430468750000001,0.037362304687500875,0.8580182403605747,-0.32350573465046845,-0.7957110604720753,0.1514339025955379,0.8722065575106901
213,1791286320.6069505,0.25574018554687494,-0.795146484375,0.2289638671875009,0.8660747234476525,-0.32056373570828545,-0.8079801229067408,0.1492514672557204,0.8819688135878893
214,1791286320.6325283,0.37070112304687497,-0.9244775390625001,0.04694238281250088,0.9971367158837278,-0.3161638921212522,-0.8246161039688719,0.1474083162702119,0.8953661470659245
215,1791286320.6525283,0.43776166992187493,-1.1304492187500002,-0.11112890624999913,1.217333294389665,-0.31202689294584185,-0.8387554073139724,0.14608700717712306,0.9067595209788714
216,1791286320.6614919,0.42339155273437495,-1.1304492187500002,-0.06322851562499913,1.2087901754595176,-0.3098719653491836,-0.845661745036213,0.14546643581555835,0.9123184235100925
217,1791286320.6814919,0.39465131835937495,-1.0346484375,-0.08238867187499914,1.1104210667838172,-0.30455795099674815,-0.8620076778489336,0.14407105892197536,0.9255102658559481
218,1791286320.706787,0.46650190429687494,-1.1064990234375,-0.22608984374999913,1.2219168273772365,-0.2972113907305125,-0.8836424300257191,0.14198573146639626,0.9430368512745251
219,1791286320.726787,0.571882763671875,-1.32205078125,-0.3171005859374991,1.4749308272561876,-0.29071647053256533,-0.9018251481250723,0.13976947706095932,0.9577787692090562
220,1791286320.7521348,0.42339155273437495,-1.4226416015625,-0.36500097656249914,1.5285271493548025,-0.28182753709471836,-0.9266308777397858,0.13608522499621648,0.9780545653019322
221,1791286320.7721348,0.27490034179687495,-1.4322216796875,-0.41290136718749915,1.5156901651433345,-0.2748185468655899,-0.9475496618552479,0.132447450122665,0.9954486036090988
222,1791286320.781307,0.23178999023437494,-1.51365234375,-0.4176914062499992,1.5872416728928906,-0.2717377499340441,-0.9577307108903986,0.13045799934713004,1.0040462185156125
223,1791286320.801307,0.23658002929687494,-1.7004638671875,-0.38416113281249914,1.7592973739070268,-0.26532517057697314,-0.9814216879302884,0.12556792456326843,1.024379460630075
224,1791286320.8268468,0.19346967773437496,-1.753154296875,-0.26920019531249917,1.7842223095820224,-0.25754090755120795,-1.0137523308781367,0.11900850629903115,1.0527032497312248
225,1791286320.8468468,0.30364057617187495,-1.8537451171875001,-0.31231054687499915,1.9042338188058334,-0.25161384144243426,-1.0406827647106451,0.11377012708735304,1.0766957712319125
226,1791286320.8717244,0.36112104492187497,-2.1507275390625002,-0.36021093749999916,2.210382156067573,-0.2441068504212022,-1.0766278360477362,0.10697680404586624,1.1091256413857078
227,1791286320.8917243,0.28448041992187495,-2.1938378906250002,-0.2979404296874991,2.2321788233255977,-0.23800857362530012,-1.1077076141888453,0.10134738488130476,1.1375128711682225
228,1791286320.9026325,0.25574018554687494,-2.040556640625,-0.22129980468749913,2.068392624638045,-0.2347394783015687,-1.1255802682531704,0.09831281424263418,1.1539926223327766
229,1791286320.9226325,0.428181591796875,-2.3231689453125,-0.39374121093749914,2.394887380485485,-0.22861881101377213,-1.1599798379752648,0.09266096758515838,1.1859198287288608
230,1791286320.94673,0.43297163085937496,-2.5530908203125002,-0.47996191406249916,2.6336477761544956,-0.2207940075332596,-1.2040227962737096,0.0852936215964276,1.2270680052851162
231,1791286320.9667299,0.33717084960937493,-2.4764501953125,-0.36021093749999916,2.5251221101531423,-0.21411864348704052,-1.2426380149985023,0.07883593388892549,1.263412495695799
232,1791286320.990746,0.45213178710937496,-2.385439453125,-0.4272714843749992,2.465219150258255,-0.20588348585058522,-1.2908093542737589,0.0708262342527784,1.3090428389800908
233,1791286321.010746,0.5575126464843749,-2.3710693359375,-0.48475195312499914,2.4835004737007016,-0.19853971021903336,-1.3320425095717923,0.06378848190215473,1.3482671227407268
234,1791286321.0369432,0.5383524902343749,-2.4525,-0.32189062499999915,2.531440939110459,-0.18821013925354307,-1.3874280553691245,0.05436789318739771,1.40119075544796
235,1791286321.0569432,0.46650190429687494,-2.404599609375,-0.36021093749999916,2.475777701574526,-0.17999975448858982,-1.4306546975760541,0.0472314974397916,1.4427070352856775
236,1791286321.0658488,0.547932568359375,-2.481240234375,-0.42248144531249915,2.575902515970576,-0.1762146374382237,-1.4502789370660532,0.04400766100884041,1.461607768169147
237,1791286321.0858488,0.504822216796875,-2.538720703125,-0.40332128906249914,2.6196595849953943,-0.1674101010546378,-1.4952695601456167,0.036614980324569724,1.5050574262191323
238,1791286321.1113544,0.662893505859375,-2.5770410156250003,-0.6045029296874992,2.7287345030846875,-0.15563235984126603,-1.5538248136715413,0.02667353074078748,1.5618272824654273
239,1791286321.1313543,0.739534130859375,-2.77822265625,-0.5949228515624991,2.9358755180896194,-0.14567860672871533,-1.6008860166645462,0.0182482073368615,1.6076042087160343
240,1791286321.1567662,0.739534130859375,-2.835703125,-0.27399023437499914,2.9433303573288483,-0.1321095705406284,-1.662411839042399,0.007492769597915767,1.6676696923590737
241,1791286321.1767662,0.667683544921875,-2.7063720703125003,-0.25962011718749917,2.799580987286394,-0.12092134918093879,-1.7118844116147378,-0.0005028044534574633,1.7161498956179773
242,1791286321.1861777,0.571882763671875,-2.70158203125,-0.45122167968749916,2.7980701154863628,-0.11557117713199526,-1.7354903590768143,-0.004202732600977751,1.7393392844392264
243,1791286321.2061777,0.547932568359375,-2.692001953125,-0.5901328124999992,2.809868564806346,-0.10422752026725604,-1.7862197959250807,-0.012447887528384985,1.7893013958636532
244,1791286321.2324274,0.605413037109375,-2.70158203125,-0.6284531249999992,2.839018095644538,-0.08930179248605835,-1.853432592846965,-0.024045332433067897,1.8557384956885665
245,1791286321.2524273,0.8353349121093749,-2.6872119140625,-0.6380332031249991,2.8854771970608546,-0.07747436629388296,-1.9050446072009066,-0.0334558801371754,1.9069128267368827
246,1791286321.2767642,0.864075146484375,-2.404599609375,-0.47996191406249916,2.5998247208473373,-0.06213920755278461,-1.9677216053496176,-0.045229989624458275,1.9692220162379845
247,1791286321.2967641,0.864075146484375,-2.28005859375,-0.31231054687499915,2.4582170220292965,-0.048834923403288315,-2.018530319824643,-0.054642960313732294,2.019860231527674
248,1791286321.3070595,0.48566206054687494,-2.1603076171875,-0.13986914062499914,2.218639225839151,-0.0419713680644163,-2.0441905514304017,-0.059110800861914746,2.045475664258332
249,1791286321.3270595,0.22220991210937494,-2.08845703125,0.037362304687500875,2.1005775296876763,-0.029576302522267367,-2.092934450053107,-0.06664196084392576,2.094204030374097
250,1791286321.3513858,0.32280073242187496,-1.89685546875,0.027782226562500872,1.9243265924191901,-0.01576706095797007,-2.150600393958443,-0.07430934499958318,2.151941572966081
251,1791286321.3713858,0.418601513671875,-1.8250048828125,0.11400292968750088,1.8758642588191679,-0.005004635886131301,-2.1964819145081473,-0.07945487135690418,2.1979242306603908
252,1791286321.3974028,0.428181591796875,-1.8154248046875001,0.11879296875000088,1.8690153735196489,0.008547911994205548,-2.254317562134806,-0.08469014229470657,2.255924014223612
253,1791286321.4174027,0.409021435546875,-1.944755859375,0.09963281250000088,1.9897991317308594,0.018659214881835796,-2.2977487697741172,-0.0877833322410134,2.2995007042220736
254,1791286321.4259517,0.31801069335937493,-2.0166064453125,0.09484277343750087,2.0437288244872764,0.02279912605619748,-2.3160686269555253,-0.08878249394221473,2.3178817951196686
255,1791286321.4459517,0.24137006835937494,-2.0166064453125,0.008622070312500871,2.0310183173157745,0.031870577815219694,-2.3585482201630263,-0.09061417042520335,2.3605034141992474
256,1791286321.4713492,0.36112104492187497,-2.136357421875,-0.15902929687499914,2.172492062206539,0.04280990494713734,-2.4123111716393457,-0.09287777351203934,2.4144780300491715
257,1791286321.4913492,0.46650190429687494,-2.1698876953125,-0.34105078124999916,2.2455182636470448,0.051373637519778595,-2.454757063128344,-0.09514304820379764,2.4571372955600217
258,1791286321.516779,0.47129194335937497,-2.2561083984375,-0.26920019531249917,2.320476232701375,0.06241760258388597,-2.5090724603103767,-0.09875516499871746,2.5117908254498844
259,1791286321.536779,0.33717084960937493,-2.24173828125,-0.19255957031249915,2.275116236935367,0.07101327841602269,-2.552129520134297,-0.1018625342044895,2.555148518017469
260,1791286321.5458336,0.38028120117187497,-2.1986279296875,-0.18776953124999915,2.2391596553244058,0.07480831742418974,-2.571714337219345,-0.1033166040708378,2.5748757712348187
261,1791286321.5658336,0.624573193359375,-2.3040087890625003,-0.26441015624999914,2.401762041641204,0.08344072385962087,-2.6152384730989287,-0.10672486634844668,2.6187448945386276
262,1791286321.6066597,0.706003857421875,-2.3471191406250003,-0.34105078124999916,2.474616201024725,0.10249306848685052,-2.7049991928601553,-0.11449247167003451,2.7093604390208137
263,1791286321.6266596,0.581462841796875,-2.20341796875,-0.36021093749999916,2.307141456628852,0.11235766446539297,-2.7492013626425047,-0.11877879469968049,2.754058964363296
264,1791286321.636901,0.39465131835937495,-2.1219873046875,-0.27399023437499914,2.175695390644237,0.1174010218535617,-2.771762874480542,-0.12113156253834677,2.7768912992272274
265,1791286321.656901,0.49045209960937497,-2.232158203125,-0.16381933593749914,2.2912682690196875,0.12710039067616924,-2.8157450406455755,-0.1256937503794365,2.821413397946965
266,1791286321.6664321,0.562302685546875,-2.2704785156250002,-0.15902929687499914,2.3444716499357567,0.1317819564222173,-2.8367799738039814,-0.127772583045826,2.842712250086524
267,1791286321.6864321,0.5383524902343749,-2.232158203125,-0.16381933593749914,2.3019970508988026,0.14178299265671634,-2.8810518938367635,-0.13196466786266647,2.8875555588682964
268,1791286321.7115493,0.46650190429687494,-2.1411474609375003,-0.14944921874999914,2.1964679704417955,0.1543518330866771,-2.9365496710169654,-0.13702976690309146,2.9437944248443335
269,1791286321.7315493,0.418601513671875,-2.136357421875,-0.20213964843749913,2.1863464269687953,0.16418642375809517,-2.9805283438498744,-0.14098534800740048,2.988374685107561
270,1791286321.7563777,0.409021435546875,-2.20341796875,-0.21171972656249913,2.251038543064712,0.17610512041279602,-3.035016292073617,-0.14592997558556842,3.043621603347285
271,1791286321.7763777,0.47608198242187494,-2.1938378906250002,-0.27399023437499914,2.2615590624305084,0.1855934842876165,-3.0789199690402946,-0.15004411737992326,3.0881558176888397
272,1791286321.8019674,0.40423139648437495,-2.1698876953125,-0.27399023437499914,2.2241596796779604,0.19760220425681788,-3.1350429883275606,-0.155570207113509,3.1451141885677685
273,1791286321.8219674,0.38507124023437495,-2.16509765625,-0.30273046874999915,2.219813834055567,0.20676389847004914,-3.178829611578147,-0.16010642922096002,3.189567851266766
274,1791286321.8320138,0.5000321777343749,-2.2465283203125,-0.27399023437499914,2.317755880430196,0.2113426342368048,-3.2008495433680273,-0.16247783778505345,3.2119312813472156
275,1791286321.8520138,0.47129194335937497,-2.1698876953125,-0.28357031249999914,2.2385130842314496,0.22054744887969688,-3.244734814128148,-0.1673269164756322,3.256523220890619
276,1791286321.8765883,0.36112104492187497,-2.1890478515625,-0.3075205078124991,2.23984547865274,0.2316953342706867,-3.29860328728006,-0.17348081454827113,3.3112779961510266
277,1791286321.8965883,0.33717084960937493,-2.2752685546875,-0.24045996093749913,2.3126504644217456,0.24045457524095723,-3.3425645011494507,-0.1785598838986175,3.3559558220031254
278,1791286321.9216602,0.35154096679687497,-2.2465283203125,-0.23087988281249913,2.2855581518723382,0.25108307502950666,-3.3979103332554708,-0.18485821430870109,3.412185502402819
279,1791286321.9416602,0.45213178710937496,-2.1938378906250002,-0.26920019531249917,2.256062186291184,0.25949524134021273,-3.442098138757932,-0.18987891904380627,3.4570842311138845
280,1791286321.9515047,0.49524213867187494,-2.2177880859375003,-0.23566992187499913,2.2845982321010365,0.26371432097758296,-3.463843308239926,-0.1923523149564322,3.4791888595183047
281,1791286321.9715047,0.43776166992187493,-2.1507275390625002,-0.18297949218749915,2.2024408553910866,0.27239951611871227,-3.50794658265961,-0.1972514564352816,3.524031620210123
282,1791286321.9962232,0.31801069335937493,-2.0980371093750003,-0.13986914062499914,2.1266061906015166,0.282924763895722,-3.562155497535193,-0.2029967174575186,3.579134794603882
283,1791286322.0162232,0.37070112304687497,-2.1028271484375,-0.16860937499999915,2.141898797836138,0.2911964929688009,-3.605738573441286,-0.2074106961224158,3.6234190006657685
284,1791286322.0413122,0.567092724609375,-2.1986279296875,-0.24045996093749913,2.2832827079275333,0.3017811353308143,-3.6603044848334894,-0.21288698992482716,3.6788886427578866
285,1791286322.0613122,0.701213818359375,-2.212998046875,-0.2883603515624991,2.3392761416480843,0.31085560360170544,-3.7038950398239248,-0.21739088212840055,3.7232685194537636
286,1791286322.07136,0.567092724609375,-2.1698876953125,-0.29315039062499915,2.2618452467171726,0.31568652201651226,-3.7258127202227325,-0.21975243204249345,3.745614707594067
287,1791286322.09136,0.44255170898437496,-2.1890478515625,-0.24045996093749913,2.2462420849876024,0.32537437984842094,-3.769433467280113,-0.22454833441279318,3.790108059910783
288,1791286322.11671,0.547932568359375,-2.2369482421875,-0.19255957031249915,2.311113741427189,0.33769493359889297,-3.8248440235118606,-0.23053856887649557,3.8466371942402344
289,1791286322.13671,0.7155839355468749,-2.2704785156250002,-0.21650976562499913,2.3903994514177858,0.34785255008008054,-3.86876428658742,-0.23516931113358525,3.891483406963279
290,1791286322.16128,0.725164013671875,-2.289638671875,-0.2787802734374991,2.4178557722345855,0.36111432920732084,-3.923030097033134,-0.2409175455492267,3.9469747864332905
291,1791286322.18128,0.552722607421875,-2.2561083984375,-0.23087988281249913,2.334273528647183,0.3722069871019864,-3.967395245077209,-0.2456592405328386,3.992381686959296
292,1791286322.1915653,0.48087202148437497,-2.2704785156250002,-0.18776953124999915,2.328426075233444,0.3778532274399516,-3.9902803602751113,-0.24805492027799567,4.015799006244982
293,1791286322.2115653,0.48087202148437497,-2.2704785156250002,-0.23087988281249913,2.332298461014089,0.3886281193525865,-4.034917001599334,-0.25264254591974555,4.061454823207529
294,1791286322.2371972,0.5191923339843749,-2.2465283203125,-0.3171005859374991,2.3274455858808283,0.4022883396762675,-4.092225700212475,-0.25869354168716946,4.120081241702597
295,1791286322.2571971,0.43297163085937496,-2.1842578125000003,-0.30273046874999915,2.247241055451308,0.41277652450554003,-4.136881024653589,-0.2636365213400373,4.165774032122491
296,1791286322.2818804,0.49045209960937497,-2.155517578125,-0.27399023437499914,2.2275255195283346,0.4254885164999172,-4.191760160485078,-0.2698895477152159,4.2219348749914545
297,1791286322.3018804,0.45213178710937496,-2.12677734375,-0.35063085937499916,2.202395746079499,0.43565746865429233,-4.235980276996886,-0.2751330994567399,4.267203365146493
298,1791286322.3120365,0.399441357421875,-2.0453466796875,-0.38416113281249914,2.11909797180109,0.4406954176280797,-4.2582452699538,-0.2779561098955671,4.290002893848742
299,1791286322.3320365,0.41381147460937495,-2.002236328125,-0.31231054687499915,2.068266938253191,0.45034811836811506,-4.301585125912039,-0.2837261414486187,4.334391369791924
300,1791286322.357384,0.38507124023437495,-2.040556640625,-0.24045996093749913,2.090447860260688,0.46226539359336494,-4.355959383298631,-0.2909928650928191,4.390073836576824
301,1791286322.377384,0.47608198242187494,-2.1315673828125,-0.19734960937499915,2.1929843660585764,0.4715497729701718,-4.398685165414728,-0.296523208344404,4.4338151050663654
302,1791286322.4021628,0.46171186523437496,-2.1219873046875,-0.16381933593749914,2.177807324484912,0.48306997835357907,-4.451584626953553,-0.3030184240782575,4.487959721326229
303,1791286322.4221628,0.40423139648437495,-2.1315673828125,-0.16381933593749914,2.1757341988857095,0.49227254212262395,-4.494257607533441,-0.30796604458276483,4.531614147653794
304,1791286322.4470713,0.48087202148437497,-2.2369482421875,-0.21650976562499913,2.2982714848083567,0.5036680033387936,-4.547592827073853,-0.3139141735422338,4.5861556980538225
305,1791286322.4670713,0.514402294921875,-2.24173828125,-0.2787802734374991,2.3168337625950817,0.5129382714944687,-4.590711931031211,-0.3187166828488528,4.630261550712035
306,1791286322.5067663,0.567092724609375,-2.29921875,-0.2883603515624991,2.385613696936219,0.5317973339183153,-4.676974595669911,-0.3285071584434705,4.718560874467231
307,1791286322.5267663,0.514402294921875,-2.2752685546875,-0.20692968749999913,2.3418532431686416,0.5414962484778714,-4.720779587385613,-0.3334430093748474,4.763419185867778
308,1791286322.521288,0.514402294921875,-2.2752685546875,-0.19255957031249915,2.3406272460794715,0.5414962484778714,-4.720779587385613,-0.3334430093748474,4.763419185867778
309,1791286322.541288,0.5958329589843749,-2.232158203125,-0.24524999999999914,2.3232939377724686,0.5514807901408972,-4.764991756870298,-0.3381752237199024,4.808704605907325
310,1791286322.566714,0.5958329589843749,-2.2273681640625003,-0.2883603515624991,2.323647465870087,0.5645426701297058,-4.821272118269121,-0.3443064873575984,4.8664073218374275
311,1791286322.586714,0.514402294921875,-2.1794677734375,-0.27399023437499914,2.2560496769810663,0.5749412253703193,-4.865511549019698,-0.3492493898457647,4.911795515143319
312,1791286322.596823,0.5191923339843749,-2.1938378906250002,-0.2787802734374991,2.27160819924299,0.5801924053834183,-4.887833880031166,-0.3517921070624972,4.934703735041911
313,1791286322.616823,0.533562451171875,-2.212998046875,-0.3171005859374991,2.2983911821913625,0.59060232411159,-4.931983075754704,-0.35696195627217353,4.9800291166822
314,1791286322.641928,0.509612255859375,-2.1698876953125,-0.36021093749999916,2.257846137602229,0.603673494953223,-4.987341081902686,-0.3637532895809184,5.036894798526592
315,1791286322.661928,0.46171186523437496,-2.20341796875,-0.2979404296874991,2.270902263672075,0.6139816925095097,-5.031387002044958,-0.3693393031130139,5.082149171748877
316,1791286322.686261,0.5383524902343749,-2.2273681640625003,-0.24045996093749913,2.3040862255642187,0.626467043490326,-5.085023318241326,-0.37609866578519063,5.137253479247733
317,1791286322.706261,0.509612255859375,-2.2369482421875,-0.21171972656249913,2.304011139765502,0.636761742681968,-5.129192210699026,-0.38149928928991855,5.182626743164865
318,1791286322.7320673,0.44255170898437496,-2.2608984375000003,-0.21650976562499913,2.3139555394229,0.6498955993246515,-5.186341013504645,-0.38825138426374145,5.241301034644418
319,1791286322.7520673,0.49045209960937497,-2.28005859375,-0.21171972656249913,2.341801805354196,0.6599470317662373,-5.23079921640383,-0.3933416704534413,5.286918591843749
320,1791286322.7622697,0.47608198242187494,-2.2608984375000003,-0.22608984374999913,2.3215151121893616,0.6650449335970059,-5.253551067459338,-0.3958838359105395,5.310254946199989
321,1791286322.7822697,0.48566206054687494,-2.31837890625,-0.27399023437499914,2.38449555221486,0.6749820380040663,-5.298330743212253,-0.40086989375421545,5.356174575927743
322,1791286322.806398,0.48566206054687494,-2.2704785156250002,-0.2883603515624991,2.3396777597187586,0.68692975854843,-5.352554100466045,-0.40700048187288035,5.411779493275759
323,1791286322.826398,0.509612255859375,-2.2369482421875,-0.19255957031249915,2.302329532813833,0.6968406636067169,-5.397519337519458,-0.41204128417307595,5.457891527798563
324,1791286322.837035,0.605413037109375,-2.2656884765625,-0.21171972656249913,2.354717490686685,0.7022106774803598,-5.421439096023968,-0.4146426293423871,5.482429225948345
325,1791286322.857035,0.49045209960937497,-2.1938378906250002,-0.27399023437499914,2.264627695866599,0.7124367584151398,-5.46635661930793,-0.41952862886280934,5.528528293734979
326,1791286322.8821962,0.36112104492187497,-2.2082080078125,-0.26920019531249917,2.253676942245495,0.7249790669452627,-5.522696468867027,-0.4257785480219755,5.586327801579571
327,1791286322.9021962,0.504822216796875,-2.2656884765625,-0.2787802734374991,2.337928182014516,0.7347520787982975,-5.567472820934199,-0.4308232197320807,5.6322484742596135
328,1791286322.9265554,0.6197831542968749,-2.29921875,-0.29315039062499915,2.399265548084525,0.7469243549784796,-5.6221681705386475,-0.4370906915707474,5.688384586377374
329,1791286322.9465554,0.528772412109375,-2.2561083984375,-0.30273046874999915,2.3369362648599945,0.7571420582295826,-5.6671723202766255,-0.4423584982191958,5.734613085901822
330,1791286322.957115,0.418601513671875,-2.212998046875,-0.25962011718749917,2.2671546457993115,0.7624778650647973,-5.690908742643342,-0.4451679563950359,5.758992040384248
331,1791286322.977115,0.49045209960937497,-2.2704785156250002,-0.2979404296874991,2.341876267348111,0.7724316353866556,-5.735847554542748,-0.4505272830345443,5.805133300197215
332,1791286323.0012858,0.6006229980468749,-2.2561083984375,-0.39374121093749914,2.367658174752759,0.7846346952752262,-5.790217409504954,-0.45728661333143406,5.861005058954994
333,1791286323.0212858,0.591042919921875,-2.2561083984375,-0.32189062499999915,2.354351378437995,0.7950049109278658,-5.8352254126542045,-0.4631140668094227,5.907314369809822
334,1791286323.0472696,0.6149931152343749,-2.2608984375000003,-0.2979404296874991,2.361915912160718,0.8088071807242909,-5.8937310141637855,-0.47075731736650017,5.967566235473333
335,1791286323.0672696,0.610203076171875,-2.222578125,-0.27399023437499914,2.3210497548374533,0.8196751485461382,-5.938733683092639,-0.47661583152333975,6.013949431006374
336,1791286323.0772817,0.5575126464843749,-2.2082080078125,-0.23566992187499913,2.2896600771367415,0.825176501996557,-5.961210200631566,-0.47949143709831715,6.037123102423183
337,1791286323.0972817,0.509612255859375,-2.222578125,-0.22608984374999913,2.2914350941053288,0.8361181307013436,-6.0060200487253805,-0.48506666864402387,6.083309956529269
338,1791286323.1224213,0.5000321777343749,-2.2704785156250002,-0.19255957031249915,2.332848914268436,0.8497121772277718,-6.062367871603903,-0.4918127786146429,6.141351219722989
339,1791286323.1424212,0.5766728027343749,-2.2656884765625,-0.22129980468749913,2.348375906407734,0.8605198553226147,-6.107275872604459,-0.49699544937076473,6.187593836233618
340,1791286323.1671984,0.629363232421875,-2.28005859375,-0.29315039062499915,2.3834224176132373,0.8741418366554011,-6.163012692731551,-0.5034089584668194,6.2450196141266145
341,1791286323.1871984,0.528772412109375,-2.3231689453125,-0.3171005859374991,2.403594598486664,0.8852252803673587,-6.208159380165394,-0.5087247370534758,6.291555256423261
342,1791286323.2121768,0.48566206054687494,-2.3040087890625003,-0.34584082031249913,2.379901260583369,0.8988916967875782,-6.264754797196759,-0.5156098182710519,6.34988286791583
343,1791286323.2321768,0.543142529296875,-2.3040087890625003,-0.34105078124999916,2.3916053066088248,0.909736093001667,-6.310184944628058,-0.5213260542065238,6.396704983748671
344,1791286323.241793,0.547932568359375,-2.29921875,-0.2787802734374991,2.3799906303761684,0.9149549425420731,-6.332071513481055,-0.5241092294147631,6.419264964392587
345,1791286323.261793,0.44255170898437496,-2.2369482421875,-0.23566992187499913,2.2924506026144393,0.9256668632287044,-6.377568148514491,-0.5298011682762358,6.466136706607206
346,1791286323.2863235,0.418601513671875,-2.232158203125,-0.28357031249999914,2.28870478506031,0.9384189631087644,-6.433223084635643,-0.5366906170421618,6.523421358875431
347,1791286323.3063235,0.49524213867187494,-2.28005859375,-0.29315039062499915,2.3515673748317547,0.9486270592878878,-6.478560827471467,-0.5423301537667237,6.570065881598571
348,1791286323.3322084,0.509612255859375,-2.2944287109375003,-0.26441015624999914,2.3651681740680828,0.9618078555356196,-6.537317985393709,-0.5496166811154807,6.630511238907787
349,1791286323.3522084,0.47129194335937497,-2.289638671875,-0.2787802734374991,2.354204703180855,0.9719357480518597,-6.582783064860448,-0.5552169202857761,6.677271733719263
350,1791286323.3623693,0.44734174804687493,-2.308798828125,-0.25004003906249916,2.3649919005001654,0.9770094359706314,-6.60592101609096,-0.5580383232361262,6.701055639151794
351,1791286323.3823693,0.43776166992187493,-2.3231689453125,-0.20692968749999913,2.3730927338993792,0.9868257490139617,-6.651580483260852,-0.5634441952282344,6.747949121425711
352,1791286323.4069524,0.44734174804687493,-2.366279296875,-0.15423925781249914,2.4131270374796743,0.9987135580676837,-6.707930797817224,-0.5697580562640517,6.8057614270594895
353,1791286323.4269524,0.523982373046875,-2.385439453125,-0.18297949218749915,2.4491550392636086,1.0083913348153224,-6.754026374981809,-0.5746301163870702,6.853023064950209
354,1791286323.4515467,0.48566206054687494,-2.4189697265625,-0.21171972656249913,2.4763092330515173,1.0203694813505149,-6.811070277365216,-0.5804507328142752,6.911494429926427
355,1791286323.4715466,0.45692182617187493,-2.385439453125,-0.24524999999999914,2.441156795918185,1.030062844957555,-6.857706554625651,-0.585159491213277,6.959280155596169
356,1791286323.4816134,0.504822216796875,-2.4189697265625,-0.21171972656249913,2.480138151638587,1.0349361489396576,-6.881286646268529,-0.5875190880654892,6.9834359322139505
357,1791286323.5016134,0.36112104492187497,-2.442919921875,-0.16860937499999915,2.475216207751782,1.0444647402849476,-6.928399799969114,-0.5920742949627685,7.031655733372206
358,1791286323.5267935,0.34675092773437494,-2.4381298828125,-0.15423925781249914,2.4674892664403822,1.0559986347025392,-6.988036092182529,-0.5975587760006733,7.092591771201464
359,1791286323.5467935,0.543142529296875,-2.4764501953125,-0.19255957031249915,2.5426145136676266,1.0651204167664658,-7.035670541383965,-0.6017817423443185,7.141238179372669
360,1791286323.5718899,0.567092724609375,-2.6776318359375,-0.25962011718749917,2.7493106431211736,1.0769394172890627,-7.0961785579914025,-0.6071370595615533,7.203066294606825
361,1791286323.5918899,0.389861279296875,-2.8021728515625,0.018202148437500874,2.829221770264157,1.0863808830659323,-7.145385595054583,-0.6111268079043523,7.2532913012262235
362,1791286323.6014135,0.45213178710937496,-2.8404931640625,0.3199746093750009,2.893995217453753,1.0908037726939026,-7.169332772768678,-0.6125001268891404,7.277660453927312
363,1791286323.6214135,0.648523388671875,-2.787802734375,0.20501367187500089,2.869574406963313,1.1003497530427222,-7.220521685151948,-0.6141640634409292,7.329658960797084
364,1791286323.6470077,0.610203076171875,-2.6967919921875003,-0.02011816406249913,2.7650388033120787,1.1131496609842564,-7.286730782096529,-0.6156191009889993,7.396927371280928
365,1791286323.6670077,0.428181591796875,-2.5770410156250003,-0.09196874999999913,2.6139889293460676,1.123209082014957,-7.338618364868339,-0.6167536838107789,7.44965121690928
366,1791286323.6917217,0.41381147460937495,-2.4860302734375,-0.058438476562499134,2.520912833183461,1.1353356275229387,-7.402502917850559,-0.6182241752438257,7.514535086534952
367,1791286323.7117217,0.409021435546875,-2.35669921875,0.0038320312500008716,2.391933198661114,1.1449113475416417,-7.453711193451084,-0.6193175899533968,7.5665174833825155
368,1791286323.722202,0.20783979492187493,-2.2752685546875,0.027782226562500872,2.2849105515130526,1.1496614132934777,-7.480161127168611,-0.6197797663344786,7.593329889605611
369,1791286323.742202,0.10245893554687494,-2.1411474609375003,0.08047265625000087,2.145107487133555,1.1578318159775924,-7.529689477274656,-0.6203670681525149,7.643405879417813
370,1791286323.767283,0.05934858398437494,-2.0453466796875,0.12358300781250088,2.0499361098213806,1.1668453468121203,-7.590358815130198,-0.6206092539298557,7.704559095228303
371,1791286323.787283,-0.19452348632812508,-1.9495458984375,0.12837304687500087,1.9634276752688646,1.1727520049819018,-7.637473156173057,-0.6203954750482202,7.751853586202039
372,1791286323.8114376,-0.4531855957031251,-1.8010546875000002,0.09005273437500087,1.8593774943477546,1.1776422380328926,-7.692634108275324,-0.6197803150856901,7.806893646231369
373,1791286323.8314376,-0.6016768066406251,-1.619033203125,0.042152343750000876,1.727732708654344,1.179501678174019,-7.736586357808836,-0.6191490598101397,7.850435544535914
374,1791286323.8565094,-0.4388154785156251,-1.4992822265625,-0.04885839843749913,1.5629438128637196,1.1795264832682057,-7.789283546215774,-0.6184890325648921,7.902325579946824
375,1791286323.8765094,-0.4052852050781251,-1.3364208984375001,-0.05364843749999913,1.3975532440955172,1.178277152553871,-7.829268445515915,-0.6181952609471484,7.941533027120089
376,1791286323.8862562,-0.5298262207031251,-1.0298583984375,0.027782226562500872,1.158488669383339,1.1770760559918365,-7.847561520946466,-0.6180924777349568,7.959382399260727
377,1791286323.9062562,-0.5825166503906251,-0.7855664062500001,0.12358300781250088,0.9857550336827291,1.1733126359044719,-7.882190748527138,-0.6176861594935978,7.992942495062119
378,1791286323.9320316,-0.5873066894531251,-0.7999365234375,0.15711328125000087,1.0047448293725156,1.1669285185930278,-7.923190602639564,-0.6166984252397566,8.032371283808713
379,1791286323.9520316,-0.5202461425781251,-0.737666015625,-0.10633886718749913,0.9089087710822259,1.161056596580355,-7.952538135483118,-0.615970811334668,8.060417809096025
380,1791286323.9771428,-0.20410356445312508,-0.30177246093750004,-0.25962011718749917,0.4473561092141212,1.1534257264633792,-7.985816229412751,-0.6158835073157476,8.092154487588779
381,1791286323.9971428,-0.28074418945312507,-0.17244140625,-0.15902929687499914,0.36584649207792924,1.1475324468762411,-8.009056424808358,-0.6164523770516279,8.114297817160178
382,1791286324.0067003,-0.4148652832031251,-0.10538085937500001,-0.06322851562499913,0.4326848436425333,1.1446400140567712,-8.018695587859543,-0.6168427651925105,8.123433676070011
383,1791286324.0267003,-0.2472139160156251,-0.143701171875,-0.06801855468749914,0.293923920176302,1.1385021004715268,-8.036214474774289,-0.6177340224350888,8.139933994807556
384,1791286324.0520818,-0.2472139160156251,-0.0383203125,-0.17339941406249915,0.30438548490211587,1.1309398239807331,-8.055458904723862,-0.6191550047016319,8.157989701575236
385,1791286324.0720818,-0.3765449707031251,0.5125341796875,-0.30273046874999915,0.7043600904504386,1.1249391490929623,-8.067637057568604,-0.620820939819112,8.169312971182709
386,1791286324.1117592,-0.38133500976562507,0.8286767578125,-0.38416113281249914,0.9897986333468888,1.1125649671161602,-8.084181778503105,-0.6256742445958903,8.184330399873067
387,1791286324.1317592,-0.34301469726562506,0.9340576171875,-0.35063085937499916,1.0550188217810472,1.1061766599318243,-8.088626352578055,-0.6288558556121994,8.188098849045232
388,1791286324.1267912,-0.3286445800781251,0.8047265625000001,-0.39853124999999917,0.9562527164062623,1.1061766599318243,-8.088626352578055,-0.6288558556121994,8.188098849045232
389,1791286324.1467912,-0.050822314453125066,0.8861572265625001,-0.33147070312499916,0.9474863401999501,1.100135543430257,-8.087084286367588,-0.6332047522354148,8.186096672223318
390,1791286324.1723828,-0.13225297851562506,0.9627978515625001,-0.25962011718749917,1.005919061628753,1.0932135666554166,-8.081858235918046,-0.6390693284224295,8.18046197071572
391,1791286324.1923828,-0.5298262207031251,1.0538085937500001,-0.33626074218749913,1.2264989454306094,1.0876223213553906,-8.075361770821393,-0.6438588667465214,8.173673854751133
392,1791286324.2169483,-0.5154561035156251,0.737666015625,-0.40332128906249914,0.9861613496130385,1.0798590389493665,-8.065278617439857,-0.6502219155498392,8.163185852373724
393,1791286324.2369483,0.030608349609374936,0.4646337890625,-0.5134921874999991,0.6931779393690481,1.073759359590435,-8.05649734547176,-0.6560005420828874,8.154167360994904
394,1791286324.2470014,0.10245893554687494,0.680185546875,-0.41290136718749915,0.8022703725530113,1.0712535439218007,-8.05188228388985,-0.6591680043709328,8.149533417746722
395,1791286324.2670014,-0.06040239257812507,0.948427734375,-0.23566992187499913,0.9791342749783738,1.0670792709660364,-8.04163525403948,-0.6654970687026577,8.139376025100931
396,1791286324.2922008,-0.20410356445312508,0.9580078125,-0.18776953124999915,0.9973437876175649,1.062108819831641,-8.027057850815522,-0.6730756271864459,8.124946995852692
397,1791286324.3122008,-0.06998247070312506,0.5748046875,-0.18297949218749915,0.6072721544240947,1.0583445341868574,-8.014924452187172,-0.6787443839587722,8.112940346512268
398,1791286324.3371909,0.29406049804687495,0.4646337890625,-0.25004003906249916,0.6040497956166594,1.054766543230686,-8.000089644433555,-0.6855766437664281,8.098393798412735
399,1791286324.3571908,0.5958329589843749,0.6849755859375001,-0.34105078124999916,0.9698062196819178,1.0536673849772729,-7.988273568712873,-0.6911110552951607,8.087049156368021
400,1791286324.3675234,0.586252880859375,0.775986328125,-0.25962011718749917,1.0066031129503263,1.0541007559638291,-7.981952549869206,-0.6940068967187977,8.08111010225577
401,1791286324.3875234,0.514402294921875,0.8382568359375,-0.20692968749999913,1.0050393721569755,1.0564647533233718,-7.969131348060118,-0.6994711877530645,8.069227482240526
402,1791286324.4266655,0.710793896484375,0.7664062500000001,-0.20692968749999913,1.065563887754906,1.0639941219746467,-7.943091992896194,-0.7097762167826,8.045407148001798
403,1791286324.4466655,0.820964794921875,0.5891748046875,-0.3075205078124991,1.0562570746295277,1.0695618695671114,-7.929749361462866,-0.7150235118117986,8.03343924797445
404,1791286324.4570217,0.8161747558593749,0.5316943359375,-0.33147070312499916,1.0289377658538492,1.073284038446562,-7.923006162133079,-0.7178293613360931,8.027530396353482
405,1791286324.4770217,0.911975537109375,0.469423828125,-0.36979101562499916,1.0903226613871835,1.0819863099860234,-7.910435328317124,-0.7234871365866249,8.016802049152213
406,1791286324.4866748,1.036516552734375,0.47900390625,-0.45601171874999913,1.2295356822526295,1.0869671487829957,-7.904591414078254,-0.7264061434236032,8.011974094519816
407,1791286324.5066748,1.314338818359375,0.4167333984375,-0.47038183593749916,1.4568501386208257,1.0992651447092832,-7.892956137762456,-0.732936372531133,8.002770531334374
408,1791286324.5316746,1.343079052734375,0.4646337890625,-0.4272714843749992,1.4840171229444952,1.1173143330717015,-7.878941161605362,-0.7415577982179435,7.992247062936966
409,1791286324.5516746,1.247278271484375,0.469423828125,-0.4176914062499992,1.3966130200537592,1.133473371963634,-7.86800984728522,-0.7486878387672528,7.9844144633057335
410,1791286324.5767493,1.386189404296875,0.32572265625,-0.40332128906249914,1.4799609371839908,1.1556461920361316,-7.8548652453690115,-0.7578301561523679,7.9755083029012965
411,1791286324.5967493,1.596951123046875,0.124541015625,-0.23087988281249913,1.6183537543630857,1.175153472243648,-7.8452781651082715,-0.7649797014880498,7.9696028204007545
412,1791286324.6223717,1.491570263671875,-0.086220703125,-0.13986914062499914,1.5005929620042646,1.202331099984995,-7.83476465873812,-0.7734776709286498,7.96413240969964
413,1791286324.6423717,1.496360302734375,-0.25387207031250003,-0.14465917968749914,1.5246217438931946,1.224844862522892,-7.828299273571542,-0.7795427140612039,7.961796361179766
414,1791286324.652526,1.544260693359375,-0.45984375,-0.20692968749999913,1.624505235152441,1.2368764513648898,-7.826052641840255,-0.7824278783594504,7.961730759930903
415,1791286324.672526,1.405349560546875,-0.5652246093750001,-0.14944921874999914,1.5221108091585847,1.2614438440327511,-7.82382898893316,-0.7877927152504465,7.963928552035149
416,1791286324.7265189,1.362239208984375,-0.6466552734375001,-0.17818945312499915,1.5184235859482327,1.3290260200283863,-7.823633839518471,-0.8014301928629314,7.976079674301363
417,1791286324.7465189,1.529890576171875,-0.9723779296875,-0.25483007812499914,1.8305797939232407,1.3546428240873707,-7.826000943158755,-0.8063735551023651,7.983206514524197
418,1791286324.742139,1.525100537109375,-1.427431640625,-0.19734960937499915,2.0981991338452954,1.3546428240873707,-7.826000943158755,-0.8063735551023651,7.983206514524197
419,1791286324.762139,1.486780224609375,-1.580712890625,-0.17818945312499915,2.1773654172146975,1.3815638918087987,-7.835283142316687,-0.8110849709286345,7.997389545188369
420,1791286324.7725272,1.558630810546875,-1.4849121093750002,-0.24524999999999914,2.166665996099657,1.3958221516130462,-7.841769657632943,-0.8134949490936098,8.006462694255633
421,1791286324.7925272,1.869983349609375,-1.5328125000000001,-0.39853124999999917,2.4505466829258955,1.4242984347441436,-7.8569112972691215,-0.8184045027700125,8.026796814079947
422,1791286324.816764,1.975364208984375,-1.59029296875,-0.34105078124999916,2.5587909488630345,1.4606209518872781,-7.878185329362786,-0.8248060757576959,8.054782598648206
423,1791286324.836764,1.865193310546875,-1.6908837890625001,-0.22608984374999913,2.5276769357000646,1.4918587106963466,-7.898028880118047,-0.830146904605656,8.08044840878807
424,1791286324.8618097,1.836453076171875,-1.7339941406250001,-0.19734960937499915,2.533425043103395,1.5320627000035123,-7.925584525596197,-0.8366272969623912,8.115543815613009
425,1791286324.8818097,1.860403271484375,-1.7866845703125,-0.25483007812499914,2.5919645937125995,1.5648968546182591,-7.949569219242831,-0.8417041994773038,8.1457362403005
426,1791286324.8922536,2.008894482421875,-1.7196240234375,-0.3171005859374991,2.663328106916295,1.5825016606784477,-7.962961711811535,-0.8444056604569138,8.162480728873927
427,1791286324.9122536,2.037634716796875,-1.7962646484375,-0.37458105468749914,2.7420490318105135,1.6172274753292408,-7.99003502014311,-0.8498404548966664,8.196237742333494
428,1791286324.936991,2.013684521484375,-1.78189453125,-0.4464316406249991,2.7256879282697684,1.6612524890167284,-8.025136802884564,-0.8570774911133352,8.23997344431702
429,1791286324.956991,2.013684521484375,-1.9351757812500001,-0.26920019531249917,2.8057618219582703,1.6975483650078507,-8.054835016908859,-0.8631243670144687,8.276896838435048
430,1791286324.9825072,2.066374951171875,-1.8010546875000002,-0.17818945312499915,2.746899144016991,1.744717251216919,-8.094191125005219,-0.8705380353817143,8.325731482930099
431,1791286325.0025072,2.171755810546875,-1.6621435546875,0.08526269531250087,2.7361495251987353,1.7825002825669387,-8.125606566351552,-0.8756167144818303,8.364776982034048
432,1791286325.0123484,1.984944287109375,-1.4705419921875,0.3678750000000009,2.497564731761707,1.8013711141328066,-8.141058328309278,-0.8774064233893425,8.384009221581929
433,1791286325.0323484,2.071164990234375,-1.4034814453125,0.2289638671875009,2.512351296412681,1.8400532999671364,-8.172061185990055,-0.8796027615816424,8.422712223058982
434,1791286325.0715468,2.047214794921875,-1.2693603515625,-0.17339941406249915,2.4150427481647414,1.9166027922445341,-8.231567719949377,-0.883098362198282,8.497760652587798
435,1791286325.0915468,2.080745068359375,-1.312470703125,-0.3266806640624991,2.4816928984738635,1.9559935346180584,-8.261247897553444,-0.8853644913338642,8.535689650802313
