imu_index,t_imu,ax,ay,az,mag,vx,vy,vz,velocity
0,1791295865.2827172,-0.021750687579719343,-0.08167505381058668,0.021066396285075555,0.08710740426388926,0.0,0.0,0.0,0.0
1,1791295865.3027172,-0.05528096101721935,-0.07209497568558668,0.025856435347575552,0.09445753235701224,-0.00014327946291747603,-0.00033479041857142997,9.724380997343555e-05,0.0003769217258786011
2,1791295865.3274338,-0.06486103914221934,-0.02419458506058668,0.049806630660075554,0.08528207785092747,-0.0005165011751195653,-0.0008649698185574765,0.00033965438646804615,0.0010631610193955715
3,1791295865.3474338,-0.026540726642219344,-0.03856470224808668,0.03543651347257555,0.05871450346611663,-0.000910304009121276,-0.0013237638100300118,0.0006342479505899378,0.0017272158164499819
4,1791295865.3724716,-0.007380570392219343,-0.09604517099808668,-0.012463877152424448,0.09713133338442824,-0.0013930504978246013,-0.0020647440545100842,0.0009908655051633528,0.0026805917535959738
5,1791295865.3924716,-0.06965107820471934,-0.09125513193558668,0.006696279097575553,0.1149939648564823,-0.0018363700205644134,-0.0028488003245263163,0.0012243480497847272,0.0036037405967217803
6,1791295865.4025724,-0.08402119539221935,-0.06251489756058669,-0.007673838089924448,0.10500743537092277,-0.0021430974085294113,-0.003301875343366095,0.0013238383154483065,0.004153046492759677
7,1791295865.4225724,-0.06486103914221934,-0.09125513193558668,-0.03162403340242445,0.1163380118096725,-0.0028826508645134774,-0.004295067423360589,0.0014323363163881854,0.005367389263053142
8,1791295865.4480367,-0.05528096101721935,-0.1391555225605867,-0.05557422871492445,0.15971455477618818,-0.003912470345368158,-0.00580997667895705,0.0013832233224000984,0.007139787109784268
9,1791295865.4680367,-0.12713154695471934,-0.1295754444355867,-0.007673838089924448,0.18168960846127166,-0.004873597122449819,-0.007224427327142899,0.0012555634401767504,0.008804586229314171
10,1791295865.492487,-0.10797139070471935,-0.10083521006058668,-0.0028837990274244475,0.1477629083887576,-0.0063034666174911335,-0.009116758679216172,0.001103546793070362,0.011138527539014498
11,1791295865.512487,-0.06007100007971935,-0.08167505381058668,-0.007673838089924448,0.10167707340679238,-0.0075497000193686745,-0.01070623771157248,0.0009820151131035688,0.013137193383729871
12,1791295865.522101,-0.06486103914221934,-0.07688501474808668,0.0019062400350755527,0.10060762218884481,-0.008148986914208324,-0.011470020521410773,0.0009281991539830766,0.014100670627987083
13,1791295865.542101,-0.08881123445471935,-0.08167505381058668,0.011486318160075552,0.12120307456994579,-0.00943918693572907,-0.013058422892917828,0.0008531276528346776,0.01613531794697427
14,1791295865.5679617,-0.08402119539221935,-0.09604517099808668,-0.017253916214924447,0.12877085761903134,-0.011192444436714057,-0.015148910132846366,0.0007594311350322771,0.018850385309877437
15,1791295865.5879617,-0.07444111726721934,-0.10083521006058668,0.006696279097575553,0.12551517709706334,-0.012582668332471686,-0.01681844420674344,0.000682001854372447,0.02101544038153127
16,1791295865.6124456,-0.08402119539221935,-0.048144780373086685,0.06896678691007556,0.11888607508455322,-0.014320273597715174,-0.01882927825061046,0.0007403710863078748,0.023667701719807338
17,1791295865.6324456,-0.05528096101721935,-0.01461450693558668,0.054596669722575555,0.07905924872368593,-0.015735702653701836,-0.02031960476683921,0.0009662437563795854,0.02571832620687078
18,1791295865.6733634,-0.016960648517219346,-0.048144780373086685,-0.0028837990274244475,0.05112631193551889,-0.018418847721543938,-0.023103897628161167,0.0015177374289992204,0.029586273234480896
19,1791295865.6933634,0.0021995077327806568,-0.09125513193558668,-0.0028837990274244475,0.09132717687347217,-0.019555744868870302,-0.024469776220193636,0.001738212891551214,0.03137225668802064
20,1791295865.6873932,-0.06007100007971935,-0.05772485849808668,0.054596669722575555,0.09960662971909937,-0.019555744868870302,-0.024469776220193636,0.001738212891551214,0.03137225668802064
21,1791295865.7073932,-0.12234150789221936,-0.01940454599808668,0.06896678691007556,0.1417758747299187,-0.02072455764120271,-0.025762266805999842,0.0021487852686919045,0.03313335115164179
22,1791295865.7332335,-0.07923115632971935,-0.06730493662308669,0.03543651347257555,0.10983295094949498,-0.022398815175185466,-0.027349741649773628,0.0028020170193847147,0.03546218533788354
23,1791295865.7532334,-0.007380570392219343,-0.11041528818558669,-0.0028837990274244475,0.11069925465535546,-0.023630204771163236,-0.028660700665909724,0.0032805986680098376,0.03729054394626782
24,1791295865.7778816,-0.03133076570471934,-0.11999536631058669,0.011486318160075552,0.12454894748864954,-0.024991708104582903,-0.03045993495535858,0.003797839160769971,0.03958303542883527
25,1791295865.7978816,-0.10318135164221935,-0.08646509287308668,0.021066396285075555,0.13625856547280493,-0.02613251197772926,-0.032010566542266666,0.004203411628436345,0.04153616763666478
26,1791295865.8085296,-0.13192158601721934,-0.08646509287308668,-0.04120411152742445,0.16302544571205607,-0.026836525864906376,-0.032850393035337086,0.0043708677798511555,0.0426433104744795
27,1791295865.8285296,-0.06486103914221934,-0.11999536631058669,-0.07473438496492445,0.15553478913319013,-0.028255686279139925,-0.03450090052686418,0.0044643107464050905,0.04481769756145692
28,1791295865.8532531,0.021359663982780656,-0.1631057178730867,-0.03641407246492445,0.16848054820017952,-0.029827533596794742,-0.03676011731302503,0.004356397373660007,0.04753910162605635
29,1791295865.873253,-0.06486103914221934,-0.10083521006058668,0.04501659159757555,0.1280671210952837,-0.03097359319702187,-0.03870947352808508,0.0042950995353144145,0.04976177947355156
30,1791295865.898435,-0.08402119539221935,-0.11999536631058669,0.03543651347257555,0.15071229444952863,-0.03248133441875103,-0.041212817303766754,0.004381444167598491,0.05265672273062747
31,1791295865.918435,-0.05528096101721935,-0.09125513193558668,0.030646474410075553,0.11100761302422493,-0.03370814018325628,-0.04321966133067831,0.00453885847782402,0.05499799156727727
32,1791295865.9272633,-0.026540726642219344,-0.03856470224808668,0.054596669722575555,0.07191969671082181,-0.034222609523943105,-0.0440585790748551,0.004654360429441092,0.055982215602195386
33,1791295865.9472632,-0.012170609454719344,-0.01940454599808668,0.06417674784757556,0.06814187482145219,-0.0352713661898425,-0.04576099780447402,0.005054937130146556,0.05799733254511603
34,1791295865.9738445,-0.0025905313297193435,-0.06251489756058669,0.030646474410075553,0.069670866675737,-0.03648558042825916,-0.04784754442272761,0.005696510197863727,0.060440345092547455
35,1791295865.9938445,-0.021750687579719343,-0.10562524912308668,0.011486318160075552,0.10845146918036272,-0.03729863934946681,-0.04943419912530499,0.006170025485786862,0.06223341349289108
36,1791295866.0179667,-0.045700882892219345,-0.11041528818558669,0.011486318160075552,0.12005016479417673,-0.03825421539766193,-0.051451684934565166,0.0066970328673386995,0.0644632540872914
37,1791295866.0379667,-0.06486103914221934,-0.09125513193558668,0.006696279097575553,0.11215745029619062,-0.03909349386346103,-0.05317599972124459,0.007095711616114193,0.06638024805727476
38,1791295866.0476394,-0.07923115632971935,-0.07209497568558668,0.006696279097575553,0.107331737180586,-0.039543042303567616,-0.054003346293740255,0.007269319138988879,0.06732649260349031
39,1791295866.0676394,-0.07444111726721934,-0.06251489756058669,-0.012463877152424448,0.09800479881451356,-0.04056364655969294,-0.055659349533018355,0.007565788641561855,0.06928646166768214
40,1791295866.107922,-0.09360127351721935,-0.06730493662308669,-0.007673838089924448,0.11554237616092808,-0.04281862932914745,-0.05888666832215699,0.008012509462827663,0.07324803773209598
41,1791295866.127922,-0.11276142976721935,-0.07209497568558668,0.006696279097575553,0.13400621521409184,-0.044079813507842014,-0.060457750462316995,0.008199566778898677,0.0752688677024674
42,1791295866.137504,-0.050490921954719346,-0.07209497568558668,-0.02683399433992445,0.09201674831886851,-0.044710736450386486,-0.06120117612881297,0.008261271443530888,0.07624226202933386
43,1791295866.157504,-0.050490921954719346,-0.06730493662308669,-0.03641407246492445,0.09168027250808128,-0.04598156119084305,-0.06272922465680107,0.008275872782214162,0.0782160448111387
44,1791295866.1680584,-0.09839131257971935,-0.06730493662308669,-0.012463877152424448,0.11985888835905531,-0.04666945199358019,-0.06352119781895488,0.008243731849715944,0.07925237811287372
45,1791295866.1880584,-0.11755146882971935,-0.08646509287308668,0.03543651347257555,0.15016759502858135,-0.04810136139976591,-0.0650274951294128,0.008226420912202494,0.08130184556540779
46,1791295866.2126334,-0.10797139070471935,-0.06730493662308669,0.06896678691007556,0.1447210883086796,-0.05001256914125595,-0.06688414703791033,0.008400769000495892,0.08393639923714508
47,1791295866.2326334,-0.05528096101721935,-0.043354741310586684,0.049806630660075554,0.08611805096961028,-0.05157954335295901,-0.06833449280395006,0.008699535885631193,0.08605657513460703
48,1791295866.2580037,0.0021995077327806568,-0.10083521006058668,0.059386708785075557,0.1170442591610224,-0.05337012183593955,-0.07017267683033916,0.009229449251459984,0.08864399140270889
49,1791295866.2780037,0.03093974210778066,-0.06251489756058669,0.06417674784757556,0.09478414964010554,-0.05452023066493432,-0.07164941858673309,0.009769874709180865,0.09056238284965579
50,1791295866.2877898,-0.012170609454719344,-0.07209497568558668,0.021066396285075555,0.07608943623161157,-0.05498479765250588,-0.0723624097675623,0.010057208566712161,0.09143737618944432
51,1791295866.3077898,-0.06007100007971935,-0.10083521006058668,0.03543651347257555,0.12260510236377731,-0.05590018297110319,-0.0738603781425096,0.010641105148842941,0.09323850617822046
52,1791295866.3324933,-0.007380570392219343,-0.12478540537308669,-0.0028837990274244475,0.12503674064158363,-0.056986217646466775,-0.07585111639622442,0.011314450546150564,0.09554495094648045
53,1791295866.3524933,0.006989546795280657,-0.11520532724808669,-0.017253916214924447,0.1166996950102861,-0.057734170744324395,-0.0775810503130841,0.011747613954019354,0.09741694037911866
54,1791295866.3779945,-0.03133076570471934,-0.11041528818558669,0.03543651347257555,0.12012035311237727,-0.05859136032640322,-0.07988748057562785,0.01225185420283015,0.09982517212119968
55,1791295866.3979945,-0.06007100007971935,-0.048144780373086685,0.03543651347257555,0.0847478106787569,-0.05929989398204293,-0.08166286371691296,0.01269430699344305,0.10171748210987336
56,1791295866.4226618,0.026149703045280658,-0.11520532724808669,-0.06994434590242445,0.1372890597222266,-0.06010544801427738,-0.0838263088216354,0.01309431562537246,0.10397584350874035
57,1791295866.4426618,-0.007380570392219343,-0.1774758350605867,-0.08910450215242445,0.198725330930907,-0.06063245952081976,-0.08575631565458706,0.013131417277640426,0.10584363439485879
58,1791295866.4521313,-0.06486103914221934,-0.1295754444355867,-0.0028837990274244475,0.14493124748003414,-0.060895864628120154,-0.08675112749822357,0.013081017701050466,0.1067950255167092
59,1791295866.4721313,-0.026540726642219344,-0.11520532724808669,0.011486318160075552,0.11877968303506387,-0.061505840923837735,-0.08890421825039825,0.01300344243905451,0.10888534339261957
60,1791295866.497553,-0.040910843829719344,-0.05293481943558668,-0.05078418965242445,0.08399301262718979,-0.06229348342353445,-0.0915510646845036,0.012844700931973603,0.11147673238813634
61,1791295866.517553,-0.03133076570471934,-0.08167505381058668,-0.07473438496492445,0.11505502853283629,-0.06292855427848462,-0.09352296585283233,0.012550270384442166,0.11341982795002306
62,1791295866.5421815,0.011779585857780658,-0.1487356006855867,-0.017253916214924447,0.1501956563254569,-0.06362940161546697,-0.09601256909079142,0.012072173209082156,0.11581386592004633
63,1791295866.5621815,0.05488993742028066,-0.11999536631058669,-0.012463877152424448,0.1325410932491691,-0.06401316384915479,-0.09813413705529876,0.01169758551879878,0.11774900215516271
64,1791295866.5874875,0.04530985929528066,-0.11520532724808669,-0.02683399433992445,0.12667009918655617,-0.06423572812016697,-0.10086229387566523,0.011220129062065971,0.12010546361077201
65,1791295866.6074874,0.026149703045280658,-0.1391555225605867,-0.012463877152424448,0.14213871626737398,-0.06427805247374337,-0.10307654823916729,0.010840437966444667,0.12195883699848493
66,1791295866.6179469,-0.007380570392219343,-0.12478540537308669,-0.017253916214924447,0.12618862008196977,-0.06428214317286286,-0.10426789189944989,0.010648343115841192,0.12295273247538864
67,1791295866.6379468,-0.012170609454719344,-0.10562524912308668,0.006696279097575553,0.10653476963210676,-0.06431811863881343,-0.1065498306913998,0.010320289708273126,0.12488472759014663
68,1791295866.6628337,0.050099898357780656,-0.1439455616230867,0.016276357222575553,0.15328158510037235,-0.06428537407143936,-0.10942924635102219,0.010016188983472321,0.12730943923452898
69,1791295866.6828337,0.011779585857780658,-0.11999536631058669,-0.007673838089924448,0.12081611800593116,-0.06417018741055275,-0.11179206062277552,0.009821364246272333,0.12927388354284766
70,1791295866.6929543,0.011779585857780658,-0.12478540537308669,-0.02204395527742445,0.12726386761913017,-0.06410275997006913,-0.11299417147762848,0.009715007618344061,0.13027366578368973
71,1791295866.7129543,0.011779585857780658,-0.12478540537308669,0.006696279097575553,0.12551890770262072,-0.06395416096841595,-0.11538775583433486,0.00951333510299385,0.13226856182192348
72,1791295866.7376115,-0.007380570392219343,-0.10562524912308668,0.04501659159757555,0.11505502853283528,-0.06379030393557743,-0.11832217147924844,0.009397627883356068,0.13475034155649493
73,1791295866.7576115,-0.007380570392219343,-0.08646509287308668,0.025856435347575552,0.09054965683948982,-0.06369947410757401,-0.12063344471949392,0.00942416277730543,0.1367437963145891
74,1791295866.782467,-0.007380570392219343,-0.08646509287308668,-0.007673838089924448,0.08711815480080133,-0.06363104264095513,-0.12339733685865152,0.009486088176695044,0.139161051304877
75,1791295866.8024669,0.01656962492028066,-0.1343654834980867,-0.0028837990274244475,0.13541400194405293,-0.0635704549581272,-0.1256189630999395,0.009512605986394909,0.1411092353694103
76,1791295866.8130121,-0.021750687579719343,-0.1343654834980867,0.021066396285075555,0.13773513937374518,-0.06354739882295052,-0.1268271752969293,0.009538871079249372,0.1421773341726019
77,1791295866.833012,-0.050490921954719346,-0.12478540537308669,0.016276357222575553,0.13559369601275723,-0.06361859238165748,-0.1291636578750091,0.009637227062994417,0.14430333314840516
78,1791295866.8578243,-0.026540726642219344,-0.09125513193558668,-0.02683399433992445,0.09875207606685259,-0.06383701691784596,-0.13202955989119236,0.009721298574017016,0.14697439593342948
79,1791295866.8778243,0.0021995077327806568,-0.12478540537308669,-0.03162403340242445,0.12874903773244206,-0.06402318131585115,-0.13431718047314692,0.009691212839796945,0.1491106713899596
80,1791295866.9029586,0.03572978117028066,-0.1726857959980867,-0.0028837990274244475,0.17636699719278415,-0.06415054442559029,-0.13732159461119017,0.009594025131966959,0.15187020120778302
81,1791295866.9229586,0.01656962492028066,-0.1678957569355867,0.011486318160075552,0.16910196087522722,-0.06415823937159623,-0.1398645477438897,0.009541194510997148,0.15417329790713608
82,1791295866.93258,0.011779585857780658,-0.1439455616230867,-0.02683399433992445,0.1468984227491969,-0.06414092901169456,-0.14112941028630635,0.00950851664967091,0.1553125272188979
83,1791295866.95258,0.021359663982780656,-0.1343654834980867,-0.05078418965242445,0.14522173501162047,-0.06406063457355786,-0.14378175739621998,0.009334351092597866,0.15768350824430644
84,1791295866.977303,-0.0025905313297193435,-0.1439455616230867,-0.03162403340242445,0.14740120437836918,-0.06394146446849054,-0.14708471247741708,0.008998546270722278,0.16063435920725683
85,1791295866.997303,-0.0025905313297193435,-0.1774758350605867,-0.03162403340242445,0.18028993974057592,-0.06386729270220375,-0.14983801114367964,0.008672769261814905,0.1631124691348614
86,1791295867.0228047,-0.012170609454719344,-0.21100610849808668,-0.0028837990274244475,0.2113764836845296,-0.06381513612132657,-0.15356512569412045,0.00825368346393178,0.16650147962813194
87,1791295867.0428047,-0.0025905313297193435,-0.1726857959980867,-0.007673838089924448,0.17287562807722043,-0.06380250914679661,-0.15662523529403236,0.007958475690034217,0.16930907193546046
88,1791295867.067532,0.021359663982780656,-0.1343654834980867,-0.007673838089924448,0.13626887462719534,-0.06375443098259466,-0.16041058690259152,0.007619774914497873,0.1727838095137849
89,1791295867.087532,0.08842021085778067,-0.1631057178730867,-0.02204395527742445,0.18683560917368627,-0.06355670771696668,-0.16345921247305195,0.007342342381849971,0.1755342679643567
90,1791295867.0980787,0.050099898357780656,-0.1535256397480867,-0.012463877152424448,0.16197367103696197,-0.06335851173691169,-0.16507616747974896,0.007190691805872195,0.17696369155271807
91,1791295867.1180787,-0.03612080476721934,-0.1439455616230867,0.0019062400350755527,0.14842058819142562,-0.06301807508628847,-0.16812871042689134,0.006930412916072099,0.17968464508849338
92,1791295867.1423407,-0.045700882892219345,-0.1535256397480867,0.006696279097575553,0.16032321388663673,-0.06281592584426791,-0.17181758338979988,0.006677684066793555,0.1830620494971017
93,1791295867.1623406,0.026149703045280658,-0.1678957569355867,0.006696279097575553,0.17005185185725732,-0.0627036096582708,-0.17488445272438144,0.006520689588481531,0.18590006417855948
94,1791295867.1875381,0.050099898357780656,-0.1535256397480867,0.011486318160075552,0.16190138165066328,-0.06243923332966622,-0.17877617415133182,0.006386926690525612,0.18947393260164833
95,1791295867.2075381,0.021359663982780656,-0.11041528818558669,0.016276357222575553,0.11363402182005328,-0.06215367749492183,-0.18179771014984122,0.006338324942698979,0.1922333514376412
96,1791295867.217775,0.006989546795280657,-0.09125513193558668,0.011486318160075552,0.09224038363894219,-0.06200767437642218,-0.18326713304935888,0.0063384951263369465,0.19357678129923125
97,1791295867.237775,0.01656962492028066,-0.11041528818558669,0.006696279097575553,0.11185226188529927,-0.06172987635267644,-0.18600982769040825,0.006366051610763546,0.19608865404465142
98,1791295867.2625701,0.0021995077327806568,-0.1439455616230867,-0.017253916214924447,0.1449926210881231,-0.06140223170831776,-0.18937307108423,0.0063754570923761624,0.19918092419649902
99,1791295867.2825701,-0.021750687579719343,-0.20142603037308668,-0.012463877152424448,0.20298001467070823,-0.06120691875665307,-0.19219703463054424,0.006337329030347779,0.20180720691713921
100,1791295867.307834,0.0021995077327806568,-0.1822658741230867,-0.02204395527742445,0.18360725113239001,-0.06103425417018648,-0.19595617128659396,0.006231005586952421,0.2053358874576885
101,1791295867.327834,0.04530985929528066,-0.1535256397480867,-0.03641407246492445,0.16416178021359965,-0.060846804310561234,-0.19898937845094747,0.006071773659759486,0.2081729395634252
102,1791295867.3372777,0.03093974210778066,-0.1295754444355867,-0.04599415058992445,0.14093447176210808,-0.06071756318158074,-0.2004073024226302,0.005949496044376247,0.20948772242355124
103,1791295867.3572776,-0.05528096101721935,-0.1295754444355867,-0.02683399433992445,0.1434079624843134,-0.0605214243024709,-0.20334847409956577,0.0056201384795741645,0.21223814613483383
104,1791295867.3829398,-0.040910843829719344,-0.1487356006855867,-0.03641407246492445,0.1584990874662777,-0.06049264352315207,-0.2070919000894798,0.005139195413607733,0.21580738247935236
105,1791295867.4029398,0.026149703045280658,-0.1583156788105867,-0.04599415058992445,0.16692250601731887,-0.06049571930727277,-0.21003231935019107,0.004696981148071204,0.21862151965904528
106,1791295867.4274757,0.021359663982780656,-0.1678957569355867,-0.04120411152742445,0.17419242018295555,-0.060411500301782835,-0.21369881117398734,0.00407538894996009,0.22211109846421737
107,1791295867.4474757,-0.040910843829719344,-0.1726857959980867,-0.007673838089924448,0.1776315542728343,-0.06038247491241978,-0.21675005511597048,0.0035713946104321695,0.22503196334918438
108,1791295867.458033,-0.050490921954719346,-0.1822658741230867,0.030646474410075553,0.19159694272993466,-0.06044182396136508,-0.21840017209518556,0.0033634470168147457,0.22663442375512646
109,1791295867.478033,0.01656962492028066,-0.1678957569355867,-0.0028837990274244475,0.16873604820489002,-0.0605882721548137,-0.22158250073675256,0.00307024516323994,0.22973717540011046
110,1791295867.5031114,0.03572978117028066,-0.1678957569355867,-0.02204395527742445,0.1730651276939489,-0.06064599232982015,-0.22560589863579045,0.002710856313608385,0.2336307056593465
111,1791295867.5231113,0.0021995077327806568,-0.1774758350605867,0.025856435347575552,0.17936294242011777,-0.06062822559131767,-0.22885132174514403,0.0024729538326238587,0.23675900131464786
112,1791295867.5478709,-0.016960648517219346,-0.11999536631058669,0.06417674784757556,0.1371320768399131,-0.06063694090791852,-0.232818812611392,0.002389802009337205,0.24059748390640476
113,1791295867.5678709,0.0021995077327806568,-0.1439455616230867,0.04501659159757555,0.15083652098982964,-0.06066506656596273,-0.2359388172422726,0.0024964995188906276,0.24362595980925972
114,1791295867.5773354,0.0021995077327806568,-0.1726857959980867,-0.0028837990274244475,0.1727238786925246,-0.06067325729248058,-0.23741857017818493,0.0025693251535450555,0.2450620799872512
115,1791295867.5973353,0.006989546795280657,-0.1583156788105867,-0.012463877152424448,0.15895929087452232,-0.06067418577240081,-0.2405729798586717,0.0026771118711788728,0.24812070124275296
116,1791295867.6229134,0.011779585857780658,-0.12478540537308669,-0.0028837990274244475,0.12537333182912933,-0.060639189295657564,-0.2445451218700178,0.0027648410119950027,0.2519664109651881
117,1791295867.6429133,-0.0025905313297193435,-0.1487356006855867,-0.007673838089924448,0.14895595844041595,-0.060602145932442265,-0.24759541752008432,0.0028073122064446988,0.2549195792213426
118,1791295867.667776,0.006989546795280657,-0.19663599131058668,-0.05078418965242445,0.20320826942266387,-0.06055480049765775,-0.2514625860624711,0.0027431830619115342,0.25866550041675057
119,1791295867.687776,0.0021995077327806568,-0.20142603037308668,-0.05078418965242445,0.20774098648263806,-0.06050864435971798,-0.25470386549258317,0.002546982161948551,0.2618049698864558
120,1791295867.697405,-0.0025905313297193435,-0.1535256397480867,-0.02683399433992445,0.15587461680743486,-0.060490038115897746,-0.2562866426978036,0.0024106362306153778,0.26333951299341835
121,1791295867.717405,-0.03612080476721934,-0.1343654834980867,-0.017253916214924447,0.14020161667205486,-0.060515255809615295,-0.2595128663069037,0.0021037861874165136,0.26648348894603285
122,1791295867.7433221,-0.050490921954719346,-0.1343654834980867,-0.012463877152424448,0.14407902203021403,-0.060711386544126895,-0.26358882718582644,0.0017080334643682507,0.2704955815750514
123,1791295867.763322,-0.05528096101721935,-0.1295754444355867,-0.04120411152742445,0.1467772436668286,-0.06099869384724411,-0.26665831641389204,0.0013679422515014998,0.27354957435493227
124,1791295867.7872853,-0.06965107820471934,-0.1726857959980867,-0.03641407246492445,0.1897304443363097,-0.061515831364854376,-0.2703276357039204,0.000882082018812318,0.27723997944464757
125,1791295867.8072853,-0.06007100007971935,-0.18705591318558668,-0.0028837990274244475,0.19648601987190323,-0.06207728202131306,-0.2734703364343816,0.0004784562762820257,0.2804279636075829
126,1791295867.8476012,-0.06007100007971935,-0.1631057178730867,0.021066396285075555,0.17508795876904967,-0.06340255831350225,-0.2799139016645066,-0.00015814801147177767,0.28700470685432605
127,1791295867.8676012,-0.045700882892219345,-0.1774758350605867,0.04501659159757555,0.18871337060909021,-0.06412004499006212,-0.2831418304382856,-0.00032746043376375637,0.2903115284376529
128,1791295867.8630774,0.03093974210778066,-0.19663599131058668,0.025856435347575552,0.2007275167217401,-0.06412004499006212,-0.2831418304382856,-0.00032746043376375637,0.2903115284376529
129,1791295867.8830774,0.04051982023278066,-0.20621606943558668,-0.07473438496492445,0.22305190297606764,-0.06455006030914108,-0.2865552786159034,-0.00043274249019717545,0.29373597882216373
130,1791295867.9082246,-0.06007100007971935,-0.20142603037308668,-0.08431446308992445,0.22647273444849716,-0.06504651649973861,-0.2909722545566294,-0.000845235910339352,0.298155356574828
131,1791295867.9282246,-0.08881123445471935,-0.20621606943558668,0.025856435347575552,0.22601118978430512,-0.06560545343712897,-0.29456967661312444,-0.0012117762419780517,0.301789393952658
132,1791295867.9528487,0.011779585857780658,-0.20621606943558668,0.0019062400350755527,0.20656103138664575,-0.06633265795424884,-0.29909615409413226,-0.001544097761429135,0.30636728797812784
133,1791295867.9728487,-0.026540726642219344,-0.1822658741230867,-0.0028837990274244475,0.18421068193071888,-0.06685684683986969,-0.30280386436513024,-0.001774992110772931,0.310101868489726
134,1791295867.9831142,-0.06486103914221934,-0.1583156788105867,0.021066396285075555,0.17237923775299974,-0.06715591609856915,-0.304683713897555,-0.001861729400481438,0.3120024817494339
135,1791295868.0031142,-0.021750687579719343,-0.1583156788105867,0.021066396285075555,0.16118541999786226,-0.06778109717485062,-0.3082717222177035,-0.0019421686499038941,0.31564141659858286
136,1791295868.0277503,0.03572978117028066,-0.20142603037308668,0.03543651347257555,0.20761697777741545,-0.06840985274086737,-0.31269317832744425,-0.0019219905864553282,0.32009471375260234
137,1791295868.0477502,0.050099898357780656,-0.19184595224808668,0.059386708785075557,0.20698224655694142,-0.06871497834463869,-0.31633409199188994,-0.00176583210518513,0.3237161166334808
138,1791295868.0733438,0.07405009367028066,-0.21100610849808668,0.07375682597257556,0.2354720016767014,-0.06880856363578489,-0.3210676871526037,-0.0013404036557615093,0.3283608911626085
139,1791295868.0933437,0.12195048429528066,-0.2397463428730867,-0.04120411152742445,0.27211763696540797,-0.06857672520906491,-0.3248880111950255,-0.001008992283020942,0.3320481969896626
140,1791295868.1024742,0.026149703045280658,-0.2589064991230867,-0.03162403340242445,0.26213824930018687,-0.06838534439725535,-0.3267119418465918,-0.0009302612137926295,0.3337935194988481
141,1791295868.1224742,0.050099898357780656,-0.2541164600605867,0.025856435347575552,0.2602954673790288,-0.06791463928214246,-0.3308774414393476,-0.0007923236820505126,0.33777641607887543
142,1791295868.1475422,0.10279032804528067,-0.19184595224808668,-0.012463877152424448,0.21800474574490872,-0.06712570396103215,-0.3361537906147592,-0.0006201866196076155,0.3427909212747307
143,1791295868.1675422,0.021359663982780656,-0.1535256397480867,-0.017253916214924447,0.1559617098209308,-0.06640445985215962,-0.3402500224978939,-0.0005480279050489743,0.34666977144345756
144,1791295868.1930509,0.01656962492028066,-0.1726857959980867,-0.06036426777742445,0.18368119510117578,-0.06554998154585204,-0.3453149133646989,-0.0006182944063810101,0.35148196505753176
145,1791295868.2130508,0.01656962492028066,-0.19184595224808668,-0.05557422871492445,0.20041935226228197,-0.06493081405260501,-0.34923715718509063,-0.0008390304042111631,0.3552228969876194
146,1791295868.2230506,0.03572978117028066,-0.21579614756058668,-0.017253916214924447,0.21941351870205783,-0.06462845055990073,-0.35120979505952715,-0.0009874607209533449,0.3571080114562036
147,1791295868.2430506,0.050099898357780656,-0.1822658741230867,-0.06036426777742445,0.19843057604516862,-0.0639856759703452,-0.3551604518644433,-0.0013562254405717357,0.36088080115930693
148,1791295868.2675202,0.006989546795280657,-0.19184595224808668,-0.13221485371492445,0.23309759908938882,-0.06321244462140466,-0.35995555318728395,-0.002093151104430674,0.36546982735504135
149,1791295868.2875202,-0.021750687579719343,-0.21100610849808668,-0.10347461933992445,0.2360162432571944,-0.06269739269735834,-0.3638911723673983,-0.002958655632519837,0.3692648128662115
150,1791295868.3130891,-0.03133076570471934,-0.1822658741230867,-0.03162403340242445,0.1876234133527438,-0.06223948790585046,-0.36892210532727665,-0.004158258684458084,0.3741584754742027
151,1791295868.333089,-0.0025905313297193435,-0.1439455616230867,-0.012463877152424448,0.1445073831927865,-0.06198592357614793,-0.37275632817152826,-0.0050219681267418635,0.377908395087188
152,1791295868.3428376,0.06447001554528066,-0.1631057178730867,-0.04120411152742445,0.18016003140005307,-0.06183562714441348,-0.3745693803998118,-0.005419050010099226,0.37967779974664545
153,1791295868.3628376,0.050099898357780656,-0.1774758350605867,-0.05557422871492445,0.19260365194661097,-0.06140167594210896,-0.3782419682549816,-0.006256674074380289,0.38324443678724845
154,1791295868.3874137,-0.007380570392219343,-0.19184595224808668,-0.017253916214924447,0.19276161401596867,-0.060869677841898166,-0.38275868478680813,-0.007265801012060029,0.38763658279972807
155,1791295868.4074137,-0.026540726642219344,-0.20142603037308668,0.0019062400350755527,0.20317600654021128,-0.06055256290404783,-0.3864729217532673,-0.007986861687049127,0.3912693727885736
156,1791295868.432487,0.03093974210778066,-0.20142603037308668,-0.03162403340242445,0.2062275268779444,-0.06020636787026933,-0.39118843346962795,-0.008811119574431087,0.39589245135605533
157,1791295868.452487,0.06926005460778066,-0.19663599131058668,-0.04599415058992445,0.21349035137789843,-0.05982134403656641,-0.3949826980285975,-0.009486403227474004,0.39959969568367504
158,1791295868.477166,0.03572978117028066,-0.19184595224808668,-0.012463877152424448,0.19554241199832334,-0.05922318152394852,-0.39968138523641017,-0.010302879850354689,0.4041766250879993
159,1791295868.497166,0.026149703045280658,-0.20142603037308668,0.021066396285075555,0.20420589054592878,-0.05871832075333789,-0.40350796279728596,-0.010852402437575568,0.40790230677403
160,1791295868.5083277,0.07884013273278066,-0.18705591318558668,0.0019062400350755527,0.20300077570809313,-0.058390935650248055,-0.40564841563582843,-0.01109385218070771,0.40997952635488594
161,1791295868.5283277,0.09321024992028067,-0.1631057178730867,-0.02204395527742445,0.18914957535603727,-0.05763423650266609,-0.4094336738749076,-0.011491798710656122,0.4136299069912084
162,1791295868.5532818,0.06447001554528066,-0.1774758350605867,-0.017253916214924447,0.18960947381292143,-0.05653661219457833,-0.41408554482974563,-0.011987388847499688,0.41809918015558056
163,1791295868.5732818,0.04051982023278066,-0.20142603037308668,0.0019062400350755527,0.20547003502853603,-0.05563137031023276,-0.41782298722947286,-0.012348031446071259,0.4216910858680174
164,1791295868.613018,0.011779585857780658,-0.20142603037308668,0.011486318160075552,0.20209685761959523,-0.0539467402877496,-0.42533534215200397,-0.012917169412719951,0.42893735829008073
165,1791295868.633018,0.011779585857780658,-0.1774758350605867,0.011486318160075552,0.17823682610029803,-0.05319068262326545,-0.4291176324295435,-0.013126199273155963,0.43260084175510377
166,1791295868.6281674,0.01656962492028066,-0.1822658741230867,0.030646474410075553,0.1855656426540729,-0.05319068262326545,-0.4291176324295435,-0.013126199273155963,0.43260084175510377
167,1791295868.6481674,0.05967997648278066,-0.1822658741230867,0.0019062400350755527,0.1917972424564792,-0.05249391145837575,-0.4328558044977549,-0.01317467506292407,0.436226237508259
168,1791295868.6723738,0.04051982023278066,-0.18705591318558668,-0.007673838089924448,0.19154805736530187,-0.05159518138603571,-0.4373720312233374,-0.013235016604386897,0.44060358839120267
169,1791295868.6923738,-0.03133076570471934,-0.1678957569355867,-0.0028837990274244475,0.17081837832460592,-0.05095022603177993,-0.44107617236978686,-0.013293230483574467,0.44420808788422667
170,1791295868.7180333,-0.007380570392219343,-0.1631057178730867,-0.03641407246492445,0.16728398816291482,-0.05032138002058366,-0.44575265970808825,-0.013432342064597194,0.4487851409498214
171,1791295868.7380333,0.06447001554528066,-0.1726857959980867,-0.08910450215242445,0.20473490017027618,-0.04981912259752451,-0.449354614954756,-0.013712784013049572,0.4523157695713391
172,1791295868.747589,0.04530985929528066,-0.21100610849808668,-0.06515430683992444,0.22543656507464685,-0.04953646678284774,-0.45109243707814783,-0.013937232992045856,0.45401816570915476
173,1791295868.767589,-0.016960648517219346,-0.21100610849808668,0.0019062400350755527,0.21169524126135267,-0.04899109281213773,-0.4548170741773545,-0.014431404103429486,0.45767560953427827
174,1791295868.7930396,0.0021995077327806568,-0.1726857959980867,-0.007673838089924448,0.17287021075011666,-0.048429367125196326,-0.4595781981070652,-0.014976931377187336,0.46236547475883283
175,1791295868.8130395,0.05967997648278066,-0.18705591318558668,-0.06994434590242445,0.2084318252436441,-0.04796133573010589,-0.46329806717209115,-0.015457750850623737,0.46603039689678116
176,1791295868.8383055,0.021359663982780656,-0.1535256397480867,-0.06994434590242445,0.1700546054337682,-0.04730519649566315,-0.4679378575244348,-0.016239137673790274,0.47060315523000884
177,1791295868.8583055,0.0021995077327806568,-0.1678957569355867,-0.017253916214924447,0.1687943146435679,-0.04682837964578396,-0.47154183562501006,-0.016895684923741643,0.47416248697455604
178,1791295868.8673747,0.03572978117028066,-0.1583156788105867,0.011486318160075552,0.1627034324303193,-0.04661879548398561,-0.4731528443985631,-0.017152668578875187,0.4757532346649944
179,1791295868.8873746,0.04530985929528066,-0.19663599131058668,-0.02683399433992445,0.20356512392915038,-0.046104376167945826,-0.4767050647575726,-0.017657399139786707,0.47925475064076173
180,1791295868.9133265,0.01656962492028066,-0.22537622568558668,-0.05078418965242445,0.2316204427353784,-0.04541655311859004,-0.4814444048999622,-0.018365169569027204,0.48393042656972046
181,1791295868.9333265,-0.007380570392219343,-0.23016626474808669,-0.02204395527742445,0.2313372391373121,-0.04495220532697083,-0.4852322622568691,-0.01893804260271065,0.4876778635085862
182,1791295868.95766,0.01656962492028066,-0.18705591318558668,-0.012463877152424448,0.18820152858402414,-0.04445521890199814,-0.48991099991152115,-0.019593470027802318,0.4923138819794354
183,1791295868.97766,0.021359663982780656,-0.1726857959980867,-0.03641407246492445,0.17777121268200563,-0.04405111771010696,-0.4937192966705978,-0.02012468509353295,0.4960889515263702
184,1791295868.9882104,0.006989546795280657,-0.2397463428730867,-0.02683399433992445,0.2413446206934353,-0.04384748772214152,-0.49575327648082906,-0.020412927540424983,0.4981070175492324
185,1791295869.0082104,0.03572978117028066,-0.2636965381855867,0.0019062400350755527,0.26611297462658606,-0.04345530047089105,-0.49978578496623927,-0.02091476322948386,0.5021071811020837
186,1791295869.032587,0.05967997648278066,-0.19663599131058668,0.021066396285075555,0.20657009881423355,-0.04287455878833218,-0.5048050969039226,-0.02139266925528114,0.5070740182156238
187,1791295869.052587,0.07405009367028066,-0.1822658741230867,-0.03162403340242445,0.19925949094351286,-0.04226896126038091,-0.5088738599561319,-0.021741791897824412,0.5110890098090672
188,1791295869.0778513,0.07884013273278066,-0.2349563038105867,-0.05078418965242445,0.2529807604311217,-0.04132901227103301,-0.5140331827092416,-0.02227280485115663,0.5161727211093486
189,1791295869.0978513,0.05967997648278066,-0.22537622568558668,-0.007673838089924448,0.23327029491192428,-0.040488753238660115,-0.5181953199197465,-0.0227178033025747,0.5202709172272116
190,1791295869.1074812,0.021359663982780656,-0.1583156788105867,0.011486318160075552,0.1601624953214348,-0.040086326484676124,-0.5201758944954946,-0.022897175998615245,0.5222204088830076
191,1791295869.1274812,0.01656962492028066,-0.19663599131058668,-0.012463877152424448,0.19772610799377668,-0.03931902001163572,-0.5242046723391921,-0.023215292809401197,0.5261895795786358
192,1791295869.1525965,0.03572978117028066,-0.26848657724808667,-0.007673838089924448,0.2709622616083268,-0.038401484234217936,-0.5293811118935847,-0.02359278272521178,0.5312962027135127
193,1791295869.1725965,0.03093974210778066,-0.19184595224808668,0.016276357222575553,0.19500527387767752,-0.03768041943872787,-0.533575432730743,-0.023835393917059505,0.535435040342019
194,1791295869.198095,0.0021995077327806568,-0.1343654834980867,0.016276357222575553,0.13536558201543722,-0.036835631340979724,-0.5387446336306073,-0.024036056188450318,0.5405371180586586
195,1791295869.218095,0.006989546795280657,-0.1774758350605867,-0.02683399433992445,0.17962903174902184,-0.03625862595433956,-0.5426587111511242,-0.02418567454379791,0.5444062009175084
196,1791295869.2432032,0.011779585857780658,-0.2445363819355867,-0.04120411152742445,0.2482631256145229,-0.03560756196872469,-0.5476300989202305,-0.024473454638541472,0.5493319339840738
197,1791295869.2632031,0.021359663982780656,-0.2397463428730867,-0.017253916214924447,0.24131357564635392,-0.03511703612821179,-0.5517225083867757,-0.024755989360519724,0.5533929810688278
198,1791295869.2732499,-0.0025905313297193435,-0.1726857959980867,-0.017253916214924447,0.17356495215571233,-0.03489344583037594,-0.5537806793345195,-0.02490262953048878,0.5554374261099553
199,1791295869.2932498,0.006989546795280657,-0.1726857959980867,-0.04599415058992445,0.1788426677065204,-0.034508511772389255,-0.5577813525436048,-0.02524563032123704,0.5594177477345842
200,1791295869.3176901,0.04051982023278066,-0.21100610849808668,-0.05078418965242445,0.22078149282459478,-0.03402158996665533,-0.5626402203939428,-0.025779306580640097,0.5642570857655067
201,1791295869.33769,0.050099898357780656,-0.18705591318558668,-0.02683399433992445,0.19549930364425544,-0.033546971276314175,-0.5666170059622885,-0.02626694408304338,0.5682166691315415
202,1791295869.36261,0.01656962492028066,-0.1726857959980867,-0.02204395527742445,0.1748738761901408,-0.032919697137140234,-0.5715011782270386,-0.02687475401841873,0.5730790133812657
203,1791295869.38261,0.01656962492028066,-0.21100610849808668,-0.04599415058992445,0.21659545743619316,-0.03244207274490025,-0.5754086133498237,-0.027391448501706557,0.5769730079060665
204,1791295869.3931763,0.03572978117028066,-0.2349563038105867,-0.03641407246492445,0.24043100182025118,-0.032186142572451525,-0.5775167180194472,-0.027688783961894753,0.5790752767325992
205,1791295869.4131763,0.01656962492028066,-0.20142603037308668,-0.007673838089924448,0.20225203576945475,-0.03169592823556439,-0.5815630143061173,-0.02823329791302613,0.5831100158517062
206,1791295869.4375126,0.026149703045280658,-0.20621606943558668,-0.017253916214924447,0.20858229044569124,-0.031110929424365292,-0.5864921184487806,-0.028841984931599965,0.5880244510451763
207,1791295869.4575126,0.03093974210778066,-0.21100610849808668,-0.03641407246492445,0.21634886211552645,-0.030616648388689677,-0.5905611433675491,-0.029347681023967644,0.5920820294483088
208,1791295869.4825985,0.021359663982780656,-0.19663599131058668,-0.0028837990274244475,0.19781371191346922,-0.02999127081432518,-0.5956663019476167,-0.029960767128667035,0.5971728955402662
209,1791295869.5025985,0.03093974210778066,-0.18705591318558668,-0.007673838089924448,0.18975265502864536,-0.029489022052555807,-0.5997014529408854,-0.030392073734344983,0.601194738189631
210,1791295869.512675,0.03572978117028066,-0.22058618662308668,-0.05557422871492445,0.23026805659632885,-0.029223547927144395,-0.601737588079721,-0.030624580966114926,0.6032246725895752
211,1791295869.532675,-0.0025905313297193435,-0.2493264209980867,-0.04599415058992445,0.25354651831325564,-0.02872596080829752,-0.6058775960931638,-0.031169193620650446,0.6073585110154894
212,1791295869.5577917,-0.016960648517219346,-0.22537622568558668,0.016276357222575553,0.2265988228275735,-0.02823163601740096,-0.6111911107273803,-0.03180652677526601,0.612668959757138
213,1791295869.5777917,0.026149703045280658,-0.20142603037308668,0.011486318160075552,0.20344087147397516,-0.027883273485918937,-0.6154277145879495,-0.032196255595217244,0.6168997874027756
214,1791295869.6027105,0.04530985929528066,-0.21579614756058668,-0.04120411152742445,0.2243183885866539,-0.02738078876106525,-0.6206942395148437,-0.0326645376862037,0.6221559439419844
215,1791295869.6227105,0.03572978117028066,-0.23016626474808669,-0.02204395527742445,0.23396380629241686,-0.02691642663220523,-0.6249560865541641,-0.033078878918757125,0.6264094638287839
216,1791295869.6330762,0.03572978117028066,-0.18705591318558668,0.006696279097575553,0.19055543044983658,-0.02665630005472603,-0.6271579772411133,-0.03327334607804395,0.6286054424748497
217,1791295869.6530762,0.021359663982780656,-0.1822658741230867,-0.0028837990274244475,0.18353582868786344,-0.02614405347546813,-0.6313231016492168,-0.033586557172379905,0.632756214533535
218,1791295869.6778195,-0.0025905313297193435,-0.2493264209980867,-0.02204395527742445,0.25031242682807125,-0.025570548252272285,-0.6365040402523636,-0.033962187118945275,0.6379221553993925
219,1791295869.6978195,0.011779585857780658,-0.2972268116230867,-0.02683399433992445,0.2986680422188517,-0.025162735908800797,-0.6408834513557908,-0.03429358184553672,0.6422933996671014
220,1791295869.7232363,0.026149703045280658,-0.2397463428730867,0.0019062400350755527,0.2411757650375496,-0.02464990676973296,-0.6466377790547095,-0.034699079005386754,0.6480370832663714
221,1791295869.7432363,0.04530985929528066,-0.1774758350605867,-0.017253916214924447,0.18397921894758207,-0.02419971331305583,-0.6511123763660535,-0.03499331604409198,0.6525009463205743
222,1791295869.752787,0.03572978117028066,-0.1774758350605867,-0.04120411152742445,0.18566655083695918,-0.023958925809526938,-0.6531829149866871,-0.03515462385652237,0.654566878275204
223,1791295869.772787,0.021359663982780656,-0.2397463428730867,-0.02683399433992445,0.24218713305770814,-0.02344470150796055,-0.6574942071619989,-0.035543801092748975,0.6588714960267319
224,1791295869.797889,0.011779585857780658,-0.2589064991230867,-0.0028837990274244475,0.2591903744894557,-0.022833721324856088,-0.6630324156685148,-0.03601493571419813,0.664402316861753
225,1791295869.817889,0.021359663982780656,-0.2349563038105867,-0.03641407246492445,0.23871884010121777,-0.022370232936368056,-0.6675238995303174,-0.03639295316880279,0.6688894010269077
226,1791295869.8431878,0.03093974210778066,-0.2445363819355867,-0.04120411152742445,0.2499061594651231,-0.021772655993695204,-0.67326294498764,-0.03694667180489514,0.6746273772979484
227,1791295869.8631878,0.03572978117028066,-0.2397463428730867,-0.007673838089924448,0.24251559532229294,-0.021271099764294227,-0.6778458180635281,-0.037392069360564155,0.6792095255533902
228,1791295869.8883104,0.05488993742028066,-0.21100610849808668,0.0019062400350755527,0.2180369620146547,-0.020564835985175903,-0.6835883196669407,-0.03787849356358411,0.6849457522598524
229,1791295869.9083104,0.026149703045280658,-0.19663599131058668,-0.03162403340242445,0.2008720974567925,-0.01996536223364819,-0.6880856168582588,-0.03825222362560127,0.6894372084741541
230,1791295869.9175434,0.03093974210778066,-0.22537622568558668,-0.03162403340242445,0.2296775788678863,-0.019690594059658863,-0.6901426016432145,-0.03844267403774675,0.6914928555556156
231,1791295869.9375434,0.04051982023278066,-0.22537622568558668,0.0019062400350755527,0.2289976696105196,-0.01907749605973986,-0.6946060919597228,-0.03883791186336419,0.6959525538722986
232,1791295869.9631596,0.0021995077327806568,-0.1822658741230867,0.0019062400350755527,0.18228911227824543,-0.01832795057541252,-0.700248608454447,-0.03926087804307726,0.7015878020315045
233,1791295869.9831595,-0.012170609454719344,-0.1774758350605867,-0.02204395527742445,0.17925326141865583,-0.017845476817577997,-0.704532835438875,-0.03957178300868843,0.7058688994883359
234,1791295870.0084875,0.026149703045280658,-0.23016626474808669,-0.04120411152742445,0.2352830108703285,-0.017299569288808353,-0.7099188932469279,-0.04002659847658144,0.711256802197439
235,1791295870.0284874,0.04051982023278066,-0.23016626474808669,-0.04120411152742445,0.23731022747986993,-0.016833154481897036,-0.7142244885605002,-0.040455480739202535,0.7155673420937819
236,1791295870.0377994,-0.026540726642219344,-0.18705591318558668,-0.02204395527742445,0.19021109534583897,-0.016638804768559626,-0.7162198422229991,-0.04066938582986779,0.717566520374134
237,1791295870.0577993,-0.06486103914221934,-0.1439455616230867,-0.017253916214924447,0.15882372849906903,-0.01642109926116128,-0.7203590943453172,-0.041118841223904655,0.7217185299066022
238,1791295870.0825284,0.006989546795280657,-0.1583156788105867,-0.03641407246492445,0.16259979272785385,-0.016299627108561466,-0.7252699790734353,-0.041690748415855856,0.7266500800884381
239,1791295870.1025283,0.06926005460778066,-0.20621606943558668,-0.02204395527742445,0.21865031082074537,-0.016101746668811888,-0.7291927685467355,-0.042171593516346174,0.7305886689829972
240,1791295870.1284192,0.021359663982780656,-0.20621606943558668,0.006696279097575553,0.2074274395847199,-0.01570804024930614,-0.734310119588836,-0.04273049911266351,0.7357200485330421
241,1791295870.1484191,0.021359663982780656,-0.23016626474808669,-0.0028837990274244475,0.23117322719202196,-0.015385452669733918,-0.7383247583358912,-0.043091759251583865,0.739741211939014
242,1791295870.158655,0.05488993742028066,-0.2397463428730867,-0.02683399433992445,0.24740912958752564,-0.015186584591394601,-0.7404319562393712,-0.043271728994731355,0.7418507644413445
243,1791295870.178655,0.09800028898278067,-0.2541164600605867,-0.03162403340242445,0.2741884596460433,-0.014626961795185939,-0.7446724642353766,-0.04365831655349843,0.746094548704138
244,1791295870.20273,0.06447001554528066,-0.22058618662308668,-0.0028837990274244475,0.229832471444212,-0.013761000630565973,-0.7498684448658977,-0.04411617728833849,0.751291079970001
245,1791295870.22273,0.06926005460778066,-0.21579614756058668,-0.04120411152742445,0.23035344858071408,-0.012948928805658034,-0.7541920300673514,-0.044505616046700495,0.7556150096669751
246,1791295870.247704,0.07405009367028066,-0.2732766163105867,-0.05078418965242445,0.2876500639899014,-0.011818567059265324,-0.759697147649024,-0.04509126600594507,0.7611259139875716
247,1791295870.267704,0.04051982023278066,-0.2732766163105867,-0.02683399433992445,0.27756445756994097,-0.010877270194009584,-0.7642643342034106,-0.04560634764596897,0.765701133920971
248,1791295870.2782526,0.01656962492028066,-0.19184595224808668,-0.007673838089924448,0.19271302409283167,-0.010410106159079235,-0.7666798541539633,-0.04586456744297944,0.7681210370914973
249,1791295870.2982526,0.03093974210778066,-0.1391555225605867,-0.012463877152424448,0.14309743301148578,-0.009585966218199453,-0.7710691788875729,-0.04631091791634179,0.772518136031088
250,1791295870.322438,0.04530985929528066,-0.1583156788105867,-0.04599415058992445,0.17097455774209105,-0.008600538549214299,-0.7761204685878497,-0.04687575060974025,0.7775823345598756
251,1791295870.342438,0.04051982023278066,-0.22058618662308668,-0.07952442402742445,0.2379585165055155,-0.007779134896342543,-0.7802393833840523,-0.047461050423405156,0.7817202579123522
252,1791295870.367727,-0.026540726642219344,-0.21579614756058668,-0.06036426777742445,0.22564625478166508,-0.006869787875317478,-0.7854940128053423,-0.048355446480361164,0.7870109829874079
253,1791295870.387727,0.011779585857780658,-0.21579614756058668,-0.05557422871492445,0.223148450234883,-0.006280642098848011,-0.7896737035163544,-0.04913059108657689,0.7912255174543635
254,1791295870.398287,0.021359663982780656,-0.19663599131058668,-0.03641407246492445,0.20111671486387,-0.005989985953569001,-0.7918762041974795,-0.049551332474759895,0.7934476272924108
255,1791295870.418287,0.03572978117028066,-0.1822658741230867,-0.04120411152742445,0.19025047947138915,-0.005436441540755775,-0.795990233467883,-0.05034508658985811,0.7975992943932569
256,1791295870.4433787,0.06926005460778066,-0.1774758350605867,-0.04599415058992445,0.19598492055057193,-0.004648566358144612,-0.8010544065060803,-0.05135563895996676,0.8027123849829284
257,1791295870.4633787,0.04530985929528066,-0.19663599131058668,-0.017253916214924447,0.20252504549513595,-0.003942913899969803,-0.805046630100119,-0.052135175996027634,0.8067426478014641
258,1791295870.4875612,0.050099898357780656,-0.2349563038105867,-0.0028837990274244475,0.24025565719171577,-0.0030446288425924417,-0.8099324520443353,-0.052972876354646606,0.8116686345231182
259,1791295870.5075612,0.05488993742028066,-0.3115969288105867,-0.017253916214924447,0.3168647170306972,-0.002255663013087602,-0.8141869423096008,-0.05359197396970473,0.8159519377494334
260,1791295870.518097,0.06447001554528066,-0.3163869678730867,-0.04120411152742445,0.3255071046092523,-0.0018080733444657562,-0.8165881881550683,-0.053915378611021796,0.8183681361186822
261,1791295870.538097,0.07884013273278066,-0.2732766163105867,-0.02204395527742445,0.28527497527080636,-0.0008708967203410534,-0.8213472306091618,-0.054532082561921824,0.8231559874768435
262,1791295870.562919,0.09800028898278067,-0.2541164600605867,0.011486318160075552,0.272600747283104,0.00044697943977814306,-0.8273495363683211,-0.05520232030054145,0.8291892131992908
263,1791295870.582919,0.11716044523278066,-0.2445363819355867,-0.012463877152424448,0.27144052801849844,0.0016723016669026095,-0.832208348622167,-0.055662816216644054,0.8340694702592029
264,1791295870.608535,0.09800028898278067,-0.2349563038105867,-0.02204395527742445,0.2555278014332576,0.0034196650702895993,-0.8384192877093493,-0.0562304495807257,0.8403097402578981
265,1791295870.628535,0.06447001554528066,-0.2397463428730867,-0.012463877152424448,0.24857602470692763,0.00482299527826691,-0.8432531854450054,-0.05665891702377954,0.8451682843818209
266,1791295870.6531146,0.06926005460778066,-0.27806665537308667,0.0019062400350755527,0.28656875919352937,0.006535483868120293,-0.8492573937596464,-0.05712596994312862,0.851201627023093
267,1791295870.6731145,0.06926005460778066,-0.2636965381855867,-0.02683399433992445,0.2739578118389224,0.00792767558589075,-0.8542227398321346,-0.05748639024102008,0.8561915804009385
268,1791295870.683178,0.07405009367028066,-0.2493264209980867,-0.03641407246492445,0.2626272363137024,0.008631273630891556,-0.8567336021532289,-0.057688277158495546,0.8587170088361205
269,1791295870.703178,0.06926005460778066,-0.18705591318558668,-0.03641407246492445,0.20276305012365362,0.01003481742918973,-0.8616297412167839,-0.05813856414520606,0.8636472666262572
270,1791295870.7283266,0.06447001554528066,-0.1774758350605867,-0.06036426777742445,0.1982369787884337,0.011787184629866844,-0.8675503823592714,-0.05880237709320726,0.8696207927625859
271,1791295870.7483265,0.03572978117028066,-0.21100610849808668,-0.05557422871492445,0.22110786956424958,0.013122050252711771,-0.872135342728067,-0.059425009286125624,0.8742560128285615
272,1791295870.787876,0.006989546795280657,-0.22058618662308668,-0.04120411152742445,0.22451035232274497,0.015492471938889352,-0.8811221584511417,-0.06075862402995452,0.8833503751028747
273,1791295870.8078759,0.03093974210778066,-0.22058618662308668,-0.04120411152742445,0.22652441850135194,0.016568273321703297,-0.8856468298978551,-0.061455480272167254,0.8879310733635049
274,1791295870.8184273,0.05488993742028066,-0.22537622568558668,-0.05078418965242445,0.23745816948030288,0.017118624728495443,-0.8880287770780673,-0.0618407722748724,0.8903439994445492
275,1791295870.8384273,0.021359663982780656,-0.19663599131058668,-0.03162403340242445,0.20030483721765702,0.018119698257642168,-0.892499471453551,-0.06258514809872,0.8948745894103568
276,1791295870.8484719,0.006989546795280657,-0.1678957569355867,0.0019062400350755527,0.1680519940745969,0.01856840805763375,-0.8946826052636537,-0.0629253059868149,0.897084914638903
277,1791295870.8684719,0.06447001554528066,-0.1774758350605867,-0.017253916214924447,0.18960947381292143,0.019435018133000612,-0.898895516379644,-0.063524029162268,0.9013468652956339
278,1791295870.8930595,0.01656962492028066,-0.1774758350605867,-0.02683399433992445,0.18025617257860121,0.020490047236570108,-0.9039524610941879,-0.06423098140278317,0.9064631889525139
279,1791295870.9130595,-0.021750687579719343,-0.1726857959980867,-0.017253916214924447,0.17490332808278694,0.021211726872499753,-0.9079740942689751,-0.06478590273216146,0.910529574705457
280,1791295870.92267,-0.026540726642219344,-0.20142603037308668,-0.0028837990274244475,0.2031875295863091,0.021471684334278592,-0.9098863549410503,-0.06502707135231725,0.9124597153544485
281,1791295870.9426699,0.01656962492028066,-0.20142603037308668,-0.007673838089924448,0.20225203576945475,0.021916569738504865,-0.9138732545483965,-0.06546951401581412,0.9164774512629582
282,1791295870.9679906,0.01656962492028066,-0.18705591318558668,-0.017253916214924447,0.18857933278184053,0.02245825925152068,-0.9189014410980808,-0.06599298071003212,0.9215418087985661
283,1791295870.9879906,-0.021750687579719343,-0.1678957569355867,-0.017253916214924447,0.1701757186907574,0.022814169872748126,-0.9228097170674764,-0.06639619009011768,0.9254764796144856
284,1791295871.0120075,-0.007380570392219343,-0.20142603037308668,-0.017253916214924447,0.20229833453571924,0.023124980942866455,-0.9274642085075303,-0.06686991064724132,0.9301592378491318
285,1791295871.0320075,0.01656962492028066,-0.19184595224808668,-0.007673838089924448,0.19271302409283167,0.023358767616857814,-0.9313487301365176,-0.06724261846453976,0.9340651256146169
286,1791295871.04306,0.03093974210778066,-0.19663599131058668,-0.007673838089924448,0.19920308358914396,0.023507968388647785,-0.9334954614000409,-0.06743041524810198,0.9362228697979815
287,1791295871.06306,0.03572978117028066,-0.21100610849808668,-0.012463877152424448,0.21437244067196046,0.023837457835344605,-0.9374088048492292,-0.06774947145862392,0.940156094852251
288,1791295871.0872555,0.03093974210778066,-0.2589064991230867,-0.0028837990274244475,0.26076456666253456,0.02429725644368112,-0.9422856532123204,-0.06810540992636725,0.9450560595973647
289,1791295871.1072555,0.04051982023278066,-0.2589064991230867,-0.017253916214924447,0.2626254533449136,0.024727505371320426,-0.9464889006143247,-0.06838570285099319,0.9492783010595081
290,1791295871.1328878,0.04051982023278066,-0.2349563038105867,-0.05557422871492445,0.24481588067216617,0.025352001688169146,-0.9520172386912729,-0.06883105449571475,0.9548388664156613
291,1791295871.1528878,0.026149703045280658,-0.21100610849808668,-0.06515430683992444,0.22237910983870252,0.025866186170988795,-0.9563527023929651,-0.06930751456061698,0.9592096134505376
292,1791295871.1628516,0.011779585857780658,-0.2349563038105867,-0.017253916214924447,0.23588327827140518,0.026112266485518065,-0.9585218564248923,-0.06957085837644368,0.9613979946101758
293,1791295871.1828516,0.03093974210778066,-0.2589064991230867,-0.012463877152424448,0.2610463391115447,0.02659620350242498,-0.9629636239807214,-0.07006474780506684,0.9658754412634242
294,1791295871.207406,0.03572978117028066,-0.2541164600605867,-0.04120411152742445,0.2599030037205502,0.027224001853713646,-0.96854368174625,-0.07067898870858212,0.9715006583489175
295,1791295871.227406,0.011779585857780658,-0.22058618662308668,-0.04120411152742445,0.22471048746923336,0.027729913892122024,-0.9731190157454512,-0.07122786265776876,0.976116271429103
296,1791295871.2520967,0.021359663982780656,-0.21100610849808668,-0.012463877152424448,0.21245037374086767,0.028322161218896403,-0.978719376160778,-0.0719032072404411,0.9817656712780873
297,1791295871.2720966,0.06447001554528066,-0.21579614756058668,0.0019062400350755527,0.22522875917047216,0.028858679566409758,-0.9832155374002347,-0.07238403172961168,0.9862986689745569
298,1791295871.2986596,0.05488993742028066,-0.23016626474808669,-0.007673838089924448,0.23674522687716226,0.029702160093435816,-0.9891798238679799,-0.07293833711041502,0.9923099028439333
299,1791295871.3186595,0.026149703045280658,-0.2445363819355867,-0.02204395527742445,0.24691655477868749,0.030363537739181597,-0.9937089551878777,-0.07333766313188704,0.9968740366155939
300,1791295871.3276787,0.006989546795280657,-0.23016626474808669,0.0019062400350755527,0.23028025738990537,0.030639469383875385,-0.9957661387028742,-0.07350435211230608,0.998945378812479
301,1791295871.3476787,0.021359663982780656,-0.1822658741230867,0.025856435347575552,0.18532576551627553,0.031202091011791482,-1.0002623289971324,-0.07377689675190831,1.0034646619530843
302,1791295871.3728862,0.050099898357780656,-0.19184595224808668,-0.02204395527742445,0.19950139140795034,0.03193993802628342,-1.0057864726266046,-0.0740616717017786,1.009015222568546
303,1791295871.3928862,0.021359663982780656,-0.21100610849808668,-0.06036426777742445,0.22050772751372735,0.03254473224883397,-1.0101162397527685,-0.07437733651313387,1.0133735567875297
304,1791295871.4174597,0.006989546795280657,-0.2349563038105867,-0.017253916214924447,0.23569263053707845,0.03322861380706934,-1.0154600675285077,-0.07485006139499817,1.0187569981165163
305,1791295871.4374597,-0.021750687579719343,-0.1774758350605867,-0.007673838089924448,0.17896829951606935,0.033679581152072674,-1.0197755734289113,-0.07521448390721178,1.0231000698554722
306,1791295871.448042,-0.016960648517219346,-0.1726857959980867,-0.03641407246492445,0.17729645346452433,0.03385167728546432,-1.0219943588488851,-0.07541337191342964,1.0253319375876948
307,1791295871.468042,0.006989546795280657,-0.1774758350605867,-0.05078418965242445,0.1847310469669606,0.03411318764745696,-1.0260840094614307,-0.07586367647929129,1.0294500480610367
308,1791295871.4921284,0.011779585857780658,-0.19184595224808668,-0.04599415058992445,0.19763372669016954,0.034414795744596965,-1.0309376618863715,-0.0764994712200802,1.0343447249146838
309,1791295871.5121284,-0.0025905313297193435,-0.1774758350605867,-0.03162403340242445,0.18028993974057592,0.0346414511710943,-1.0349173014363269,-0.07706463570000291,1.0383606353416248
310,1791295871.538072,-0.021750687579719343,-0.18705591318558668,-0.04120411152742445,0.1927713305308876,0.03484400116787584,-1.0400145937378975,-0.07782949976708914,1.0435046193664819
311,1791295871.558072,0.0021995077327806568,-0.23016626474808669,-0.05557422871492445,0.2367907138373708,0.03494739794720574,-1.0439804935185668,-0.07847585427198558,1.047508974269084
312,1791295871.5680437,0.0021995077327806568,-0.20142603037308668,-0.012463877152424448,0.20182326867781358,0.03499450680011261,-1.0459839943645648,-0.07880065931370725,1.0495316459646693
313,1791295871.5880437,0.0021995077327806568,-0.1535256397480867,0.006696279097575553,0.15368734511363805,0.03508141822945364,-1.0499320636050091,-0.07936305033457756,1.053511527155385
314,1791295871.6126451,0.04530985929528066,-0.1678957569355867,-0.012463877152424448,0.17434826291076852,0.035259949589182604,-1.0546530764874984,-0.07996170744190868,1.0582675703462723
315,1791295871.6326451,0.011779585857780658,-0.22537622568558668,-0.007673838089924448,0.2258142810769321,0.035468951568136474,-1.0585052758150153,-0.08040559517905069,1.0621471297281098
316,1791295871.657409,-0.012170609454719344,-0.21579614756058668,0.016276357222575553,0.21675105730059702,0.035688192271614835,-1.0633789584343531,-0.08085679345946374,1.0670455835422832
317,1791295871.677409,0.026149703045280658,-0.1822658741230867,0.0019062400350755527,0.1841420364563197,0.03585966626718696,-1.0673217591510293,-0.08113926027823874,1.0710019760861982
318,1791295871.687167,0.01656962492028066,-0.1774758350605867,0.0019062400350755527,0.17825784204775588,0.03596204326714513,-1.0692201754245476,-0.08125361340166513,1.0729059612946867
319,1791295871.707167,0.03572978117028066,-0.21579614756058668,-0.007673838089924448,0.21886864178199905,0.0362188493544791,-1.0731174265954846,-0.08146148615960802,1.0768141854743603
320,1791295871.7325215,0.03572978117028066,-0.23016626474808669,-0.0028837990274244475,0.23294085727367161,0.036631463815993304,-1.0781650381238623,-0.08170556050395246,1.081876847053858
321,1791295871.7525215,0.026149703045280658,-0.18705591318558668,-0.017253916214924447,0.18966132777084982,0.03700093620699018,-1.082175236298356,-0.0818994160901097,1.085900467673487
322,1791295871.778052,0.011779585857780658,-0.19184595224808668,-0.012463877152424448,0.19261094535520745,0.03747445917260567,-1.087252022747755,-0.08216666262971183,1.0909961762110207
323,1791295871.798052,0.026149703045280658,-0.22537622568558668,-0.03641407246492445,0.22979172036241347,0.037846656651429084,-1.091258323016594,-0.08241793029562447,1.0950204620037447
324,1791295871.8080938,0.01656962492028066,-0.22537622568558668,-0.03162403340242445,0.2281864918502341,0.038037673719952446,-1.093307579292693,-0.08257640605004164,1.0970812141300275
325,1791295871.8280938,0.03093974210778066,-0.18705591318558668,-0.02683399433992445,0.19148693310935036,0.03843231747219394,-1.0973954876826597,-0.08293238239890315,1.1011955682179728
326,1791295871.8678775,0.01656962492028066,-0.19663599131058668,-0.03162403340242445,0.1998508069469162,0.03924134233585678,-1.105452213970068,-0.08370869642841501,1.1093113296894563
327,1791295871.8878775,0.021359663982780656,-0.2397463428730867,-0.03641407246492445,0.24343485543355886,0.03964394071114005,-1.1095495073705328,-0.08414248031622952,1.1134413807359
328,1791295871.8979402,0.026149703045280658,-0.2493264209980867,-0.04120411152742445,0.2540575721836213,0.03985197333424607,-1.1116708802879516,-0.08438657307637802,1.115581202591007
329,1791295871.9179401,0.03093974210778066,-0.20142603037308668,-0.03162403340242445,0.2062275268779444,0.040289059131643205,-1.1159308699812929,-0.08490818713874888,1.1198813843912698
330,1791295871.9273157,0.01656962492028066,-0.18705591318558668,-0.04599415058992445,0.1933388968008796,0.040496628362066286,-1.1179014828793346,-0.0851706092415438,1.1218724236788629
331,1791295871.9473157,0.006989546795280657,-0.2397463428730867,-0.08431446308992445,0.25423629042991736,0.04090833595974988,-1.1221148422119847,-0.08584190122593015,1.126136778135545
332,1791295871.9726744,-0.012170609454719344,-0.2972268116230867,-0.07473438496492445,0.3067199530161197,0.04134219781378433,-1.1276770379636554,-0.08686787779535067,1.1317732579731796
333,1791295871.9926744,-0.012170609454719344,-0.26848657724808667,-0.017253916214924447,0.26931554637941674,0.04159653891097601,-1.1322543994746006,-0.08769365566212617,1.1364068261068958
334,1791295872.0187159,0.011779585857780658,-0.21579614756058668,0.0019062400350755527,0.21612581913330636,0.04187727105609651,-1.1382663225227438,-0.08863757356027994,1.1424799981913079
335,1791295872.0387158,0.05967997648278066,-0.18705591318558668,-0.03162403340242445,0.19887607633729265,0.04216772318549398,-1.1427952036145115,-0.08929834298503216,1.1470541348789314
336,1791295872.0627654,0.07405009367028066,-0.22058618662308668,-0.02683399433992445,0.2342258426257181,0.04270580673692728,-1.1481594680980922,-0.09007916067674264,1.1524791561241237
337,1791295872.0827653,0.04051982023278066,-0.22537622568558668,0.021066396285075555,0.22995671764142314,0.04325801878421608,-1.1526202708489928,-0.09063975188924812,1.1569876013094027
338,1791295872.0932083,0.006989546795280657,-0.23016626474808669,0.03543651347257555,0.23298306736666888,0.043540315682408424,-1.1549568857130976,-0.09084430288654227,1.1593419919561108
339,1791295872.1132083,0.011779585857780658,-0.2493264209980867,0.0019062400350755527,0.24961181182341374,0.04402801694389721,-1.1594798701647158,-0.09112127481949808,1.1638879337453107
340,1791295872.1378713,0.07884013273278066,-0.2589064991230867,-0.03641407246492445,0.2730830029331305,0.04470683569487523,-1.1651608497935875,-0.09147542043566997,1.1696008975686731
341,1791295872.1578712,0.050099898357780656,-0.19663599131058668,-0.0028837990274244475,0.20293848622424396,0.04536814974950182,-1.1697600154990497,-0.0917784768526418,1.1742316856929986
342,1791295872.1829622,0.011779585857780658,-0.1583156788105867,0.006696279097575553,0.1588944711246754,0.04618979839848948,-1.1753323630243457,-0.0920944714085229,1.1798394181889758
343,1791295872.2029622,-0.0025905313297193435,-0.19663599131058668,-0.03162403340242445,0.19917957581013432,0.04676027763873766,-1.179640250191768,-0.09234596035812916,1.1841728842664039
344,1791295872.2124784,-0.012170609454719344,-0.2445363819355867,-0.05078418965242445,0.25005039440740706,0.04698046728562623,-1.1816974070845656,-0.09250648891428412,1.1862433884781023
345,1791295872.2324784,-0.007380570392219343,-0.2445363819355867,-0.0028837990274244475,0.24466473224862673,0.04734449135835175,-1.1861059582486628,-0.09287376197081365,1.1906781180140882
346,1791295872.2572584,-0.012170609454719344,-0.19663599131058668,0.025856435347575552,0.1987017666304952,0.04769152829883888,-1.1915687549105705,-0.09321786180085098,1.1961605867563638
347,1791295872.2772584,0.01656962492028066,-0.1822658741230867,-0.0028837990274244475,0.18304020770498008,0.04793620647775668,-1.1958847796222098,-0.093419467579201,1.2004855196737365
348,1791295872.3024738,0.03572978117028066,-0.22537622568558668,-0.04120411152742445,0.23188108843439795,0.04829732330138951,-1.2012809830244726,-0.09371889644704055,1.2058987781590846
349,1791295872.3224738,0.01656962492028066,-0.23016626474808669,-0.03641407246492445,0.23361730794520744,0.04861923399915136,-1.2056023671442135,-0.09403719581920267,1.2102412535424225
350,1791295872.3322852,0.01656962492028066,-0.19184595224808668,-0.02683399433992445,0.1944208968094969,0.04877785160331003,-1.2077148591534737,-0.09421646328151044,1.2123659520872423
351,1791295872.3522851,0.021359663982780656,-0.19184595224808668,-0.04599415058992445,0.19843529556991898,0.049109578464790825,-1.211950661551386,-0.09463631789938151,1.2166314928512185
352,1791295872.3785276,-0.007380570392219343,-0.22537622568558668,-0.05078418965242445,0.23114486765283893,0.049507069254749,-1.2174960532755854,-0.09529506260891892,1.222222867813174
353,1791295872.3985276,-0.021750687579719343,-0.21100610849808668,-0.03162403340242445,0.21446852851254083,0.049720868394213864,-1.2217429511546531,-0.09584541205315997,1.2265049312830323
354,1791295872.4226985,-0.045700882892219345,-0.20621606943558668,-0.04120411152742445,0.21520087545675895,0.049818219116689835,-1.2268619799201625,-0.09654278978122123,1.2316625686397717
355,1791295872.4426985,-0.08881123445471935,-0.2445363819355867,-0.05557422871492445,0.2660337804730388,0.04968492034101891,-1.2311384494395896,-0.09717844042283767,1.2359668775015071
356,1791295872.4530156,-0.07923115632971935,-0.2636965381855867,-0.007673838089924448,0.2754493205209216,0.049496443844415886,-1.233406842603583,-0.09750609855601272,1.2382446351954035
357,1791295872.4730155,-0.03133076570471934,-0.22537622568558668,0.06417674784757556,0.23642063139289643,0.0490200389101805,-1.237878196632728,-0.09796124306904284,1.2427154940118363
358,1791295872.4978993,-0.03133076570471934,-0.19663599131058668,0.059386708785075557,0.2077838086537652,0.04839926795635618,-1.243394516360012,-0.09821198168331004,1.2482059148229598
359,1791295872.5178993,-0.045700882892219345,-0.2828566944355867,0.021066396285075555,0.28729823065343624,0.04785962465231566,-1.2478823730522997,-0.09826260079449664,1.2526597699939908
360,1791295872.542856,-0.040910843829719344,-0.3259670459980867,-0.02683399433992445,0.32961837854072024,0.04712513036471174,-1.2537820346605377,-0.09832708602382605,1.2585143559750702
361,1791295872.562856,-0.021750687579719343,-0.27806665537308667,-0.05557422871492445,0.2843987555138458,0.04653081602381009,-1.2587068103374581,-0.09849462422886164,1.2634117073352311
362,1791295872.5724342,-0.0025905313297193435,-0.2541164600605867,-0.05557422871492445,0.26013531291147834,0.046271399536249556,-1.261093866621854,-0.09864267025176515,1.265791909928603
363,1791295872.5924342,0.04051982023278066,-0.2445363819355867,-0.07473438496492445,0.25889211308560467,0.045867866279532224,-1.2660785284231726,-0.09910089348708896,1.2707791658589476
364,1791295872.6321616,0.05967997648278066,-0.2397463428730867,-0.08431446308992445,0.2610535140543929,0.045485084557048874,-1.2759376709903523,-0.10034846132199732,1.2806856159335664
365,1791295872.6521616,0.06447001554528066,-0.2636965381855867,-0.08910450215242445,0.28571289690754725,0.04550751120849063,-1.280911712628487,-0.10114244289718138,1.2857042983829696
366,1791295872.6624815,0.050099898357780656,-0.26848657724808667,-0.06036426777742445,0.2797121499008532,0.04560602416604392,-1.283505226084074,-0.10160637004729137,1.2883281527854427
367,1791295872.6824815,0.06926005460778066,-0.21100610849808668,-0.03162403340242445,0.2243225634581077,0.04594734368133001,-1.288496742335404,-0.10250857655545759,1.2933843286771896
368,1791295872.69281,0.06447001554528066,-0.1678957569355867,0.0019062400350755527,0.17985828269071644,0.046200762959632616,-1.2909813457529344,-0.10292763241540182,1.2959017875960932
369,1791295872.71281,0.06926005460778066,-0.18705591318558668,0.021066396285075555,0.20057582824060913,0.04681846690019212,-1.2956032426596475,-0.10358290784634278,1.3005803127954005
370,1791295872.7379532,0.026149703045280658,-0.21100610849808668,0.025856435347575552,0.21418669436205892,0.04765845352226793,-1.3012927710715734,-0.10419464110395427,1.306327190052343
371,1791295872.7579532,-0.03612080476721934,-0.21100610849808668,0.011486318160075552,0.21438336191368113,0.04821143530599865,-1.3057726379021037,-0.10455223697269034,1.310838546367964
372,1791295872.7830226,-0.03612080476721934,-0.21100610849808668,0.021066396285075555,0.215109468441019,0.048664782356827474,-1.3113392005012092,-0.10487203285807237,1.3164258061466179
373,1791295872.8030226,-0.03133076570471934,-0.21579614756058668,0.06417674784757556,0.22730650924671253,0.04887102647203993,-1.3157541721233408,-0.10496102660764091,1.3208384593866649
374,1791295872.8280864,0.0021995077327806568,-0.2445363819355867,0.025856435347575552,0.24590940440189968,0.04903595947467845,-1.3213223709232484,-0.10488658097546409,1.3263855126216357
375,1791295872.8480864,-0.012170609454719344,-0.26848657724808667,-0.02683399433992445,0.27009855451136205,0.04913287189110781,-1.325868645040502,-0.10483755309751813,1.3309142029226677
376,1791295872.8572598,-0.026540726642219344,-0.27806665537308667,-0.06036426777742445,0.2857784453477494,0.04914402152148168,-1.3280171301235926,-0.10487843141527492,1.333058182574615
377,1791295872.8772597,-0.050490921954719346,-0.26848657724808667,-0.04120411152742445,0.27628274316177404,0.049049136473198,-1.3328184969474084,-0.10510653887529373,1.3378558771811928
378,1791295872.9023244,-0.08881123445471935,-0.2924367725605867,-0.012463877152424448,0.30587914205563965,0.04868619249735927,-1.3389876114695523,-0.10545041851780286,1.3440156099444702
379,1791295872.9223244,-0.09360127351721935,-0.27806665537308667,-0.03162403340242445,0.29509717505096167,0.04816640946891989,-1.3440275299145077,-0.1057497845807405,1.3490415194159493
380,1791295872.947855,-0.08881123445471935,-0.26848657724808667,-0.02683399433992445,0.2840643250744434,0.04725313637122328,-1.350542632611087,-0.10618654692752323,1.3555345234059493
381,1791295872.967855,-0.09360127351721935,-0.2636965381855867,-0.0028837990274244475,0.27983098283059804,0.04637139890629859,-1.3556791023064427,-0.1065219494698254,1.3606480297217873
382,1791295872.9780252,-0.11276142976721935,-0.26848657724808667,0.030646474410075553,0.292812890083937,0.04583287469554139,-1.3583051948592362,-0.10664574568538408,1.36325601772273
383,1791295872.9980252,-0.10318135164221935,-0.2493264209980867,0.03543651347257555,0.27215032982071236,0.0446087933181637,-1.3634715457958406,-0.10675355225755062,1.3683716313764354
384,1791295873.0229435,-0.15108174226721935,-0.1822658741230867,0.08333690409757556,0.25098123694993596,0.042837269365916586,-1.3697494554765726,-0.10664575006717647,1.3745624461742312
385,1791295873.0429435,-0.20377217195471936,-0.11041528818558669,0.13123729472257556,0.26634162546314466,0.04109640507148369,-1.3744714450045399,-0.1062503433613062,1.3791844702965093
386,1791295873.0674176,-0.20377217195471936,-0.10562524912308668,0.15997752909757557,0.2797724095253559,0.0385375689789295,-1.3797795879223145,-0.1053045177268246,1.3843286809582314
387,1791295873.0874176,-0.20377217195471936,-0.048144780373086685,0.24619823222257556,0.32319434940889313,0.03614886005039723,-1.3836973316029226,-0.10403827477461973,1.3880738482465804
388,1791295873.0974605,-0.16545185945471935,-0.01461450693558668,0.21266795878507555,0.26984358859125246,0.03485119581761492,-1.385416789675864,-0.10315218576942231,1.3896886918999898
389,1791295873.1174605,-0.14150166414221935,0.014125727439413321,0.11207713847257555,0.18106226028333713,0.032194163579360786,-1.3883281106686558,-0.101165154219536,1.3923813398166598
390,1791295873.1427653,-0.17503193757971935,0.0045456493144133215,0.07854686503507556,0.19190219411835494,0.028735909221505204,-1.3914236691066246,-0.09866641404353345,1.3952134749525387
391,1791295873.1627653,-0.2612526407047194,0.009335688376913322,0.15997752909757557,0.3064847584608828,0.02575819722873876,-1.3934824705545792,-0.09662995212606759,1.3970662933859848
392,1791295873.1876705,-0.22293232820471937,0.01891576650191332,0.14081737284757556,0.2643599093599949,0.02170196739329792,-1.3956088840576908,-0.09391256187797678,1.3989334158307813
393,1791295873.2076705,-0.27562275789221935,0.09555639150191332,0.20787791972257555,0.358206865000052,0.018185403315945328,-1.3968886394599673,-0.091534662568332,1.4000025622825054
394,1791295873.2179363,-0.31873310945471933,0.18177709462691333,0.3372089744100756,0.4983408468271198,0.016193516595500203,-1.3972334649506128,-0.0900775070970946,1.4002276753594223
395,1791295873.2379363,-0.20377217195471936,0.27757787587691335,0.27972850566007557,0.4436446912995824,0.012111238866779204,-1.3971154565725197,-0.08673908438107812,1.399857832017236
396,1791295873.2630064,-0.24688252351721934,0.19135717275191333,0.29888866191007557,0.43232277316864937,0.006914286889210794,-1.396107998698266,-0.08209409483348223,1.398536660870566
397,1791295873.2830064,-0.2995729532047194,0.13387670400191332,0.4377997947225756,0.5471156974766326,0.002570574608077779,-1.3949369956784066,-0.07783931660496142,1.3971094405863995
398,1791295873.3074427,-0.28520283601721935,0.07639623525191333,0.4952802634725756,0.5766104246528972,-0.0030122775855470725,-1.3933354901071309,-0.07171048268713812,1.3951828751585051
399,1791295873.3274426,-0.24209248445471934,0.11471654775191333,0.4473798728475756,0.5214570049262819,-0.0076871403552803445,-1.391934673782295,-0.06603274062140341,1.3935212775692516
400,1791295873.3378694,-0.18461201570471936,0.23446752431441334,0.41863963847257557,0.5141164879685716,-0.0100924342379994,-1.391040854861685,-0.06283948569864106,1.3924960747111805
401,1791295873.3578694,-0.08402119539221935,0.33026830556441333,0.3755292869100756,0.5071084304788435,-0.014417019740352659,-1.3887364528627346,-0.05644189098023154,1.3899577234669362
402,1791295873.3824553,-0.09360127351721935,0.31110814931441333,0.3180488181600756,0.4546476984511254,-0.01926332458350222,-1.3851459087880869,-0.048478094762039715,1.3861278404166557
403,1791295873.4024553,-0.15108174226721935,0.32068822743941333,0.2557783103475756,0.43713747964340927,-0.022981330214489448,-1.3817155304824078,-0.04211078146547493,1.3825481064434402
404,1791295873.4274006,-0.17982197664221936,0.37816869618941334,0.25098827128507556,0.48820346002848686,-0.027542150984478514,-1.3767712432727333,-0.034412211355324455,1.3774766156541327
405,1791295873.4474006,-0.15587178132971935,0.2632077586894133,0.2557783103475756,0.3987441291021912,-0.031153852048863125,-1.372439689454196,-0.0284055515756563,1.373087083562776
406,1791295873.472478,-0.045700882892219345,0.2727878368144133,0.19350780253507557,0.3375604305201798,-0.03538227805289042,-1.3668150700645298,-0.021158707455186613,1.367436664806415
407,1791295873.492478,0.15069071867028067,0.2632077586894133,0.08333690409757556,0.31453307697639465,-0.038091252370214136,-1.3621981360715971,-0.01583078985283414,1.362822556069362
408,1791295873.5027869,0.07884013273278066,0.21051732900191333,0.12165721659757556,0.2556047548260629,-0.03910067381005387,-1.3598090373318712,-0.013337962046950869,1.3604364674373428
409,1791295873.5227869,0.026149703045280658,0.22488744618941334,0.15039745097257556,0.2718042745837543,-0.04060777159439796,-1.3552161970712542,-0.008819092712446465,1.3558531293301668
410,1791295873.5478961,0.10758036710778066,0.15303686025191332,0.23182811503507555,0.297889393741242,-0.041964224754191363,-1.3496032606145942,-0.0032769939070703517,1.3502594920643334
411,1791295873.5678961,0.2560715780452807,-0.00024438974808667916,0.07375682597257556,0.266482236155617,-0.042337119829020546,-1.3455738920079328,0.0009336032933761973,1.346240098267728
412,1791295873.592935,0.3662424764827807,-0.09125513193558668,-0.17053516621492446,0.4141778526198297,-0.04156528148432983,-1.3414578413055465,0.005232596411815119,1.3421118406042833
413,1791295873.612935,0.14590067960778066,-0.043354741310586684,-0.24717579121492447,0.2902800607462457,-0.04027303451155474,-1.338865198883431,0.007524794784400448,1.3394919039047923
414,1791295873.6224918,0.05967997648278066,0.10513646962691332,-0.16095508808992445,0.2013005643822974,-0.039600819907828405,-1.3377678805981985,0.008163270260464378,1.338378782811097
415,1791295873.6424918,0.39019267179528067,-0.01461450693558668,-0.24717579121492447,0.462125282470494,-0.037730248054586496,-1.3356801420051951,0.008686821474682747,1.3362411736780946
416,1791295873.6674922,0.5530539999202807,-0.2445363819355867,-0.48188770527742447,0.7732286398055306,-0.033974125906665834,-1.3339478024223788,0.007876090290085952,1.3344036172076548
417,1791295873.6874921,0.3183420858577807,-0.4457180225605867,-0.5489482521524245,0.7754678734833598,-0.03011290650106263,-1.3338052089764614,0.005778548509302515,1.3341576047280013
418,1791295873.7127218,0.18422099210778067,-0.4169777881855867,-0.45314747090242447,0.6427678275696308,-0.02502170059012034,-1.335284727556508,0.001633239649238609,1.335520144594544
419,1791295873.7327218,0.3662424764827807,-0.5079885303730867,-0.46272754902742447,0.7786544054969291,-0.020765507840808314,-1.3376690880562154,-0.002533716335514389,1.3378326558936668
420,1791295873.7428217,0.46204325773278065,-0.7187502491230867,-0.49625782246492445,0.9881081514634157,-0.01831113617121978,-1.3396218087186775,-0.005048787388599059,1.3397564623306273
421,1791295873.7628217,0.3662424764827807,-1.0588430225605867,-0.5585283302774244,1.2518929641658536,-0.012937546189407316,-1.3455749869965974,-0.010864295990402032,1.3456810389760507
422,1791295873.787421,0.34229228117028065,-1.2887648975605868,-0.5489482521524245,1.4420205097273429,-0.006012399073330891,-1.356130082971707,-0.018987483708448605,1.3562763270886373
423,1791295873.807421,0.2943918905452807,-1.2025441944355868,-0.48188770527742447,1.3285311006096547,-0.00027157401020644,-1.3671614115952684,-0.026147472430752154,1.3674114557886834
424,1791295873.8324764,0.28960185148278067,-1.0348928272480866,-0.41482715840242446,1.151934879938976,0.0069389924220059586,-1.3831126790874158,-0.03545689528240413,1.3835844839008815
425,1791295873.8524764,0.4285129842952807,-1.1306936084980868,-0.3908769630899245,1.2707777989414493,0.012908501067496445,-1.3971839200557312,-0.04298185252478302,1.3979044944160426
426,1791295873.8630307,0.5674241171077807,-1.3079250538105867,-0.48188770527742447,1.5049431336627017,0.01637453389478059,-1.4054260444018023,-0.04704809540637375,1.4063086485279592
427,1791295873.8830307,0.5530539999202807,-1.4420461475605868,-0.5728984474649245,1.6472942814293603,0.023638038057127123,-1.4228267046988439,-0.0551798286251658,1.424092483631054
428,1791295873.9228985,0.38061259367028066,-1.4133059131855867,-0.43398731465242446,1.5266448637404135,0.038736968873915124,-1.460847909427141,-0.07196880693827157,1.4631324876467289
429,1791295873.9428985,0.48120341398278066,-1.4085158741230868,-0.35255665058992447,1.529630636840343,0.0464679971814027,-1.4812931855415976,-0.0803075771339444,1.4841961067322433
430,1791295873.9530876,0.5530539999202807,-1.4276760303730867,-0.4579375099649245,1.5980720689513823,0.05060616345370881,-1.4923140709632463,-0.08453792187250765,1.4955630813873826
431,1791295873.9730875,0.3662424764827807,-1.6049074756855868,-0.6207988380899245,1.7593330425094398,0.05888945175054589,-1.5152507951064922,-0.09321416538701824,1.519256996109327
432,1791295873.9831376,0.23691142179528066,-1.4803664600605868,-0.5920586037149245,1.6118763191021328,0.06288210507626019,-1.5273732483783835,-0.09783422755970451,1.5317946125649355
433,1791295874.0031376,0.33271220304528065,-1.4468361866230868,-0.39566700215242445,1.5364194536550122,0.07049023598004144,-1.5522695518710916,-0.10713079225833229,1.5575579095765588
434,1791295874.0281112,0.23691142179528066,-1.4564162647480867,-0.28549610371492445,1.5029249426489113,0.07963227419863522,-1.584131855216289,-0.1182738168252782,1.5905356737751806
435,1791295874.0481112,0.28002177335778067,-1.4803664600605868,-0.3812968849649245,1.5541185167517644,0.08663081725891444,-1.610226247721215,-0.1268592554809325,1.617537244718176
436,1791295874.0724869,0.41893290617028067,-1.6240676319355867,-0.46272754902742447,1.7398900073286439,0.0951588907913793,-1.642934635386329,-0.1372965139153141,1.651405390381766
437,1791295874.0924869,0.36145243742028066,-1.7438186084980867,-0.38608692402742445,1.8222552830946115,0.1022770814179817,-1.6707978082064945,-0.1458488439664294,1.6802671819021373
438,1791295874.102802,0.23691142179528066,-1.8348293506855868,-0.24717579121492447,1.866499836506041,0.10586058189912297,-1.6857814792684063,-0.1500880639027883,1.6957570833024653
439,1791295874.122802,0.40935282804528067,-2.534175053810587,-0.16095508808992445,2.572065217207098,0.11273578327004403,-1.7170288937843659,-0.1576867272917683,1.7279359602959428
440,1791295874.147982,0.6392747030452807,-2.457534428810587,-0.5585283302774244,2.600019521170081,0.12207356931184335,-1.7598949564081066,-0.16717713746311236,1.7720272032916382
441,1791295874.1679819,0.35187235929528066,-2.2324025928730866,-0.6734892677774245,2.358182199855193,0.12986462030507523,-1.7958705357401532,-0.17543253687989085,1.8090860609000117
442,1791295874.1928947,0.3279221639827807,-2.371313725685587,-0.6112187599649245,2.4706780655903082,0.13938392814789732,-1.8425632234403428,-0.18657375342731577,1.8572228938037463
443,1791295874.2128947,0.14111064054528066,-2.414424077248087,-0.4579375099649245,2.46151632143751,0.14658324821693638,-1.881603912074438,-0.19578001355464306,1.8974324083611287
444,1791295874.2373247,0.11716044523278066,-2.4862746631855868,-0.3286064552774245,2.5106314889238006,0.1545313584766852,-1.9311183010587483,-0.20677981403904763,1.9482955948548206
445,1791295874.2573247,0.04530985929528066,-2.4623244678730867,-0.4196171974649245,2.498234048451857,0.16030586777126862,-1.972996475149565,-0.21555651398911044,1.9912000584867522
446,1791295874.2682753,-0.17503193757971935,-2.577285405373087,-0.5345781349649245,2.637955652073136,0.16288678158352524,-1.9966255484954196,-0.22042485887543606,2.0153493004761063
447,1791295874.2882752,-0.28520283601721935,-2.3761037647480867,-0.4770976662149245,2.440252433997357,0.1662031175547584,-2.0407381024058884,-0.22950013473252115,2.0603169151221254
448,1791295874.3132498,-0.15108174226721935,-2.227612553810587,-0.4387773537149245,2.275435990941977,0.16890594376545617,-2.0961832798699085,-0.24084834167035477,2.116724234360921
449,1791295874.3332498,-0.045700882892219345,-2.237192631935587,-0.5776884865274244,2.3110264885003704,0.1704505605416137,-2.14062153417023,-0.25009766532016253,2.1619118363940872
450,1791295874.3587153,-0.16545185945471935,-2.218032475685587,-0.5824785255899245,2.299200646695797,0.1717189919345721,-2.197225444959103,-0.2623238794770139,2.2194821211063234
451,1791295874.3787153,-0.36663350007971934,-2.1892922413105866,-0.4483574318399245,2.2646070360946795,0.17176763078745408,-2.241623471056805,-0.2720319798052844,2.2645929663000977
452,1791295874.3877714,-0.4097438516422194,-2.1366018116230867,-0.4914677834024245,2.230358246451038,0.1712590303017192,-2.261649748794528,-0.27640681041868187,2.284904804697138
453,1791295874.4077713,-0.4097438516422194,-2.0360109913105866,-0.6303789162149245,2.1703935953426563,0.16907506131086508,-2.305501745543033,-0.28630195735713654,2.329354735939928
454,1791295874.4322937,-0.41453389070471935,-2.218032475685587,-0.7070195412149245,2.364610547510623,0.1652829419144771,-2.35902817112958,-0.29907437589373176,2.3836480120577996
455,1791295874.4522936,-0.4576442422672194,-2.3521535694355866,-0.7022295021524245,2.497036431528813,0.1613458052475635,-2.402990411558134,-0.3100426725129032,2.4282754880141297
456,1791295874.4776375,-0.4001637735172194,-2.3761037647480867,-0.6926494240274245,2.5071424712391384,0.1554745354145207,-2.4593303031593887,-0.32450818134267956,2.4855147215332973
457,1791295874.4976375,-0.25646260164221935,-2.1988723194355866,-0.7261796974649245,2.329838942122691,0.15055131137216146,-2.5039840018025705,-0.3363394862374156,2.530953541383473
458,1791295874.5081856,-0.19898213289221936,-2.2467727100605868,-0.6974394630899244,2.3609327191935163,0.14798394689581074,-2.5275190333310653,-0.3427696420528423,2.5549447625932538
459,1791295874.5281856,-0.06007100007971935,-2.467114506935587,-0.7932402443399245,2.592198410736158,0.14345764671358643,-2.572520346689982,-0.3553688899666789,2.600909086933008
460,1791295874.552653,-0.17982197664221936,-2.553335210060587,-0.7070195412149245,2.6555099830123816,0.1383106721831198,-2.628528617145517,-0.3712235165471208,2.658213579159937
461,1791295874.572653,-0.13671162507971935,-2.4623244678730867,-0.6399589943399244,2.547798926123289,0.1342597570980585,-2.674966615673907,-0.3842597684436962,2.7057582388288774
462,1791295874.5978472,-0.12713154695471934,-2.328203374123087,-0.6543291115274245,2.421743167163169,0.12942367875760497,-2.7337422518520196,-0.40066401482910524,2.765977013816832
463,1791295874.6178472,-0.026540726642219344,-2.4527443897480867,-0.6160087990274244,2.529056403501239,0.1259299846945549,-2.7805730377689635,-0.41363842763419123,2.8139903212748583
464,1791295874.6264682,-0.016960648517219346,-2.313833256935587,-0.4387773537149245,2.3551300538680113,0.12462179669931861,-2.800813399747237,-0.4190741438193953,2.8347326911781647
465,1791295874.6464682,-0.16545185945471935,-2.1557619678730866,-0.4100371193399245,2.2006395477591623,0.12176852003731677,-2.847430409719309,-0.4310662286286087,2.8824478493340417
466,1791295874.6722891,-0.19898213289221936,-2.347363530373087,-0.5106279396524245,2.41048757011722,0.11793160326153469,-2.907308187556677,-0.4460091849929643,2.9436835688606227
467,1791295874.692289,-0.16545185945471935,-2.5293850147480867,-0.48667774433992445,2.5810885489391873,0.11485880750893057,-2.9540455726376926,-0.45734327019769894,2.9914445770693883
468,1791295874.718385,-0.21335225007971936,-2.3521535694355866,-0.43398731465242446,2.4013518247232897,0.11070945366495369,-3.015434955927167,-0.47171554189495796,3.054115274350908
469,1791295874.738385,-0.12234150789221936,-2.3186232959980866,-0.4914677834024245,2.3732934954237885,0.10750284379789775,-3.0624328310239535,-0.48246644660933347,3.102067951876918
470,1791295874.7477453,-0.06965107820471934,-2.3856838428730867,-0.5393681740274244,2.4468871445153444,0.10609242715523858,-3.0844317637786474,-0.48746697486032625,3.1245157961011856
471,1791295874.7677453,-0.06486103914221934,-2.356943608498087,-0.5058379005899245,2.411485457080721,0.10332909322886824,-3.1314996488106797,-0.4981166257255031,3.1725521469052436
472,1791295874.7927902,0.006989546795280657,-2.323413335060587,-0.48667774433992445,2.3738478481439285,0.10027906886525134,-3.190390614565851,-0.5113165314258222,3.232660322469975
473,1791295874.8127902,-0.08402119539221935,-2.3856838428730867,-0.6207988380899245,2.4665640386567373,0.09809322665837364,-3.237428249944006,-0.5219375737057506,3.280698520970436
474,1791295874.8521936,-0.16545185945471935,-2.491064702248087,-0.6926494240274245,2.590857173444514,0.09369545374057651,-3.330611769175103,-0.5436056564592151,3.375982924239075
475,1791295874.8721936,-0.10797139070471935,-2.5150148975605866,-0.6686992287149245,2.6046336430765717,0.09138797042041642,-3.3783234214395,-0.5549960254752843,3.4248272203539867
476,1791295874.8821726,-0.24209248445471934,-2.371313725685587,-0.5585283302774244,2.448201677226941,0.09014735075214092,-3.402215383851846,-0.5607452643427446,3.4492943212269673
477,1791295874.9021726,-0.28520283601721935,-2.285093022560587,-0.5154179787149245,2.3597979727531597,0.0872429208117459,-3.449901719127381,-0.5721504375295372,3.4981122512056504
478,1791295874.9272866,-0.10318135164221935,-2.2324025928730866,-0.5633183693399245,2.3046898518518684,0.08341133897407628,-3.5093086086822676,-0.5863555911877489,3.5589348465177126
479,1791295874.9472866,-0.06007100007971935,-2.3329934131855867,-0.6639091896524245,2.4263639881771346,0.08057282068107638,-3.556369874813776,-0.5978120559302289,3.6071648035723274
480,1791295874.9579122,-0.07923115632971935,-2.424004155373087,-0.6255888771524245,2.5046826474857387,0.07917996587842108,-3.5814131465541346,-0.6040132901392289,3.6328531002467073
481,1791295874.9779122,-0.20377217195471936,-2.433584233498087,-0.40524708027742445,2.475496014068088,0.0765270217441018,-3.628766453084334,-0.6154809468444234,3.681388209903404
482,1791295875.0020504,-0.32831318757971933,-2.3090432178730866,-0.2998662209024245,2.3514654753116737,0.07284216348928292,-3.6859309173668,-0.6285218422195682,3.739843902428193
483,1791295875.0220504,-0.16545185945471935,-2.3952639209980866,-0.3908769630899245,2.4325805987277285,0.06950635630159682,-3.733246979547383,-0.6387423565785763,3.788133569708642
484,1791295875.0321715,-0.06965107820471934,-2.424004155373087,-0.49625782246492445,2.4752614496894467,0.06789300465509261,-3.757258088234063,-0.6438120938541142,3.8126226949272337
485,1791295875.0521715,-0.11755146882971935,-2.400053960060587,-0.5154179787149245,2.4575868350495997,0.06490232444958718,-3.804824584369272,-0.6538450235059379,3.8611417669263637
486,1791295875.077476,-0.16066182039221935,-2.3521535694355866,-0.5585283302774244,2.4228892938933053,0.06115800863995752,-3.864998655786594,-0.666673064114738,3.922551196054567
487,1791295875.097476,-0.20377217195471936,-2.4287941944355866,-0.6734892677774245,2.5286660773614464,0.058095870118817686,-3.912595922872622,-0.6771391606609642,3.9711836306956347
488,1791295875.1226885,-0.23251240632971937,-2.5054348194355867,-0.6926494240274245,2.609794796175169,0.053989698715893514,-3.972928312271018,-0.690937218158443,4.032923071600623
489,1791295875.1426885,-0.22772236726721937,-2.4623244678730867,-0.5681084084024245,2.5372517465434528,0.05053068982552662,-4.021060105558185,-0.7021319330291234,4.082213489579527
490,1791295875.152385,-0.2612526407047194,-2.3186232959980866,-0.45314747090242447,2.3768907340064,0.04874962862641309,-4.044372141752846,-0.707487979940687,4.106076203510873
491,1791295875.172385,-0.24688252351721934,-2.2659328663105867,-0.4914677834024245,2.3317253948883505,0.04486485014308077,-4.092119892673642,-0.718295182969261,4.154925515658559
492,1791295875.1972556,-0.17503193757971935,-2.4383742725605866,-0.5537382912149245,2.506577620464985,0.03997163178817292,-4.151364339166499,-0.7316680488572254,4.2155381319079135
493,1791295875.2172556,-0.15587178132971935,-2.4527443897480867,-0.5249980568399245,2.5131402693326352,0.03613058380408459,-4.1991967460853665,-0.7424269924985424,4.264476119127692
494,1791295875.2428334,-0.25167256257971937,-2.323413335060587,-0.44356739277742446,2.378726683801265,0.031173340246664166,-4.260355555803259,-0.7559806075740563,4.327020674555863
495,1791295875.2628334,-0.21814228914221936,-2.2755129444355866,-0.4579375099649245,2.3313626877084133,0.02717384292971577,-4.307902447934203,-0.7663411201899579,4.375618885500778
496,1791295875.2723286,-0.11755146882971935,-2.371313725685587,-0.5297880959024245,2.4326164021499155,0.025320787909741512,-4.330399153711274,-0.7712254965199941,4.398611910506109
497,1791295875.2923286,-0.07923115632971935,-2.4623244678730867,-0.6112187599649245,2.538288347243647,0.021707968308774427,-4.37792693200581,-0.7816818244830316,4.4472173246421205
498,1791295875.3175442,-0.10318135164221935,-2.443164311623087,-0.6160087990274244,2.521738504562802,0.017491262153442454,-4.438137916783538,-0.7952084047263632,4.5088502436420415
499,1791295875.3375442,-0.25646260164221935,-2.3665236866230868,-0.5154179787149245,2.43554164780071,0.014108958850429365,-4.485945753947499,-0.806024953873239,4.557804800158274
500,1791295875.36214,-0.24209248445471934,-2.304253178810587,-0.5058379005899245,2.3715107979432384,0.00965369535643109,-4.544536324699268,-0.8192155978954421,4.617793606927486
501,1791295875.38214,-0.09839131257971935,-2.4527443897480867,-0.5920586037149245,2.5251077763265353,0.006063598882955313,-4.592168211422197,-0.8299794978442967,4.6665738627037525
502,1791295875.3929915,-0.026540726642219344,-2.5150148975605866,-0.5968486427774244,2.5850014792080174,0.004306187999670844,-4.618178887197157,-0.8359113656508796,4.693223049103141
503,1791295875.4129915,0.026149703045280658,-2.543755131935587,-0.5154179787149245,2.5955788701175253,0.001552468564649787,-4.666514960212936,-0.8468725369986996,4.742737329641227
504,1791295875.4371374,-0.07923115632971935,-2.5916555225605866,-0.5010478615274244,2.6408341264254624,-0.0013695234721190185,-4.725417312840673,-0.8599616395153075,4.803030780405926
505,1791295875.4571373,-0.21335225007971936,-2.7018264209980867,-0.5872685646524245,2.773133527049559,-0.0038656392433860454,-4.7748279832776825,-0.8708095516068809,4.8535869713262745
506,1791295875.4821353,-0.2804127969547194,-2.922168217873087,-0.6591191505899244,3.008676866151951,-0.0074432807949253756,-4.837866690025638,-0.8846713091831906,4.918094431604635
507,1791295875.5021353,-0.22293232820471937,-3.262260991310587,-0.7692900490274245,3.359144649746141,-0.010631291241946813,-4.890013120709407,-0.8962406802468305,4.971477516995619
508,1791295875.512453,-0.19898213289221936,-3.3676418506855867,-0.8507207130899245,3.4791279446694126,-0.012355748461241703,-4.91801014878059,-0.9025675520150629,5.000160464823042
509,1791295875.532453,-0.46243428132971937,-3.2047805225605868,-0.7692900490274245,3.328103189786227,-0.01618915010926197,-4.973997687169573,-0.915421948186147,5.057559927847661
510,1791295875.558075,-0.42411396882971936,-3.1041897022480867,-0.6830693459024245,3.206625967806524,-0.022067089757921095,-5.047087857183833,-0.9322104184542918,5.132504170369236
511,1791295875.578075,-0.35226338289221937,-3.0083889209980867,-0.5106279396524245,3.0716826469647516,-0.02713163530655039,-5.1047516422259624,-0.9451400203711959,5.191581176534788
512,1791295875.6022768,-0.26604267976721935,-3.022759038185587,-0.4483574318399245,3.067389003220242,-0.03346324008793248,-5.175010863846941,-0.9601798491308465,5.263440184142685
513,1791295875.6222768,-0.41453389070471935,-2.9317482959980867,-0.35734668965242444,2.982395526122587,-0.03893157760702341,-5.233294407337641,-0.9719527467280684,5.322929471961716
514,1791295875.6475685,-0.7450465860172194,-2.697036381935587,-0.17053516621492446,2.8032448882921495,-0.0470090603141325,-5.306620348465394,-0.9856087311608884,5.397578526102161
515,1791295875.6675684,-0.8504274453922194,-2.2324025928730866,-0.007673838089924448,2.388913364761026,-0.05483160663429222,-5.363301053668149,-0.9950550116507695,5.455102123111472
516,1791295875.6771224,-0.6157155313297193,-1.8970998584980867,-0.007673838089924448,1.9945306155647573,-0.059058440107346656,-5.38927474096617,-0.9989015911308016,5.481384361794704
517,1791295875.6971223,-0.5726051797672194,-1.6767580616230868,0.030646474410075553,1.7720986133700427,-0.06836203970298732,-5.4408524428471905,-1.0057116381315905,5.53344418715703
518,1791295875.7223196,-0.8600075235172194,-1.3510354053730866,0.12644725566007556,1.6065175117445207,-0.08103246836221367,-5.501808133676266,-1.0127075396186436,5.594822210000568
519,1791295875.7423196,-1.1330397500797194,-1.2696047413105866,0.14560741191007556,1.7078866451911219,-0.09257046658410656,-5.546864412745294,-1.017019422649712,5.6400888832278655
520,1791295875.767898,-1.2336305703922195,-1.0588430225605867,0.13602733378507556,1.6314093190147432,-0.10965346775031957,-5.600311383569924,-1.0211665311109142,5.693706399191448
521,1791295875.787898,-1.0468190469547194,-0.7858107959980867,0.09291698222257555,1.3122356075643138,-0.12442784441033328,-5.638600291354031,-1.0235793664960453,5.732103475482522
522,1791295875.7975423,-1.0180788125797193,-0.4936184131855867,0.04501659159757555,1.1323295015050392,-0.1319771758747079,-5.655219657277245,-1.024468573813465,5.748779279615649
523,1791295875.8175423,-0.8216872110172194,-0.2349563038105867,0.19350780253507557,0.8762531638125725,-0.14804405167528212,-5.6856075248705285,-1.0256781959903325,5.779278997403638
524,1791295875.842141,-0.5773952188297193,-0.2828566944355867,0.12644725566007556,0.6552725057397196,-0.16742218934669237,-5.718331571247824,-1.0263525016809847,5.81212057737295
525,1791295875.862141,-0.6875661172672194,-0.3355471241230867,-0.07473438496492445,0.7687159855351515,-0.18271177570407285,-5.741874621370314,-1.0267409421615503,5.835812259045711
526,1791295875.8880467,-1.0180788125797193,-0.11999536631058669,-0.11784473652742446,1.0318772884829674,-0.20285956703642044,-5.768680600524793,-1.0275427843661462,5.862991731915731
527,1791295875.9080467,-1.2288405313297195,0.38774877431441335,-0.03641407246492445,1.2890787982487797,-0.21945136419285,-5.785869640630703,-1.0283003587519135,5.880633301560936
528,1791295875.9173074,-1.0803493203922194,0.7661618602519134,-0.06036426777742445,1.3258214415979654,-0.22758537937298434,-5.791833424340008,-1.0286657408145738,5.886873765126278
529,1791295875.9373074,-0.5821852578922194,0.7086813915019133,-0.20885547871492446,0.9406325532094658,-0.24501096656077784,-5.800569008392685,-1.02974030980904,5.896354492439066
530,1791295875.962885,-0.5821852578922194,0.5937204540019133,-0.15616504902742445,0.8460680673237857,-0.26618702417694867,-5.8075665781121915,-1.0316086411727208,5.904481474235325
531,1791295875.982885,-0.9222780313297194,0.7709518993144133,-0.07952442402742445,1.20469404088624,-0.28251827469363694,-5.810170470243074,-1.0332039518726788,5.908079880552211
532,1791295876.0073326,-1.1905202188297195,1.2260056102519135,0.021066396285075555,1.7090558624176009,-0.30336086706284376,-5.8092144121462175,-1.034968710588923,5.908482049888155
533,1791295876.0273325,-1.2719508828922195,1.4559274852519133,-0.02683399433992445,1.933469408616152,-0.3215477138910693,-5.804526710007534,-1.0362045078727646,5.905052331828677
534,1791295876.03742,-0.9318581094547194,1.1110446727519134,-0.15137500996492445,1.4579760610684975,-0.331012073500787,-5.800574931301833,-1.0368691434411499,5.901807871073993
535,1791295876.05742,-0.45285420320471936,1.0344040477519134,-0.15616504902742445,1.1399369218967608,-0.34903899060787663,-5.7906970101147826,-1.0384505328910727,5.893418328031585
536,1791295876.0817444,-0.40495381257971935,1.3313864696269133,-0.08910450215242445,1.3944594415515632,-0.36923994004643806,-5.776169341029974,-1.0405328083707857,5.880746458985979
537,1791295876.1017444,-0.5438649453922194,1.7433298290019135,0.09291698222257555,1.8285572282812679,-0.3847813186130587,-5.761404092889793,-1.041982361913226,5.867500407094926
538,1791295876.1275702,-0.5294948282047194,1.7241696727519134,0.025856435347575552,1.8038277048492932,-0.40391848044327483,-5.7384815258319595,-1.04334332871624,5.846527658596595
539,1791295876.1475701,-0.43369404695471936,1.5708884227519133,-0.21843555683992447,1.644230840117021,-0.4179604407987453,-5.718449993972558,-1.0445280635944236,5.828070018391487
540,1791295876.158564,-0.026540726642219344,1.4942477977519133,-0.3812968849649245,1.5423580018079768,-0.4249009425867204,-5.706563039803239,-1.045576130905674,5.81709824429493
541,1791295876.178564,-0.03133076570471934,1.7241696727519134,-0.2615459084024245,1.744175719220725,-0.435719864876003,-5.6833545914789125,-1.0481610232596843,5.795602880099082
542,1791295876.20218,0.09800028898278067,1.6092087352519133,-0.007673838089924448,1.612208329603467,-0.44646045200645923,-5.654156835420818,-1.0512322513213308,5.768353812047237
543,1791295876.22218,0.24170146085778066,1.4223972118144135,0.011486318160075552,1.4428324087928845,-0.4536825676605386,-5.628591273505606,-1.053437372181876,5.744266523542581
544,1791295876.247289,0.48120341398278066,1.3313864696269133,0.006696279097575553,1.4156947048315367,-0.4600281862638926,-5.596123480812158,-1.0557562944133339,5.713391750777099
545,1791295876.267289,0.8117161092952807,1.4319772899394134,-0.04599415058992445,1.6466807410303261,-0.4623850845521675,-5.569996249796674,-1.0573852581967056,5.688296913261213
546,1791295876.2923496,1.0320579061702808,1.5134079540019134,-0.23280567402742447,1.846549657817034,-0.4614299032908396,-5.536632694039019,-1.0596442509230775,5.655976050414914
547,1791295876.3123496,1.0464280233577807,1.3361765086894133,-0.4291972755899245,1.750596918715361,-0.45766422675531443,-5.50972603440803,-1.0621696501713715,5.629808334608768
548,1791295876.322571,1.0607981405452807,0.8667526805644133,-0.5872685646524245,1.4904486811959812,-0.45441294355334005,-5.496348631740789,-1.0640459513658798,5.61680809637696
549,1791295876.342571,1.0176877889827807,0.48354955556441337,-0.6351689552774245,1.2934249921349972,-0.4458878055387021,-5.472074386697148,-1.0690001995643088,5.59331524727005
550,1791295876.3675792,0.9889475546077807,0.37816869618941334,-0.5633183693399245,1.1993149768839302,-0.4330631905763425,-5.444658263727353,-1.0765137211361295,5.566931751656479
551,1791295876.3875792,0.9841575155452807,0.3829587352519133,-0.48667774433992445,1.1627891619488897,-0.42138566595494614,-5.424879741901769,-1.0831962280095877,5.5479906418398635
552,1791295876.4129596,1.1182786092952808,0.10992650868941332,-0.5058379005899245,1.2322754834018461,-0.40478746091148143,-5.402607084598211,-1.0922937081535005,5.526764129572897
553,1791295876.4329596,1.3386204061702807,-0.1439455616230867,-0.6255888771524245,1.4845828908293752,-0.3899845008611999,-5.387739703023254,-1.1000844141581199,5.512713736148347
554,1791295876.4427917,1.4104709921077807,-0.22537622568558668,-0.5872685646524245,1.5443792376585184,-0.38177162997487635,-5.381799464050585,-1.1042342634380924,5.507163367584033
555,1791295876.4627917,1.6308127889827808,-0.2972268116230867,-0.4483574318399245,1.7172415429820915,-0.36300948182741466,-5.3723125695007985,-1.1129628778032392,5.498381997977309
556,1791295876.4878693,1.9134250936702808,-0.4936184131855867,-0.3286064552774245,2.003206661673471,-0.3363467490610835,-5.3636888905306614,-1.123727147645115,5.490450833252277
557,1791295876.5078692,1.9565354452327808,-0.6900100147480868,-0.14179493183992445,2.0794832462899,-0.3124672627613902,-5.359618376867163,-1.131729800943032,5.486707325736662
558,1791295876.5329444,2.042756148357781,-0.6660598194355867,-0.16095508808992445,2.154621754531899,-0.2794977413732098,-5.357830721972211,-1.140827567474117,5.485066687967512
559,1791295876.5529444,2.325368453045281,-0.8097609913105868,-0.36692676777742445,2.4895153259978327,-0.2505935399492788,-5.358832492344965,-1.1477873124178084,5.486100483751985
560,1791295876.5629802,2.387638960857781,-0.9055617725605867,-0.41482715840242446,2.5870723806413545,-0.23471792881302778,-5.360550859064292,-1.1513441939865645,5.487822106423254
561,1791295876.5829802,2.354108687420281,-0.9582522022480867,-0.36692676777742445,2.5680167928213655,-0.20071294987292806,-5.3662573908928275,-1.158541974784661,5.49356201210986
562,1791295876.6073925,2.4690696249202806,-0.9438820850605867,-0.5297880959024245,2.695903119506006,-0.15660094219282827,-5.3756607496415825,-1.1676516935706323,5.503241120270049
563,1791295876.6273925,2.5169700155452808,-1.2696047413105866,-0.8219804787149245,2.936441071382286,-0.11840374609693072,-5.385529164864286,-1.1760230514863075,5.513707831425307
564,1791295876.652771,2.3828489217952806,-1.3366652881855867,-0.8603007912149245,2.864395316311318,-0.06787855057274139,-5.401133832659857,-1.18825430822567,5.530714463516236
565,1791295876.672771,2.4930198202327807,-1.2121242725605867,-0.7309697365274245,2.866829229640822,-0.02672001706815043,-5.41540993447186,-1.1988344244086444,5.546582974664298
566,1791295876.6826346,2.823532515545281,-1.1163234913105868,-0.6639091896524245,3.1079397381059786,-0.005533161674421732,-5.423117052438052,-1.2043015429999009,5.555229193003151
567,1791295876.7026346,2.8187424764827806,-0.9726223194355867,-0.7309697365274245,3.070117274748884,0.03944588096288448,-5.439533719792777,-1.215816462270777,5.573893857638143
568,1791295876.726875,2.593610640545281,-0.9055617725605867,-0.7309697365274245,2.8427407610247797,0.0956241371862139,-5.45986113937566,-1.230337245164467,5.597584959044033
569,1791295876.746875,2.507389937420281,-0.9055617725605867,-0.7932402443399245,2.781416277265957,0.14267373270471864,-5.476833546699845,-1.242807058179098,5.617884911256236
570,1791295876.7722726,2.574450484295281,-0.8576613819355867,-0.9273613380899245,2.8676431775128166,0.20313886681773916,-5.498512117471932,-1.2595443584417672,5.644586158088132
571,1791295876.7922726,2.387638960857781,-0.8432912647480867,-0.7884502052774245,2.6520960938111697,0.2510546670077635,-5.515574215678466,-1.2733212781308598,5.666209884201636
572,1791295876.802418,2.0810764608577808,-1.1163234913105868,-0.6351689552774245,2.4455054640986633,0.27511532656539484,-5.524422152831511,-1.280344865935139,5.677518079348863
573,1791295876.822418,2.028386031170281,-1.4276760303730867,-0.5489482521524245,2.5404631315352284,0.32159628679111724,-5.543064020860249,-1.2938899772264394,5.701152005007431
574,1791295876.8481421,2.1337668905452807,-1.0684231006855867,-0.36213672871492447,2.413634619313832,0.3804430110936979,-5.568260528461927,-1.3104563225731385,5.733023458079432
575,1791295876.8681421,2.5600803671077808,-0.5510988819355868,-0.5728984474649245,2.680659264962461,0.4263730089429405,-5.5873410821268825,-1.3228068491505802,5.757602996989072
576,1791295876.90761,2.3972190389827808,-0.7331203663105867,-0.9225712990274245,2.6711911938590327,0.5180892656362251,-5.623147889020313,-1.3479501386482229,5.805616095234238
577,1791295876.92761,1.9325852499202807,-1.0253127491230867,-1.0710625099649245,2.4358421299370243,0.5640889400368356,-5.641208614180922,-1.3617705640703812,5.830596027006972
578,1791295876.9228585,1.6835032186702807,-0.8097609913105868,-0.9082011818399245,2.0771916948170515,0.5640889400368356,-5.641208614180922,-1.3617705640703812,5.830596027006972
579,1791295876.9428585,1.9325852499202807,-0.6037893116230867,-0.8028203224649245,2.1780651393386745,0.6073583407218318,-5.658717528329485,-1.3768459100471075,5.855396901959865
580,1791295876.9683712,2.1337668905452807,-0.5606789600605867,-0.7070195412149245,2.3167215350796178,0.6620557147357775,-5.679930433407809,-1.3960809720838523,5.886337535206516
581,1791295876.9883711,2.2966282186702807,-0.9007717334980867,-0.5345781349649245,2.524215655019268,0.7051480370914542,-5.696257493460341,-1.4107603482805122,5.910569172786794
