imu_index,t_imu,ax,ay,az,mag,vx,vy,vz,velocity
0,1790651490.5902998,-0.007918227838010038,0.023168148118622355,0.00014663384885255204,0.024484340318389034,0.0,0.0,0.0,0.0
1,1790651490.6102998,0.030402084661989966,-0.010362125318877646,-0.03338363958864745,0.04632631849287875,2.3630022207140324e-05,4.8748376560741534e-05,-4.9668503084784436e-05,7.349654662296072e-05
2,1790651490.6200087,0.10704270966198996,-0.12053302375637766,-0.10523422552614746,0.19251128208425772,0.00013346306782561937,-2.6450096177622784e-05,-0.00017109994152607815,0.00021860280888282
3,1790651490.6400087,0.07830247528698997,-0.10616290656887765,-0.06212387396364745,0.14581226314502177,0.0006037952167945067,-0.0004981641212202301,-0.0006347599543029295,0.001007797774894203
4,1790651490.66511,0.030402084661989966,-0.08221271125637765,0.004936672911352552,0.08779286635799637,0.0013101989027460995,-0.0013560312793877973,-0.001237058801263206,0.0022551621833513326
5,1790651490.68511,0.025612045599489965,-0.015152164381377646,0.019306790098852552,0.035472765738687385,0.0018726331773967816,-0.0020830705203308823,-0.0016086016124654962,0.00323009859870954
6,1790651490.710565,0.09746263153698997,-0.039102359693877646,-0.02859360052614745,0.10883727794645251,0.0027160611245368007,-0.002973188184167342,-0.002028280591060811,0.004508964201096123
7,1790651490.730565,0.10225267059948996,-0.06784259406887765,-0.03338363958864745,0.1271719057296344,0.0035789126191798416,-0.0037280657656328592,-0.00240152671567015,0.005698633209348176
8,1790651490.7547474,0.06872239716198997,-0.09658282844387765,-0.014223483338647449,0.11938726104653952,0.004775800897805367,-0.004802104980850639,-0.0028714740576192854,0.007356211642290454
9,1790651490.7747474,0.04477220184948996,-0.10616290656887765,0.00014663384885255204,0.11521776899024451,0.005787445842348218,-0.005861264559721685,-0.0032229586605922764,0.0088451350552182
10,1790651490.7845662,0.07830247528698997,-0.034312320631377645,-0.009433444276147448,0.08600931841429345,0.006300237691769352,-0.0064066981510605145,-0.0033764717541624853,0.00959892377708306
11,1790651490.8045661,0.08788255341198997,-0.07263263313137765,-0.01901352240114745,0.11558700888900751,0.007437348533218676,-0.007511463968324609,-0.003684930461135347,0.011194416315976998
12,1790651490.8302708,0.04477220184948996,-0.12053302375637766,-0.04296371771364745,0.13556784616598788,0.008935320444041295,-0.00909075637892647,-0.004141388016779562,0.013402719786827597
13,1790651490.8502707,0.06872239716198997,-0.16843341438137766,-0.04296371771364745,0.18691833508684255,0.010096259414809185,-0.010568684903391658,-0.004572161368574298,0.015314575225535478
14,1790651490.875277,0.11662278778698996,-0.12053302375637766,-0.03817367865114745,0.17200672716154408,0.011677678523087352,-0.012681329296336698,-0.005182144646379978,0.018001080843846787
15,1790651490.895277,0.08788255341198997,-0.10137286750637765,-0.009433444276147448,0.13449457733153425,0.013059529534160681,-0.014450423031979309,-0.005668239091047415,0.020285338839912216
16,1790651490.9051607,0.04956224091198996,-0.06305255500637764,-0.03338363958864745,0.08687063836092791,0.013741867366299036,-0.015315424197538185,-0.005904164742543796,0.02140701516724342
17,1790651490.9251606,0.10225267059948996,-0.04868243781887765,-0.07170395208864745,0.1340412068800029,0.015143218817532937,-0.016970838964712843,-0.006467590945867789,0.02364648354332987
18,1790651490.9502587,0.14536302216198996,-0.11574298469387766,-0.05733383490114745,0.19445826118318146,0.017104098860517867,-0.01904612689714514,-0.007311475680083166,0.02662259987741565
19,1790651490.9702587,0.06872239716198997,-0.13490314094387765,-0.009433444276147448,0.15169250205308496,0.018753412813955043,-0.02082777511010648,-0.007983224956749793,0.029141355303380398
20,1790651490.9953184,0.011241928411989963,-0.06305255500637764,0.009726711973852553,0.06478128258281764,0.02066028643816583,-0.023097351910566586,-0.008698112451664726,0.03218683366237533
21,1790651491.0153184,0.08309251434948997,-0.04389239875637765,-0.02859360052614745,0.09822679166377145,0.022095371716595327,-0.02479740329372467,-0.009211377693937525,0.034466884692796323
22,1790651491.025345,0.12141282684948997,-0.04868243781887765,-0.04296371771364745,0.13768418687471376,0.022860700025965307,-0.02559147093719137,-0.009483909159523884,0.03560167865919221
23,1790651491.045345,0.06872239716198997,-0.05826251594387765,-0.023803561463647448,0.09318743570972712,0.024443495765020768,-0.027098208143249727,-0.010046129614067274,0.03785131556514401
24,1790651491.0695992,0.030402084661989966,-0.010362125318877646,-0.023803561463647448,0.03997836829177215,0.02625535389116558,-0.028776184242477312,-0.01071226623414227,0.040400062318992624
25,1790651491.0895991,0.059142319036989965,0.008798030931122355,-0.03338363958864745,0.06848128679809398,0.027659623883883995,-0.029954644347365576,-0.01126495025616651,0.04229934533357452
26,1790651491.1153324,0.06872239716198997,-0.04389239875637765,-0.05254379583864745,0.09700598446184963,0.029442200547850416,-0.03131121492542324,-0.012035239856714732,0.04463274976532978
27,1790651491.1353323,0.0016618502869899627,-0.06305255500637764,-0.03817367865114745,0.07372663142291067,0.030725389245756015,-0.0323678149051679,-0.012680187520277195,0.04639517368851875
28,1790651491.1453662,-0.012708266900510037,-0.04868243781887765,-0.06212387396364745,0.0799428265440661,0.03126427791488926,-0.0329024750708476,-0.013030696029114686,0.04722104380814093
29,1790651491.1653662,-0.007918227838010038,-0.024732242506377646,-0.05733383490114745,0.06294085140797623,0.0321463578687742,-0.033918452451670196,-0.013803736366078718,0.04872774239186254
30,1790651491.205018,0.011241928411989963,-0.034312320631377645,-0.01901352240114745,0.04080723386398185,0.03364272872017943,-0.03580617579841396,-0.015333517333231562,0.05146874949768086
31,1790651491.225018,0.04956224091198996,-0.05347247688137765,-0.04296371771364745,0.08462625211969146,0.03437547536805662,-0.036747178272956565,-0.016082347535928136,0.05282679547417855
32,1790651491.2342336,0.09746263153698997,-0.05347247688137765,-0.07649399115114745,0.1349429546592795,0.03476408429226286,-0.03718965130045271,-0.016458202212238728,0.053502188185043056
33,1790651491.2542336,0.07830247528698997,-0.10137286750637765,-0.05254379583864745,0.1384506640781067,0.0357445976877559,-0.038238148069392755,-0.017345096963131492,0.055142403105928946
34,1790651491.2643032,0.09267259247448997,-0.18280353156887766,0.019306790098852552,0.20585940030495983,0.03629334090379073,-0.0389014773500105,-0.017749752629528638,0.05608551731402331
35,1790651491.2843032,0.14536302216198996,-0.17801349250637766,0.014516751036352553,0.23028232191602724,0.03757680791697785,-0.04056256584881066,-0.018382175965635024,0.05826871059754214
36,1790651491.3094018,0.20763352997448997,-0.19238360969387766,-0.04775375677614745,0.2870601981026787,0.03961034717806006,-0.0430316647984994,-0.019119340637983352,0.06153253582721993
37,1790651491.3294017,0.16931321747448996,-0.16843341438137766,-0.11960434271364745,0.26709919409780414,0.04155314185178781,-0.04524528211376913,-0.019869680550051436,0.06456472222870976
38,1790651491.3551564,0.08309251434948997,-0.20675372688137766,-0.06212387396364745,0.2313241129595241,0.04416722441900431,-0.04839296526261688,-0.021042010685189655,0.06881416288427238
39,1790651491.3751564,0.09746263153698997,-0.17322345344387766,-0.01901352240114745,0.19966683100414365,0.046163543032482796,-0.051040632148732355,-0.02193754050543196,0.07223208787569116
40,1790651491.3993473,0.14536302216198996,-0.09658282844387765,-0.04296371771364745,0.1797346154808936,0.04865654971981588,-0.05425225077055174,-0.022970693964527687,0.07640954996281378
41,1790651491.4193473,0.14057298309948996,-0.08700275031887765,-0.08128403021364745,0.18422088836044517,0.05083739593011762,-0.05678457088263308,-0.023883106609591948,0.07987071488728177
42,1790651491.4295528,0.0016618502869899627,-0.07742267219387765,-0.03338363958864745,0.084329705965346,0.051892172508835904,-0.05800877877531736,-0.02436661955774253,0.08155702380152341
43,1790651491.4495528,-0.0031281887755100373,-0.06784259406887765,-0.009433444276147448,0.06856670479118068,0.05364698362976323,-0.06026591996165981,-0.02523626439791784,0.08453903833235203
44,1790651491.4892976,0.054352279974489964,-0.07263263313137765,-0.009433444276147448,0.0912066861854646,0.05676382875791235,-0.06449732539316103,-0.026761471483830453,0.0899900749755703
45,1790651491.5092976,0.020822006536989963,-0.07263263313137765,-0.01901352240114745,0.07791385875390004,0.05820975176900543,-0.06652511333575556,-0.027456515550142616,0.09256255264144123
46,1790651491.5200367,-0.06060865752551004,-0.010362125318877646,-0.02859360052614745,0.06781133385517195,0.058837642490261494,-0.06751746603421689,-0.02781208605996002,0.09377626845049913
47,1790651491.5400367,-0.04623854033801004,-0.034312320631377645,0.00014663384885255204,0.057579158218802357,0.059671323290194714,-0.06915537264386738,-0.028417624831037932,0.09565925877693553
48,1790651491.549823,0.06393235809948997,-0.12532306281887765,-0.014223483338647449,0.14140553017739638,0.060031055517183296,-0.0699537812069005,-0.028679813221006628,0.09653906368948206
49,1790651491.569823,0.12141282684948997,-0.15885333625637765,-0.07170395208864745,0.21240742385448083,0.06093396700355146,-0.07176696784426113,-0.029264153979314138,0.09858923225420775
50,1790651491.5947747,0.030402084661989966,-0.09179278938137765,-0.03338363958864745,0.10229697124741022,0.062175560749624645,-0.07415881163579587,-0.030080475557162294,0.10134182111798049
51,1790651491.6147747,-0.012708266900510037,-0.09179278938137765,0.028886868223852554,0.09706630407000556,0.06304801882743677,-0.07606379059223058,-0.030643393457262875,0.10343969489465901
52,1790651491.6397974,0.054352279974489964,-0.08700275031887765,0.024096829161352553,0.105376971284554,0.06405400336178659,-0.07842522078947443,-0.031142603635137003,0.1059400413617289
53,1790651491.6597974,0.14536302216198996,-0.10616290656887765,-0.04775375677614745,0.1862294075312889,0.06503702305654845,-0.08031928039021857,-0.03151724302579894,0.10804784948534532
54,1790651491.669436,0.08309251434948997,-0.12532306281887765,-0.06212387396364745,0.1626948423628595,0.06560485441541719,-0.08126249960316134,-0.03175013937038395,0.10915888472616732
55,1790651491.689436,0.0016618502869899627,-0.13490314094387765,-0.02859360052614745,0.1379101634178895,0.06673349810186038,-0.0833164409275841,-0.03229698625768871,0.11152616024538793
56,1790651491.7146752,0.011241928411989963,-0.13490314094387765,0.019306790098852552,0.13674059578217865,0.0679685844728659,-0.08603036629671809,-0.0329011509542774,0.11447024999758122
57,1790651491.7346752,0.09267259247448997,-0.09658282844387765,-0.0046434052136474484,0.1339328688490638,0.06895635347115095,-0.08820557020789188,-0.03328609344600607,0.11680396104856162
58,1790651491.7595253,0.10704270966198996,-0.07742267219387765,-0.03817367865114745,0.13751233254942186,0.07037178880297965,-0.09082717610439042,-0.03377244410871479,0.11975951970305068
59,1790651491.7795253,0.025612045599489965,-0.09658282844387765,-0.0046434052136474484,0.10002890003388011,0.0715390706147519,-0.09288162573398706,-0.03416938235340045,0.12211626310129123
60,1790651491.7891638,0.011241928411989963,-0.07263263313137765,-0.0046434052136474484,0.07364401918686767,0.07204387580052271,-0.09384553211062982,-0.03433869696305963,0.12319273536458727
61,1790651491.8091638,0.11662278778698996,-0.10616290656887765,-0.05733383490114745,0.16780526209518454,0.0731260225729673,-0.0958138145295482,-0.0347302912883607,0.12543482516836849
62,1790651491.8342762,0.14057298309948996,-0.14448321906887765,-0.04775375677614745,0.20716318557173768,0.07476538364704811,-0.09838659254914531,-0.03534615619392127,0.12852678686953511
63,1790651491.8542762,0.011241928411989963,-0.12532306281887765,-0.009433444276147448,0.126179399664271,0.07610288113538057,-0.10053295913910329,-0.03584885036533169,0.13108647704048812
64,1790651491.8799772,-0.01749830596301004,-0.05826251594387765,0.019306790098852552,0.0638236916795547,0.07755176395961914,-0.10323130130387213,-0.03637890929613401,0.13414321713644586
65,1790651491.8999772,0.07830247528698997,-0.11095294563137766,-0.009433444276147448,0.13612796792452425,0.07860133518817404,-0.10526994550510942,-0.036714707326449304,0.13641078056399802
66,1790651491.9100814,0.14057298309948996,-0.16843341438137766,-0.05733383490114745,0.22675481754999252,0.07921791726368747,-0.10635711921740185,-0.03690950555661378,0.13765764353734508
67,1790651491.9300814,0.06872239716198997,-0.14448321906887765,-0.07170395208864745,0.17532719472268593,0.08056924119061565,-0.10865563142464102,-0.037430804329177635,0.14035139464589663
68,1790651491.9555802,0.0016618502869899627,-0.12053302375637766,-0.0046434052136474484,0.12063387904817617,0.08216827871792551,-0.11165335677439131,-0.038141745145063986,0.14378070395281564
69,1790651491.9755802,0.07351243622448997,-0.13490314094387765,0.03846694634885255,0.15837500332309049,0.08334711140727545,-0.11403508111312737,-0.03856499103265055,0.14641720949998582
70,1790651491.9998026,0.14536302216198996,-0.14448321906887765,0.028886868223852554,0.20697888771648834,0.08495828917014848,-0.11699450676667948,-0.03887834210895387,0.14972358196836608
71,1790651492.0198026,0.07351243622448997,-0.09179278938137765,0.052837063536352556,0.12892536501875113,0.08641737460598417,-0.11942593354539681,-0.03897567545031952,0.15247825915122842
72,1790651492.0449317,0.020822006536989963,-0.034312320631377645,0.03846694634885255,0.05559314044684306,0.08815344908384219,-0.1222603334227833,-0.038907547253470065,0.1556676490068142
73,1790651492.0649316,0.03998216278698997,-0.12053302375637766,0.07199721978635255,0.14598076179396113,0.08941912077805474,-0.12441009092741083,-0.03869576199984028,0.15802218794218503
74,1790651492.074515,0.10704270966198996,-0.15406329719387765,0.03846694634885255,0.19150286471861366,0.09004030199676666,-0.1254830518451261,-0.038530105011453174,0.1591785829696607
75,1790651492.094515,0.020822006536989963,-0.11095294563137766,0.03367690728635255,0.11780596837545831,0.09133400322082155,-0.12778388560266896,-0.03812803281095029,0.161630345078175
76,1790651492.1201656,-0.09892897002551004,-0.15406329719387765,0.06720718072385255,0.19503652425483262,0.09259406696527923,-0.13080196836984412,-0.03749563531301926,0.16458656942206207
77,1790651492.1401656,0.09267259247448997,-0.15885333625637765,0.004936672911352552,0.18397544014122746,0.0934197952588073,-0.1332715906495731,-0.03696829538136119,0.16689886124197623
78,1790651492.164791,0.09746263153698997,-0.18759357063137766,-0.009433444276147448,0.21161120518360063,0.094635154982077,-0.13649612199287636,-0.03642469371694196,0.1700404722116148
79,1790651492.184791,-0.07976881377551004,-0.14448321906887765,0.009726711973852553,0.1653271700885235,0.09550070655490464,-0.13922025818451636,-0.0360489840932143,0.17263312108515624
80,1790651492.195005,0.054352279974489964,-0.21633380500637767,0.03367690728635255,0.22558506070069526,0.09585696302283131,-0.14067917594358778,-0.035852643772395915,0.1739672382076513
81,1790651492.215005,0.08309251434948997,-0.2546541175063777,0.08157729791135256,0.2800141800666348,0.09665608497937744,-0.14381388681902918,-0.03535297286454779,0.1768464460934927
82,1790651492.2392116,0.13578294403698998,-0.22112384406887767,0.05762710259885256,0.2658075342444009,0.09787557608106835,-0.14790259830202065,-0.034586194580442875,0.18069590984094283
83,1790651492.2592115,-0.012708266900510037,-0.21633380500637767,0.09594741509885256,0.2369973031498535,0.0989166194776224,-0.15143022907984524,-0.033817335351279114,0.18400876081946757
84,1790651492.2846777,-0.10371900908801004,-0.2738142737563777,0.32107925103635254,0.434538576889321,0.0998209839831803,-0.1561844014988791,-0.03218868126201151,0.1881326854013432
85,1790651492.3046777,0.20763352997448997,-0.2929744300063777,0.4552003447863526,0.5797870758311567,0.10058056483455202,-0.1602082351851382,-0.02993705369343834,0.19151855217554742
86,1790651492.329535,0.39444505341199,-0.07742267219387765,0.3114991729113526,0.5085399739010543,0.10250546583981393,-0.1651496859257431,-0.026128999357242097,0.19612372089020647
87,1790651492.349535,0.09267259247448997,-0.015152164381377646,0.14384780572385256,0.17178471612151766,0.10455258823866181,-0.16866802374142542,-0.022841637669566265,0.19975456528367244
88,1790651492.3599727,-0.15161939971301006,-0.024732242506377646,0.17258804009885256,0.23105574603088955,0.10541455425271384,-0.17025999452586785,-0.02113563614666341,0.20136387237926034
89,1790651492.3799727,-0.07976881377551004,-0.029522281568877647,0.32107925103635254,0.33215435298404444,0.10647136108909852,-0.17293422787648455,-0.01761656177815293,0.20384489483988696
90,1790651492.40446,0.011241928411989963,0.051908382493622354,0.38813979791135256,0.39175676618303623,0.10744533725471068,-0.17567621463730337,-0.012651715765933394,0.2063169862102788
91,1790651492.42446,0.04956224091198996,0.09980877311862237,0.2923390166613526,0.31285828673408883,0.10821271466548925,-0.17735223046527968,-0.008184213861214033,0.2079201448220214
92,1790651492.4348383,-0.09892897002551004,0.12854900749362236,0.2923390166613526,0.3343260221706205,0.10851276414197066,-0.1779137403307857,-0.005758584793152886,0.20847417173127494
93,1790651492.4548383,-0.20909986846301004,0.3632609215561224,0.3114991729113526,0.5222192899975145,0.10854220898457116,-0.17809579168385126,-0.0008795944648754403,0.2085672453506799
94,1790651492.4797733,-0.15640943877551006,0.4925919762436224,0.37855971978635256,0.6406389225159437,0.10788986453938865,-0.1766881662125678,0.005581357704257742,0.20709920932661838
95,1790651492.4997733,-0.05581861846301004,0.4494816246811224,0.35939956353635255,0.5782019503281022,0.10712677273361076,-0.17431537785738427,0.011093190334886016,0.20490255065686067
96,1790651492.5248878,-0.01749830596301004,0.4399015465561224,0.27796889947385256,0.5206594572738962,0.10617417329900505,-0.17010750412978273,0.018176889575402026,0.20134526900731384
97,1790651492.5448878,-0.02228834502551004,0.5309122887436224,0.24443862603635255,0.5849058647008999,0.10546968056026843,-0.16580298271707775,0.02375544320732585,0.19793636269604714
98,1790651492.554949,0.03519212372448997,0.6698234215561224,0.22527846978635258,0.707567869950771,0.10517817368038612,-0.16305628265925895,0.02649530185581306,0.1958361574220355
99,1790651492.574949,0.025612045599489965,0.7512540856186224,0.23964858697385255,0.788967758071917,0.10477683614580487,-0.15628371514006928,0.03182208550096345,0.19082827394371568
100,1790651492.6001973,0.07830247528698997,0.7560441246811224,0.11989761041135256,0.7694864736194306,0.1045429543656583,-0.146162136569437,0.03821885280086927,0.18372065802042342
101,1790651492.6201973,0.025612045599489965,0.6458732262436224,-0.014223483338647449,0.646537321998058,0.10454135051737913,-0.1372442791305383,0.04268438598841285,0.17772687734067252
102,1790651492.6446848,0.0016618502869899627,0.5261222496811224,-0.09565414740114746,0.5347495668730757,0.1045897715661733,-0.12581084802909395,0.04712995657026233,0.17026045519843677
103,1790651492.6646848,0.059142319036989965,0.46864178093112235,-0.10523422552614746,0.4839392265124364,0.1047145931368885,-0.11638125859985862,0.04991487818065554,0.16432053563964835
104,1790651492.6746085,0.14536302216198996,0.4494816246811224,-0.19145492865114747,0.5097245617417946,0.10491944624170445,-0.1117209201430037,0.05086862078406998,0.1614845837154087
105,1790651492.6946084,0.15973313934948996,0.42553142936862237,-0.2824656708386475,0.5351434652401854,0.10572801769373338,-0.10242491722524531,0.05179156811547184,0.15605013271991894
106,1790651492.7193267,0.28427415497449,0.36805096061862236,-0.3638963349011475,0.5905030460152083,0.10740057712320167,-0.09118800531113813,0.05156287821849258,0.1500295527194427
107,1790651492.7393267,0.41839524872448997,0.2626701012436224,-0.34952621771364745,0.605160097091481,0.10960488185804357,-0.08251374593022871,0.050335464085683165,0.14613489432464488
108,1790651492.7649233,0.39923509247448996,0.17644939811862237,-0.2537254364636475,0.5048758721390902,0.1135724938249747,-0.0722343912011712,0.047842122433379417,0.14284742666480982
109,1790651492.7849233,0.41360520966199,0.19560955436862237,-0.14834457708864746,0.4809765906688593,0.11742684097716886,-0.06484927407422168,0.04558306615170054,0.14167677032464118
110,1790651492.810274,0.48066575653699,0.24350994499362236,-0.11960434271364745,0.551943712360271,0.12327978663339348,-0.05605765206108661,0.04263970892604002,0.14198067095303601
111,1790651492.8302739,0.48545579559949,0.30578045280612237,-0.26809555365114746,0.6332805386927395,0.12865392779153906,-0.049338093298185975,0.04008435692564947,0.14350204269150288
112,1790651492.8396754,0.56688645966199,0.37763103874362236,-0.37826645208864745,0.7791347562177067,0.13154327989929743,-0.04617129650180209,0.038607562596269955,0.1446581038066901
113,1790651492.8596754,0.5620964205994899,0.4351115074936224,-0.2728855927136475,0.7614072213440124,0.13846130468730575,-0.03922595381814591,0.0349604828688806,0.1480960624428601
114,1790651492.8851895,0.61478685028699,0.4111613121811224,-0.16271469427614746,0.7572929206414651,0.14821491051339608,-0.030075368542986685,0.030172219887704438,0.15421592117690855
115,1790651492.9051895,0.59083665497449,0.3536808434311224,-0.27767563177614746,0.7424835677332376,0.15652214169533304,-0.022831099498669447,0.02632123008932014,0.16035350666146028
116,1790651492.9298716,0.45192552216199,0.19560955436862237,-0.47885727240114745,0.6868799477879268,0.16716663951094962,-0.014215128065660571,0.020881129903041785,0.16906441617719153
117,1790651492.9498715,0.35612474091199,0.051908382493622354,-0.33515610052614747,0.4917813772222666,0.17571020878650312,-0.007909522540631857,0.015913192345842257,0.17660653359729658
118,1790651492.9594188,0.43755540497448997,-0.005572086256377646,-0.21540512396364747,0.487734710675212,0.17974513751165205,-0.005317795067476647,0.013503187615832392,0.18033005705996644
119,1790651492.9794188,0.49024583466199,0.08543865593112236,-0.3830564911511475,0.6279912561045552,0.18832150806640585,-0.0005831166140207551,0.008314196272411787,0.18850585212413723
120,1790651493.0053358,0.33696458466199,0.023168148118622355,-0.47885727240114745,0.5859916225810234,0.199376087025547,0.004843124806077045,0.0009232779505689527,0.1994370386304403
121,1790651493.0253358,0.30343431122449,-0.08221271125637765,-0.3543162567761475,0.47367849955034486,0.20758780445789252,0.008313836771560855,-0.005174466397452359,0.20781865061637453
122,1790651493.0501828,0.40881517059948996,-0.07742267219387765,-0.24414535833864745,0.48242208684951116,0.21758667285253366,0.011681423050343316,-0.012728932822465129,0.21827148594884177
123,1790651493.0701828,0.49982591278699,-0.08221271125637765,-0.24414535833864745,0.5623093712395151,0.22579071624593822,0.013746024678797368,-0.018630026322002082,0.22697462108809077
124,1790651493.0792844,0.5237761080994899,-0.09179278938137765,-0.4022166474011475,0.6667424983041665,0.2296629345884992,0.014425873063670056,-0.02135390607248596,0.2311042159762624
125,1790651493.0992844,0.50461595184949,-0.08221271125637765,-0.5219676239636475,0.7306479242558258,0.2384380338910278,0.015434682936454539,-0.027827831982276608,0.2405521017908628
126,1790651493.1248467,0.47587571747449,-0.20675372688137766,-0.5842381317761475,0.7813699486686719,0.24985105670344737,0.015976653960167467,-0.03698187960751448,0.2530779789450218
127,1790651493.1448467,0.38965501434948996,-0.3744050940688777,-0.7327293427136475,0.9104408241868333,0.2587394864952828,0.015465349835921932,-0.045045151398630044,0.26308623031606115
128,1790651493.2004187,0.43755540497448997,-0.5612166175063776,-0.6991990692761475,0.9976463114071643,0.2831800336708547,0.010358164732707426,-0.07005723475822415,0.29190107774454216
129,1790651493.2204187,0.63873704559949,-0.6809675940688776,-0.5794480927136475,1.098845744289254,0.29227105361047223,0.006932556417932417,-0.07962662452532587,0.3030030172297969
130,1790651493.2004187,0.78722825653699,-0.7240779456313777,-0.5267576630261475,1.1922629050661577,0.29227105361047223,0.006932556417932417,-0.07962662452532587,0.3030030172297969
131,1790651493.2204187,0.72974778778699,-0.6953377112563777,-0.5315477020886474,1.139547860368745,0.3029328814396235,0.0005370016009921021,-0.08953837615930531,0.31588880928782154
132,1790651493.2450423,0.58125657684949,-0.6282771643813777,-0.5075975067761475,0.9951113667822576,0.31651166830375665,-0.008600396362985352,-0.10183014225816853,0.33260033202380684
133,1790651493.2650423,0.59562669403699,-0.6186970862563776,-0.3734764130261475,0.9365051384153976,0.3276516911039189,-0.0167792516673792,-0.1116379013108056,0.3465547503337046
134,1790651493.2896447,0.6818473971619899,-0.6618074378188776,-0.24414535833864745,0.9810769153166711,0.34165690947729455,-0.02769385447081864,-0.12303255301497745,0.36418869075029
135,1790651493.3096447,0.73932786591199,-0.5276863440688777,-0.24893539740114745,0.9418213222846585,0.35346611472496875,-0.03701995811067632,-0.13164574636626208,0.37899785499869415
136,1790651493.3199542,0.60999681122449,-0.5372664221938777,-0.15792465521364746,0.8280649218783546,0.35968365646707984,-0.041929643974132215,-0.13573422546626804,0.3867223910458941
137,1790651493.3399541,0.47108567841199,-0.49894610969387765,-0.05254379583864745,0.6882076628930205,0.3715578167691365,-0.05157988465151904,-0.14279170611044067,0.40137908146394685
138,1790651493.365118,0.43755540497448997,-0.48936603156887765,-0.13876449896364745,0.6709615722591673,0.38597170179462187,-0.0637657251094772,-0.15070049836992164,0.4192265049992864
139,1790651493.385118,0.51898606903699,-0.47499591438137767,-0.2728855927136475,0.7546086437645324,0.397144109732001,-0.07344466231667067,-0.15666092052723665,0.43319765273841754
140,1790651493.4102767,0.54772630341199,-0.40793536750637766,-0.2920457489636475,0.7427692017037759,0.4111029106744029,-0.08545980334718012,-0.16410003042501078,0.4508190336915626
141,1790651493.4302766,0.46629563934949,-0.2833943518813777,-0.30162582708864744,0.6234758387632405,0.42205606385055133,-0.094615565380324,-0.17001722872221423,0.46474647315244977
142,1790651493.4403067,0.37049485809948995,-0.24028400031887764,-0.37826645208864745,0.5814536520335362,0.4273546158093984,-0.09891239197128658,-0.17305104323730988,0.47155306435713173
143,1790651493.4603066,0.33696458466199,-0.4127254065688777,-0.3734764130261475,0.6506704416451928,0.43739636399804377,-0.10717463247872383,-0.17932069405858117,0.48472455312611307
144,1790651493.485042,0.40881517059948996,-0.5133162268813777,-0.32557602240114747,0.7325456564983349,0.4493363685733526,-0.11757833038523043,-0.1872085657863101,0.500774283487714
145,1790651493.505042,0.42318528778699,-0.4941560706313777,-0.34952621771364745,0.7385422038112709,0.4587903994181812,-0.12623970811356516,-0.19364233190427693,0.5137338291452282
146,1790651493.5294948,0.39923509247448996,-0.33129474250637764,-0.3543162567761475,0.6282395047204071,0.47012368700704543,-0.13675479641824126,-0.2016193729723953,0.5294983729779298
147,1790651493.5494947,0.56688645966199,-0.2738142737563777,-0.2633055145886475,0.6823960057573828,0.4794519902234148,-0.14497275326879816,-0.20809159906530647,0.5423960026780116
148,1790651493.5748374,0.69621751434949,-0.25944415656887765,-0.14355453802614745,0.7567284870101159,0.49189997266553737,-0.1548376000979154,-0.21583593308692542,0.5590397262484502
149,1790651493.5948374,0.59083665497449,-0.17322345344387766,-0.13876449896364745,0.6311496683490374,0.5021807071832171,-0.16210397856878314,-0.2214543406630464,0.5722806894639807
150,1790651493.6049166,0.47108567841199,-0.16364337531887765,-0.15313461615114746,0.5216810149453391,0.5073873498854669,-0.1654712838972585,-0.22408172173048424,0.5788223273441536
151,1790651493.6249166,0.53814622528699,-0.19717364875637766,-0.23456528021364745,0.6192735084243844,0.5176829766701606,-0.17169197215948487,-0.22909474151101078,0.5915726483079558
152,1790651493.649892,0.57167649872449,-0.28818439094387766,-0.18187485052614746,0.6655394230483225,0.5306902684605215,-0.17920414842863377,-0.23519592967687006,0.6075058956004454
153,1790651493.669892,0.5237761080994899,-0.2833943518813777,-0.05733383490114745,0.5982816550075614,0.5411870587792837,-0.1851747939051344,-0.23970760981457986,0.6201877740579862
154,1790651493.6947966,0.53335618622449,-0.16364337531887765,-0.10523422552614746,0.5677342845837091,0.5542718510749728,-0.19232936821269175,-0.24478661131498605,0.6357109058764401
155,1790651493.7147965,0.5429362643494899,-0.12532306281887765,-0.20582504583864747,0.5940114533530182,0.56481806160635,-0.19764658137191188,-0.24872016275592737,0.6480318921211311
156,1790651493.7395945,0.54772630341199,-0.23070392219387767,-0.24414535833864745,0.6425226526460438,0.5779613061524674,-0.20391261308973505,-0.2537026562378458,0.6633133972480043
157,1790651493.7595944,0.53814622528699,-0.2546541175063777,-0.22019516302614747,0.6347723916284478,0.5886003439488042,-0.2089362699354974,-0.25781486898992007,0.6757020323067701
158,1790651493.7703967,0.5429362643494899,-0.24986407844387765,-0.22019516302614747,0.6369440749881414,0.5943605536845977,-0.21165136066155604,-0.26005956409829584,0.6824161070235266
159,1790651493.7903967,0.54772630341199,-0.16843341438137766,-0.2728855927136475,0.6346971445029598,0.6050616296436486,-0.21655165845985325,-0.26433175537015224,0.6948852231453816
160,1790651493.8153641,0.5620964205994899,-0.18280353156887766,-0.2920457489636475,0.6592876736998426,0.6184949286583457,-0.2224091584787305,-0.2699229159782566,0.710535144184659
161,1790651493.835364,0.55251634247449,-0.23070392219387767,-0.2824656708386475,0.6620313161923338,0.6293133962125472,-0.22701771090612255,-0.27459162725375,0.7231686895016187
162,1790651493.844805,0.52856614716199,-0.22112384406887767,-0.24414535833864745,0.6228040481080501,0.6344196621195899,-0.22918676448366396,-0.2768377704742385,0.7291460977469276
163,1790651493.864805,0.54772630341199,-0.24986407844387765,-0.21540512396364747,0.6394024777679282,0.6452288209234736,-0.23379900467506215,-0.2815716678587201,0.7417983621430335
164,1790651493.8899632,0.51898606903699,-0.24986407844387765,-0.24893539740114745,0.627492971777647,0.6587989629326709,-0.23967343681489495,-0.28750940707816514,0.7577077860456921
165,1790651493.9099631,0.46629563934949,-0.2929744300063777,-0.29683578802614746,0.6256014106178274,0.6694465582994196,-0.24445719013171388,-0.2923403375359944,0.7703121998103692
166,1790651493.9353223,0.40402513153699,-0.3025545081313777,-0.19145492865114747,0.5398430577574541,0.6825774594490607,-0.2507456105650767,-0.2984756435527461,0.7860490182932698
167,1790651493.9553223,0.50940599091199,-0.24028400031887764,-0.16271469427614746,0.5862652438270999,0.6927501504031633,-0.2557754279946184,-0.3031198148063089,0.7982515033356634
168,1790651493.9653964,0.5620964205994899,-0.11574298469387766,-0.17229477240114746,0.5991947205653343,0.6979151860541144,-0.2581979507592606,-0.3053613426546235,0.8043614475402616
169,1790651493.9853964,0.54772630341199,-0.06784259406887765,-0.19624496771364747,0.585763440624531,0.7082958520386567,-0.262561305930613,-0.3096967021309584,0.8164150296864624
170,1790651494.0095162,0.50461595184949,-0.15406329719387765,-0.14355453802614745,0.5467912433380006,0.7208406940783655,-0.2674355838298391,-0.3147555500470169,0.8307852634846062
171,1790651494.0295162,0.59083665497449,-0.16843341438137766,-0.22498520208864745,0.6542752548434665,0.7313256376912547,-0.2713547822887058,-0.31887390030828494,0.8427046757395436
172,1790651494.0553856,0.69142747528699,-0.23070392219387767,-0.30162582708864744,0.7888437062335546,0.7453411534538806,-0.27643814944821743,-0.3244235495723164,0.8586047548315916
173,1790651494.0753856,0.63394700653699,-0.2833943518813777,-0.23456528021364745,0.7329543208530689,0.7565394702478995,-0.2805498166292465,-0.32887477195188486,0.8713316161370942
174,1790651494.0852065,0.63394700653699,-0.31692462531887766,-0.18187485052614746,0.7317161242480789,0.7621474318403071,-0.28270816365892826,-0.3310394063089821,0.8777127674755462
175,1790651494.1052065,0.72016770966199,-0.33129474250637764,-0.19624496771364747,0.8166454700817815,0.7738859491862005,-0.287416577287656,-0.33535355432500447,0.89104980649007
176,1790651494.1296384,0.71537767059949,-0.3025545081313777,-0.27767563177614746,0.8248685946653896,0.7887052270048093,-0.29346706179800264,-0.34070159715607135,0.9078856920173146
177,1790651494.1496384,0.63394700653699,-0.32650470344387766,-0.27767563177614746,0.7652436768444857,0.8010406094870014,-0.2986206355860887,-0.34525584338663257,0.9219771903023204
178,1790651494.1751292,0.67705735809949,-0.30734454719387766,-0.25851547552614745,0.787208732124448,0.8169106367133486,-0.30541560034344917,-0.3512148180918714,0.9401986629196323
179,1790651494.1951292,0.73453782684949,-0.37919513313137765,-0.23456528021364745,0.8592762295938375,0.8296118702856685,-0.3109770229675701,-0.3559285244315409,0.9548024291112123
180,1790651494.2203362,0.65310716278699,-0.37919513313137765,-0.22498520208864745,0.7880077767592555,0.8458420880688258,-0.3183687350809124,-0.3618471127648993,0.9735198110166763
181,1790651494.2403362,0.51419602997449,-0.3025545081313777,-0.21061508490114747,0.6326891034466012,0.8585389281186293,-0.3243764330808152,-0.366492091708816,0.9882437020889233
182,1790651494.2498233,0.48545579559949,-0.2929744300063777,-0.18187485052614746,0.5954660421658016,0.8643696379108984,-0.3272225035615943,-0.36864423829751974,0.9950417138036444
183,1790651494.2698233,0.53814622528699,-0.30734454719387766,-0.12439438177614745,0.6320885956081753,0.8763530612760321,-0.3332228416455626,-0.37296006318525904,1.0090249545642411
184,1790651494.3099802,0.45671556122449,-0.32650470344387766,-0.04775375677614745,0.5634490629345397,0.8998010670711731,-0.3453724267153887,-0.3808442101579676,1.0363234947874842
185,1790651494.3299801,0.27469407684949,-0.27860431281887765,0.05762710259885256,0.39547197363582065,0.9108246514314184,-0.35142349066367834,-0.38416707230208236,1.0491350508330959
186,1790651494.3395436,0.17889329559948997,-0.19238360969387766,0.19653823541135257,0.32808770545069343,0.915630491887249,-0.35422074658034935,-0.3853353368981151,1.0546728672171335
187,1790651494.3595436,0.27948411591198996,-0.11574298469387766,0.23006850884885258,0.38005174426239435,0.9248609203974191,-0.35965533876230477,-0.38677213479419903,1.0650410175349356
188,1790651494.3701077,0.35612474091199,0.004007991868622354,0.2635987822863526,0.44308601096322014,0.9295087418133443,-0.36218385883544085,-0.38702608410120437,1.0700246905950672
189,1790651494.3901076,0.23637376434948998,0.13333904655612236,0.21090835259885257,0.34370654780670956,0.9378768738418503,-0.3660467933057328,-0.38672298536165495,1.0784980077792459
190,1790651494.4149,-0.07018873565051004,0.18123943718112237,0.17258804009885256,0.25992465021061456,0.9470032119985057,-0.36953215033027004,-0.38569053082371735,1.0872563079744724
191,1790651494.4349,-0.08934889190051004,0.20039959343112237,0.19174819634885257,0.2913942215182832,0.9530217668855161,-0.3713495753008185,-0.3844360807165255,1.0926765740100646
192,1790651494.4599595,0.13578294403698998,0.30578045280612237,0.19653823541135257,0.38802831235397994,0.9595189680886709,-0.37233383906772044,-0.3823702873910939,1.0979600058820005
193,1790651494.4799595,0.13099290497448998,0.2530900231186224,0.11031753228635256,0.305587399749386,0.9643267407464404,-0.37216324475105467,-0.38050859924769864,1.101461909356711
194,1790651494.4903615,-0.09892897002551004,0.6123429528061224,0.019306790098852552,0.6205832620249683,0.9664771942240007,-0.3714126625386205,-0.37958445082652115,1.1027737248222753
195,1790651494.5103614,-0.16119947783801006,0.7799943199936223,-0.023803561463647448,0.7968331195525912,0.9696014991476329,-0.3680974782353903,-0.37808085544010617,1.1038876545568002
196,1790651494.5346646,-0.25700025908801005,1.1152970543686225,-0.06212387396364745,1.1462094173277768,0.9720662834350957,-0.3612186447213846,-0.37668443483128555,1.1033054573099141
197,1790651494.5546646,-0.14203932158801005,1.0769767418686225,0.11031753228635256,1.0918901177924847,0.9731918307861596,-0.3531185223062565,-0.37563535412174587,1.1013160080425783
198,1790651494.57983,-0.04623854033801004,1.2206779137436223,0.11031753228635256,1.226524573599658,0.9740402787358357,-0.3401186308966313,-0.3740969074856721,1.0974441415731038
199,1790651494.59983,0.03519212372448997,1.4266495934311225,-0.01901352240114745,1.427210237506558,0.974596863042839,-0.327365798085864,-0.372920681349761,1.0936531652163344
200,1790651494.6102176,0.15015306122448996,1.4122794762436224,-0.03338363958864745,1.420631454039446,0.9749869793127028,-0.31952399229182815,-0.3724422271097473,1.0915165614931757
201,1790651494.6302176,0.31301438934949,1.5416105309311223,-0.03338363958864745,1.5734215914400551,0.9763201768732497,-0.30225960868897744,-0.3717593608676315,1.0875509097082936
202,1790651494.6551905,0.62915696747449,1.5703507653061224,-0.10044418646364746,1.6946766801999622,0.9794998234437834,-0.2781074503858807,-0.3712852561570846,1.083797213285848
203,1790651494.6751904,0.71537767059949,1.6757316246811225,-0.15792465521364746,1.8288744861999513,0.9836811260493489,-0.25679706742263775,-0.37135006850556307,1.0823466011226108
204,1790651494.6998053,0.65789720184949,1.7763224449936224,-0.15792465521364746,1.90081307695256,0.9905905316810143,-0.22813075225956464,-0.3720009635073828,1.082449979644792
205,1790651494.7198052,0.75848802216199,1.8529630699936224,-0.17708481146364746,2.0100087683824945,0.9974870224159571,-0.20288871274651252,-0.3729530116366822,1.0840840089850325
206,1790651494.7299297,0.90697923309949,1.7954826012436225,-0.18187485052614746,2.0197642342353257,1.0017191536001937,-0.18925694614366811,-0.37363523783060115,1.0857544590292252
207,1790651494.7499297,1.13690110809949,1.6326212731186225,-0.41658676458864746,2.03261921752889,1.011891154469553,-0.16122565789333093,-0.3756784573031514,1.0913531621517105
208,1790651494.7751837,1.18480149872449,1.4026993981186224,-0.47885727240114745,1.8975311539454653,1.0272061501412082,-0.1253907227336564,-0.3795674541342804,1.1022462340482593
209,1790651494.7951837,1.36682298309949,1.2877384606186224,-0.5794480927136475,1.9652571084300627,1.0413430218425899,-0.09723243386830854,-0.38377282679531266,1.1140605988556802
210,1790651494.819595,1.37640306122449,1.2254679528061223,-0.6273484833386475,1.9467468273636088,1.0610323023961947,-0.06341724597129018,-0.3903453201954288,1.1323342098573304
211,1790651494.839595,1.43867356903699,1.1775675621811224,-0.7470994599011475,2.003647824526907,1.078966412989765,-0.036263997309943834,-0.3969840360588015,1.1502521126894014
212,1790651494.8496702,1.83624681122449,1.2350480309311225,-1.0345018036511475,2.442813945472808,1.089120287042843,-0.022814148665376746,-0.40117291475495165,1.160880352388046
213,1790651494.8696702,2.0086882174744902,0.9524357262436224,-1.0871922333386475,2.4746614151996504,1.112020598492266,0.003161377946622461,-0.41142346443133376,1.1856934987028898
214,1790651494.9104104,1.93204759247449,0.7895743981186224,-1.0057615692761475,2.316849577332045,1.1637126179928643,0.053459768881440994,-0.4355669650069101,1.2437055862100137
215,1790651494.9304104,1.8985173190369902,0.9141154137436224,-0.9626512177136475,2.3166079442349847,1.19102836826868,0.07700367992964717,-0.4485941170661824,1.2750352240663196
216,1790651494.9554558,2.25298020966199,0.6315031090561224,-1.1494627411511475,2.606910162466448,1.2279022726086721,0.10496782915876779,-0.4664280170307527,1.3176939444753801
217,1790651494.9754558,2.6409733737244903,0.13333904655612236,-1.4512352020886474,3.0163891118089343,1.260271979858313,0.12509622876759804,-0.48243412031746824,1.3552406465695888
218,1790651494.985526,2.73198411591199,-0.10616290656887765,-1.7673777802136474,3.255554022024437,1.2781839208689125,0.1337314913660679,-0.49171549492438144,1.376016851386475
219,1790651495.005526,2.77509446747449,-0.12053302375637766,-1.7961180145886475,3.307826693699844,1.3166821586200395,0.14796886605769033,-0.5127288707824272,1.4207172790828402
220,1790651495.0145671,2.74156419403699,-0.14448321906887765,-1.4847654755261475,3.1211501322321205,1.335215685586305,0.15325981634485125,-0.5230278764364431,1.4421676940880972
221,1790651495.034567,2.95232591278699,-0.23549396125637767,-1.5566160614636475,3.345854041034718,1.3786052224620853,0.16263845894526255,-0.5469552309091908,1.4920333951848235
222,1790651495.0598707,3.0864470065369902,-0.46541583625637767,-1.7434275849011476,3.5752352046534814,1.436726712265793,0.17139412413354344,-0.5789495308668199,1.558442219274263
223,1790651495.0798707,2.9475358737244903,-0.5899568518813777,-1.8392283661511475,3.5240286316699527,1.4848260464766387,0.1756934767502885,-0.6058185749114054,1.6132553213226155
224,1790651495.1046464,2.77988450653699,-0.5660066565688777,-1.9398191864636476,3.436716438860962,1.5461157897030062,0.17807257736267734,-0.6411330284256909,1.6832217435964385
225,1790651495.1246464,2.8373649752869903,-0.5181062659438777,-2.0452000458386475,3.535805047410569,1.5965958788782024,0.17807883972764463,-0.6713417169302502,1.7411289942162413
226,1790651495.1357534,2.89005540497449,-0.7623982581313777,-2.0739402802136477,3.637980158510583,1.6251959032712475,0.17701510665480163,-0.6890329621989439,1.774080746468522
227,1790651495.1557534,2.77988450653699,-0.9587898596938776,-2.0499900849011476,3.5846192563407935,1.6774751234773437,0.17280520978774597,-0.7222965281989414,1.8345290145057287
228,1790651495.1952755,2.69845384247449,-0.9539998206313777,-1.9398191864636476,3.4575522084131323,1.7815268960844413,0.16006405176035166,-0.7899955804390326,1.9553903956119372
229,1790651495.2152755,2.97148606903699,-0.8581990393813776,-1.8919187958386476,3.6256850083430554,1.8347884091733866,0.15186530105966883,-0.8248631103357814,2.0174019745444314
230,1790651495.2249424,3.17266770966199,-0.9587898596938776,-1.9685594208386477,3.854909153839589,1.861125235885176,0.1471795381613527,-0.8419871624763179,2.048021323589421
231,1790651495.2449424,3.14392747528699,-1.1599715003188777,-1.8775486786511475,3.8412241397920432,1.9169153514303516,0.13576114313402166,-0.8778702145062257,2.1127355882958025
232,1790651495.2549388,3.0864470065369902,-1.1312312659438777,-1.8967088349011476,3.795173738526631,1.9452887761748126,0.12919227486454912,-0.8959447357833347,2.1455899040064126
233,1790651495.2749388,2.97148606903699,-1.0210603675063776,-2.1122605927136475,3.7860188251122273,2.002627745492217,0.114792769344973,-0.9326958630220168,2.212152083335934
234,1790651495.3005974,3.0864470065369902,-1.1312312659438777,-2.0883103974011474,3.8944678220655353,2.076813284199621,0.09494836535082257,-0.9808562282159985,2.2987491272300518
235,1790651495.3205974,3.14392747528699,-1.1982918128188778,-1.8200682099011476,3.8252884240571907,2.135310099646865,0.0783062721115913,-1.0186272028706955,2.3671253605025013
236,1790651495.3452861,3.0672868502869903,-1.0066902503188777,-1.8488084442761474,3.7201836709573035,2.208190168751307,0.0567613318293453,-1.0650527053596393,2.4522770918790666
237,1790651495.365286,2.87568528778699,-0.9779500159438776,-2.0356199677136475,3.6564601407691684,2.267287858330237,0.038949112454270934,-1.1028466848818845,2.521583247931278
238,1790651495.3753605,2.69845384247449,-1.1024910315688776,-1.9781394989636476,3.5228078988237916,2.2968029082631456,0.029750671007798414,-1.1220613187991713,2.5564057395055255
239,1790651495.3953605,2.81341477997449,-1.0354304846938778,-1.7290574677136474,3.4607887452817225,2.354875804646099,0.011021903487336126,-1.1600457975903655,2.6251224333678542
240,1790651495.4205997,2.99543626434949,-0.9060994300063777,-1.5470359833386476,3.49098480726893,2.428164576817089,-0.012743054946072599,-1.2069919980294586,2.71163701126567
241,1790651495.4405997,3.07207688934949,-0.7097078284438777,-1.6236766083386476,3.5465007182144848,2.486629783523003,-0.03117374633632029,-1.2433688634744473,2.7803355217351085
242,1790651495.4649694,3.00501634247449,-0.7815584143813776,-1.6955271942761476,3.537763310364197,2.558290291418442,-0.05298830061074221,-1.2871114945070075,2.8643171916635795
243,1790651495.4849694,3.0672868502869903,-0.8917293128188777,-1.7290574677136474,3.6322265232141353,2.6173881358473348,-0.070715766983659,-1.3227626326974875,2.9335000180390765
244,1790651495.4949906,3.17745774872449,-0.9060994300063777,-1.8679686005261475,3.795597530631877,2.647251507440676,-0.07961715857555283,-1.34065000875106,2.9684376162471047
245,1790651495.5149906,2.9666960299744902,-0.8773591956313777,-1.7961180145886475,3.5773012753687947,2.7071279636898544,-0.09739266787824358,-1.3764902846380929,3.0385444948611626
246,1790651495.5404346,2.90921556122449,-0.9923201331313777,-1.9541893036511475,3.642401716284622,2.783089722860078,-0.12018252532025957,-1.4224036876997568,3.1278210459781115
247,1790651495.5604346,2.97627610809949,-1.0641707190688776,-2.1601609833386477,3.8284427989596517,2.8426704717188858,-0.1384939029986847,-1.4592514438436242,3.1983387482113246
