imu_index,t_imu,ax,ay,az,mag,vx,vy,vz,velocity
0,1790565940.1064892,-0.0339134765625002,-0.023519091796874985,0.022561083984375174,0.04703481776360054,0.0,0.0,0.0,0.0
1,1790565940.1264892,-0.0482835937500002,0.02438129882812502,0.0034009277343751746,0.05419704297667753,-0.00016653512926551132,-2.8693504129856524e-05,6.77083350864421e-05,0.00018204857895327988
2,1790565940.1513817,0.023566992187499806,0.03396137695312502,-0.030129345703124828,0.05115227969324861,-0.00038886297768463216,4.9873057976002236e-05,8.943894102668998e-05,0.00040212070513418244
3,1790565940.1713817,0.037937109374999806,0.03396137695312502,-0.039709423828124826,0.06457118345705457,-0.0004484421811559509,0.0002054128756174838,-4.785416752123794e-07,0.0004932494990483878
4,1790565940.196769,-0.0530736328125002,0.04833149414062502,0.04172124023437518,0.0830265361946156,-0.0005415464471810837,0.0005299236872825502,-9.36653826104842e-05,0.0007634558747544986
5,1790565940.216769,-0.0818138671875002,0.04354145507812502,0.04651127929687518,0.10369506389566588,-0.0008062225277087837,0.000885033808513107,-2.3717047311633035e-05,0.0011974314613912304
6,1790565940.2263403,-0.014753320312500196,0.04354145507812502,-0.015759228515624828,0.04859909519704346,-0.000983208402974012,0.0010919982791712311,2.6811937076480442e-05,0.0014696523008390216
7,1790565940.2463403,0.061887304687499804,-0.009148974609374983,-0.034919384765624825,0.07164569526703035,-0.0012268590086615824,0.0015111846178266775,4.0540589257970666e-05,0.0019469220620423986
8,1790565940.272174,0.018776953124999805,-0.018729052734374984,0.03693120117187518,0.045467186024461134,-0.001338081502116262,0.0019174073452997281,5.95116147233838e-05,0.002338900311343356
9,1790565940.2921739,-0.0434935546875002,0.029171337890625017,0.04651127929687518,0.07004252533650906,-0.0014483471010834376,0.0022003884368094356,0.00019715923073394196,0.0026416453888296718
10,1790565940.3162973,0.013986914062499805,0.05312153320312502,-0.006179150390624826,0.055278503546970476,-0.0016147816535777995,0.0026394028602069537,0.00041125320094147146,0.003121393349529134
11,1790565940.3362973,0.0810474609374998,-0.033099169921874984,-0.020549267578124825,0.0899250708753131,-0.001589518053198074,0.0029788135256841415,0.0005220344301055159,0.0034164920032771877
12,1790565940.3470073,0.033147070312499805,-0.028309130859374986,-0.020549267578124825,0.048191363939116674,-0.0014862919161425512,0.0030839787148136937,0.0005394469274274482,0.003465687718321651
13,1790565940.3670073,-0.029123437500000196,-0.013939013671874985,0.012981005859375176,0.0347990980785748,-0.0013164056329146526,0.0031875352554329357,0.0005557334013957498,0.0034931567969995604
14,1790565940.3916903,-0.019543359375000197,0.08665180664062502,-0.010969189453124827,0.08950308155031993,-0.001228283275815047,0.0034307767448796735,0.0005765427004546542,0.0036893509407891325
15,1790565940.4116902,0.023566992187499806,0.10581196289062503,-0.020549267578124825,0.11033515763132827,-0.0011615550995599697,0.0038870004470734645,0.0005435971009091239,0.004093101578629571
16,1790565940.4369462,0.013986914062499805,-0.018729052734374984,-0.006179150390624826,0.02417835976382006,-0.0010187961928681763,0.004541652647500427,0.00045760522771090377,0.004676960230489316
17,1790565940.4569461,-0.0530736328125002,-0.07620952148437499,0.051301318359375174,0.10609678096060914,-0.0009813339229292342,0.004839897151380118,0.0004674065190344611,0.0049604525557921594
18,1790565940.4667451,-0.0626537109375002,0.03396137695312502,0.04172124023437518,0.08258041235962998,-0.0010507834083951597,0.004933054246921969,0.0005398529747067171,0.00507253498841882
19,1790565940.486745,0.013986914062499805,0.10581196289062503,-0.0013891113281248259,0.10674143940401351,-0.0012442692666227145,0.005304329377886947,0.0007260361924494595,0.005496475662615351
20,1790565940.5122578,0.037937109374999806,0.029171337890625017,-0.034919384765624825,0.0592414943639124,-0.0013547100267967942,0.005965183593661074,0.0008584383326462588,0.0061770195834029455
21,1790565940.5322578,0.009196874999999804,-0.06662944335937498,-0.015759228515624828,0.06908269331426985,-0.0013575995834828214,0.006349346315529603,0.000870644571669085,0.006550976815237475
22,1790565940.5721269,-0.014753320312500196,-0.033099169921874984,0.017771044921875177,0.04036118862689366,-0.0013791105285702963,0.006702079351096856,0.0008973429695304093,0.0069010896156605555
23,1790565940.5921268,0.013986914062499805,0.06270161132812502,-0.015759228515624828,0.06614740442029976,-0.0013894323025717616,0.006896886676739504,0.0009117447624275819,0.0070942826604971755
24,1790565940.6018696,0.037937109374999806,0.029171337890625017,-0.010969189453124827,0.049096989106443764,-0.0013557650484595628,0.0070446819524297355,0.000898177469790464,0.007229963032046083
25,1790565940.6218696,0.013986914062499805,0.005221142578125016,0.022561083984375174,0.02705358766158187,-0.001219133502550696,0.00735415681525323,0.0008918918899630652,0.007507688066492837
26,1790565940.631792,-0.0387035156250002,0.04833149414062502,0.04172124023437518,0.07466295824767695,-0.0011799088391771743,0.007524517702397971,0.0009370793414434775,0.00767389530907407
27,1790565940.651792,-0.0243333984375002,0.029171337890625017,-0.0013891113281248259,0.038013298516822724,-0.0012072614651151528,0.007932646974666025,0.0010749960308977788,0.00809567691649537
28,1790565940.6764085,0.04272714843749981,-0.037889208984374985,-0.05407954101562483,0.0786498450572055,-0.0012019186172056223,0.008343537140204083,0.0011168764411324443,0.008503330721376599
29,1790565940.6964085,0.013986914062499805,-0.033099169921874984,-0.04449946289062483,0.057196075145616455,-0.0011131578679415299,0.008520812797563898,0.0009979304201301802,0.008650967361717997
30,1790565940.7369516,-0.0482835937500002,-0.013939013671874985,0.022561083984375174,0.055087240247718036,-0.0010645027482293736,0.00868324292256917,0.0007262679031007024,0.008778344879327181
31,1790565940.7569516,-0.029123437500000196,-0.004358935546874984,0.04172124023437518,0.051066983635345786,-0.0011602117679284593,0.008723904060472269,0.0007087813908682586,0.008829210862971015
32,1790565940.751695,0.10978769531249981,-0.028309130859374986,-0.020549267578124825,0.11522594035216585,-0.0011602117679284593,0.008723904060472269,0.0007087813908682586,0.008829210862971015
33,1790565940.771695,0.10978769531249981,-0.013939013671874985,-0.030129345703124828,0.11469704275469973,-0.0007971519322002025,0.008648257831301107,0.0006471237777477632,0.008708994425500454
34,1790565940.796156,0.013986914062499805,0.04833149414062502,-0.010969189453124827,0.05149650675643514,-0.00019264272086072878,0.008632712068983113,0.000507626402755651,0.008649769560435814
35,1790565940.816156,-0.014753320312500196,0.12018208007812502,0.017771044921875177,0.12238138285606757,0.00022633087862556446,0.008874678159453116,0.0004208809683980053,0.00888753502890724
36,1790565940.8417678,0.037937109374999806,0.04833149414062502,0.008190966796875174,0.06198588170433232,0.0007269196113130925,0.009461755835190076,0.0003763282471015673,0.00949709737528428
37,1790565940.8617678,0.05230722656249981,-0.061839404296874984,-0.020549267578124825,0.0835609374794851,0.0011945537146173428,0.009831169091870894,0.0003282187706582792,0.009908913757394203
38,1790565940.8718266,-0.0243333984375002,-0.042679248046874986,-0.034919384765624825,0.060274338866341544,0.001415572507028755,0.009910243751515273,0.00026580539649178996,0.010014361150163666
39,1790565940.8918266,-0.0674437500000002,0.04354145507812502,-0.015759228515624828,0.08180996887782435,0.001651439152143114,0.010045176984130223,8.430598804395897e-05,0.010180370298537808
40,1790565940.9167907,0.018776953124999805,0.03875141601562502,-0.010969189453124827,0.04443612639658214,0.0018105685816955997,0.010342415296167029,-0.00015830415504513017,0.010500893912087556
41,1790565940.9367907,0.028357031249999807,0.03396137695312502,0.0034009277343751746,0.04437412145969945,0.001989633035087542,0.01065389695274974,-0.00033486855981047076,0.010843260434319163
42,1790565940.9623132,-0.029123437500000196,-0.009148974609374983,-0.0013891113281248259,0.03055827185070076,0.002182398283804372,0.011039258519224425,-0.0005225380449121125,0.011265040476261144
43,1790565940.9823132,-0.0434935546875002,0.014801220703125017,0.027351123046875175,0.05346820892439257,0.0022018697999413896,0.011304418159978475,-0.0006085977834441695,0.011532930755604067
44,1790565940.9920769,0.023566992187499806,0.014801220703125017,0.022561083984375174,0.0358257137489028,0.0021953578692927786,0.011436125620144172,-0.0006077593422378491,0.011660786285326604
45,1790565941.0120769,0.037937109374999806,0.0004311035156250164,0.008190966796875174,0.038813683863289684,0.0022762757611051,0.011688295001925414,-0.0005601714678716892,0.011921051273526455
46,1790565941.0371573,-0.0243333984375002,-0.018729052734374984,-0.010969189453124827,0.03260697491494237,0.002388116777434409,0.011922668294255844,-0.0005146725384085607,0.012170374226756923
47,1790565941.0571573,-0.009963281250000197,0.005221142578125016,-0.006179150390624826,0.012833908314994088,0.0024124796987034414,0.012061268963676845,-0.0005095550149223186,0.012310723521549943
48,1790565941.0820935,0.033147070312499805,0.03875141601562502,0.0034009277343751746,0.05110740477633635,0.002481657934923736,0.012290394630515896,-0.0005093273909033368,0.012548778453335938
49,1790565941.1020935,0.07146738281249981,0.005221142578125016,-0.010969189453124827,0.07249255308752789,0.0026857409784406478,0.012512557347899213,-0.000520524592444747,0.012808131863745067
50,1790565941.1270525,0.004406835937499804,-0.013939013671874985,0.0034009277343751746,0.015009417529644506,0.0030442559058797424,0.012731899908311578,-0.0005465694287765731,0.013102194756460506
51,1790565941.1470525,-0.0482835937500002,0.03875141601562502,0.0034009277343751746,0.0620043867648535,0.003222630367516316,0.012918515764598055,-0.000554106157906142,0.013325930724719994
52,1790565941.1571012,0.004406835937499804,-0.004358935546874984,0.017771044921875177,0.018821013779739805,0.0032657406391650924,0.013024133048275443,-0.0005413686513306887,0.01343823588117572
53,1790565941.1771011,0.04272714843749981,0.0004311035156250164,0.012981005859375176,0.04465760379781319,0.003409374283974648,0.013196921632793,-0.00047369166655310637,0.013638436764720117
54,1790565941.2016609,0.033147070312499805,0.005221142578125016,0.022561083984375174,0.04043502331732907,0.0036990564254337117,0.013387687917970697,-0.00033758329465552234,0.013893421778250004
55,1790565941.2216609,-0.014753320312500196,0.02438129882812502,0.012981005859375176,0.031314768175905346,0.003927161869144294,0.013564137896944143,-0.0001900574678975415,0.014122484167981241
56,1790565941.2473369,-0.0051732421875001966,0.014801220703125017,0.008190966796875174,0.017689841890210892,0.004137705127184185,0.0138321394946513,1.1698255907664941e-05,0.014437756874535943
57,1790565941.2673368,0.028357031249999807,-0.07620952148437499,0.04651127929687518,0.0936766325612893,0.004311880617736054,0.013917469905891974,0.00022733319602172273,0.014571889493989104
58,1790565941.2765243,-0.014753320312500196,-0.028309130859374986,0.03693120117187518,0.048815786076370445,0.004389264238372601,0.013878769081523802,0.00036902844829563247,0.014560977088374569
59,1790565941.2965243,-0.0530736328125002,0.06270161132812502,0.022561083984375174,0.08518981789867486,0.004430710412540147,0.013858747820499059,0.000720452096295063,0.014567605744769284
60,1790565941.3222046,-0.009963281250000197,0.06270161132812502,-0.0013891113281248259,0.06350345397450272,0.004354534813189362,0.014078425799084679,0.001144778466907163,0.014780885093860432
61,1790565941.3422046,-0.0051732421875001966,0.005221142578125016,-0.030129345703124828,0.03101290436334605,0.004281402921741221,0.014325733428093979,0.0013783986515203733,0.01501522667406712
62,1790565941.3667448,-0.0051732421875001966,0.005221142578125016,-0.039709423828124826,0.04038392137117555,0.004186086516160318,0.014602884291409567,0.0014935156722897568,0.015264276563678039
63,1790565941.3867447,-0.0434935546875002,0.0004311035156250164,-0.015759228515624828,0.04626260296398634,0.004047056843897471,0.01480335631530089,0.0014900590102727642,0.015418764644081937
64,1790565941.396444,-0.00038320312500019605,0.019591259765625018,-0.010969189453124827,0.02245634478488769,0.003957827494584296,0.014900560687351573,0.0014691904859687422,0.015487079387618431
65,1790565941.416444,0.033147070312499805,0.014801220703125017,0.027351123046875175,0.04545204436028955,0.003850581497426887,0.015122518884955048,0.001457187224207403,0.015672936862647716
66,1790565941.4415936,-0.00038320312500019605,-0.009148974609374983,0.056091357421875175,0.05683388917245193,0.0037977505416392403,0.015370422126484757,0.0016017482120986677,0.01591346545720996
67,1790565941.4615936,-0.029123437500000196,0.0004311035156250164,0.012981005859375176,0.03188835171624169,0.003717779280790437,0.015524916736980426,0.0018030733627262122,0.01606536635194549
68,1790565941.4867291,-0.019543359375000197,0.014801220703125017,-0.030129345703124828,0.03884322981500677,0.0035406042590259697,0.015718672652241538,0.001985813638841347,0.01623440803588376
69,1790565941.5067291,-0.0243333984375002,0.0004311035156250164,-0.04928950195312483,0.05497049329000439,0.0033549598422701883,0.015872564667720163,0.0019902787898454276,0.016344885265290564
70,1790565941.5164557,-0.009963281250000197,-0.04746928710937499,-0.015759228515624828,0.05099954387390698,0.0032531995223437945,0.015901866339062442,0.0019446722290270765,0.01634730590268422
71,1790565941.5364556,-0.057863671875000196,-0.004358935546874984,0.032141162109375176,0.0663344491474877,0.0029736028736784383,0.01587533743351557,0.0018895341253309628,0.01626158023960524
72,1790565941.5620399,-0.057863671875000196,0.06270161132812502,0.032141162109375176,0.0911742885233665,0.002447529386580964,0.01595844064020358,0.0019529267762680705,0.016262722735094003
73,1790565941.5820398,-0.009963281250000197,0.08665180664062502,0.008190966796875174,0.08760647524252065,0.0019962282526956266,0.01623769025992752,0.002055547517227225,0.016488565365421707
74,1790565941.6066682,0.004406835937499804,0.07228168945312502,0.0034009277343751746,0.07249571809860557,0.0015135842536938384,0.01682355391812435,0.0021843732079160796,0.017032157527469286
75,1790565941.6266682,-0.0482835937500002,0.03396137695312502,0.08004155273437517,0.09945516936839971,0.0011146196494919744,0.017387316230269116,0.0023984599460291256,0.017587317952636197
76,1790565941.636831,-0.0482835937500002,0.03875141601562502,0.08483159179687517,0.10502083905312677,0.000868693881794275,0.017686239427294633,0.0026165967750435325,0.017899840022274675
77,1790565941.656831,-0.009963281250000197,0.005221142578125016,0.051301318359375174,0.052520020644490226,0.00036994867943814945,0.018252225195427747,0.0031856866726272517,0.018531842493022123
78,1790565941.6823895,0.037937109374999806,0.014801220703125017,0.012981005859375176,0.04274116183674056,-0.00011818373319327872,0.018905399934209765,0.003927074500685041,0.01930932490278054
79,1790565941.7023895,0.033147070312499805,-0.018729052734374984,0.060881396484375176,0.07180564131401164,-0.00033623437720604,0.01933396139809558,0.004530995334759684,0.019860640362865424
80,1790565941.7266495,-0.019543359375000197,0.014801220703125017,0.08962163085937518,0.09291423867124528,-0.0005363041197411661,0.0197686842166562,0.005427510392422584,0.02050722718522859
81,1790565941.7466495,-0.019543359375000197,0.03875141601562502,0.051301318359375174,0.0671970267518319,-0.0007351310173472999,0.02015364077172031,0.0062671185941391636,0.02111839078720768
82,1790565941.7568803,0.013986914062499805,-0.05704936523437499,0.04172124023437518,0.07204807926191589,-0.0008258461599077598,0.020306983001639814,0.0067035644160861625,0.021400779340700175
83,1790565941.7768803,-0.0051732421875001966,-0.09057963867187499,0.060881396484375176,0.10926105351197038,-0.0009633625592409138,0.020340340954994447,0.007582688799227937,0.02172912117440345
84,1790565941.8017657,-0.0243333984375002,-0.023519091796874985,0.032141162109375176,0.046672435764689886,-0.0011638755693770565,0.020162666788671856,0.00868609604699741,0.021984903977722254
85,1790565941.8217657,-0.0722337890625002,0.04833149414062502,0.008190966796875174,0.08729688164681804,-0.0014457027419235169,0.020078510735380733,0.009500365198578815,0.022259685277990163
86,1790565941.8466716,-0.009963281250000197,-0.013939013671874985,0.03693120117187518,0.04071211976069089,-0.0018975570643108388,0.02005367456087777,0.010446556904350049,0.02269099242787181
87,1790565941.8666716,0.0810474609374998,-0.08099956054687499,0.04172124023437518,0.121943764169788,-0.002099352193333305,0.019894314457636172,0.011210375625258314,0.022931714916908215
88,1790565941.891742,0.009196874999999804,-0.004358935546874984,0.027351123046875175,0.02918333018681621,-0.002144678926176877,0.019564019127479605,0.012154095607136626,0.023131634878326104
89,1790565941.911742,-0.0818138671875002,0.06270161132812502,0.008190966796875174,0.10340257668155417,-0.0022843398727083316,0.01942756340437039,0.012847334896111213,0.02340304344348644
90,1790565941.9222856,-0.1057640625000002,0.06749165039062502,0.060881396484375176,0.13945502582138083,-0.0024952531173866336,0.019469369992557457,0.01321259762442503,0.023661263533714477
91,1790565941.9422855,-0.0722337890625002,0.057911572265625016,0.08483159179687517,0.12557017739652254,-0.00310231630624043,0.019724881637589568,0.01402009946388305,0.024397920219929755
92,1790565941.9666667,-0.0722337890625002,0.07707172851562502,-0.015759228515624828,0.10679946115088626,-0.003995526919732391,0.02023647160228062,0.014983137957279707,0.025494576704136355
93,1790565941.9866667,-0.1105541015625002,0.005221142578125016,-0.06365961914062483,0.12767935154613735,-0.004892507634582812,0.020716621499101258,0.015535497057609432,0.0263527362169181
94,1790565942.0115497,-0.1105541015625002,-0.08099956054687499,0.012981005859375176,0.13766497264809088,-0.00625372971060313,0.021082974594142403,0.01602505548462031,0.02721035384400015
95,1790565942.0315497,-0.1488744140625002,-0.018729052734374984,0.056091357421875175,0.16018929101599866,-0.007572853369535818,0.02118367272656782,0.016463128210409895,0.02787706384853357
96,1790565942.0416152,-0.1201341796875002,0.14892231445312504,-0.12114008789062483,0.22646191239458424,-0.008340235760017875,0.02132503509351325,0.01660142344633594,0.028282926204988148
97,1790565942.0616152,-0.0530736328125002,0.09144184570312502,-0.13072016601562483,0.16812549910308888,-0.009896099704505331,0.02192433164096619,0.016457203917895884,0.029145302675727857
98,1790565942.086669,-0.1105541015625002,-0.109739794921875,0.3482837402343752,0.38153190649463714,-0.011860221708974033,0.02252807117897682,0.0167124497193258,0.030454635536352394
99,1790565942.106669,-0.18719472656250022,0.05312153320312502,0.7075366699218752,0.7338064473870454,-0.013639581387488083,0.022852805759921727,0.01846937350748482,0.0323945469066262
100,1790565942.1320128,-0.2303050781250002,0.24472309570312503,0.6644263183593752,0.7445751507465698,-0.016349739508308384,0.02376872347979299,0.022969601659205467,0.03687639893252834
101,1790565942.1520128,-0.1392943359375002,0.04354145507812502,0.3961841308593752,0.42220923234740865,-0.018722037211736372,0.024815492168027645,0.027579144394604183,0.041556377782928935
102,1790565942.1616392,-0.019543359375000197,-0.195960498046875,0.2093726074218752,0.2874358161904573,-0.01980727366677384,0.025133704796569338,0.029902208626813476,0.04379695523290453
103,1790565942.1816392,-0.0626537109375002,-0.210330615234375,0.12315190429687518,0.25165620741610417,-0.021847072113772625,0.025086224990647558,0.034503473650028156,0.04792810175819567
104,1790565942.2066739,-0.1153441406250002,-0.15764018554687498,0.07046147460937517,0.20765239772249347,-0.024351574042049174,0.024344805737476376,0.039762629956245896,0.05259976678425684
105,1790565942.2266738,-0.2542552734375002,-0.224700732421875,0.14710209960937518,0.36983130063745495,-0.02660667405669176,0.023267828424120226,0.04366024580830367,0.05617405101979765
106,1790565942.2516434,-0.2686253906250002,-0.210330615234375,0.10878178710937518,0.35809502286406336,-0.029979012592773253,0.021310240229327468,0.0482756256429163,0.06069105013001754
107,1790565942.2716434,-0.1057640625000002,-0.05704936523437499,0.008190966796875174,0.12044815867092604,-0.03283657820836253,0.01957639009292267,0.051593363703984846,0.06421332490843197
108,1790565942.3121052,0.004406835937499804,0.014801220703125017,-0.09239985351562482,0.09368153108799825,-0.038058107883577885,0.01646660655141367,0.05704309332304189,0.07052292678879954
109,1790565942.3321052,-0.0387035156250002,-0.004358935546874984,-0.08281977539062484,0.09152091365687949,-0.040303374351934006,0.015175696907751413,0.059069963651284335,0.07310215021839044
110,1790565942.3271708,-0.0770238281250002,0.04833149414062502,-0.039709423828124826,0.09922419949617377,-0.040303374351934006,0.015175696907751413,0.059069963651284335,0.07310215021839044
111,1790565942.3471708,-0.1440843750000002,0.04354145507812502,0.08483159179687517,0.1727789466232872,-0.04240479358627533,0.01443688894134752,0.06044583607082846,0.0752348946945557
112,1790565942.3715758,-0.2446751953125002,0.14413227539062504,0.06567143554687518,0.291466638669465,-0.04529599006833696,0.014014100612160478,0.06214838666338562,0.07816996672060392
113,1790565942.3915758,-0.2111449218750002,0.18245258789062502,0.10399174804687518,0.29780095453747446,-0.04799366296831608,0.01420947246232079,0.06358884019605315,0.08092491204970786
114,1790565942.4168375,-0.1201341796875002,0.14413227539062504,0.13752202148437517,0.23263413406380523,-0.05151758958177786,0.015037982940937082,0.06559291854661871,0.08475042141908073
115,1790565942.4368374,-0.019543359375000197,0.23035297851562503,0.04651127929687518,0.23581292735664927,-0.054098554812474615,0.016157261751409538,0.0672176256743685,0.08778336938965949
116,1790565942.4469085,0.004406835937499804,0.311783642578125,-0.025339306640624826,0.31284267682541594,-0.0552146914905678,0.0170458259284635,0.0679290239098536,0.08918281576249722
117,1790565942.4669085,-0.0530736328125002,0.43632465820312505,-0.020549267578124825,0.44002078388865606,-0.05717173804441808,0.01966788978271599,0.06906103625336181,0.09178703747214408
118,1790565942.5066757,-0.0482835937500002,0.49380512695312506,0.008190966796875174,0.49622767029628095,-0.060781665233758254,0.02687362098665811,0.07093740288740917,0.09720451358827847
119,1790565942.5266757,0.0858374999999998,0.503385205078125,0.008190966796875174,0.5107169793876678,-0.06226853090388479,0.031449760538007285,0.07176409786408072,0.10008268142426745
120,1790565942.5362298,0.1720582031249998,0.503385205078125,0.03693120117187518,0.533258477264213,-0.06268747716209216,0.034029322115163435,0.07213211152546677,0.10144336385238688
121,1790565942.5562298,0.1864283203124998,0.46985493164062503,0.07525151367187517,0.5110596498565161,-0.06289519162852139,0.040079072802642245,0.07295520326719347,0.10432928107902134
122,1790565942.5675056,0.1337378906249998,0.383634228515625,0.14710209960937518,0.43208803777365756,-0.06272397368118347,0.0437000189608778,0.07353768637933111,0.10607440713746054
123,1790565942.5875056,0.11936777343749981,0.18724262695312502,0.2285327636718752,0.31864665501969197,-0.06208617771951131,0.05001547594055056,0.07497932250686666,0.10944468968829532
124,1790565942.61169,0.1624781249999998,0.18245258789062502,0.3195435058593752,0.4022389091925374,-0.060919403104897775,0.057177326127910516,0.07745521474857055,0.11392862059000647
125,1790565942.63169,0.23432871093749982,0.35010395507812503,0.3674438964843752,0.5590149740343244,-0.05950403265851853,0.06301043879774948,0.08022607354871461,0.11809855281566638
126,1790565942.6563542,0.23432871093749982,0.393214306640625,0.3482837402343752,0.5751773634524777,-0.057153473544835395,0.0704998697871842,0.08445452695849841,0.12397305474188276
127,1790565942.6763542,0.21516855468749982,0.28783344726562504,0.2237427246093752,0.42332777738620897,-0.05485908549886611,0.0766835942276205,0.088227063187116,0.12912748570332194
128,1790565942.6867495,0.25827890624999983,0.19203266601562502,0.051301318359375174,0.3259085201343695,-0.05347630272462217,0.07978969080638249,0.09010820753908903,0.13170269085322855
129,1790565942.7067494,0.39719003906249983,0.03396137695312502,-0.10197993164062483,0.41147686291266594,-0.05023175994408237,0.08520825116671148,0.09310852793718925,0.13584135507495373
130,1790565942.7315354,0.38760996093749983,-0.028309130859374986,-0.30316157226562485,0.4928994092170826,-0.04535503602551569,0.09092670138744094,0.09551594522291507,0.13945623008637367
131,1790565942.7515354,0.28701914062499984,-0.09057963867187499,-0.34627192382812483,0.45879069656943955,-0.0409982921335622,0.09467048487045028,0.09619297247056909,0.14105477168886818
132,1790565942.7772746,0.3109693359374998,-0.195960498046875,-0.3079516113281248,0.47951709000595316,-0.035077996481092846,0.09821272391870578,0.09567064497711862,0.14152412263284783
133,1790565942.7972746,0.3205494140624998,-0.253440966796875,-0.43249262695312485,0.5950076662325969,-0.03022053721704905,0.09987816760488606,0.09421499765350967,0.1405894555670787
134,1790565942.8073266,0.33491953124999985,-0.354031787109375,-0.6336742675781248,0.7994077032949147,-0.027651230791672705,0.10013168790668492,0.09278935160831578,0.13928678781287102
135,1790565942.8273265,0.3732398437499998,-0.607903857421875,-0.6336742675781248,0.9541478702075442,-0.02224375631566521,0.09911754185663003,0.08847726393309259,0.13471190753536835
136,1790565942.8517737,0.4403003906249998,-0.732444873046875,-0.46602290039062483,0.9734049875183868,-0.015133693190624062,0.095606253624312,0.081980635235066,0.12684797576315182
137,1790565942.8717737,0.4690406249999998,-0.674964404296875,-0.4468627441406248,0.9355545772797625,-0.008825519849477624,0.09105347819887578,0.07609371217681361,0.11899108674843853
138,1790565942.8975027,0.41635019531249984,-0.737234912109375,-0.4181225097656249,0.9442929809875639,-0.00021913933218783467,0.08335002515701934,0.06798733687534946,0.10756185518632952
139,1790565942.9175026,0.42593027343749984,-0.885726123046875,-0.35106196289062486,1.0436339706366453,0.006730807624344559,0.07582565326979594,0.061477404210140106,0.09784837603907488
140,1790565942.9276085,0.5025708984374998,-0.842615771484375,-0.38938227539062487,1.0555554948456594,0.01041954953429621,0.07128396627156912,0.058120183595337487,0.09256309524351264
141,1790565942.9476085,0.6079517578124999,-0.756395068359375,-0.39896235351562487,1.0492424880781461,0.018290506471294245,0.061245459796711574,0.05129017592562368,0.08195261508437969
142,1790565942.9722056,0.6845923828124998,-0.809085498046875,-0.26005122070312486,1.0912894717460815,0.02890312183711487,0.04786342038402583,0.04293447809813193,0.07049586422158435
143,1790565942.9922056,0.6606421874999998,-0.727654833984375,-0.25047114257812486,1.0142314580952438,0.03825573036283874,0.036309505337573315,0.036393773236338536,0.06408110340678848
144,1790565943.0162756,0.5696314453124999,-0.636644091796875,-0.36543208007812483,0.9291589144268597,0.05004418766366674,0.022027212653622532,0.028590922067514287,0.0617013747081447
145,1790565943.0362756,0.5792115234374998,-0.684544482421875,-0.37022211914062486,0.9701296587559816,0.06009330751909765,0.009958248589735267,0.021976506698413622,0.06475599717574598
146,1790565943.0474286,0.5792115234374998,-0.7420249511718751,-0.38938227539062487,1.018678346404199,0.06582560302853949,0.003044245045747084,0.018205870046349822,0.06836469224763614
147,1790565943.0674286,0.5648414062499998,-0.708494677734375,-0.41333247070312484,0.9959187988636237,0.07627915785823751,-0.009670233152002543,0.011254389291928662,0.07770897381326229
148,1790565943.0921931,0.7324927734374999,-0.6222739746093751,-0.46123286132812485,1.0660705018821404,0.0896910512401552,-0.025523833693015467,0.002313633007502673,0.09328077860227295
149,1790565943.112193,0.7803931640624998,-0.516893115234375,-0.45165278320312485,1.0393181513219643,0.10116717084828918,-0.03811552160967403,-0.0051932087333955625,0.1082338157045804
150,1790565943.1364532,0.7181226562499998,-0.5216831542968751,-0.49476313476562483,1.0161909379736667,0.11572621125385044,-0.05298791037359545,-0.01465516625363484,0.12812122585603325
151,1790565943.1564531,0.6702222656249999,-0.579163623046875,-0.5282934082031249,1.0313691447542748,0.12801082891629736,-0.0650608569654343,-0.022820121907022962,0.14539754259534665
152,1790565943.1664257,0.7133326171874999,-0.6797544433593751,-0.5474535644531249,1.1272155655609153,0.13425229658812485,-0.0711193898616443,-0.02708531100293935,0.15432193889918677
153,1790565943.1864257,0.8043433593749999,-0.627064013671875,-0.5187133300781248,1.1442207111452227,0.14716847543630707,-0.0834074385942817,-0.03595531636124376,0.17293971709744096
154,1790565943.2111747,0.9001441406249998,-0.550423388671875,-0.36543208007812483,1.116586756973579,0.16391799964576861,-0.09851806740884013,-0.046926231775584304,0.19691874324832268
155,1790565943.2311747,0.8905640624999999,-0.569583544921875,-0.2983715332031248,1.0984331276360235,0.17810921809659355,-0.11057748642261893,-0.05545779944018851,0.21685442488746354
156,1790565943.256632,0.8570337890624998,-0.593533740234375,-0.40854243164062487,1.1196857303914642,0.19679995678328202,-0.12584579561751671,-0.06603815526715097,0.24275177695661837
157,1790565943.276632,0.7756031249999998,-0.655804248046875,-0.3366918457031248,1.070047110284902,0.21173025028536818,-0.13791570417450094,-0.07422137770039147,0.2633614498205789
158,1790565943.301366,0.7516529296874999,-0.6414341308593751,-0.16425043945312484,1.0016975979803826,0.23025806663143786,-0.1530099982024922,-0.08375282919285709,0.28886912814730176
159,1790565943.321366,0.8091333984374999,-0.483362841796875,-0.11156000976562483,0.9490954267490046,0.2453336305588427,-0.16507167834061093,-0.09071762348461256,0.309300721764539
160,1790565943.3324647,0.9240943359374999,-0.363611865234375,-0.17383051757812484,1.0081572194318051,0.2538873856658047,-0.17146609462309106,-0.09424041895545511,0.3205318748118689
161,1790565943.3524647,0.8139234374999998,-0.315711474609375,-0.19778071289062485,0.8951325643184734,0.2695963680310929,-0.18227953428246652,-0.10019377172070444,0.34050965062008154
162,1790565943.3769352,0.6845923828124998,-0.349241748046875,-0.20257075195312482,0.7947776033146553,0.28868392652630176,-0.1947458965313683,-0.10712002137817586,0.36433373798004276
163,1790565943.3969352,0.7660230468749999,-0.344451708984375,-0.23131098632812483,0.8711733814585962,0.30412019320343264,-0.2044469604288245,-0.1125825883686921,0.38335687126549967
164,1790565943.421525,0.7947632812499998,-0.315711474609375,-0.18341059570312485,0.8746209779324227,0.323130572764346,-0.2158027124150083,-0.11905617757865813,0.40639703635771024
165,1790565943.441525,0.7277027343749999,-0.248650927734375,-0.18820063476562485,0.7917057738871185,0.3385569729546505,-0.2244999811334758,-0.12408906805623057,0.4247577689415589
166,1790565943.451637,0.6462720703124999,-0.15764018554687498,-0.20736079101562482,0.6967901510611955,0.3462286873206389,-0.22854587296600679,-0.12655201041108552,0.43373140457275433
167,1790565943.471637,0.6989624999999998,-0.17201030273437498,-0.14030024414062484,0.7333623109752369,0.361143927594542,-0.2358421455513627,-0.13121410517342708,0.4508476410641905
168,1790565943.4963856,0.7468628906249999,-0.15764018554687498,-0.09718989257812483,0.7694806564893826,0.37951565813445487,-0.24412835244170647,-0.13655858168858487,0.47146477436594175
169,1790565943.5163856,0.7133326171874999,-0.18638041992187498,-0.16425043945312484,0.7553537519165224,0.3943256360202597,-0.25033624377242897,-0.14062190491397403,0.48778628753841174
170,1790565943.541214,0.6558521484374998,-0.277391162109375,-0.18820063476562485,0.7365510005102552,0.41250286817135595,-0.2577504735332351,-0.14556587260088696,0.5077236907238618
171,1790565943.561214,0.7181226562499998,-0.334871630859375,-0.18820063476562485,0.8144069237796037,0.427009746346727,-0.26374537653646013,-0.14951559968815256,0.5236925258866725
172,1790565943.5714097,0.7468628906249999,-0.344451708984375,-0.18820063476562485,0.8437242654689808,0.43441609771427436,-0.2668625469895256,-0.1515149180797207,0.5318737964402263
173,1790565943.5914097,0.6558521484374998,-0.425882373046875,-0.18820063476562485,0.8043241356619271,0.4488692425389125,-0.27321550086271873,-0.1554131084270936,0.5479813327843339
174,1790565943.616494,0.6414820312499998,-0.5216831542968751,-0.24568110351562483,0.8625611366844776,0.4667181790889438,-0.28177094358131094,-0.1603851688542172,0.5682817309461896
175,1790565943.636494,0.7181226562499998,-0.516893115234375,-0.28400141601562484,0.929266079384765,0.4808540808126926,-0.28912696056848003,-0.16454933309051076,0.5847149129125396
176,1790565943.662057,0.7947632812499998,-0.449832568359375,-0.3271117675781248,0.9700516075282507,0.4991122717365251,-0.2989721786129044,-0.17024504178301927,0.6062019445978735
177,1790565943.682057,0.6989624999999998,-0.459412646484375,-0.3175316894531248,0.8946702912039624,0.5134949749977586,-0.3068833414788207,-0.17499978327312668,0.6232811554754376
178,1790565943.6922796,0.6798023437499998,-0.5216831542968751,-0.2887914550781248,0.9042593900929482,0.52080084198763,-0.31107266386241533,-0.177530415705872,0.6320733879211996
179,1790565943.7122796,0.7564429687499998,-0.464202685546875,-0.28400141601562484,0.9318513307063119,0.535104634507349,-0.319518202335532,-0.1825979661917564,0.649438887619412
180,1790565943.7369611,0.7660230468749999,-0.411512255859375,-0.26963129882812487,0.9104035821402899,0.5529271137373231,-0.3299983503018693,-0.1889385019672339,0.6710626362966905
181,1790565943.756961,0.7372828124999998,-0.406722216796875,-0.18341059570312485,0.8617704763220014,0.5674577027900888,-0.3384441378726674,-0.19398525042524517,0.688609436690148
182,1790565943.7811208,0.6845923828124998,-0.315711474609375,-0.08281977539062484,0.7584191328023547,0.5849539246393725,-0.3484251942858863,-0.19964958871733376,0.7095288353824408
183,1790565943.8011208,0.6558521484374998,-0.272601123046875,-0.07802973632812484,0.7145222548304137,0.5992758292544654,-0.35633084593879516,-0.2038765819151537,0.7264081854918012
184,1790565943.8117054,0.6510621093749999,-0.349241748046875,-0.09718989257812483,0.7451828930282879,0.6067559620155154,-0.3603808152574281,-0.20591717343906477,0.7351387704128493
185,1790565943.8317053,0.7037525390624998,-0.344451708984375,-0.11156000976562483,0.7914292462615203,0.6208020722240869,-0.36792603667438933,-0.209507705393186,0.7514374624409955
186,1790565943.8567393,0.6941724609374998,-0.286971240234375,-0.13072016601562483,0.762440594439221,0.6383710147608808,-0.3771392549840438,-0.21378272229945747,0.7716570627490706
187,1790565943.8767393,0.5696314453124999,-0.263021044921875,-0.20736079101562482,0.6608014461328214,0.652197386113277,-0.38422072859124723,-0.21719290951775244,0.7875022277282563
188,1790565943.9007869,0.4882007812499998,-0.382772021484375,-0.25047114257812486,0.6690218355993595,0.6682361523535418,-0.39262290198708877,-0.22150393690977926,0.8060746197118234
189,1790565943.9207869,0.5361011718749998,-0.454622607421875,-0.22652094726562483,0.7385106100896104,0.6811108919226722,-0.3998187427881757,-0.22526701978605862,0.8212869805273354
190,1790565943.946775,0.5504712890624999,-0.363611865234375,-0.21694086914062483,0.6944750314625007,0.6974488290729728,-0.4093613428233021,-0.23028768227977223,0.8408590814061219
191,1790565943.966775,0.5073609374999998,-0.296551318359375,-0.22652094726562483,0.6298170725470039,0.7097229538047661,-0.416593829590824,-0.23423711502481356,0.8556425165135604
192,1790565943.9763281,0.6079517578124999,-0.315711474609375,-0.16904047851562484,0.7055875271035663,0.7155054950029448,-0.4199689796412194,-0.23612404432223025,0.8625987604601473
193,1790565943.996328,0.5983716796874998,-0.358821826171875,-0.11156000976562483,0.706574416298995,0.727605055882632,-0.42698688463356177,-0.23990275014843648,0.8770862252503033
194,1790565944.0221941,0.5361011718749998,-0.354031787109375,-0.07323969726562483,0.64661195938922,0.7431070159152338,-0.4360846215366386,-0.2444152120308229,0.8956096415935175
195,1790565944.0421941,0.5744214843749998,-0.425882373046875,-0.006179150390624826,0.7151042016959247,0.7549611825528646,-0.44323381550831426,-0.24750007454989215,0.9097685910570227
196,1790565944.0662606,0.6462720703124999,-0.651014208984375,-0.04928950195312483,0.9186493042333094,0.769289252699906,-0.45248997069366337,-0.25075546914002195,0.9270552481926655
197,1790565944.0862606,0.5169410156249998,-0.909676318359375,0.06567143554687518,1.0483566927654253,0.7811550888584536,-0.4613693387292828,-0.25303043189738544,0.9418542026423897
198,1790565944.0960197,0.43551035156249984,-1.043797412109375,-0.034919384765624825,1.1315483495090832,0.786773769123395,-0.46648202132184563,-0.2539515001831999,0.9492680361428198
199,1790565944.1160197,0.32533945312499984,-1.062957568359375,-0.025339306640624826,1.1119202455001784,0.7977024837016179,-0.4785481708155977,-0.25564633989895,0.9647241343505478
200,1790565944.1419659,0.40677011718749984,-1.197078662109375,0.3866040527343752,1.3220899913035222,0.8111783648851524,-0.49625160010625635,-0.256812253081403,0.9850017886270642
201,1790565944.1619658,0.39719003906249983,-1.192288623046875,0.7841772949218753,1.4812987941831564,0.8212137390641702,-0.5114349840710003,-0.25581999231736907,1.0007005629201564
202,1790565944.2017229,0.1912183593749998,-0.8809360839843751,0.7362769042968752,1.1639229033010658,0.8399247587341926,-0.5432718551476764,-0.2496097405919514,1.0309815379184395
203,1790565944.2217228,-0.014753320312500196,-0.665384326171875,0.6596362792968752,0.9370560191045509,0.848190233877233,-0.5592046874459681,-0.24486038715618527,1.0450326140865343
204,1790565944.2167523,-0.17282460937500022,-0.651014208984375,0.7793872558593752,1.0301127804765748,0.848190233877233,-0.5592046874459681,-0.24486038715618527,1.0450326140865343
205,1790565944.2367523,-0.3069457031250002,-0.425882373046875,0.5782056152343752,0.7809693936560514,0.8532032232533776,-0.5740099086456872,-0.2375578386766903,1.0554036394243311
206,1790565944.2613978,-0.4027464843750002,-0.349241748046875,0.3339136230468752,0.6290253070517512,0.8571422093101062,-0.5909502069219535,-0.2282228976873098,1.0658332914067292
207,1790565944.2813978,-0.5320775390625002,-0.215120654296875,0.2572729980468752,0.6289457838351009,0.8584570027603678,-0.6034818043468335,-0.2208970764052022,1.0723498646106082
208,1790565944.3068013,-0.39795644531250024,-0.09057963867187499,0.08962163085937518,0.41785887572909414,0.8581045603505563,-0.6175939798291119,-0.21232682987827045,1.0783545071551093
209,1790565944.3268013,-0.2925755859375002,0.321363720703125,-0.025339306640624826,0.43533572668901793,0.8568329093600918,-0.6266916506775037,-0.20649521037752194,1.0814551916284978
210,1790565944.336355,-0.3931664062500002,0.699776806640625,0.09441166992187518,0.8081961182368597,0.8558252276306213,-0.629653917667324,-0.20407789765184048,1.0819189732104753
211,1790565944.356355,-0.6709886718750002,0.8099477050781251,0.3482837402343752,1.107945236217722,0.8524359084888877,-0.6326604473166642,-0.19911244290140007,1.080070360948008
212,1790565944.3809478,-0.6566185546875002,1.2889516113281252,0.008190966796875174,1.4465860757806082,0.8464446720336849,-0.631931518965174,-0.19326505292778445,1.0738516695330989
213,1790565944.4009478,-0.3740062500000002,1.4661830566406253,-0.36543208007812483,1.556635485837752,0.8407572556214883,-0.6272949444998275,-0.18975886821146076,1.0660113218630056
214,1790565944.426642,-0.2877855468750002,1.5188734863281252,-0.6145141113281248,1.6635578683899432,0.8332712751165381,-0.6164794148262143,-0.18781852373192695,1.0534057550135432
215,1790565944.446642,-0.6230882812500003,1.2889516113281252,-0.39417231445312484,1.4849266231224298,0.826952023583234,-0.6051118126824919,-0.18804776367260978,1.0418118431744605
216,1790565944.456699,-0.8386400390625003,1.2745814941406253,-0.11635004882812483,1.5301674529889884,0.8231484959891311,-0.5983194487591131,-0.18853081900946264,1.0349412925035681
217,1790565944.4766989,-0.5799779296875002,1.8589662597656254,-0.37501215820312483,1.9831197827342057,0.814591210001511,-0.5821375374696067,-0.1900844028666753,1.0191050152737373
218,1790565944.501287,-0.1057640625000002,1.8877064941406252,-0.44207270507812485,1.9416616907979323,0.8043843015229494,-0.5583182419552452,-0.19321468396360517,0.9980407195779712
219,1790565944.521287,-0.0818138671875002,1.6865248535156252,-0.5522436035156248,1.7765226111744252,0.7970459755644734,-0.5364884659345505,-0.19687040354811275,0.9807446747433948
220,1790565944.5466557,-0.41711660156250024,1.7008949707031253,-0.5809838378906249,1.8451482814539202,0.7881847189728508,-0.5065071677750492,-0.20296802931631677,0.9586348017646568
221,1790565944.5666556,-0.7907396484375002,1.6003041503906252,-0.33190180664062485,1.8155994532439783,0.7804348600797149,-0.4814644044838625,-0.20842347748688933,0.9403865639088919
222,1790565944.576707,-0.4841771484375002,1.7344252441406252,-0.37501215820312483,1.8393728706767156,0.7761631984778833,-0.46825280810045955,-0.2112868306345106,0.9307696426962797
223,1790565944.5967069,0.27743906249999983,1.3991225097656252,-0.48997309570312486,1.5081743484248247,0.7686283012286275,-0.4412073185510798,-0.21742718302685182,0.9125392831608028
224,1790565944.6214695,0.0906275390624998,0.8722182128906251,-0.37980219726562486,0.9556294631196954,0.761382051222483,-0.40852597138969904,-0.22550471278315537,0.8929997047653859
225,1790565944.6414695,-0.2303050781250002,0.7333070800781251,-0.36543208007812483,0.8510700957342427,0.7561978563205596,-0.3836813628879568,-0.2321679301775165,0.8791749165747859
226,1790565944.6674826,0.0810474609374998,0.762047314453125,-0.48518305664062483,0.9070211678019292,0.7501752218743909,-0.35329675986334375,-0.24119404987603033,0.8635716726131247
227,1790565944.6874826,0.5313111328124999,0.45548481445312505,-0.5618236816406249,0.8974429147862977,0.7471578747919636,-0.3316136587343953,-0.24866326631814686,0.8544272517533984
228,1790565944.712182,0.3397095703124998,-0.11931987304687498,-0.6145141113281248,0.7122270826690182,0.745604012153938,-0.3082295772089789,-0.25868302621334693,0.847258946991633
229,1790565944.732182,0.4882007812499998,-0.655804248046875,-0.4372826660156248,0.9271652196707822,0.7457763935672729,-0.293297611824592,-0.26715705800986955,0.8447359421432864
230,1790565944.7416172,0.9336744140624998,-1.062957568359375,-0.4277025878906249,1.4780244271647767,0.7468516910152224,-0.2885262240421169,-0.2711672024303646,0.8453203428323545
231,1790565944.7616172,0.4786207031249998,-0.7995054199218751,-0.8923363769531248,1.2901747569915296,0.7509075663869497,-0.28272299009606033,-0.28037260210925175,0.8499430912711399
232,1790565944.7872972,0.1768482421874998,-1.115647998046875,-0.5714037597656249,1.265878356314342,0.7565966006119685,-0.280077913299053,-0.29323858104681355,0.8584118586027846
233,1790565944.8072972,0.7756031249999998,-1.321619677734375,-0.3271117675781248,1.5669208303461166,0.761791368364596,-0.2819827930793682,-0.3031035212149923,0.8670133384675074
234,1790565944.8321002,1.8437818359375,-1.6617124511718748,-0.35585200195312483,2.50747888848675,0.7721399344776431,-0.2895404267636933,-0.31477286599559456,0.8826753051449446
235,1790565944.8521001,2.1742945312499997,-1.848523974609375,-0.34627192382812483,2.874804660939753,0.7852599756219875,-0.29998579685902765,-0.3238242481270922,0.9008256497825019
236,1790565944.877187,1.6809205078124998,-1.8964243652343749,-0.08760981445312482,2.5356645295124793,0.8065021256692556,-0.3181687617157824,-0.3342911274887746,0.9292080485868051
237,1790565944.897187,1.7192408203124998,-1.824573779296875,-0.09718989257812483,2.5088452223175954,0.8259969870113769,-0.3360718380832157,-0.34166114906370715,0.9549594984521786
238,1790565944.9067514,2.452116796875,-1.829363818359375,-0.38938227539062487,3.0840018355745644,0.8369136419101432,-0.34597029159318893,-0.3450060025957354,0.9690970170769613
239,1790565944.9267514,2.432956640625,-2.289207568359375,-0.41333247070312484,3.3660946269427243,0.8636447582877376,-0.369741881451136,-0.3521552930769922,1.0032969041410689
240,1790565944.9518015,2.068913671875,-2.164666552734375,-0.6049340332031249,3.0548535563469517,0.9005615296629614,-0.40341766993224776,-0.3616797439858944,1.0509848344919916
241,1790565944.9718015,2.1742945312499997,-1.604231982421875,-1.012087353515625,2.8853834707357593,0.9319794466549598,-0.4319246701046705,-0.3705689246798478,1.0920008871657074
242,1790565944.9818623,2.394636328125,-1.690452685546875,-1.0791479003906248,3.1235354355227214,0.9488607690788172,-0.44659983748456944,-0.37594775537286684,1.1140578480078964
243,1790565945.0018623,1.9539527343749998,-1.9778550292968748,-0.9450268066406249,2.936480456321114,0.9839084727687608,-0.4768993203793928,-0.38807276999511475,1.1602195134439703
244,1790565945.0271187,1.4845289062499998,-1.8964243652343749,-0.7965355957031248,2.536675068227808,1.0280418755789003,-0.5167614943395537,-0.40438665346696334,1.2196069471260162
245,1790565945.0471187,1.6138599609375,-1.709612841796875,-0.7534252441406248,2.4687992305698607,1.0623954802742124,-0.5490016229002892,-0.4176924055194283,1.2667098657872813
246,1790565945.0714593,1.6665503906249999,-1.556331591796875,-0.5570336425781248,2.3473058401242026,1.1039220637363492,-0.5883154541232589,-0.4338492144549979,1.3240030729750574
247,1790565945.0914593,1.3360376953125,-1.470110888671875,-0.28400141601562484,2.00670863669503,1.137428940171859,-0.6203126815813894,-0.4463950051848181,1.3703287625694522
248,1790565945.1166868,0.9240943359374999,-1.187498583984375,-0.020549267578124825,1.504834044363252,1.1776303857243404,-0.6596475776908833,-0.46042247766769256,1.426161670385362
249,1790565945.1366868,0.9240943359374999,-0.9815269042968751,0.2812231933593752,1.37710997747225,1.2074930499046244,-0.6894075585051457,-0.4694841027054811,1.4675617772295544
250,1790565945.1770413,1.053425390625,-0.794715380859375,0.2908032714843752,1.3512380000924746,1.264694668926912,-0.7458238849849376,-0.48329411332482075,1.5457293013333873
251,1790565945.1970413,1.0390552734374998,-0.583953662109375,0.056091357421875175,1.1932241956676273,1.2919304970467755,-0.7716581794692728,-0.4885914629203714,1.5821701465961333
252,1790565945.1920576,0.8043433593749999,-0.550423388671875,-0.015759228515624828,0.9747730504333293,1.2919304970467755,-0.7716581794692728,-0.4885914629203714,1.5821701465961333
253,1790565945.2120576,0.9480445312499999,-0.885726123046875,0.12315190429687518,1.3032519287584525,1.3165872932078868,-0.7939240088077725,-0.4922062857277971,1.6143061853650404
254,1790565945.2216604,1.0677955078124999,-1.187498583984375,0.07046147460937517,1.5985321244421637,1.3281020200975684,-0.8045042662388336,-0.49354212064118597,1.629314553740537
255,1790565945.2416604,1.0390552734374998,-1.307249560546875,-0.16425043945312484,1.6779497852047958,1.351647022080647,-0.8269768055644895,-0.49604765660996625,1.6603926002212148
