imu_index,t_imu,ax,ay,az,mag,vx,vy,vz,velocity
0,1791096756.0486553,0.04167333984374995,-0.139438037109375,-0.06001918945312596,0.1574227955197669,0.0,0.0,0.0,0.0
1,1791096756.0686553,0.04167333984374995,-0.096327685546875,-0.11270961914062597,0.1540102220743002,0.00017815335793158713,-0.0005314315744857013,-0.0003356173593734025,0.0006532971370023193
2,1791096756.0486553,-0.020597167968750055,-0.096327685546875,-0.05522915039062596,0.11293150749025231,0.00017815335793158713,-0.0005314315744857013,-0.0003356173593734025,0.0006532971370023193
3,1791096756.0686553,-0.034967285156250055,-0.187338427734375,0.03578159179687404,0.1939038933304442,0.00025039465234862144,-0.0015865250150740354,-0.0008213939385411178,0.0018040086218343151
4,1791096756.1079626,0.056043457031249945,-0.187338427734375,0.054941748046874045,0.20311364124658737,0.00043321201800841083,-0.004453693101042683,-0.0013654578142478623,0.0046784110479213626
5,1791096756.1279626,0.16621435546874996,-0.096327685546875,0.002251318359374042,0.1921231464479615,0.0008456648475457418,-0.006119209411142045,-0.0015149697269153852,0.006360424995647227
6,1791096756.1536138,0.04646337890624995,-0.06758745117187501,0.04057163085937404,0.09150391448394792,0.0017044699374103229,-0.008250264919607137,-0.0015955797305120382,0.008574261699275137
7,1791096756.1736138,-0.034967285156250055,-0.081957568359375,0.08847202148437405,0.12556692489709093,0.0022908750836566267,-0.00988690936903123,-0.0014554375853131352,0.01025267692288694
8,1791096756.1827676,0.04646337890624995,-0.096327685546875,0.050151708984374044,0.11812308197916581,0.002526901884445663,-0.010646027031194808,-0.0013057463788884848,0.011019441831986136
9,1791096756.2027676,0.16142431640624996,-0.077167529296875,-0.007328759765625959,0.1790707910986921,0.0032770683537443838,-0.012316058701929677,-0.0009635142286226331,0.012780956091515569
10,1791096756.2129197,0.07041357421874996,-0.125067919921875,0.04057163085937404,0.149151309945415,0.003777261858906525,-0.013190602069856552,-0.0007905417525473164,0.013743531073875248
11,1791096756.2329197,-0.04454736328125006,-0.125067919921875,0.07889194335937405,0.15443571768187206,0.0046536494410263154,-0.015030253305754726,-0.0003216992133227637,0.015737485756593013
12,1791096756.2585833,0.008143066406249946,-0.072377490234375,0.021411474609374044,0.07591615024532998,0.005539459511760706,-0.01741680667067598,0.00038273063999532536,0.01828051555697844
13,1791096756.2785833,0.16142431640624996,-0.06758745117187501,-0.05522915039062596,0.18351057881224742,0.006380584937242542,-0.019207644558368812,0.0007986296452375022,0.020255450696843397
14,1791096756.2885752,0.12310400390624995,-0.086747607421875,-0.02169887695312596,0.1521531610982718,0.006950996515386227,-0.02008379104268492,0.0009175942431930841,0.021272446836184213
15,1791096756.3085752,-0.015807128906250054,-0.062797412109375,0.03578159179687404,0.07398447542161536,0.008082428056738008,-0.021798765743959673,0.001141122185276872,0.023276898227515334
16,1791096756.3478231,-0.030177246093750058,-0.043637255859375,-0.007328759765625959,0.05355919155888716,0.009834342856779145,-0.024972715124806522,0.0015977297253805592,0.026886865574194178
17,1791096756.3678231,0.08478369140624994,-0.096327685546875,-0.05043911132812596,0.13788183811821966,0.010675081713048408,-0.026557435630607994,0.0017088542657761245,0.028673593073694284
18,1791096756.3781083,0.056043457031249945,-0.192128466796875,-0.007328759765625959,0.20026963711315232,0.01115121650713344,-0.0274726576741894,0.0017128676004701036,0.029698997705123034
19,1791096756.3981082,-0.020597167968750055,-0.096327685546875,0.016621435546874043,0.09989763986596191,0.011991374156696597,-0.029418083299001172,0.0017334401158819208,0.03181542854949799
20,1791096756.4084365,-0.04454736328125006,-0.019687060546875,0.011831396484374042,0.050120154339930424,0.01230970137898137,-0.030361901020296567,0.0017645106690692147,0.03280986558197459
21,1791096756.4284365,0.022513183593749948,-0.086747607421875,-0.06959926757812596,0.11347267898642918,0.012800604844647397,-0.032075041544123356,0.0017289999136942812,0.03457821879662983
22,1791096756.4839745,0.11831396484374995,-0.177758349609375,-0.06480922851562596,0.22315120710784317,0.014545909756461795,-0.037220436576285064,0.0010853237665942558,0.039976522075472296
23,1791096756.5039744,0.04167333984374995,-0.149018115234375,0.011831396484374042,0.15518713820580815,0.015320122681594264,-0.03928558960815092,0.000808829904486813,0.042174849325795426
24,1791096756.4980223,-0.034967285156250055,-0.072377490234375,0.054941748046874045,0.09736430455907207,0.015320122681594264,-0.03928558960815092,0.000808829904486813,0.042174849325795426
25,1791096756.5180223,0.04646337890624995,-0.062797412109375,0.021411474609374044,0.08099883821369477,0.015905285855754615,-0.04126270396159042,0.0008087284919599508,0.044229434748240065
26,1791096756.528571,0.09436376953124995,-0.129857958984375,0.002251318359374042,0.1605387147889559,0.01627903822415879,-0.04230149332453646,0.0008274037126051882,0.045333299239003755
27,1791096756.5485709,0.056043457031249945,-0.192128466796875,0.07410190429687405,0.21341346970178462,0.01710698368519532,-0.04445857298685127,0.0009720301990774827,0.04764617975809434
28,1791096756.573499,0.003353027343749946,-0.139438037109375,0.09805209960937404,0.17049464279879875,0.01809519441317302,-0.047363779212905056,0.0014471143273165701,0.050723345532956224
29,1791096756.593499,0.060833496093749946,-0.134647998046875,0.050151708984374044,0.15603202087735993,0.018865395147464478,-0.0497561448188959,0.0019934086103286066,0.0532498897576009
30,1791096756.6180258,0.09915380859374995,-0.125067919921875,-0.016908837890625958,0.16049726212942703,0.01996254447591897,-0.052727676995433986,0.002624011785290328,0.05644108912075674
31,1791096756.6380258,0.08478369140624994,-0.182548388671875,-0.016908837890625958,0.20198538891211817,0.02099890411226228,-0.055248722648216876,0.0030103675596945857,0.05918139607190793
32,1791096756.647607,-0.020597167968750055,-0.182548388671875,0.030991552734374043,0.18630253319780257,0.021467041215425992,-0.05653766797519787,0.003177814092639753,0.060559394490251404
33,1791096756.667607,-0.0014370117187500545,-0.125067919921875,-0.016908837890625958,0.12621393898882893,0.02226459755400912,-0.059286045429354894,0.0034960356360690826,0.06342530845066649
34,1791096756.6935306,0.08957373046874995,-0.101117724609375,-0.05522915039062596,0.14594007836484138,0.023314665624410032,-0.06275383274088385,0.003706380895796806,0.0670474042465001
35,1791096756.7135305,0.10873388671874995,-0.091537646484375,-0.07438930664062596,0.16042433664297145,0.02430073543037402,-0.06531690465430756,0.0036498926134548,0.06978642770744675
36,1791096756.7381413,0.003353027343749946,-0.06758745117187501,-0.012118798828125959,0.06874715727442925,0.02553901402712946,-0.068291484945833,0.0034311309785052466,0.07299137492455193
37,1791096756.7581413,0.003353027343749946,0.033003369140625,0.007041357421874042,0.03391232639237353,0.02640441921351592,-0.07039806478288156,0.0032724043103826606,0.07525815244309741
38,1791096756.8581538,0.14226416015624996,-0.019687060546875,-0.02169887695312596,0.14524982918739135,0.03117512187958215,-0.07925227556526462,0.002487785545771947,0.08519976809476182
39,1791096756.8781538,0.09915380859374995,0.033003369140625,-0.016908837890625958,0.10586127210689389,0.032348165471521695,-0.08073732677642545,0.002296505691436771,0.08700685997533215
40,1791096756.8581538,-0.0014370117187500545,0.07132368164062501,0.054941748046874045,0.09004292445217027,0.032348165471521695,-0.08073732677642545,0.002296505691436771,0.08700685997533215
41,1791096756.8781538,0.04646337890624995,0.06174360351562501,0.02620151367187404,0.08159434706631248,0.033387817750266904,-0.08147765867621784,0.002328512687385041,0.08808392139782724
42,1791096756.859154,0.12310400390624995,0.042583447265625005,-0.02169887695312596,0.13205599956003955,0.033387817750266904,-0.08147765867621784,0.002328512687385041,0.08808392139782724
43,1791096756.879154,0.09915380859374995,0.013843212890625003,0.03578159179687404,0.10631761196198536,0.03468855112937103,-0.08179489170141124,0.0023785026504192937,0.08887832785757524
44,1791096756.9336526,0.012933105468749945,0.07132368164062501,0.02620151367187404,0.07707692325551431,0.03815944840679912,-0.08218155429678815,0.002747638964660158,0.09065043237198167
45,1791096756.9536526,0.017723144531249947,-0.038847216796875,-0.007328759765625959,0.04332351353065954,0.03928812328348705,-0.08225345281971276,0.002891094200919329,0.09120057871297627
46,1791096756.9336526,0.056043457031249945,-0.168178271484375,0.002251318359374042,0.1772847103103958,0.03928812328348705,-0.08225345281971276,0.002891094200919329,0.09120057871297627
47,1791096756.9536526,0.04646337890624995,-0.043637255859375,0.007041357421874042,0.06412984011101923,0.04035140331645993,-0.08288707973636598,0.0030022058778760388,0.09223620209529151
48,1791096756.9778366,0.04167333984374995,-0.0005269042968749973,-0.016908837890625958,0.04497614568504298,0.04160412663064273,-0.08361843938299227,0.0030985111090120654,0.09344810072247792
49,1791096756.9978366,0.017723144531249947,-0.105907763671875,-0.012118798828125959,0.10806215592468016,0.04257381530529854,-0.08429219593046981,0.0031226668564600817,0.0944852109736059
50,1791096757.0237288,0.008143066406249946,-0.28792924804687503,-0.03127895507812596,0.28973769938017196,0.04369111215221922,-0.08579841216348438,0.003064973435359933,0.09633106909524261
51,1791096757.0437288,-0.025387207031250057,-0.283139208984375,0.030991552734374043,0.28595943468616775,0.04439882542088217,-0.0876439448487251,0.003026662776324995,0.09829484958512288
52,1791096757.0533562,-0.015807128906250054,-0.321459521484375,0.09805209960937404,0.33645252787730506,0.04465865070724862,-0.08883561841208414,0.0031041635490203223,0.0994776256903457
53,1791096757.0733562,0.04167333984374995,-0.23044877929687502,0.04536166992187404,0.23853928026900212,0.045156250095031256,-0.09176774008502632,0.003456135046839026,0.10233450010832097
54,1791096757.0984154,0.12789404296874995,-0.206498583984375,0.054941748046874045,0.24903242177052096,0.046004894416800245,-0.0957117195586335,0.004019505457928519,0.10627012748321027
55,1791096757.1184154,0.11352392578124995,-0.192128466796875,0.13637241210937404,0.2615310005774336,0.046942734789150085,-0.09898522483014964,0.004688662567607546,0.10965253595258359
56,1791096757.1436703,0.09915380859374995,-0.081957568359375,0.14116245117187404,0.19098523081871893,0.04835219124052832,-0.10301795174046008,0.0059325786623410474,0.11395537840815259
57,1791096757.1636703,0.07999365234374994,0.018633251953125003,0.11242221679687404,0.13922980041343416,0.04956966569741071,-0.10582750504470718,0.0071502779265007945,0.1170800540475054
58,1791096757.1729054,0.12310400390624995,0.042583447265625005,0.16511264648437404,0.2103096093568911,0.05018818979490836,-0.10688783692702035,0.007820448132053525,0.11834282186433269
59,1791096757.1929054,0.10394384765624995,0.11922407226562501,0.16990268554687404,0.23213277543083966,0.05166733580732033,-0.10859697692444113,0.009556614982431844,0.12064056480502919
60,1791096757.2189243,0.022513183593749948,0.286875439453125,0.19864291992187405,0.3496617949276665,0.05354974925691694,-0.10969447982334146,0.012195657838655066,0.1226751344784659
61,1791096757.2389243,-0.0014370117187500545,0.440156689453125,0.26570346679687407,0.514138413796219,0.05481127903962763,-0.1093210099344955,0.014616452502723934,0.12316249513071084
62,1791096757.2782557,-0.011017089843750055,0.646128369140625,0.25612338867187406,0.6951276400070082,0.05688329879279583,-0.1054923359305151,0.020202337893790986,0.12154207945399831
63,1791096757.2982557,-0.011017089843750055,0.770669384765625,0.22259311523437406,0.8022470765502331,0.05774582385844439,-0.1017122972028547,0.023334764715845908,0.11926643626652142
64,1791096757.3827486,0.09436376953124995,0.832939892578125,0.28007358398437404,0.8838181928960601,0.06137127582438675,-0.07797633479817001,0.0377685443233909,0.10617535130705807
65,1791096757.4027486,-0.039757324218750056,0.904790478515625,0.3040237792968741,0.9553307873294584,0.06218262668942887,-0.07059406386790895,0.04154876734198346,0.10284211677625832
66,1791096757.3837504,-0.16908837890625006,0.880840283203125,0.37587436523437406,0.9724978266478793,0.06218262668942887,-0.07059406386790895,0.04154876734198346,0.10284211677625832
67,1791096757.4037504,-0.28883935546875006,0.703608837890625,0.47646518554687406,0.8975035615882624,0.06181565872538856,-0.06060702465574645,0.04642535588737252,0.09823289047231157
68,1791096757.3847513,-0.4325405273437501,0.660498486328125,0.40940463867187404,0.8893602849254072,0.06181565872538856,-0.06060702465574645,0.04642535588737252,0.09823289047231157
69,1791096757.4047513,-0.3319497070312501,0.622178173828125,0.37587436523437406,0.7991106471738296,0.05948403163998391,-0.04972814048989495,0.05225609144264385,0.09349832656037911
70,1791096757.4285855,-0.14992822265625005,0.507217236328125,0.32797397460937405,0.6223461454835832,0.05626080759301494,-0.03668944288263978,0.059420544292858625,0.08967828485266825
71,1791096757.4485855,-0.36068994140625005,0.45931684570312503,0.22738315429687406,0.6267154836417467,0.05319588673374204,-0.025939671557725204,0.06536369140792392,0.08817642020620976
72,1791096757.473688,-0.4804409179687501,0.310825634765625,0.16511264648437404,0.5955654765978153,0.04834249087944041,-0.013021325606308184,0.07244309333086833,0.08805994047419732
73,1791096757.4936879,-0.44691064453125007,0.401836376953125,0.002251318359374042,0.6010047141849276,0.04366461871850991,-0.003203693099795811,0.07748849449809936,0.08900185030038701
74,1791096757.5034575,-0.24093896484375008,0.363516064453125,0.059731787109374046,0.44018564298116986,0.041218306196130663,0.0014334964641389072,0.07962882079832873,0.08967582048424777
75,1791096757.5234575,-0.08765771484375005,0.215024853515625,0.16032260742187404,0.28217530198724433,0.03646864159481557,0.010370369931612137,0.08368323280276492,0.09187159432932113
76,1791096757.5484254,-0.10681787109375006,0.08090375976562501,0.23217319335937406,0.2680669088938511,0.03106442243807547,0.02040777216839463,0.08872050490905813,0.0961914938942447
77,1791096757.5684254,-0.13076806640625005,0.219814892578125,0.22738315429687406,0.342230876819667,0.027028455061644033,0.027693049419081888,0.09283958311509383,0.1005814623185179
78,1791096757.5785758,-0.030177246093750058,0.392256298828125,0.19385288085937405,0.4385825003002522,0.025164838932359785,0.03130183188216054,0.09493720749817258,0.10308320505893154
79,1791096757.5985758,0.022513183593749948,0.392256298828125,0.21780307617187405,0.4492327096236386,0.0220321513423631,0.038522602494816524,0.09906780028133036,0.10855337695497085
80,1791096757.6231143,0.08957373046874995,0.18628461914062502,0.2944437011718741,0.35975339564519454,0.018971392648827086,0.047117797490476884,0.10431827901046206,0.11602716886615035
81,1791096757.6431143,0.19016455078124994,0.11443403320312501,0.3231839355468741,0.39205300728923703,0.017270543565899972,0.05352352077339712,0.10888218688610288,0.12254945765747866
82,1791096757.699052,0.34344580078125,-0.115487841796875,0.17469272460937404,0.4022561468873045,0.015465690334975336,0.06874779312680797,0.12182098503863795,0.14073307725310275
83,1791096757.719052,0.12310400390624995,-0.402890185546875,-0.10312954101562596,0.4337174190850986,0.015617003461593714,0.07259701829457227,0.1258605452881208,0.1461338247039507
84,1791096757.699052,0.003353027343749946,-0.556171435546875,-0.21809047851562596,0.5974122239541256,0.015617003461593714,0.07259701829457227,0.1258605452881208,0.1461338247039507
85,1791096757.719052,0.16142431640624996,-0.5609614746093751,-0.424062158203126,0.7215014206105507,0.01613472553656486,0.07247958331038087,0.12740634439758097,0.14746523643808981
86,1791096757.7578049,0.42966650390624994,-0.8196235839843751,-0.361791650390626,0.9936243366055324,0.018705392946118275,0.06827355378453873,0.1276682159847753,0.14598062626381017
87,1791096757.7778049,0.55899755859375,-1.1166060058593752,-0.251620751953126,1.2738132695369666,0.02131608190191021,0.06352412112248779,0.12686297546492806,0.14347091641112625
88,1791096757.803624,0.52067724609375,-0.8483638183593751,-0.481542626953126,1.1057618479916855,0.0262715346163682,0.05450748931336753,0.12455965662765202,0.13847876364823772
89,1791096757.823624,0.42487646484374997,-0.7813032714843751,-0.759364892578126,1.1694399738723225,0.030952670663871133,0.04612619177492376,0.12118172843127131,0.13330680663219527
90,1791096757.8336203,0.21890478515624995,-1.059125537109375,-0.740204736328126,1.3105606662814646,0.03342410479032517,0.04118558756257562,0.11862234843264902,0.12994108261664597
91,1791096757.8536203,0.05125341796874995,-1.260307177734375,-0.380951806640626,1.3176211041437602,0.038032282813823134,0.029304409843643804,0.11258811264666148,0.12239806404372665
92,1791096757.8636987,0.30033544921874994,-1.054335498046875,-0.275570947265626,1.1303822678528068,0.04027188050387573,0.022465703794092833,0.10950719225526302,0.11882069416525684
93,1791096757.8836987,0.58773779296875,-0.9729048339843751,-0.759364892578126,1.36697277564483,0.045381673096890236,0.007889528696941657,0.10275798890766735,0.11260970295885325
94,1791096757.9382012,0.22848486328124995,-1.293837451171875,-0.797685205078126,1.5370498915793585,0.06055424397474571,-0.03513984177547293,0.080759685593896,0.10688195245495485
95,1791096757.9582012,-0.19303857421875006,-1.6003999511718752,-0.333051416015626,1.6460459108291488,0.06533992140033137,-0.05290257390380396,0.07220204587990882,0.11082022867461239
96,1791096757.9387164,0.04646337890624995,-1.700990771484375,-0.34742153320312597,1.7367297348717232,0.06533992140033137,-0.05290257390380396,0.07220204587990882,0.11082022867461239
97,1791096757.9587164,0.28117529296874993,-1.6099800292968751,-0.567763330078126,1.7301590791289199,0.06910214768364108,-0.0749118684884243,0.06377877301797046,0.12022739597361541
98,1791096758.0129752,-0.020597167968750055,-1.6339302246093752,-0.361791650390626,1.673632403042182,0.07883824943008859,-0.13886615659505244,0.0405719453582132,0.16475849529184322
99,1791096758.0329752,-0.0014370117187500545,-1.6051899902343751,-0.25641079101562597,1.6255409756448997,0.08185564347429775,-0.16376252925045487,0.03237364646787959,0.18592085773447983
100,1791096758.028107,0.29075537109374994,-1.7536812011718752,-0.15102993164062598,1.7840253589607036,0.08185564347429775,-0.16376252925045487,0.03237364646787959,0.18592085773447983
101,1791096758.048107,0.45840673828124995,-1.7680513183593751,-0.05522915039062596,1.827345742082447,0.08552833332002724,-0.19131530892027598,0.025621500765657272,0.21112343434409855
102,1791096758.0880558,0.20932470703124995,-1.581239794921875,0.059731787109374046,1.5961528775181817,0.09376457939940469,-0.24813033568592802,0.01417098522061644,0.26563372651017325
103,1791096758.1080558,0.03688330078124995,-1.413588427734375,-0.04085903320312596,1.4146597051925092,0.09763876625331519,-0.2767997991441361,0.00932660991096399,0.29366382673753827
104,1791096758.1028173,0.06562353515624995,-1.495019091796875,0.09326206054687404,1.4993619793568882,0.09763876625331519,-0.2767997991441361,0.00932660991096399,0.29366382673753827
105,1791096758.1228173,0.15184423828124996,-1.4806489746093752,0.22738315429687406,1.505682953868112,0.10089476369551031,-0.3056854553862989,0.006374329909463674,0.3219689162911483
106,1791096758.1483536,0.21411474609374995,-1.5237593261718752,0.016621435546874043,1.5388189889360597,0.10512937015752741,-0.3427889871453384,0.003637561986546343,0.35856618083005454
107,1791096758.1683536,0.027303222656249945,-1.6099800292968751,-0.06959926757812596,1.6117149930274879,0.10831055217738308,-0.3721900952609857,0.001736178568558002,0.38763340547400343
108,1791096758.2232175,0.11831396484374995,-1.5860298339843752,-0.23725063476562597,1.608035040744525,0.11632736032859164,-0.4538961492192567,-0.003959938087420201,0.4685823835215574
109,1791096758.2432175,0.19016455078124994,-1.456698779296875,-0.25641079101562597,1.4912680455666245,0.11927414340709432,-0.48377744708961967,-0.0064654122917791445,0.4983058710813556
110,1791096758.238132,-0.05891748046875006,-1.3992183105468752,-0.10791958007812597,1.4046101899953154,0.11927414340709432,-0.48377744708961967,-0.0064654122917791445,0.4983058710813556
111,1791096758.258132,-0.20740869140625007,-1.217196826171875,-0.02169887695312596,1.2349321115651524,0.1211710451595432,-0.512932594580165,-0.008934565684697242,0.5271262611858474
112,1791096758.2684588,-0.020597167968750055,-1.0112251464843751,0.03578159179687404,1.0120676175642598,0.12182698640799698,-0.527454503069716,-0.010007350253733728,0.5414334811266073
113,1791096758.2884588,-0.030177246093750058,-0.9633247558593752,0.11242221679687404,0.9703319052071054,0.12283062918221806,-0.5543221544660554,-0.011551052634931565,0.5678854120455674
114,1791096758.3277154,-0.14513818359375005,-0.8531538574218751,0.15074252929687404,0.8784417492978901,0.12398894152156738,-0.6044964577895587,-0.013351753895253695,0.6172256430446177
115,1791096758.3477154,-0.12118798828125006,-0.7525630371093751,0.17469272460937404,0.7820199494631768,0.12409105758943281,-0.6286329169914285,-0.013643391719070256,0.6409087899509697
116,1791096758.3424652,-0.15471826171875006,-0.6567622558593751,0.20822299804687405,0.7061382429428358,0.12409105758943281,-0.6286329169914285,-0.013643391719070256,0.6409087899509697
117,1791096758.3624651,-0.32715966796875007,-0.623231982421875,0.17948276367187405,0.726405957240314,0.12309024011000025,-0.6497883863260424,-0.012784324878030958,0.6614677567176851
118,1791096758.4339187,-0.4421206054687501,-0.6711323730468751,0.07889194335937405,0.8075352813707911,0.11592839121168104,-0.720969407346648,-0.008790893487120328,0.7302832039880196
119,1791096758.4539187,-0.5570815429687501,-0.6328120605468751,0.06931186523437405,0.8459285337144583,0.1127256673762667,-0.7398604617053498,-0.007618484756288006,0.7484374524235542
120,1791096758.4344358,-0.5570815429687501,-0.460370654296875,0.10284213867187404,0.7299708832143794,0.1127256673762667,-0.7398604617053498,-0.007618484756288006,0.7484374524235542
121,1791096758.4544358,-0.3942202148437501,-0.41726030273437503,0.18906284179687405,0.6043678483984275,0.10756419154948847,-0.7562195002917844,-0.006114066249479526,0.7638555948157703
122,1791096758.4632154,-0.3558999023437501,-0.47474077148437505,0.26570346679687407,0.6501091238136472,0.10514436162259645,-0.7629109026201623,-0.0052532748314097965,0.7701402333433752
123,1791096758.4832153,-0.4517006835937501,-0.47474077148437505,0.18427280273437405,0.6807119607412685,0.0992473933768079,-0.777291829240084,-0.002911542209149145,0.7836077526246933
124,1791096758.5076153,-0.4900209960937501,-0.594491748046875,0.011831396484374042,0.7705069740445641,0.091408882148245,-0.7941615569767075,-0.00012429295874645876,0.7994048897548724
125,1791096758.5276153,-0.51397119140625,-0.7094526855468751,0.02620151367187404,0.8764565122947806,0.08444164174910566,-0.8078709614069695,0.0018746907872187126,0.8122742120807807
126,1791096758.5688908,-0.5858217773437501,-0.7334028808593751,0.12200229492187405,0.9465471464376326,0.06881504769694322,-0.8363867362851731,0.005840118002517646,0.8392332157401658
127,1791096758.5888908,-0.45649072265625007,-0.8244136230468752,-0.04085903320312596,0.9432449641163183,0.060815514551725285,-0.8504681426061721,0.007595058211230105,0.8526736030319078
128,1791096758.6730976,-0.37985009765625005,-0.9585347167968751,-0.04564907226562596,1.0320652778739534,0.02690491934338487,-0.9121228150845877,0.013329283440499981,0.9126168825305305
129,1791096758.6930976,-0.3032094726562501,-0.9537446777343751,0.059731787109374046,1.0025631057476672,0.01903433473865815,-0.9274383044731207,0.014508054064130423,0.9277470550401374
130,1791096758.6736093,-0.27925927734375006,-0.9537446777343751,-0.012118798828125959,0.9938619217850321,0.01903433473865815,-0.9274383044731207,0.014508054064130423,0.9277470550401374
131,1791096758.6936092,-0.2936293945312501,-0.9393745605468751,-0.11749965820312597,0.9911856314602602,0.011745858225448408,-0.9437754683144689,0.015225994841741534,0.9439713611633396
132,1791096758.674605,-0.34631982421875007,-0.9729048339843751,-0.10791958007812597,1.0383293660497663,0.011745858225448408,-0.9437754683144689,0.015225994841741534,0.9439713611633396
133,1791096758.6946049,-0.32715966796875007,-1.016015185546875,0.011831396484374042,1.0674550517703518,0.004653781194023508,-0.9610006002767874,0.015313165660916672,0.9611338639618865
134,1791096758.7028904,-0.26009912109375005,-1.054335498046875,0.14116245117187404,1.0950806969608884,0.0017914814204207487,-0.9683527180982602,0.015438934107935237,0.9684774425562824
135,1791096758.7228904,-0.33673974609375007,-0.9920649902343751,0.21780307617187405,1.0700583074944772,-0.004976555923766461,-0.9865071683502284,0.01623542977203177,0.9866533071424486
136,1791096758.747414,-0.23135888671875007,-0.8818940917968751,0.22259311523437406,0.9385157529630059,-0.013075501248431726,-1.0088755565318985,0.017875597094096682,1.0091186224978292
137,1791096758.767414,-0.16429833984375006,-0.8627339355468752,0.20822299804687405,0.902585511148523,-0.0192832185695236,-1.0269983819352286,0.01965879337359084,1.0273675034635286
138,1791096758.7922077,-0.3415297851562501,-0.9393745605468751,0.20822299804687405,1.0209916630742573,-0.02676507538736402,-1.0494460080283252,0.022312191335825533,1.0500243458650307
139,1791096758.8122077,-0.5187612304687501,-0.9633247558593752,0.23696323242187406,1.119490675713201,-0.03318551668895523,-1.0676914817762806,0.02479929749526754,1.0684949152578131
140,1791096758.8230982,-0.3415297851562501,-0.9345845214843751,0.14116245117187404,1.0049963480370983,-0.03685986620391168,-1.0776865126911066,0.02625929251986409,1.0786363705236963
141,1791096758.8430982,-0.2840493164062501,-0.9633247558593752,0.002251318359374042,1.004332448861799,-0.043533872800621126,-1.0961355606959184,0.028753456956008637,1.0973764745018444
142,1791096758.8680985,-0.46607080078125007,-1.0016450683593752,-0.02648891601562596,1.1050866468206084,-0.052031600247375395,-1.1194223222231494,0.031358098476345304,1.121069557724151
143,1791096758.8880985,-0.6193520507812501,-1.063915576171875,0.07410190429687405,1.2332900746574165,-0.059438104975448824,-1.1383554315552185,0.0332006487882303,1.1403895211524435
144,1791096758.9729352,-0.4756508789062501,-0.9920649902343751,0.050151708984374044,1.1013409541858834,-0.09310996690881707,-1.2197016696352316,0.04063467723132811,1.2239251634975183
145,1791096758.9929352,-0.4133803710937501,-1.135766162109375,0.007041357421874042,1.2086760057652375,-0.10119083958198016,-1.23919395753451,0.04221013255530836,1.2440349455283333
146,1791096759.003006,-0.5379213867187501,-1.2028267089843752,0.021411474609374044,1.3178049785080317,-0.10536805716715558,-1.2493032035080833,0.04290593301868043,1.2544727342014828
147,1791096759.023006,-0.5427114257812501,-1.212406787109375,0.06931186523437405,1.330139106922529,-0.11404034393089835,-1.2699909313715014,0.04421656169648406,1.2758672619587001
148,1791096759.0040004,-0.43733056640625007,-1.1597163574218752,0.09805209960937404,1.2433077930355303,-0.11404034393089835,-1.2699909313715014,0.04421656169648406,1.2758672619587001
149,1791096759.0240004,-0.3750600585937501,-1.1932466308593752,0.12200229492187405,1.2567386878646656,-0.12277420824144032,-1.2914917099942327,0.045706961044875836,1.2981192046499803
150,1791096759.0629268,-0.3032094726562501,-1.1692964355468751,0.08847202148437405,1.211204952547933,-0.13920346129953445,-1.3339593869043713,0.04878711097598103,1.3420899492006637
151,1791096759.0829268,-0.3558999023437501,-1.217196826171875,0.13158237304687403,1.2749693231712766,-0.14736713421114978,-1.3560856754749366,0.05046236027969555,1.3650025206126617
152,1791096759.0932,-0.44691064453125007,-1.188456591796875,0.20343295898437405,1.2859016928140035,-0.1515500518943396,-1.367599817916965,0.05145192096292422,1.3769328162138006
153,1791096759.1132,-0.4900209960937501,-1.2459370605468751,0.18427280273437405,1.3514570660159648,-0.15987728416472807,-1.3903048535880786,0.0536709908138016,1.4004959504252033
154,1791096759.1082222,-0.4804409179687501,-1.298627490234375,0.030991552734374043,1.3849972239654398,-0.15987728416472807,-1.3903048535880786,0.0536709908138016,1.4004959504252033
155,1791096759.1282222,-0.5762416992187501,-1.418378466796875,0.011831396484374042,1.5310101086976327,-0.16871606965467972,-1.4140290636175186,0.05561296493510515,1.4251442406941244
156,1791096759.1678598,-0.69120263671875,-1.3944282714843752,0.06452182617187405,1.557675946843376,-0.18737375189797537,-1.4623567847004704,0.059111395128147476,1.4754966776288645
157,1791096759.1878598,-0.6337221679687501,-1.3129976074218752,0.011831396484374042,1.4579802760028517,-0.19736314971336724,-1.4871449865632154,0.06072635142159568,1.5014127059812257
158,1791096759.1982272,-0.6480922851562501,-1.293837451171875,-0.08875942382812596,1.4497990189858334,-0.20276130528400962,-1.500093987656425,0.0613781090786349,1.514979006784417
159,1791096759.2182271,-0.8253237304687501,-1.2507270996093751,-0.13665981445312597,1.5047104182062727,-0.21382307899046088,-1.525144018218367,0.06210870332437033,1.5413118037713402
160,1791096759.2280064,-0.7726333007812501,-1.1692964355468751,-0.16061000976562598,1.410677832425133,-0.2195925478871238,-1.5373301822271646,0.06219432082220254,1.5541792399259169
161,1791096759.2480063,-0.7391030273437501,-1.0782856933593752,-0.07438930664062596,1.3093918781154394,-0.2318896749914984,-1.5618857263510686,0.06199065786188804,1.5802223530911774
162,1791096759.2879386,-0.6480922851562501,-0.9154243652343751,-0.12228969726562597,1.1282642193214882,-0.2569139407948015,-1.60953048728676,0.061055979262372675,1.6310490474182426
163,1791096759.3079386,-0.6145620117187501,-0.9537446777343751,-0.17498012695312598,1.1480128141196753,-0.2694612671034817,-1.6326175967073515,0.06021216297163358,1.6558004397019663
164,1791096759.3479736,-0.5858217773437501,-1.0878657714843751,-0.06480922851562596,1.2372709192728468,-0.2944147145599382,-1.6780302634800557,0.05805642071264463,1.704651324256758
165,1791096759.3679736,-0.44691064453125007,-1.1261860839843751,0.09805209960937404,1.2155815209985739,-0.3065597428449029,-1.7006348254926984,0.057190896565017496,1.728990596926896
166,1791096759.3923104,-0.28883935546875006,-1.0495454589843751,0.050151708984374044,1.0897197060053465,-0.3204644711571216,-1.727986355223166,0.056566182069737736,1.7583611841898132
167,1791096759.4123104,-0.3223696289062501,-1.140556201171875,-0.07438930664062596,1.1875707956224106,-0.33109414705060564,-1.750377355706307,0.056093444187015784,1.7822992723056736
168,1791096759.3936183,-0.7151528320312501,-1.212406787109375,0.007041357421874042,1.4076304100528438,-0.33109414705060564,-1.750377355706307,0.056093444187015784,1.7822992723056736
169,1791096759.4136183,-0.8923842773437501,-1.0351753417968752,0.18427280273437405,1.3790917853943536,-0.3425082311242458,-1.7729262484825525,0.055952993479943244,1.806574135878637
170,1791096759.438714,-0.4996010742187501,-0.9968550292968751,0.06931186523437405,1.1171952906530134,-0.35730209522271605,-1.8008008251735343,0.05628048458496539,1.8367677839458485
171,1791096759.458714,-0.3127895507812501,-1.0064351074218751,-0.03606899414062596,1.0545377664491369,-0.3685421353719658,-1.8226881687960486,0.05655219335150954,1.8604337173859453
172,1791096759.498142,-0.5954018554687501,-0.556171435546875,0.007041357421874042,0.8147880803793369,-0.3900625866624226,-1.8639853858934907,0.05692165578372259,1.9052113833471198
173,1791096759.518142,-0.6145620117187501,-0.014897021484374998,0.34713413085937406,0.7059819348286442,-0.40115640267883684,-1.8826479149716417,0.057612217891799815,1.9257748567285085
174,1791096759.5132468,-0.86843408203125,0.761089306640625,0.4812552246093741,1.2510160985095222,-0.40115640267883684,-1.8826479149716417,0.057612217891799815,1.9257748567285085
175,1791096759.5332468,-1.12709619140625,0.9766410644531249,0.3327640136718741,1.5280397515292665,-0.4140557955225282,-1.8925736049035553,0.06038837212879887,1.9382785680267423
176,1791096759.6028442,-0.7582631835937501,0.234185009765625,0.15553256835937404,0.8087002251842882,-0.4620520758703498,-1.9156124783061261,0.07114876315158924,1.9718330138113214
177,1791096759.6228442,-1.0744057617187501,0.35872602539062504,0.04057163085937404,1.133436438155044,-0.4765247189068826,-1.920350621805022,0.07407126815447293,1.979976987533499
178,1791096759.6334345,-1.99888330078125,1.747837353515625,-0.05522915039062596,2.6558464043576615,-0.4854797260165549,-1.920810019468868,0.0753750128753549,1.9826454770914193
179,1791096759.6534345,-2.01804345703125,2.495083447265625,0.13158237304687403,3.2117370260004483,-0.5058800348186773,-1.9151830872685334,0.07758236414511882,1.9823874219268853
180,1791096759.6334345,-1.3953383789062501,2.183730908203125,0.16511264648437404,2.596711777829692,-0.5058800348186773,-1.9151830872685334,0.07758236414511882,1.9823874219268853
181,1791096759.6534345,-1.43844873046875,1.944228955078125,0.09326206054687404,2.4203013845157355,-0.5292219922288789,-1.898960212249874,0.07994302291760269,1.9729461958401184
182,1791096759.6779816,-1.43844873046875,2.102300244140625,-0.007328759765625959,2.547323061062454,-0.5588700151747993,-1.8745858615214825,0.08256399266856303,1.9578622676182036
183,1791096759.6979816,-1.1797866210937502,2.269951611328125,-0.15102993164062598,2.5626913254105204,-0.5833299694501737,-1.851147142983166,0.08414159567511398,1.9427041479227436
184,1791096759.723406,-1.0360854492187501,2.437602978515625,-0.21809047851562596,2.65762013759872,-0.6139852685959355,-1.8168441013698993,0.08514240901537931,1.9196743548186401
185,1791096759.743406,-1.1175161132812501,2.461553173828125,-0.21809047851562596,2.7121301126320843,-0.6377132190181843,-1.7865587736277775,0.08515732830190448,1.898873922065507
186,1791096759.7827256,-0.9594448242187501,2.428022900390625,-0.33784145507812596,2.6324829390350772,-0.6834894282118678,-1.7215303560674409,0.08354283657835235,1.8541315948126855
187,1791096759.8027256,-0.6001918945312501,1.929858837890625,-0.19893032226562596,2.030802481178874,-0.7056204479088528,-1.6868781868511125,0.08203964632535427,1.8303520801611848
188,1791096759.8126283,-0.24093896484375008,1.6999369628906251,-0.21330043945312596,1.7301255272530593,-0.7155593485959337,-1.6695984106268398,0.08110083962789232,1.8182852857346274
189,1791096759.8326283,-0.3846401367187501,1.7813676269531251,-0.20372036132812596,1.8337722439690511,-0.733559818907394,-1.6347122812309218,0.07886366034553666,1.793492048280602
190,1791096759.8732398,-0.5475014648437501,2.102300244140625,-0.275570947265626,2.18983184685415,-0.7674676375370904,-1.5626700288361985,0.07354245424481337,1.742513324559109
191,1791096759.8932397,-0.4229604492187501,1.867588330078125,-0.15581997070312598,1.9212135684294054,-0.7831171482285261,-1.526558301351933,0.07066791061779787,1.7171623886130174
192,1791096759.8732398,-0.10681787109375006,1.455644970703125,-0.12228969726562597,1.4646730380448807,-0.7831171482285261,-1.526558301351933,0.07066791061779787,1.7171623886130174
193,1791096759.8932397,-0.025387207031250057,1.297573681640625,-0.30910122070312596,1.334123507853533,-0.7952976938453775,-1.4921006357868853,0.06758937759893875,1.6921675605907398
194,1791096759.918211,-0.14992822265625005,1.177822705078125,-0.323471337890626,1.230600870706325,-0.8085529894525474,-1.4508954089707933,0.06313748575519595,1.6621798237954473
195,1791096759.938211,-0.030177246093750058,1.259253369140625,-0.27078090820312595,1.2883912504053756,-0.8178471185658841,-1.4191880075918375,0.059215338886974195,1.639046969003179
196,1791096759.9625576,0.68353857421875,1.005381298828125,-0.21330043945312596,1.2343069374953808,-0.826271008638043,-1.3822441645502184,0.05427304192759586,1.6112939748006678
197,1791096759.9825575,0.61647802734375,0.991011181640625,-0.265990869140626,1.197037786705405,-0.830202958980859,-1.3534535747410699,0.05010315140839634,1.5885791947085948
198,1791096760.0680974,0.30991552734374994,0.842519970703125,-0.443222314453126,1.0011660976838632,-0.838554085849839,-1.2370239540751105,0.030393793262513912,1.4947658681278364
199,1791096760.0880973,0.64521826171875,0.373096142578125,-0.6108736816406259,0.9636773276274662,-0.8387810699994673,-1.2120615805172477,0.02489565892942297,1.4742003772177477
200,1791096760.0690982,1.11943212890625,0.26771528320312504,-0.5917135253906259,1.2941888039302116,-0.8387810699994673,-1.2120615805172477,0.02489565892942297,1.4742003772177477
201,1791096760.0890982,1.10027197265625,0.622178173828125,-0.49591274414062597,1.357804678001244,-0.833365585968195,-1.1918743929204614,0.01775852179863248,1.4544339563803177
202,1791096760.1282005,0.96136083984375,0.492847119140625,-0.49591274414062597,1.188714598644847,-0.8183197674594906,-1.1550563096527688,0.002988969864020077,1.4155604028880138
203,1791096760.1482005,1.55053564453125,-0.201708544921875,-0.586923486328126,1.6701276301109447,-0.8080106597845041,-1.1386127032765025,-0.005056440801233042,1.3961897012876119
204,1791096760.129194,1.80919775390625,-0.48432084960937505,-0.304311181640626,1.8974637001474577,-0.8080106597845041,-1.1386127032765025,-0.005056440801233042,1.3961897012876119
205,1791096760.149194,1.51700537109375,-0.06758745117187501,-0.03606899414062596,1.51893855432717,-0.791289373562207,-1.1284347459751713,-0.012516142901609503,1.3782817210097698
206,1791096760.1877177,1.41641455078125,-0.024477099609374997,-0.09354946289062596,1.4197115235417588,-0.755436860365045,-1.1120368067988622,-0.02510410109537716,1.344596937957771
207,1791096760.2077177,1.84751806640625,-0.41726030273437503,-0.313891259765626,1.9198846030146506,-0.7347197299792037,-1.1054632203105572,-0.03127015973914216,1.327719788197123
208,1791096760.2181418,2.1301303710937503,-0.6567622558593751,-0.27078090820312595,2.2454652878245085,-0.7224317309422305,-1.1033906308213728,-0.03445898829030644,1.3193050867523273
209,1791096760.2381418,1.96247900390625,-0.584911669921875,-0.31868129882812596,2.0724389671607812,-0.6962531991092332,-1.101873101152281,-0.04054361443097803,1.3040462541581546
210,1791096760.2326393,1.8331479492187501,-0.8627339355468752,-0.361791650390626,2.058065704869862,-0.6962531991092332,-1.101873101152281,-0.04054361443097803,1.3040462541581546
211,1791096760.2526393,2.0870200195312503,-1.2842573730468752,-0.380951806640626,2.4799382736536484,-0.6666195437646133,-1.1058429162446874,-0.04692147312350029,1.2920804139749102
212,1791096760.277646,2.4750131835937506,-1.413588427734375,-0.515072900390626,2.8964154734264604,-0.6265690982119756,-1.1151218221302874,-0.055380291168140854,1.2802939075365505
213,1791096760.297646,2.2498813476562503,-1.341737841796875,-0.558183251953126,2.6783941191322476,-0.5922548604007789,-1.1255627491129137,-0.06274060717865584,1.2734181189413445
214,1791096760.3232887,2.01516943359375,-1.3656880371093751,-0.567763330078126,2.499673350615159,-0.5466562242729106,-1.142148321360677,-0.07292739262043968,1.268327331613469
215,1791096760.3432887,2.20198095703125,-1.619560107421875,-0.510282861328126,2.78066245259036,-0.5101005333409953,-1.1576217237555417,-0.08129786920600096,1.2676355757720574
216,1791096760.3681152,2.50854345703125,-1.8878022949218751,-0.34742153320312597,3.1586847741203625,-0.4627586390867928,-1.1804788218487994,-0.09172683325205398,1.2712551352192998
217,1791096760.3881152,2.42232275390625,-1.777631396484375,-0.31868129882812596,3.021453073619005,-0.4229449472254991,-1.2016283831710182,-0.0998672279404159,1.2777975828910768
218,1791096760.3978634,2.0103793945312503,-1.5237593261718752,-0.37616176757812597,2.5504833795653528,-0.4032093222569488,-1.212804342774934,-0.10374780279227347,1.2822775588743929
219,1791096760.4178634,2.23551123046875,-1.499809130859375,-0.443222314453126,2.728256569787791,-0.3624234101740781,-1.2368295183476454,-0.11174423697030764,1.2936710401776614
220,1791096760.4434228,2.46543310546875,-1.5477095214843752,-0.48633266601562597,2.9513191326030035,-0.3091071200296391,-1.2687694666207094,-0.12221249324447246,1.3115864685894894
221,1791096760.4634228,2.3696323242187503,-1.461488818359375,-0.630033837890626,2.8544788587514587,-0.26639300900957164,-1.294527031753221,-0.1308496465668059,1.3281141145231596
222,1791096760.487794,2.18761083984375,-1.533339404296875,-0.515072900390626,2.7206747339746777,-0.2138209184085793,-1.326680122079664,-0.1418888591821751,1.3512705057946095
223,1791096760.507794,2.2929916992187502,-1.4854390136718751,-0.313891259765626,2.750066857183988,-0.17042859630467083,-1.3536365285388305,-0.15083265721088615,1.372635511821814
224,1791096760.5332353,2.34089208984375,-1.3896382324218752,-0.10312954101562596,2.724244096172684,-0.11466823635195517,-1.3882693872784004,-0.16129895584900383,1.4023045493901787
225,1791096760.5532353,2.2067709960937503,-1.178876513671875,-0.16540004882812598,2.5073781605174963,-0.07058759931190492,-1.4152638793828622,-0.16869534493930455,1.4270292838153806
226,1791096760.577995,2.15408056640625,-1.226776904296875,0.054941748046874045,2.479528837332557,-0.01610390671213622,-1.4481372027991013,-0.17668361928029394,1.4589646312588194
227,1791096760.597995,2.40795263671875,-1.135766162109375,0.24654331054687406,2.6737584557414404,0.028147477267623268,-1.4742517397473318,-0.18171611744060942,1.485675341372487
228,1791096760.6080773,2.38400244140625,-0.5801216308593751,-0.11270961914062597,2.456158017202624,0.05073253498296666,-1.4867392096276497,-0.1837713210413973,1.4989126612272468
229,1791096760.6280773,2.16845068359375,-0.23523881835937502,-0.649193994140626,2.2757347189137787,0.0956425699814111,-1.5090177569298195,-0.18837951749842533,1.5237351917361142
230,1791096760.6377146,1.88583837890625,-0.6759224121093751,-0.34742153320312597,2.0332140124150038,0.11696762891605882,-1.5188013717092936,-0.1909873349083518,1.5352248027620161
231,1791096760.6577146,2.06306982421875,-0.9776948730468751,-0.424062158203126,2.3220622468840113,0.16050769948310045,-1.5385397751582621,-0.19674466486759148,1.5593510908359458
232,1791096760.6980608,1.97684912109375,-1.0878657714843751,-0.692304345703126,2.3602266186567467,0.24739105372365183,-1.578635774481174,-0.20999491379957125,1.611642362857208
233,1791096760.7180607,1.64154638671875,-1.4375386230468752,-0.29952114257812595,2.202476957280642,0.28942723453689745,-1.5993184612624212,-0.2170656874437777,1.6397271655040404
