imu_index,t_imu,ax,ay,az,mag,vx,vy,vz,velocity
0,1791273910.0199826,0.12267290039062508,0.2699666015625001,-0.05245092773437522,0.30113403372858827,0.0,0.0,0.0,0.0
1,1791273910.0399826,0.13225297851562506,0.2795466796875001,-0.018920654296875217,0.30983090163762234,0.0005387962525207844,0.0011684762245203603,-0.00017393214003343113,0.0012984184527094513
2,1791273910.050186,0.18015336914062507,0.36097734375000007,-0.014130615234375218,0.4036824908271673,0.0010115112432859117,0.002165340447113465,-0.00027464919720655764,0.0024056779561540563
3,1791273910.070186,0.18015336914062507,0.3992976562500001,-0.004550537109375218,0.43808054292269744,0.0023395688411271135,0.004966643282794707,-0.0004704771986368915,0.005510215663233143
4,1791273910.095164,0.11309282226562507,0.3274470703125001,-0.004550537109375218,0.3464567472170624,0.004298755019224939,0.009301886315823151,-0.0006954124951894348,0.010270734262275273
5,1791273910.115164,0.12267290039062508,0.25080644531250007,-0.04766088867187522,0.2832385457693447,0.0059858134178587446,0.013119805703535076,-0.0009268191487682774,0.01445054523907153
6,1791273910.1406913,0.17057329101562507,0.2603865234375001,-0.07161108398437523,0.3194127995951104,0.008377550145295322,0.01824060048389246,-0.0014062255471615902,0.020121638172360755
7,1791273910.1606913,0.17057329101562507,0.2987068359375001,-0.04766088867187522,0.34726442627007825,0.010482057760815755,0.022489456894366315,-0.0019043962628465367,0.024885255301695865
8,1791273910.1702423,0.09872270507812507,0.2699666015625001,-0.02371069335937522,0.2884273486282645,0.01152922379315733,0.02462150948840889,-0.0021577391962800704,0.02727265240492163
9,1791273910.1902423,0.09393266601562507,0.29391679687500005,-0.009340576171875219,0.3087032160397517,0.01368206539398892,0.02926219047733353,-0.002658243075685757,0.03241204963013863
10,1791273910.2151756,0.10351274414062507,0.2843367187500001,-0.009340576171875219,0.3027366911893267,0.01633258548326654,0.035261105358477,-0.0032235447234627503,0.038993462788703304
11,1791273910.2351756,0.17057329101562507,0.2795466796875001,-0.05724096679687522,0.33244265973555176,0.018550884858387004,0.04019709419329296,-0.0037088494420640427,0.044426312865209705
12,1791273910.2600324,0.19452348632812508,0.24601640625000007,-0.05245092773437522,0.3179851548384138,0.021574965633267162,0.04639133455940481,-0.004426027008675978,0.0513539168843119
13,1791273910.2800324,0.12746293945312506,0.22206621093750006,-0.014130615234375218,0.25643688748125,0.024126164057037717,0.05132980204426293,-0.005016388919222034,0.056938427514282575
14,1791273910.3201587,0.07956254882812507,0.22685625000000006,-0.014130615234375218,0.24081866959808634,0.029099940173432023,0.06110273883217163,-0.006108226083228253,0.06795337840588742
15,1791273910.3401587,0.13704301757812506,0.2076960937500001,-0.04766088867187522,0.25335748722885615,0.03153204632018798,0.06589498507580939,-0.006663482765547543,0.07335407968099915
16,1791273910.3344498,0.13704301757812506,0.18374589843750008,-0.04766088867187522,0.23412582977645863,0.03153204632018798,0.06589498507580939,-0.006663482765547543,0.07335407968099915
17,1791273910.3544497,0.14183305664062507,0.2029060546875001,-0.02371069335937522,0.2486959588824311,0.03405701608516535,0.07043644842748627,-0.007293248139680459,0.07857712822526729
18,1791273910.3802567,0.12746293945312506,0.2029060546875001,-0.02850073242187522,0.24130884714709722,0.037347616123564756,0.07620295682427841,-0.008085027455925011,0.0852473033464347
19,1791273910.4002566,0.13225297851562506,0.2076960937500001,-0.062031005859375224,0.25392196315637816,0.0399048323517606,0.0806174766771622,-0.008742399921036636,0.09037700342008609
20,1791273910.4254727,0.09872270507812507,0.17895585937500008,-0.02850073242187522,0.20635809616094686,0.04308218659369184,0.08607969222348312,-0.009618110702862896,0.09673828750022292
21,1791273910.4454727,0.12746293945312506,0.22685625000000006,-0.02371069335937522,0.26129055872280554,0.04556354717752972,0.0903708811708261,-0.010286807229116783,0.10172881301754955
22,1791273910.4554763,0.18494340820312508,0.23643632812500007,0.009819580078124782,0.30033751954747706,0.04685289090379566,0.09254288206676474,-0.010581526940202,0.10426575238136598
23,1791273910.4754763,0.17536333007812507,0.2029060546875001,0.014609619140624783,0.2685825860631518,0.04958445123101346,0.0968929765007303,-0.011045727569081466,0.10940235279271734
24,1791273910.4998724,0.14662309570312507,0.21727617187500006,-0.04287084960937522,0.265603420167083,0.053005781587757636,0.1021721358241771,-0.011578738696353638,0.11568416231447413
25,1791273910.5198724,0.11309282226562507,0.14063554687500007,-0.06682104492187523,0.19244062860343672,0.055779439730955636,0.10638767794679842,-0.012114694370084259,0.12073296871729594
26,1791273910.5448816,0.08914262695312507,0.13584550781250007,-0.03808081054687522,0.16688486469673347,0.05910686387891848,0.11138692781092016,-0.012881119365968368,0.12675406218688404
27,1791273910.5648816,0.09393266601562507,0.18853593750000008,0.005029541015624782,0.21069988551642535,0.06164329451678965,0.11527174170699507,-0.013451673935424242,0.13140935174755572
28,1791273910.574579,0.19452348632812508,0.18374589843750008,-0.014130615234375218,0.26795823594872825,0.06289845919655729,0.11714359812855424,-0.013693442421035174,0.1336650631883418
29,1791273910.594579,0.2328437988281251,0.18853593750000008,-0.07161108398437523,0.3080424998780745,0.0657398618922942,0.12098345727797107,-0.014245884382203278,0.1384256898064072
30,1791273910.6197515,0.22326372070312508,0.18374589843750008,-0.08598120117187522,0.30166539597667746,0.06964078434010586,0.12579430199674466,-0.01513442801622415,0.14457903087838014
31,1791273910.6397514,0.19931352539062508,0.12147539062500007,0.04334985351562479,0.237405479572317,0.07290909958522016,0.1295010906173194,-0.015798444265620132,0.14945186554411632
32,1791273910.679163,0.22805375976562509,0.14063554687500007,0.15831079101562479,0.3112060104497672,0.07964674266375045,0.13648469760600324,-0.016314584523682084,0.1588642249398152
33,1791273910.699163,0.21847368164062508,0.2029060546875001,0.009819580078124782,0.2983253940772838,0.08322278372061577,0.14001235542187473,-0.016285023871171325,0.16369084703633976
34,1791273910.695414,0.11788286132812507,0.15979570312500008,-0.04766088867187522,0.20421213490170464,0.08322278372061577,0.14001235542187473,-0.016285023871171325,0.16369084703633976
35,1791273910.715414,0.050822314453125066,0.044834765625000064,-0.04766088867187522,0.08285302748852269,0.0864883850898357,0.14333047790442993,-0.0164548964518335,0.16821007778667885
36,1791273910.7396023,0.10830278320312507,0.15979570312500008,-0.018920654296875217,0.19396430276156004,0.09013410490076663,0.14711274182106032,-0.01675031293065341,0.17334038379918043
37,1791273910.7596023,0.2424238769531251,0.23164628906250007,-0.14825170898437523,0.36661684163469516,0.09322247568456987,0.1503581513418644,-0.017208695562288066,0.17774741306319686
38,1791273910.784246,0.2567939941406251,0.19811601562500009,-0.09556127929687522,0.3381199035470643,0.09737979264242672,0.15455157089647023,-0.018139418926991495,0.1835702879026385
39,1791273910.804246,0.2567939941406251,0.09752519531250008,-0.07640112304687523,0.2851165564295775,0.1010180239600811,0.15788778708465293,-0.01903940499946688,0.1884030079855997
40,1791273910.8153472,0.22326372070312508,-0.017435742187499936,0.014609619140624783,0.22441955141935854,0.10313424676988403,0.15952850717824532,-0.019515468689142834,0.1909630094480806
41,1791273910.8353472,0.2424238769531251,-0.007855664062499936,0.05771997070312478,0.2493243722398923,0.10707347262990917,0.16200310025636278,-0.020135998437555015,0.19523112320216326
42,1791273910.8595936,0.2903242675781251,0.06399492187500007,0.10083032226562479,0.31392719579347034,0.11210154154512744,0.16465519561686492,-0.020487117826967584,0.2002443783412609
43,1791273910.8795936,0.38133500976562507,0.06399492187500007,0.11041040039062479,0.4021221160458037,0.11663437342068528,0.1667066511837881,-0.020416438357644943,0.20447864330379487
44,1791273910.9053526,0.4244453613281251,0.06878496093750007,-0.02371069335937522,0.43063607905483076,0.12315343245843403,0.16920901869120086,-0.02017156424713077,0.21025068831494786
45,1791273910.9253526,0.4148652832031251,0.020884570312500066,-0.14825170898437523,0.44105321413763077,0.1287147372480461,0.17099499369603885,-0.020267899667022943,0.21498269514278218
46,1791273910.9504197,0.4962959472656251,-0.022225781249999937,-0.10035131835937522,0.5068274259754711,0.1363524986684045,0.17289516490416887,-0.020837912439148808,0.22117631097199045
47,1791273910.9704196,0.4962959472656251,-0.041385937499999935,-0.02371069335937522,0.49858265119699097,0.14302115726171705,0.17408840431572212,-0.02141057617770512,0.22631888280463133
48,1791273910.9804213,0.4867158691406251,0.07836503906250007,-0.02371069335937522,0.4935540635028381,0.14659319137167473,0.17462335463000778,-0.02168957082724251,0.2290268919176084
49,1791273911.0004213,0.49150590820312506,0.15979570312500008,-0.23447241210937522,0.5675297671278403,0.15413196734264095,0.17588985918697259,-0.02255105687762377,0.23495202933369994
50,1791273911.0250065,0.39091508789062507,0.12626542968750007,-0.35422338867187525,0.5424313539581673,0.16363612867747088,0.1777406631353319,-0.024536693626303927,0.24283857863702063
51,1791273911.0450065,0.3046943847656251,0.07357500000000007,-0.29674291992187524,0.4316344625449447,0.1712513932274542,0.17932020063290047,-0.02688615225956065,0.24941058361804155
52,1791273911.0696673,0.2472139160156251,0.12626542968750007,-0.26800268554687523,0.38585375269172495,0.18025363467885575,0.18134530916828853,-0.03039311915107062,0.25749026324117913
53,1791273911.0896673,0.21368364257812508,0.22685625000000006,-0.4308640136718752,0.531759584348939,0.18715069140720167,0.1832710033295271,-0.03385895202296874,0.2641213179349574
54,1791273911.0996542,0.14183305664062507,0.2076960937500001,-0.38296362304687526,0.45816527573815624,0.19034438438748102,0.18441383672598943,-0.03593956923611622,0.26745298742157775
55,1791273911.1196542,0.13704301757812506,0.15500566406250008,-0.24405249023437522,0.3199518128530838,0.19619910494532244,0.18690325658524798,-0.04042178600628585,0.2739723286893307
56,1791273911.1453543,0.14662309570312507,0.16937578125000008,-0.22968237304687522,0.3208433885185412,0.2031407209410935,0.19024758526842278,-0.046230636756992106,0.28213040952703056
57,1791273911.1653543,0.16578325195312507,0.2076960937500001,-0.25842260742187523,0.37068045270000793,0.20820103956823155,0.1930253843381782,-0.05080520652055592,0.28842267748183403
58,1791273911.1907089,0.15620317382812507,0.14063554687500007,-0.23926245117187522,0.3184718340757684,0.21426618831097813,0.1966810506621734,-0.0566810335823158,0.29632106693728605
59,1791273911.2107089,0.18015336914062507,0.14063554687500007,-0.20094213867187521,0.3043211076339855,0.21883733515373321,0.19955403914658348,-0.06128101433609304,0.3024350451170697
60,1791273911.2205117,0.2424238769531251,0.11189531250000007,-0.08598120117187522,0.2805043030532956,0.22105245074834506,0.20093664767141795,-0.06340840842517868,0.30538557369052544
61,1791273911.2405117,0.21368364257812508,0.22206621093750006,-0.04766088867187522,0.311842366356124,0.2255780504440086,0.20383530019746676,-0.06729818437279254,0.31138935766751163
62,1791273911.2653568,0.18494340820312508,0.2076960937500001,-0.018920654296875217,0.27874669999090296,0.2310995113702769,0.20769685404882038,-0.07152953871530231,0.31884391517822896
63,1791273911.2853568,0.22805375976562509,0.22685625000000006,-0.004550537109375218,0.32170325285157403,0.23549700131659138,0.21099090480879718,-0.07445999997731323,0.32483886949957674
64,1791273911.3096428,0.22326372070312508,0.22206621093750006,0.038559814453124786,0.3172490351648066,0.24085795610817082,0.2152085743391292,-0.07742275077757774,0.33214690699696864
65,1791273911.3296428,0.16578325195312507,0.2029060546875001,0.038559814453124786,0.2648429967880207,0.2451941417356563,0.21879835939555714,-0.07938096791908154,0.3380742925503842
66,1791273911.3398001,0.12267290039062508,0.19811601562500009,0.00023950195312478218,0.23302071474132735,0.24728576569498628,0.22065352427762938,-0.08019674871202517,0.3409834984210728
67,1791273911.3598,0.18973344726562508,0.15021562500000007,0.005029541015624782,0.2420512575639016,0.25125505012892246,0.2242809435955754,-0.08155418795860545,0.34652868200048975
68,1791273911.3852644,0.21847368164062508,0.18374589843750008,0.019399658203124785,0.28612873239262665,0.2563303462642439,0.2288444658991396,-0.08297659892968468,0.35349703246073705
69,1791273911.4052644,0.15141313476562507,0.14542558593750007,0.00023950195312478218,0.20993950506277778,0.26027344755624704,0.23238483364834192,-0.083896742873899,0.358864378111608
70,1791273911.429846,0.16099321289062507,0.04004472656250007,-0.02371069335937522,0.16758458074027527,0.2649688524873413,0.23642547149886067,-0.08490130958142889,0.3651215259753369
71,1791273911.449846,0.2424238769531251,0.011304492187500065,-0.08119116210937523,0.25590844547468933,0.2688211859418824,0.2392968853752464,-0.08575339195476708,0.3699749634681269
72,1791273911.4603305,0.27116411132812507,0.044834765625000064,-0.062031005859375224,0.2817587215490344,0.2709415984598566,0.24062050247099387,-0.08624569170988014,0.37248610084658385
73,1791273911.4803305,0.2999043457031251,0.07357500000000007,-0.04766088867187522,0.3124539286128636,0.27523633530995856,0.24294429096118278,-0.0872084669995097,0.3773357728892032
74,1791273911.5054271,0.25200395507812506,0.07357500000000007,-0.04766088867187522,0.2668161057901314,0.280855968554908,0.24569983728814446,-0.08841479097531843,0.3834914084820485
75,1791273911.525427,0.22326372070312508,0.07357500000000007,-0.08119116210937523,0.24870057179643537,0.2853754991753143,0.2477871153328814,-0.08942520916413155,0.3883741727877887
76,1791273911.5496733,0.22326372070312508,0.12147539062500007,-0.08598120117187522,0.268320193918866,0.29084471305056386,0.25029267516698994,-0.09077040718972222,0.39430487845460543
77,1791273911.5696733,0.21368364257812508,0.15021562500000007,-0.08598120117187522,0.2749876361848929,0.2953348162885158,0.2524569586999711,-0.09197152224857404,0.39926924576397094
78,1791273911.5796487,0.18973344726562508,0.13105546875000007,-0.11472143554687522,0.2575564494912054,0.2975402434631046,0.2535849554643404,-0.09263089975400879,0.4017661131892189
79,1791273911.5996487,0.13704301757812506,0.11189531250000007,-0.10035131835937522,0.20340043442150177,0.3017888635813549,0.25587169644377433,-0.09407720982499966,0.4066907481504806
80,1791273911.6252356,0.13225297851562506,0.09273515625000008,-0.07161108398437523,0.176688445803294,0.3069257736410133,0.2587510829492064,-0.0959799861061218,0.41275623700369807
81,1791273911.6452355,0.19931352539062508,0.04004472656250007,-0.07161108398437523,0.21554027205727005,0.310836103025572,0.26086332653996197,-0.0974590300333781,0.41733322490866426
82,1791273911.6703174,0.19931352539062508,-0.012645703124999935,-0.09556127929687522,0.22139953322448622,0.3157543118317041,0.2631664786769822,-0.0993501368889791,0.42288039755871215
83,1791273911.6903174,0.18015336914062507,0.025674609375000067,-0.08119116210937523,0.1992647153510827,0.3196569736160545,0.26474705173360746,-0.10089701909559766,0.42714375875738814
84,1791273911.714756,0.15620317382812507,0.07357500000000007,0.009819580078124782,0.1729425809102263,0.32432695004256706,0.26657061606533483,-0.10263449314663543,0.4321824881422577
85,1791273911.734756,0.20410356445312508,0.12147539062500007,0.005029541015624782,0.2375706880757708,0.32811593695705676,0.26813169853693436,-0.10382084056082522,0.43627221179014486
86,1791273911.7448077,0.2472139160156251,0.13105546875000007,-0.05245092773437522,0.28467763519683004,0.33007482670401544,0.26898896897263147,-0.10436339678678662,0.4384018421967697
87,1791273911.7648077,0.20410356445312508,0.11189531250000007,-0.03329077148437522,0.23513209361541554,0.3340647745636476,0.2708032534213353,-0.10540960743011747,0.442769534867082
88,1791273911.78978,0.19931352539062508,0.15979570312500008,0.024189697265624782,0.25660414960529204,0.33905495007704173,0.27323764312424725,-0.10653701675590038,0.4482936590351081
89,1791273911.80978,0.17057329101562507,0.17895585937500008,0.028979736328124783,0.2489182040956297,0.3430068734001299,0.27540299621216113,-0.10722475372993838,0.45276668752770927
90,1791273911.835004,0.19931352539062508,0.15021562500000007,0.00023950195312478218,0.24958099438652284,0.3479432110285575,0.27834705123127235,-0.10790675091525005,0.4584598411236187
91,1791273911.855004,0.2328437988281251,0.14542558593750007,0.12478051757812479,0.30155432887796907,0.35191831623877057,0.2807746734731053,-0.1081788565352583,0.46301574872733675
92,1791273911.8645191,0.19452348632812508,0.19811601562500009,0.2397414550781248,0.36683144312251925,0.35383079007034757,0.28200154044368636,-0.10802876001630553,0.46517879337420254
93,1791273911.884519,0.16578325195312507,0.24601640625000007,0.2445314941406248,0.3844526113826837,0.35778815594564894,0.28485971063515464,-0.10703418252378959,0.4696953645786468
94,1791273911.9104927,0.17057329101562507,0.3466072265625001,0.3690725097656248,0.5342717796945171,0.3628118304712087,0.2891692206299393,-0.10474098006235619,0.47562793798726594
95,1791273911.9304926,0.22805375976562509,0.48072832031250007,0.6708449707031248,0.8562366553771168,0.36669782150534275,0.293230845141319,-0.10168017873204616,0.4804065773759111
96,1791273911.9550798,0.28074418945312507,0.7872908203125001,0.7283254394531248,1.1086487637726428,0.37169674952176424,0.2998133338967573,-0.09590165748346992,0.48707662302291865
97,1791273911.9750798,0.22805375976562509,0.9645222656250001,0.6708449707031248,1.1968060381479102,0.37591629100650176,0.30699229759161495,-0.08980753433696657,0.4935815250273748
98,1791273911.9847748,0.19452348632812508,0.9836824218750001,0.7570656738281248,1.2564310280823006,0.3779621796746507,0.31136691495953805,-0.08625823570910482,0.4972376174662177
99,1791273912.0047748,0.3238545410156251,1.2806648437500001,0.6516848144531248,1.472982451742877,0.3823271501717866,0.3224341924960082,-0.07792152368303686,0.5061715342669111
100,1791273912.0296378,0.3238545410156251,1.290244921875,0.3163820800781248,1.367373885502874,0.3881473210975446,0.33892278962717565,-0.06730711872021146,0.5196703266824879
101,1791273912.0496378,0.2567939941406251,1.1417537109375002,0.3499123535156248,1.2214677019917848,0.39299781254585314,0.35384479894260545,-0.0590501194707074,0.5321093299445737
102,1791273912.0897188,0.4340254394531251,1.2567146484375,0.2828518066406248,1.3593067844345268,0.4033370149682157,0.38647360348661364,-0.043082636461325624,0.5602666395564327
103,1791273912.1097188,0.3478047363281251,1.3189851562500001,0.2493215332031248,1.3866691039822265,0.40889503312271414,0.4041763454812969,-0.0355119217202741,0.5760336474055218
104,1791273912.1052718,0.3478047363281251,1.060323046875,0.09604028320312478,1.1200343005213262,0.40889503312271414,0.4041763454812969,-0.0355119217202741,0.5760336474055218
105,1791273912.1252718,0.16578325195312507,0.8591414062500001,-0.09556127929687522,0.8801931609949242,0.4145679837188886,0.42287938557222793,-0.029601025918709688,0.5929332244040048
106,1791273912.165287,0.15141313476562507,0.6531697265625,-0.08598120117187522,0.6759803222226538,0.42516762989115214,0.45922534240690327,-0.02009350452601598,0.6261462908459446
107,1791273912.185287,0.12267290039062508,0.6100593750000001,-0.11951147460937522,0.6336434913095426,0.4300818903649157,0.47656132557334524,-0.016362587470951782,0.6421439587201828
108,1791273912.1942806,0.2903242675781251,0.5477888671875001,-0.21052221679687522,0.6547369144354165,0.4322388411078494,0.48396864298104164,-0.015159136041311333,0.6490653761807716
109,1791273912.2142806,0.4627656738281251,0.23643632812500007,-0.43565405273437524,0.6781214196548558,0.43744559902193164,0.4991464825908427,-0.013853604504205294,0.6638507253473674
110,1791273912.2245936,0.2328437988281251,-0.036595898437499934,-0.3590134277343752,0.4294719265897896,0.4402657820591795,0.5059535680367026,-0.013896041791552856,0.6708323723842817
111,1791273912.2445936,0.21368364257812508,-0.37189863281249996,-0.25363256835937525,0.49829586785948343,0.4455843564072717,0.5165616122471236,-0.01488496344507109,0.6823509947666166
112,1791273912.2703705,0.3286445800781251,-0.43416914062499995,-0.08119116210937523,0.5505470983398687,0.4524594129112117,0.5266245703242013,-0.01661564755623168,0.6944991275335203
113,1791273912.2903705,0.5825166503906251,-0.35752851562499993,-0.26321264648437526,0.7324159915899149,0.45836029124443584,0.5320736014833811,-0.018273648520339476,0.7025171885551448
114,1791273912.3148215,0.3094844238281251,-0.25693769531249994,-0.24405249023437522,0.47048826324821896,0.46612807746897844,0.5366092426952893,-0.020926828255555828,0.7110997089661726
115,1791273912.3348215,0.09393266601562507,-0.4389591796875,-0.30632299804687524,0.5434540332991851,0.4721338874074195,0.5387188797189907,-0.023597058829742234,0.7167183967148747
116,1791273912.3604648,0.03166215820312507,-0.5922404296875,-0.29674291992187524,0.6631798996820356,0.47892082987367846,0.5390347977821311,-0.027667039109090477,0.7215879291950357
117,1791273912.3804648,0.21368364257812508,-0.769471875,-0.33506323242187525,0.8660340843422198,0.48378817915256783,0.5372016657745875,-0.03131289733577118,0.7236139368049161
118,1791273912.4050584,0.050822314453125066,-0.6497208984374999,-0.5506149902343752,0.8531688115394312,0.48936355840045237,0.5326678951227822,-0.03675730342819082,0.724267131754714
119,1791273912.4250584,-0.12161909179687494,-0.836532421875,-0.6607858886718753,1.0729471967461537,0.4931112679633028,0.5273046103324787,-0.04233777423936393,0.723188330794826
120,1791273912.4351234,-0.17430952148437495,-0.8988029296875,-0.6943161621093753,1.1490454510859165,0.49449102078538687,0.5237004065665826,-0.04574785199761001,0.7217176396886618
121,1791273912.4551234,0.03166215820312507,-0.8892228515625,-0.46439428710937525,1.0036841265571796,0.49660746148157936,0.514930846728317,-0.053245559641992526,0.71736172000819
122,1791273912.495082,0.2376338378906251,-0.740731640625,-0.5266647949218752,0.9394301520303321,0.5010087284939108,0.49515326924224,-0.06894853424268726,0.7077714365828692
123,1791273912.515082,0.04124223632812507,-0.7455216796874999,-0.4596042480468752,0.8767779432468348,0.5032995226768757,0.4845096944091061,-0.07710862929386424,0.7028554575549334
124,1791273912.5097365,0.03645219726562507,-0.9850236328124999,-0.5506149902343752,1.1290603116554172,0.5032995226768757,0.4845096944091061,-0.07710862929386424,0.7028554575549334
125,1791273912.5297365,0.14183305664062507,-1.143094921875,-0.5697751464843752,1.2850783376602868,0.5053211094082488,0.4714210936352263,-0.08597290987113469,0.6964040582661236
126,1791273912.5548043,0.35259477539062506,-1.181415234375,-0.49313452148437525,1.327872993898786,0.5084044396850691,0.45310644597253386,-0.09741512278845747,0.6879463873160757
127,1791273912.5748043,0.4244453613281251,-0.970653515625,-0.44523413085937524,1.149154273120123,0.5116609900766473,0.4374580842441987,-0.10658232567593523,0.681561689345367
128,1791273912.5996895,0.39091508789062507,-1.0904044921875,-0.43565405273437524,1.237574650753279,0.5166269655642115,0.4170613127759013,-0.11792183190278703,0.6743508868547237
129,1791273912.6196895,0.3573848144531251,-1.2532658203125,-0.40691381835937523,1.365275788087178,0.5211418555865196,0.3996120228572275,-0.1269321179533068,0.6688724579651328
130,1791273912.6303272,0.4244453613281251,-1.229315625,-0.41170385742187526,1.3641373966130226,0.5238068301571991,0.38974242453464125,-0.13165883486064817,0.6660381382461044
131,1791273912.6503272,0.505876025390625,-1.32511640625,-0.7086862792968752,1.5855851555944827,0.529461151471026,0.3701383798515524,-0.1408930866757313,0.6611976958740646
132,1791273912.6756585,0.2999043457031251,-1.5981486328125,-0.7374265136718753,1.7854465918078701,0.5370793353550883,0.3434793180088667,-0.15358188240789458,0.6557588344576473
133,1791273912.6956584,0.22326372070312508,-1.9334513671875,-0.6416257324218753,2.0493326862096657,0.5429767028489079,0.32029084140702424,-0.16416599779333907,0.6514295032905505
134,1791273912.7199707,0.3046943847656251,-1.842440625,-0.7086862792968752,1.9974139198528036,0.5500329762192975,0.28944580473561327,-0.1775644522631151,0.6464087588478401
135,1791273912.7399707,0.28074418945312507,-2.0005119140625,-0.8475974121093752,2.1907274114394535,0.5558451271999437,0.26211344938077524,-0.18926754511297653,0.6430314684455982
136,1791273912.7502663,0.21368364257812508,-2.254383984375,-0.7709567871093752,2.3921292221997468,0.558770102565212,0.24686826391923072,-0.1956382076639185,0.6414376630267223
137,1791273912.7702663,0.15620317382812507,-2.331024609375,-0.5745651855468753,2.4058678919401135,0.5641546062288588,0.21481754374738285,-0.20817562791809074,0.6385562535047237
138,1791273912.7954814,0.06998247070312506,-2.3741349609375,-0.4691843261718752,2.421063462794145,0.5703526297104387,0.17157245704692012,-0.2235851622360739,0.6361835859300847
139,1791273912.8154814,0.10830278320312507,-2.3406046875,-0.42128393554687527,2.3806805645332556,0.5747987476549941,0.13534463626361154,-0.23530992884677648,0.6356748646005707
140,1791273912.840062,0.22805375976562509,-2.292704296875,-0.25842260742187523,2.3184658190879257,0.5800635650066889,0.0889567987433717,-0.2488115199028657,0.6374121303578337
141,1791273912.860062,0.17536333007812507,-2.254383984375,-0.22968237304687522,2.272829390656288,0.5843098644626006,0.05005410898894152,-0.25888144556736803,0.6410483869366099
142,1791273912.8856492,0.18973344726562508,-2.149003125,-0.29674291992187524,2.177675267985294,0.5896281930172175,-0.0007014094287624423,-0.2708423445360305,0.648858592891941
143,1791273912.9056492,0.33343461914062505,-1.9574015625,-0.21052221679687522,1.99672710350813,0.5939463936725046,-0.040582517143550934,-0.2795499544164993,0.6576985907454471
144,1791273912.915488,0.3573848144531251,-1.8376505859375,-0.27758276367187523,1.89254742933588,0.5962618138384864,-0.06005922389721194,-0.28355122173078245,0.6629755322499592
145,1791273912.935488,0.3094844238281251,-1.7610099609375,-0.6464157714843752,1.9012601191675647,0.6012628106532298,-0.09910999676825594,-0.29185079960695887,0.6756601573019136
146,1791273912.9594657,0.3190645019531251,-1.7658,-0.5937253417968752,1.8900691992354175,0.6074894440602525,-0.14524728073413873,-0.30253871623411044,0.6940244030478179
147,1791273912.9794657,0.4052852050781251,-1.717899609375,-0.42128393554687527,1.814639170660619,0.6129905868993575,-0.18318368697588278,-0.31163885212518405,0.7116407077698684
148,1791273912.9907682,0.4340254394531251,-1.70831953125,-0.5601950683593753,1.8494734973923965,0.6163445623484227,-0.20431100342527772,-0.3168421376516645,0.7225043569756441
149,1791273913.0107682,0.5010859863281251,-1.813700390625,-0.7038962402343752,2.0089963139995546,0.6227919239018906,-0.24137150701769833,-0.32656450552412475,0.7434879697383336
150,1791273913.034911,0.4723457519531251,-1.9478214843750001,-0.6895261230468752,2.119567247988383,0.631169950542785,-0.28620909499230673,-0.33906338917998585,0.771527792374789
151,1791273913.054911,0.4531855957031251,-1.9717716796875,-0.6847360839843752,2.1359129770851433,0.6384575892453459,-0.3236606287937612,-0.3499258031313603,0.7967636811459715
152,1791273913.0805957,0.5298262207031251,-2.120262890625,-0.6703659667968752,2.2859617404815737,0.6483064598887673,-0.37242570725424773,-0.3643937022301003,0.8317361021275267
153,1791273913.1005957,0.5729365722656251,-2.16816328125,-0.7709567871093752,2.3714052158140877,0.6564792603339457,-0.4111344126504696,-0.3761315318460294,0.8610873670905245
154,1791273913.1245568,0.6256270019531252,-2.3358146484375,-0.7038962402343752,2.5185132785919846,0.6669559163257638,-0.4586472894577073,-0.39073513646156116,0.8988111466345285
155,1791273913.1445568,0.8459687988281251,-2.2400138671875,-0.38775366210937523,2.4256294515573127,0.6765963233431961,-0.49922063171794817,-0.4027336274675061,0.9323079955613026
156,1791273913.1551852,0.7932783691406251,-2.0196720703125,-0.4308640136718752,2.2122408641068514,0.6822576928623156,-0.5209435617467331,-0.4088060150508932,0.9507786871491037
157,1791273913.1751852,0.6591572753906251,-2.0340421875,-0.6128854980468752,2.2242851813439626,0.6934915764674241,-0.5617694615084035,-0.42008428411840626,0.9864006793783086
158,1791273913.2147546,0.644787158203125,-2.1633732421875,-0.5985153808593753,2.33541322371904,0.7162533206281388,-0.6428830676541148,-0.4426460295019816,1.05936441578008
159,1791273913.2347546,0.7118477050781251,-2.158583203125,-0.49313452148437525,2.3258095915869816,0.7280672794543905,-0.6842144082863504,-0.45397658684277875,1.0974179064149523
160,1791273913.2443037,0.6495771972656251,-2.0675724609375,-0.6559958496093753,2.264318213312639,0.7338368761016625,-0.7040149848378675,-0.4593979580944404,1.1158853630656917
161,1791273913.2643037,0.5298262207031251,-2.0340421875,-0.7470065917968752,2.2307089215902476,0.7458773798885168,-0.7454176378828573,-0.4711539272541416,1.1549746940358556
162,1791273913.2898264,0.5585664550781251,-2.0723625,-0.6176755371093753,2.2334291762418053,0.7610213136565654,-0.7981882576650869,-0.4865180958595218,1.2053869885280688
163,1791273913.3098264,0.6160469238281251,-1.86160078125,-0.5889353027343752,2.047416926743436,0.7728701953688357,-0.8392382747678298,-0.498561666166092,1.2450754819267205
164,1791273913.3203864,0.49150590820312506,-1.8855509765625,-0.6607858886718753,2.057551587125401,0.7790651813421757,-0.8606293565329954,-0.5049566264806601,1.2659410099735469
165,1791273913.3403864,0.4196553222656251,-1.8807609375,-0.6512058105468752,2.034070131834632,0.7904048674356954,-0.9007150703079874,-0.5172194846986296,1.3051986391725505
166,1791273913.3652244,0.4867158691406251,-1.9047111328125,-0.5841452636718752,2.0508638486753514,0.8040636390670288,-0.9500818998871102,-0.532465609905817,1.3537701348069353
167,1791273913.3852243,0.563356494140625,-1.8472306640625,-0.5266647949218752,2.001751101399298,0.8149872914793328,-0.98949820770442,-0.5445668095846866,1.3927900051423125
168,1791273913.3951595,0.5394062988281251,-1.8711808593750001,-0.5122946777343752,2.0136342270983048,0.8204214445979012,-1.0089122229969474,-0.5504506327064207,1.4120875041992433
169,1791273913.4151595,0.644787158203125,-1.8184904296875,-0.6320456542968752,2.030305304963826,0.831496093177483,-1.0476659772214674,-0.5622349303997887,1.450895540608794
170,1791273913.4392185,0.7597480957031251,-1.9526115234375,-0.5793552246093753,2.1738356438948228,0.8453544267033596,-1.0940968004587264,-0.57647039056145,1.4979953360124518
171,1791273913.4592185,0.6926875488281251,-1.93824140625,-0.5649851074218752,2.134432936592762,0.8573252924320857,-1.132740812119384,-0.5882455891535843,1.5375764298542334
172,1791273913.5003734,0.5537764160156251,-1.93824140625,-0.5027145996093753,2.0775394187590046,0.8821106874047892,-1.2122976152548386,-0.6121369696396014,1.6194123756430518
173,1791273913.5203733,0.6208369628906251,-2.01488203125,-0.5697751464843752,2.183994471581069,0.8941107963214121,-1.2510901040533127,-0.6236145995355619,1.6593841427808504
174,1791273913.5149417,0.5729365722656251,-2.2591740234375,-0.47397436523437525,2.3783976292692515,0.8941107963214121,-1.2510901040533127,-0.6236145995355619,1.6593841427808504
175,1791273913.5349417,0.4531855957031251,-2.4316154296875,-0.5410349121093753,2.531965552326556,0.9058421166035193,-1.2916032709524228,-0.6347604789577366,1.7005028125217543
176,1791273913.5603037,0.4579756347656251,-2.5705265625,-0.6416257324218753,2.688685937602782,0.9202203165332481,-1.344786702864849,-0.6490240729080657,1.7539922902843208
177,1791273913.5803037,0.5106660644531251,-2.7860783203125,-0.7613767089843753,2.9330371169290106,0.9313108860611806,-1.3884700905687508,-0.6606893633294244,1.7976928529970564
178,1791273913.6056058,0.4819258300781251,-3.2076017578125002,-0.7757468261718753,3.335077912243441,0.945120660743504,-1.4468187140527993,-0.6761504977674593,1.8557254512262356
179,1791273913.6256058,0.5489863769531251,-3.4279435546875,-0.6943161621093753,3.540375402294223,0.9559455175218508,-1.49597520495708,-0.6887435931146532,1.9042429948336372
180,1791273913.6346793,0.5346162597656251,-3.3034025390625,-0.5314548339843752,3.3883221689880254,0.9608572462677385,-1.519511887826287,-0.6944339442894532,1.9272782694598192
181,1791273913.6546793,0.5825166503906251,-3.1788615234375,-0.5458249511718752,3.277561763032922,0.9717354951014833,-1.5733332974100804,-0.7067112303440359,1.9796687349841595
182,1791273913.6810143,0.7693281738281251,-2.9872599609375,-0.6416257324218753,3.150757288934192,0.9865809138094046,-1.645751158191713,-0.7227978065364742,2.0504329892284465
183,1791273913.7010143,0.644787158203125,-2.886669140625,-0.37338354492187525,2.9812790004356797,0.9982852200740476,-1.7013098092606012,-0.7347046563526629,2.1049511585238547
184,1791273913.7257438,-0.19825971679687496,-3.1549113281250003,-0.16262182617187523,3.1653148756455978,1.0114146764474297,-1.770907583026242,-0.7482129426470382,2.172301987039934
185,1791273913.7457438,-0.543142529296875,-2.8243986328125,-0.3685935058593752,2.899671122166414,1.0193282573599227,-1.827720672562937,-0.7582958700737688,2.2258943325632656
186,1791273913.7704644,-0.34196088867187496,-2.3693449218750002,-0.5314548339843752,2.452177980645261,1.0260014721956245,-1.8970396372579588,-0.7705580250929802,2.290239742103562
187,1791273913.7904644,0.2903242675781251,-1.7226896484375,-0.5266647949218752,1.8246434203395998,1.0305130737654449,-1.9508471571669606,-0.7805776786274009,2.3403126582145513
188,1791273913.8160384,0.6064668457031251,-1.4640275390625,-0.4500241699218752,1.6473313035283372,1.037136797766719,-2.0154425416086665,-0.7933413230825932,2.401468682019036
189,1791273913.8360384,0.28074418945312507,-1.47839765625,-0.17699194335937524,1.5151907727845078,1.042870652763477,-2.0627951688659385,-0.802766323276766,2.4468626599952996
190,1791273913.859789,-0.581462841796875,-1.61251875,-0.20573217773437522,1.726453441146731,1.0481227332786742,-2.116098687427569,-0.8129616526083414,2.49746703032491
191,1791273913.8797889,-0.7155839355468749,-1.3203263671875,-0.44523413085937524,1.5663829404029523,1.0499364592871725,-2.158651138760877,-0.8212356365693341,2.53703947115246
192,1791273913.8901336,-0.10245893554687494,-0.71199140625,-0.46439428710937525,0.8562077142534258,1.0500991843150576,-2.178936195765984,-0.8255790508607845,2.5557879433432036
193,1791273913.9101336,0.39091508789062507,-0.11323652343749994,-0.21052221679687522,0.45821034465168625,1.0507992815061156,-2.213509385258299,-0.8337291531898466,2.588224725467053
194,1791273913.9360855,0.2472139160156251,-0.036595898437499934,0.014609619140624783,0.25033461811276214,1.0528135050488836,-2.2519336967066192,-0.843099673200542,2.6249645158986277
195,1791273913.9560854,-0.26053022460937497,-0.12760664062499993,0.005029541015624782,0.29014608208527837,1.0541129645296388,-2.2773501658442212,-0.8492084517449439,2.6492702607275103
196,1791273913.965142,-0.409021435546875,0.054414843750000066,-0.09077124023437522,0.4224913348352247,1.0541583443307923,-2.2871827945138294,-0.851617987592882,2.658516155157624
197,1791273913.985142,-0.24137006835937494,0.5190486328125001,-0.04287084960937522,0.5740286603215596,1.053267939927603,-2.304779318523268,-0.856341363597049,2.6748273946890797
198,1791273914.009725,-0.09287885742187493,0.8064509765625001,0.04813989257812479,0.8132079125365397,1.0517213950822355,-2.3207199973212873,-0.8612665509000744,2.689542576450492
199,1791273914.029725,0.12746293945312506,0.7010701171875001,0.04334985351562479,0.7138804661476263,1.0507037870005589,-2.329482196043776,-0.8645352375514432,2.6977559056872398
200,1791273914.0401065,0.14662309570312507,0.5525789062500001,-0.09556127929687522,0.5796324162146813,1.0504682116110464,-2.3323720844050553,-0.8660180752043111,2.7006351679369565
201,1791273914.0601065,0.03166215820312507,0.8878816406250001,-0.09556127929687522,0.8935705109961255,1.0503498767594088,-2.334943683241809,-0.868732954378798,2.703681529607924
202,1791273914.0854833,-0.19346967773437496,1.4099958984375,-0.12430151367187522,1.4286251489156752,1.0499142891201523,-2.333343733036303,-0.8720794479963084,2.703208381648742
203,1791273914.1054833,-0.14077924804687494,1.5105867187500002,-0.21052221679687522,1.5316692316912313,1.0491211148886643,-2.3278910523797673,-0.8748235081103056,2.6990828138086904
204,1791273914.1303809,0.4052852050781251,1.3094050781250002,-0.12909155273437523,1.3767579253674656,1.0487757359667822,-2.316855487577048,-0.878361296686473,2.690588869036904
205,1791273914.1503808,0.6208369628906251,1.3525154296875002,-0.03808081054687522,1.4886862228710003,1.0500790941421985,-2.305327562736801,-0.88102764556782,2.6820535020247593
206,1791273914.1755252,0.2663740722656251,1.6351277343750001,-0.11951147460937522,1.6609879128581884,1.0531450339416508,-2.28737424069741,-0.8841741919312335,2.668887292711939
207,1791273914.1955252,-0.16472944335937495,1.5920173828125002,-0.16262182617187523,1.6087575936212788,1.0553703700123782,-2.2703953605396174,-0.886724758517536,2.6560840552263905
208,1791273914.205154,0.05561235351562507,1.6303376953125002,-0.14825170898437523,1.6380086397321625,1.0562022294560025,-2.261120158979661,-0.8879930094146761,2.6489165912918757
209,1791273914.225154,0.36217485351562506,1.4291560546875002,0.08167016601562478,1.4765932646419682,1.058297590823129,-2.2401551830108613,-0.8903320293718093,2.6326754751085044
210,1791273914.250537,0.4483955566406251,1.2950349609375,-0.10514135742187522,1.3744922081648783,1.062101124171642,-2.212352511351068,-0.8928999961292777,2.611480965953171
211,1791273914.270537,0.5968867675781251,1.4195759765625002,-0.32548315429687524,1.5739787324720376,1.0662164210377791,-2.1896600634581587,-0.8952657999403748,2.5947889129054555
212,1791273914.3103926,0.49150590820312506,1.3573054687500001,-0.39254370117187526,1.495976854977025,1.0764405979435174,-2.1429214191291637,-0.9014194739521716,2.561912105729577
213,1791273914.3303926,0.7549580566406251,1.4483162109375,-0.5122946777343752,1.7117322661520153,1.0826712934316927,-2.1187771765542127,-0.9054015068473158,2.54580944732898
214,1791273914.3254168,1.1477412597656251,1.2758748046875001,-0.6080954589843752,1.8206994820239193,1.0826712934316927,-2.1187771765542127,-0.9054015068473158,2.54580944732898
215,1791273914.3454168,1.2243818847656252,1.1896541015625002,-0.6416257324218753,1.8237520285424254,1.0931570915602065,-2.0941613312289196,-0.9115816016754215,2.532091057714153
216,1791273914.3853633,1.0615205566406252,1.2710847656250002,-0.6128854980468752,1.7658173765400405,1.1178076930265577,-2.044997912679115,-0.9258322408739049,2.5077232382567436
217,1791273914.4053633,1.1429512207031252,1.2327644531250002,-0.6320456542968752,1.7959753336031399,1.1316049095201872,-2.0203197551216845,-0.9337642546282825,2.4968254379124395
218,1791273914.4003909,1.392033251953125,1.1896541015625002,-0.7661667480468752,1.9849546447514603,1.1316049095201872,-2.0203197551216845,-0.9337642546282825,2.4968254379124395
219,1791273914.4203908,1.5501045410156251,1.0555330078125,-0.8428073730468753,2.0560394662362733,1.1492187030377867,-1.9960334281224208,-0.9436913125586581,2.4890573249711787
220,1791273914.4459755,1.4207734863281252,0.9070417968750001,-0.7230563964843753,1.8341572106087782,1.1740717497992827,-1.9658597824614934,-0.9574901671925901,2.481901806729427
221,1791273914.4659755,1.679435595703125,0.7825007812500001,-0.8236472167968752,2.0276109416031494,1.19523589067638,-1.9432763192646343,-0.9689789941567952,2.4786754483983535
222,1791273914.4905722,2.297350634765625,0.8974617187500001,-1.1781101074218754,2.73334975824341,1.2246962285104852,-1.9165693479163106,-0.984681704060077,2.4784505191370707
223,1791273914.5105722,2.532062548828125,0.8304011718750001,-1.4798825683593753,3.0481074904870558,1.2523018307693827,-1.895519053747595,-0.9995216049074708,2.481994318515925
224,1791273914.5352333,2.417101611328125,0.6914900390625001,-1.4511423339843752,2.902818069926067,1.2903890324211313,-1.870641460618312,-1.0204964134625152,2.4911475787409327
225,1791273914.5552332,2.3979414550781253,0.6052693359375001,-1.5277829589843752,2.9069907053121913,1.3238668160511584,-1.851547076430519,-1.0394236786893767,2.5022492894793658
226,1791273914.5655303,2.8146748535156254,0.3753474609375001,-1.6427438964843752,3.2805316271729654,1.342543143497904,-1.842433577365608,-1.0501552648880166,2.5099421625865177
227,1791273914.5855303,3.035016650390625,0.16937578125000008,-1.6427438964843752,3.4552310679401814,1.3821514505136627,-1.8265705154822296,-1.072800858889518,2.529348564951088
228,1791273914.610823,2.8673652832031253,-0.07491621093749994,-1.8247653808593753,3.3995830334266923,1.4359244346554616,-1.8093395224338833,-1.1037211521448613,2.560036888635369
229,1791273914.630823,2.512902392578125,-0.11323652343749994,-2.0403171386718753,3.238887921991631,1.4801373600799053,-1.7980402532182587,-1.1303012821735463,2.5886939458693554
230,1791273914.6554697,2.7715645019531254,-0.4389591796875,-2.1504880371093753,3.5353717976570915,1.536218253970893,-1.7872251389748939,-1.1658903886705456,2.6293422408677736
231,1791273914.6754696,3.2074580566406254,-0.8604826171875,-2.102587646484375,3.930533339222479,1.5838683067398442,-1.7817146266531017,-1.196817411560963,2.6674927817221974
232,1791273914.6856284,3.1499775878906253,-1.0808244140625,-1.9732565917968754,3.870953602836982,1.609284925832798,-1.7808145694566995,-1.2132755251064529,2.6894490147843038
233,1791273914.7056284,2.7045039550781254,-1.2245255859375,-1.9349362792968754,3.543696228316987,1.6605995256144657,-1.782766410110716,-1.2466792793085533,2.736796682793103
234,1791273914.7300506,2.7380342285156254,-1.535878125,-2.102587646484375,3.7784425180919947,1.7238300574536987,-1.7898484381585364,-1.2887458593259213,2.7992880145653256
235,1791273914.7500505,3.1164473144531253,-2.0579923828125,-2.5001608886718754,4.494260893708876,1.7766257993018144,-1.8001689550266835,-1.3249320260513942,2.85524996647287
236,1791273914.77515,3.121237353515625,-2.1825333984375,-2.4762106933593753,4.542817853511594,1.8446868393484819,-1.8191608003896862,-1.3729007505672959,2.9320764014343457
237,1791273914.79515,3.001486376953125,-2.101102734375,-2.3947800292968755,4.37704518598477,1.8999688800378647,-1.8384494871132417,-1.4126966028585728,2.9975806834024388
238,1791273914.8054411,3.1068672363281253,-1.9574015625,-2.3899899902343753,4.381335076716584,1.9288623305486114,-1.8500183068362213,-1.4337952410973358,3.0329600095009406
239,1791273914.8254411,3.3894795410156253,-2.005301953125,-2.572011474609375,4.703727299460793,1.9863362592491818,-1.875073020642374,-1.4760913154337831,3.1048794081329447
240,1791273914.8506343,3.317628955078125,-2.3837150390625,-2.6247019042968756,4.855699677435287,2.060547342507988,-1.9101924277133189,-1.531197400167685,3.199883738495871
241,1791273914.8706343,3.068546923828125,-2.6040568359375,-2.734872802734375,4.8658628706185345,2.1202030658541244,-1.9413721004439801,-1.576421471508623,3.2786111890056304
242,1791273914.8958106,2.9775361816406254,-2.7381779296875,-2.5959616699218753,4.806491140042841,2.195450628602133,-1.984821460956717,-1.6348767168252505,3.381174584921809
243,1791273914.9158106,3.240988330078125,-2.4699357421875,-2.5336911621093754,4.798351678565158,2.2555884151994543,-2.0219722803925286,-1.6820423877497876,3.4648690589464928
244,1791273914.9257529,3.6050312988281252,-2.4124552734375,-2.3851999511718756,4.950289882313673,2.2861043934495484,-2.041310941950593,-1.7056400204987872,3.5074822221935276
245,1791273914.9457529,3.787052783203125,-2.2208537109375,-2.0977976074218754,4.865666941936773,2.349370726517241,-2.0813274084497806,-1.7527132878550595,3.594922872775454
246,1791273914.9702995,3.863693408203125,-1.890341015625,-1.7624948730468752,4.648430281876126,2.429457219015912,-2.13064258222208,-1.8089284352840507,3.703258332358911
247,1791273914.9902995,3.9451240722656253,-1.5215080078125,-1.9828366699218753,4.670185416339928,2.4966350517986546,-2.1699140161996326,-1.8534787311244048,3.791714233206377
248,1791273915.0150084,3.7391523925781254,-1.4736076171875,-2.2606589355468754,4.61122097141567,2.5814210065282372,-2.216704712092469,-1.9081263989174435,3.901084534818986
249,1791273915.0350084,3.4852803222656252,-1.6173087890625,-2.3037692871093753,4.479979862921175,2.6505910726004975,-2.2535334621090444,-1.9525710752037755,3.9895588606658077
250,1791273915.059969,3.537970751953125,-1.97656171875,-2.342089599609375,4.680749615425089,2.737116069906613,-2.299330113168836,-2.0084162392881,4.100299884118501
251,1791273915.079969,3.427799853515625,-2.350184765625,-2.6007517089843755,4.902763477889049,2.806494725167223,-2.3370111791204624,-2.0538652372285795,4.190035358612319
