imu_index,t_imu,ax,ay,az,mag,vx,vy,vz,velocity
0,1790595439.8219423,-0.012538631663602974,-0.012679515165441217,0.01253863166360243,0.021799189728557673,0.0,0.0,0.0,0.0
1,1790595439.8419423,0.011411563648897028,-0.012679515165441217,-0.006621524586397571,0.018298592229779573,-1.767734053471098e-05,-5.4204875638414186e-05,2.4862392276252812e-05,6.219964196885991e-05
2,1790595439.867548,0.001831485523897027,-0.022259593290441217,-0.011411563648897572,0.025081220416736914,-1.1482277090617977e-05,-0.00018029088684197683,1.7287491576346658e-05,0.0001814814148348378
3,1790595439.887548,-0.0029585535386029735,0.006480641084558784,0.01253863166360243,0.014421131436303632,-9.059884444093164e-06,-0.0002876696360251564,1.394900483277026e-05,0.00028815009236995043
4,1790595439.8970969,0.020991641773897028,0.011270680147058783,0.03648882697610243,0.04357879931150999,4.837907236205152e-06,-0.0003185340962219442,4.7706032672168485e-05,0.0003221230220826741
5,1790595439.9170969,0.02578168083639703,0.020850758272058786,0.01732867072610243,0.03741299261491052,9.974016850192693e-05,-0.0003253002178423373,0.0001885300957181267,0.0003889883416409172
6,1790595439.9415867,0.016201602711397027,0.016060719209558785,0.0077485926011024294,0.024093138426616346,0.0002756288401752533,-0.0002645457154977704,0.00038116315735644906,0.0005396675325147138
7,1790595439.9615867,0.016201602711397027,-0.007889476102941217,0.0077485926011024294,0.019615719484502407,0.00044632912119527504,-0.00021011529649052097,0.0005381277787914301,0.0007300271423400944
8,1790595439.9873316,0.011411563648897028,-0.007889476102941217,0.0029585535386024288,0.014185226721222525,0.0006864199255347664,-0.00018102679672681797,0.0007305462707541214,0.001018646586906902
9,1790595440.0073316,-0.0029585535386029735,-0.003099437040441217,-0.020991641773897573,0.021424485370063872,0.0008576371351786115,-0.00017830231786571132,0.0008305552014934247,0.0012071268015090397
10,1790595440.0619526,0.001831485523897027,-0.007889476102941217,-0.025781680836397574,0.027023938261345158,0.001250482606819068,-0.00021699462059401414,0.0008711049666329869,0.0015393561245587095
11,1790595440.0819526,0.020991641773897028,-0.017469554227941216,0.0029585535386024288,0.02746975406383127,0.0014069846887363826,-0.0002670755447328156,0.0008494908313393685,0.0016651035804005098
12,1790595440.0769875,-0.017328670726102974,0.016060719209558785,0.055648983226102434,0.060456917426883576,0.0014069846887363826,-0.0002670755447328156,0.0008494908313393685,0.0016651035804005098
13,1790595440.0969875,-0.03169878791360298,0.030430836397058784,0.04127886603860243,0.060289250621060345,0.0014511866087284294,-0.00023531800845526317,0.0010539907919424438,0.0018089261256213672
14,1790595440.1077206,-0.0029585535386029735,-0.003099437040441217,-0.016201602711397572,0.016758624031417507,0.001443451058871702,-0.0001988301881137597,0.0011674619681603612,0.0018670971721268432
15,1790595440.1277206,0.001831485523897027,-0.03662971047794122,-0.016201602711397572,0.04009466247943741,0.0014295082774456837,-0.00020063153165131127,0.0012985819081649179,0.0019416647236306572
16,1790595440.136933,-0.04127886603860297,-0.031839671415441216,-0.006621524586397571,0.05255049043657406,0.001396793584799283,-0.00024864484635275384,0.0013341501330519905,0.0019475146098750736
17,1790595440.156933,-0.012538631663602974,-0.007889476102941217,-0.044941837086397575,0.04732050124285127,0.0012556983934614147,-0.00039683836016296873,0.0013224398614048154,0.0018663082077917355
18,1790595440.1824796,0.001831485523897027,-0.017469554227941216,-0.016201602711397572,0.02389626737725347,0.0010819923911345067,-0.0006063241029205968,0.0011925753756095421,0.0017206314186268
19,1790595440.2024796,-0.017328670726102974,-0.017469554227941216,0.07001910041360243,0.07421686180907151,0.0009431537614495553,-0.000798135262188454,0.001186883062515462,0.001713257224870556
20,1790595440.227093,-0.012538631663602974,0.04001091452205879,0.12270953010110243,0.12967543847051516,0.0007427837367556116,-0.0009571716667658471,0.0015367062391851338,0.0019568779585856797
21,1790595440.247093,0.020991641773897028,0.06875114889705879,0.06043902228860243,0.09391615896229652,0.0006170715556513632,-0.0009038720828274008,0.002053044879123921,0.0023265328973830768
22,1790595440.2718415,0.0066215245863970274,0.030430836397058784,-0.016201602711397572,0.03510516090392954,0.0005360995681485559,-0.0006637149063451991,0.002678248531616761,0.002810860263510305
23,1790595440.2918415,-0.007748592601102973,-0.031839671415441216,-0.03057171989889757,0.04481557118589232,0.0004787886704245276,-0.0005008622968107135,0.003037545938137987,0.0031155716903310013
24,1790595440.302681,-0.0029585535386029735,-0.05578986672794122,-0.03536175896139757,0.06611895541678048,0.00044368234639201217,-0.0004970790302369014,0.00314946494083585,0.00321917240923119
25,1790595440.322681,0.020991641773897028,-0.03662971047794122,-0.03057171989889757,0.052124991814273366,0.00041567323103386915,-0.0006297748080308053,0.0032260920876995233,0.0033131662653941535
26,1790595440.347342,0.020991641773897028,0.0016906020220587837,-0.006621524586397571,0.022076044650454835,0.0004639684165916809,-0.0008334754215379116,0.0032376128370143163,0.0033752162674860232
27,1790595440.367342,0.016201602711397027,0.04480095358455879,0.01732867072610243,0.050694183114410846,0.0005530502797425045,-0.0009041581748883585,0.0032616153130219892,0.0034295044929669124
28,1790595440.3768914,0.001831485523897027,0.06396110983455879,0.02690874885110243,0.06941511849175541,0.000602119425684217,-0.0008549489351394847,0.0033030396867035844,0.0034646149362405837
29,1790595440.3968914,-0.0029585535386029735,0.035220875459558786,0.02211870978860243,0.0416953286339243,0.0006877826369738531,-0.0006185728897631722,0.003450325249615464,0.003572173246611463
30,1790595440.4227712,0.020991641773897028,-0.003099437040441217,0.01253863166360243,0.02464696367357998,0.0008170052177703098,-0.0002962366621927864,0.003679593453593278,0.00378082817245343
31,1790595440.4427712,0.05452191521139703,0.0016906020220587837,-0.03536175896139757,0.06500731782160941,0.0010151592809549445,-8.661342499381798e-05,0.003795960682709659,0.003930313951299017
32,1790595440.48244,0.04494183708639703,0.020850758272058786,-0.03057171989889757,0.0582164315189168,0.001645152842989399,0.0003338598956226942,0.003795984525221553,0.0041506010194215
33,1790595440.50244,0.011411563648897028,0.011270680147058783,0.0077485926011024294,0.017812711842613755,0.0019996653373673063,0.0005622350031437156,0.003761760084584123,0.004297162854046687
34,1790595440.5120215,0.011411563648897028,0.011270680147058783,0.02211870978860243,0.027321957078557713,0.0021604299268474137,0.000671431829589814,0.003769286477049094,0.0043961117725405275
35,1790595440.5320215,0.02578168083639703,0.016060719209558785,0.01732867072610243,0.03497033882323435,0.002501454477111284,0.0009061701116769743,0.0038418111072608604,0.004673107248526366
36,1790595440.5571067,0.040151798023897026,0.025640797334558783,0.0029585535386024288,0.04773227850778249,0.002989075056126955,0.0012348867201166006,0.003957299442866706,0.005110746890934224
37,1790595440.5771067,0.030571719898897027,0.016060719209558785,-0.0018314855238975715,0.03458223674560616,0.0034256155747820548,0.001520206726973679,0.0040372552748740385,0.005508656888337089
38,1790595440.5882578,0.0066215245863970274,-0.003099437040441217,-0.011411563648897572,0.013552670686206457,0.0036636072119632236,0.001666265831709986,0.00406407246716771,0.005719715433818693
39,1790595440.6082578,-0.0029585535386029735,-0.02704963235294122,-0.006621524586397571,0.028005003790721614,0.004031923529517494,0.0018437115947082926,0.004077906077643975,0.006023702994871532
40,1790595440.6324444,0.03536175896139703,-0.03662971047794122,0.0077485926011024294,0.05149980945440089,0.004469306921760033,0.001910599701949665,0.004094170584597325,0.0063551025450235095
41,1790595440.6524444,0.04494183708639703,-0.022259593290441217,0.01732867072610243,0.05306167207401013,0.004897184787903347,0.0018692793096257436,0.004143218237632228,0.006681532859225879
42,1790595440.6627674,-0.007748592601102973,0.016060719209558785,0.01253863166360243,0.021799189728557614,0.005113703692332368,0.0018463514708231018,0.004187861030557318,0.006862737006329539
43,1790595440.6827674,-0.017328670726102974,0.030430836397058784,0.0077485926011024294,0.03586585172913248,0.005432650932997609,0.0018783311973565925,0.004291809541481169,0.007173663874695526
44,1790595440.707357,0.0066215245863970274,0.016060719209558785,0.01253863166360243,0.02142448537006302,0.005746222499940463,0.0019974922572918038,0.0044378556079138496,0.007530179993430112
45,1790595440.727357,0.016201602711397027,-0.007889476102941217,0.0029585535386024288,0.018261675789412235,0.00599724494131011,0.0020921311395508593,0.004562070348960295,0.007820258656848302
46,1790595440.7520502,0.0066215245863970274,-0.003099437040441217,-0.016201602711397572,0.017774786306279027,0.0063029522855440456,0.0021710998550294467,0.004667903222103054,0.008138194061662198
47,1790595440.7720501,-0.007748592601102973,0.006480641084558784,-0.0018314855238975715,0.010266145108510075,0.006511724858577095,0.0022305373977949284,0.004713713894360078,0.008342479031718085
48,1790595440.782618,0.020991641773897028,0.0016906020220587837,0.02211870978860243,0.030540865774778304,0.006615988550336208,0.0022637094256488226,0.004750368638626852,0.00845350146772334
49,1790595440.802618,0.02578168083639703,0.020850758272058786,0.01732867072610243,0.03741299261491052,0.006853871522950881,0.0023508833835176237,0.004868504049944236,0.008729521133506678
50,1790595440.8278632,0.011411563648897028,0.020850758272058786,-0.0018314855238975715,0.023839719894682115,0.007179522587099694,0.0025233714065735686,0.0050245962860675985,0.009119183936743026
51,1790595440.8478632,0.001831485523897027,-0.003099437040441217,0.0077485926011024294,0.00854409366110664,0.007418678931122844,0.0026661509304751617,0.005138583665184972,0.009410111580170842
52,1790595440.8724122,0.0066215245863970274,0.0016906020220587837,0.02211870978860243,0.02315037895494729,0.007683762306350311,0.0028125237225632644,0.0053125014988399475,0.009755673479860201
53,1790595440.8924122,0.03536175896139703,-0.012679515165441217,0.03169878791360243,0.04915320189841293,0.007930305207783475,0.002897402311651472,0.005513664324049192,0.010083906739079542
54,1790595440.901954,0.030571719898897027,0.030430836397058784,-0.0018314855238975715,0.04317430023318757,0.008077468516333118,0.0029445260812442304,0.0056166148052621935,0.010269473859267119
55,1790595440.921954,0.02578168083639703,-0.007889476102941217,-0.011411563648897572,0.02927734080891847,0.0084241908884834,0.0030622957830418263,0.005780171165891196,0.010665600137612625
56,1790595440.947057,0.016201602711397027,-0.03662971047794122,0.01253863166360243,0.04196957116901765,0.008873146165201889,0.0031041245159614114,0.005956788541212211,0.011128865243336662
57,1790595440.967057,-0.0029585535386029735,-0.003099437040441217,0.0029585535386024288,0.005206974942249688,0.009197046269369829,0.003072857552307403,0.006099640777749379,0.011455729188283267
58,1790595440.9914837,0.011411563648897028,0.006480641084558784,-0.040151798023897574,0.04224203331199345,0.009548784460424837,0.0030465925755316665,0.006179802668847085,0.011775014735397365
59,1790595441.0114837,0.020991641773897028,-0.02704963235294122,-0.020991641773897573,0.04016193047098888,0.009842184625079523,0.0029974597678581764,0.006143876996020696,0.011983346268731137
60,1790595441.021777,-0.0029585535386029735,-0.03662971047794122,0.055648983226102434,0.06668806537033149,0.009984457867053164,0.0029268059332601694,0.00615491606989907,0.01208877924760927
61,1790595441.041777,-0.022118709788602975,0.016060719209558785,0.07959917853860243,0.08416182773835795,0.01018181579247162,0.002779262937558228,0.0063760198886655085,0.012330746324881046
62,1790595441.068637,0.001831485523897027,0.06875114889705879,0.02211870978860243,0.07224480698709222,0.010366241324903646,0.002781688578372999,0.006833331857639768,0.012723646286730289
63,1790595441.0886369,0.02578168083639703,0.030430836397058784,-0.049731876148897576,0.06374943431798974,0.010524385949788412,0.002931996628748794,0.0070813498405939,0.013019401653531442
64,1790595441.112008,-0.0029585535386029735,-0.03662971047794122,-0.03536175896139757,0.050999438483012326,0.010721472816052452,0.0030704286320328896,0.007178544939859236,0.013263069734542516
65,1790595441.132008,-0.017328670726102974,-0.04620978860294122,-0.006621524586397571,0.049794296658457596,0.010834400959708997,0.0030468635113952334,0.0071862687859821535,0.01335327976480671
66,1790595441.15806,0.020991641773897028,-0.031839671415441216,0.0029585535386024288,0.03825136258027497,0.010966593318574249,0.0028682711221227463,0.0071876636345737065,0.013422207596694888
67,1790595441.17806,0.02578168083639703,0.006480641084558784,0.0077485926011024294,0.02768997043903392,0.011123014103003773,0.0027136938466217134,0.0072046345336583715,0.013527465978238354
68,1790595441.1879501,0.0066215245863970274,0.025640797334558783,0.03648882697610243,0.04508580230950889,0.011212797531239122,0.002672546837533993,0.007244581260689562,0.013614451612830735
69,1790595441.20795,0.030571719898897027,0.025640797334558783,0.02690874885110243,0.04812651358929129,0.011422915409025909,0.002678741869556065,0.0074083416644992,0.013875956927845698
70,1790595441.2320163,0.030571719898897027,-0.022259593290441217,0.02211870978860243,0.043810465344993645,0.011748188917149115,0.002691181198003342,0.007664331127069849,0.014283009861331181
71,1790595441.2520163,0.03536175896139703,-0.04141974954044122,0.02690874885110243,0.06074644362897741,0.012076857019217666,0.002604449216531922,0.007918699086798962,0.014674448078595375
72,1790595441.2771559,0.03536175896139703,-0.03662971047794122,0.0029585535386024288,0.050999438483011916,0.012561363698117587,0.0023646221855583936,0.0082467879824999,0.015211469622134675
73,1790595441.2971559,0.03536175896139703,-0.031839671415441216,-0.025781680836397574,0.05411943957061157,0.012995083976931882,0.002099741387431069,0.008434414949336418,0.01563395269914785
74,1790595441.32214,0.011411563648897028,-0.06536994485294122,-0.016201602711397572,0.06830772581053601,0.0135432637964439,0.0016363317608608975,0.008554973513979004,0.0161023336108948
75,1790595441.34214,0.011411563648897028,-0.04141974954044122,0.01253863166360243,0.04475529824390853,0.01395049728563999,0.001160828852846078,0.008631510910712114,0.016445877256747083
76,1790595441.3517022,0.03536175896139703,-0.012679515165441217,0.03169878791360243,0.04915320189841293,0.014149539799406956,0.0009287879691174392,0.008694341124425681,0.01663321049029496
77,1790595441.3717022,0.05452191521139703,-0.012679515165441217,0.01732867072610243,0.058597714736012524,0.014638227307485511,0.00047822211213796855,0.008879583167561688,0.017127562357901287
78,1790595441.3971267,0.03536175896139703,-0.017469554227941216,0.01732867072610243,0.04308041493417399,0.015337667844305626,-6.612230375861717e-05,0.00914583074077233,0.017857621538160038
79,1790595441.4171267,0.05452191521139703,-0.017469554227941216,-0.016201602711397572,0.05950055876762596,0.015940171526849574,-0.00048250477494657406,0.009325546785558364,0.01847397363895678
80,1790595441.4265544,0.04973187614889703,-0.031839671415441216,-0.011411563648897572,0.06014356130165006,0.016255299656231778,-0.0006842071987672479,0.009378030814252501,0.018778987415667633
81,1790595441.4465544,0.05452191521139703,-0.031839671415441216,-0.0018314855238975715,0.06316453319218213,0.016979912561992546,-0.0011434316600913512,0.009452804348261984,0.019467418334764685
82,1790595441.4721446,0.07847211052389703,-0.04620978860294122,0.0029585535386024288,0.09111514545806314,0.01802324037221403,-0.0017926742070674324,0.00953628996899424,0.020469286765787194
83,1790595441.4921446,0.08326214958639704,-0.031839671415441216,0.0029585535386024288,0.08919138561896882,0.018958941576529352,-0.002341050925371409,0.009600626509815717,0.02137975712019227
84,1790595441.5464804,0.08326214958639704,-0.03662971047794122,0.0077485926011024294,0.09129272660372903,0.02179835079033399,-0.0038864291850183802,0.009792830908275282,0.024210988542120473
85,1790595441.5664804,0.08805218864889704,-0.04620978860294122,-0.0018314855238975715,0.09945796513006745,0.022943684451700256,-0.004494188872771235,0.00986184130947905,0.02537452076112336
86,1790595441.547481,0.09763226677389703,-0.03662971047794122,-0.011411563648897572,0.10490004285042039,0.022943684451700256,-0.004494188872771235,0.00986184130947905,0.02537452076112336
87,1790595441.567481,0.10242230583639703,-0.007889476102941217,-0.020991641773897573,0.10484856503732881,0.024308017049656343,-0.005105694223959488,0.009846211690975106,0.026718826528469613
88,1790595441.5920084,0.11200238396139703,0.011270680147058783,0.01732867072610243,0.11389400806516202,0.026124657931345514,-0.0057369146838872585,0.00982318098103769,0.028493943684689136
89,1790595441.6120083,0.14553265739889704,0.07354118795955879,0.05085894416360243,0.17080600954745218,0.02777008164576815,-0.006047198588240269,0.009909499622827977,0.030098907424573936
90,1790595441.6377475,0.18385296989889705,0.04001091452205879,0.08917925666360244,0.20822038238512797,0.030205897214711654,-0.006167417885871484,0.010274260300907393,0.03249605660161698
91,1790595441.6577475,0.17427289177389704,0.006480641084558784,0.08438921760110243,0.19373843078602015,0.0323518704028813,-0.006177081947271197,0.01077552651848361,0.034654174809085767
92,1790595441.68206,0.14074261833639704,0.030430836397058784,-0.020991641773897573,0.14551690432514333,0.03514367703206794,-0.006119761887010766,0.011409077414085197,0.037452590942798576
93,1790595441.70206,0.16469281364889704,-0.07495002297794122,-0.1359525792738976,0.22632793160193387,0.03755393976392188,-0.0061464607986510605,0.0116166579813152,0.03978723557620561
94,1790595441.727568,0.15511273552389704,-0.12764045266544122,-0.19343304802389757,0.2788698440960597,0.04077869474066579,-0.006562979495346684,0.011211547729776748,0.042798054244390676
95,1790595441.747568,0.18864300896139705,-0.04620978860294122,-0.1311625402113976,0.23436113446440887,0.043443494375744296,-0.0071013471823231184,0.010454665497291939,0.04524451752466238
96,1790595441.7580247,0.23654339958639703,-0.012679515165441217,-0.08805218864889758,0.25271869325117524,0.04496122652983296,-0.007386790085690051,0.009946374750382013,0.0466369695575521
97,1790595441.7780247,0.15990277458639704,-0.02704963235294122,0.0029585535386024288,0.16220151962881904,0.04802332511421508,-0.007910438194674234,0.008992388493727648,0.04949422025125244
98,1790595441.7868085,0.23654339958639703,-0.04141974954044122,0.33347124885110246,0.410939714982863,0.04942761837731478,-0.008151029317502294,0.00885788875624015,0.050872300229163746
99,1790595441.8068085,0.37066449333639706,-0.003099437040441217,0.6735640222886025,0.7688239494526017,0.05305626396531483,-0.008683442171089245,0.010108132740911603,0.054704146656388904
100,1790595441.8624659,0.37545453239889703,0.23161247702205878,0.2807808191636024,0.5229228564724931,0.06475413935753443,-0.008988950568393538,0.017049236861955752,0.06756164795082402
101,1790595441.8824658,0.289233829273897,0.2890929457720588,-0.1503226964613976,0.43569238272321653,0.06932416823710978,-0.0083012076176744,0.019365013650742845,0.07245518686313833
102,1790595441.8766475,0.12637250114889703,0.1837120863970588,-0.18864300896139757,0.29207246457856706,0.06932416823710978,-0.0083012076176744,0.019365013650742845,0.07245518686313833
103,1790595441.8966475,0.31318402458639705,-0.19470099954044123,-0.1311625402113976,0.3914030204698047,0.07381524582835414,-0.007217970848659575,0.020126273652113953,0.07684957066238059
104,1790595441.9221423,0.36108441521139706,-0.28092170266544125,-0.16469281364889757,0.4862331547772094,0.07997074206756101,-0.006953694057050675,0.02038541388758558,0.08282052008556576
105,1790595441.9421422,0.25570355583639703,0.11186150045955878,-0.10721234489889758,0.29898459935448424,0.08500041814236023,-0.007031063919890055,0.020150351673286892,0.08763871072065585
106,1790595441.9524665,0.26528363396139704,0.5046447035845588,0.12749956916360244,0.5842070039297851,0.08761075221185832,-0.006587640476813941,0.020062919694719444,0.09011970737222884
107,1790595441.9724665,0.36587445427389703,0.5908654067095588,0.33826128791360244,0.7729209170654158,0.09285568743888058,-0.00421423194388907,0.020617594050497755,0.0952104176288241
108,1790595441.9970806,0.337134219898897,0.6483458754595588,0.41490191291360246,0.8403305622144337,0.09964020872566286,0.000556245755946802,0.022588221261814072,0.1021699972790806
109,1790595442.0170805,0.27486371208639704,0.7297765395220588,0.47238238166360247,0.9117395309872673,0.10524400565445194,0.0059182079500030805,0.025280180821716722,0.1083993240473043
110,1790595442.0417461,0.27007367302389707,0.7728868910845588,0.5538130457261025,0.9884345324235669,0.11212649325304223,0.014318899059410757,0.030000510732188707,0.11695046816362169
111,1790595442.0617461,0.33234418083639705,0.7393566176470588,0.42927203010110243,0.9172651407425427,0.11777365695652446,0.022377173891314904,0.034728475643779885,0.12480961182864027
112,1790595442.0715773,0.327554141773897,0.7201964613970588,0.2712007410386024,0.8363758131019611,0.12061975759417394,0.026820316239456975,0.03722042828090737,0.12904966317924246
113,1790595442.0915773,0.25570355583639703,0.7537267348345589,0.2903608972886024,0.8472294553106526,0.1264160886409333,0.03671423089245104,0.04237182651517637,0.13829075854708697
114,1790595442.1171725,0.26049359489889706,0.7920470473345588,0.23288042853860244,0.8656955193201976,0.13371222969929591,0.050444124761978085,0.048979934169850296,0.151071519637032
115,1790595442.1371725,0.30360394646139705,0.7537267348345589,0.14186968635110245,0.8248674772450787,0.1394043751251974,0.0618819962534784,0.05393107608456224,0.16177614852629268
116,1790595442.1623573,0.456885196461397,0.6722960707720588,0.04606890510110243,0.8141550426904772,0.14693346994009787,0.07681817824361,0.05958556104322405,0.17618432445067428
117,1790595442.1823573,0.753867618336397,0.6579259535845589,0.01253863166360243,1.0006698574756503,0.15383179523303397,0.08889554887305377,0.06349029377349223,0.18867341423079176
118,1790595442.192492,0.835298282398897,0.6627159926470588,0.0029585535386024288,1.0662665991804137,0.15801100522454273,0.09510139766282467,0.06518393934777174,0.19560342419903382
119,1790595442.212492,0.5670560948988971,0.7201964613970588,-0.05452191521139758,0.9182636859906587,0.1671247593996672,0.10758548152102272,0.06794752266893253,0.21005281925113994
120,1790595442.2373502,0.49041546989889706,0.8064171645220588,-0.17427289177389757,0.9597848806681578,0.17872473827273722,0.12362078630413888,0.07044062460877482,0.2284436746167123
121,1790595442.2573502,0.6053764073988971,0.7728868910845588,-0.1359525792738976,0.9911194907057248,0.18830138687196923,0.13695592123266864,0.0716802626948162,0.2436234732504112
122,1790595442.282501,0.6868070714613971,0.6052355238970588,-0.22217328239889758,0.9420058175023274,0.20097540899012953,0.15380953051715643,0.07232978724912913,0.2632111031475728
123,1790595442.302501,0.638906680836397,0.6483458754595588,-0.4616752355238976,1.02063614679221,0.2115306386994087,0.16708164021218616,0.07174304392948785,0.2789418397387574
124,1790595442.3120596,0.691597110523897,0.4998546645220588,-0.6532767980238976,1.0746775440874439,0.21677247869388264,0.17329650356043144,0.07070537283247412,0.2863934975042897
125,1790595442.3320596,0.8496683995863971,0.2795128676470588,-0.8544584386488976,1.2369975973357035,0.22840691893538284,0.1855186072907895,0.06659828759879215,0.30169886671938323
126,1790595442.3571384,0.8688285558363971,0.2507726332720588,-0.8736185948988976,1.2573620888145491,0.24403980884714677,0.19954294123475072,0.05897040142225039,0.32070285614984545
127,1790595442.3771384,0.835298282398897,0.3753136488970588,-0.8065580480238976,1.2202948170254155,0.2571929612697945,0.2099886530764438,0.05127947366349843,0.3359658288677444
128,1790595442.4016159,0.8688285558363971,0.5525450942095588,-0.7442875402113976,1.270485373031009,0.27400456145713226,0.2225586375369995,0.040431588284938196,0.35531051233095207
129,1790595442.4216158,0.9263090245863971,0.6722960707720588,-0.6915971105238976,1.337287171512071,0.28837317753180747,0.2331259431071911,0.03074374181791347,0.3720913497118351
130,1790595442.4317987,1.0556400792738971,0.6243956801470588,-0.5478959386488976,1.343292932291265,0.2961051530928588,0.2386894776131387,0.02560449592847542,0.38119092148571654
131,1790595442.4517987,1.1322807042738972,0.5190148207720588,-0.6245365636488976,1.3933706961129972,0.3122953389497886,0.24969275040904826,0.015266027649228872,0.4001348521895908
132,1790595442.477526,1.041269962086397,0.4088439223345588,-0.6532767980238976,1.2954408753816862,0.33419181644988855,0.2635141856351996,0.001496243073559918,0.4255891621698015
133,1790595442.497526,1.0460600011488972,0.43279411764705883,-0.5862162511488976,1.2748340156210904,0.3517914921471374,0.2739095248554891,-0.009461748541241015,0.4459520225754413
134,1790595442.521646,1.060430118336397,0.5381749770220589,-0.3323441808363976,1.234745721314091,0.37364366124089055,0.28632232789229584,-0.02235652167310796,0.4712641245591276
135,1790595442.541646,1.031689883961397,0.6148156020220588,-0.18385296989889757,1.214983191529279,0.3921833762837871,0.29680042911322296,-0.032219129036350325,0.49288575515123667
136,1790595442.5677145,0.955049258961397,0.6052355238970588,-0.2748637120863976,1.1636061131893278,0.4166080551764364,0.31079458674670135,-0.04404286417338528,0.5216275689354818
137,1790595442.5877144,1.060430118336397,0.4280040785845588,-0.3419242589613976,1.1935709974803608,0.43555930546919086,0.32147043650652685,-0.05267864227933901,0.5439027389900655
138,1790595442.5973158,1.199341251148897,0.30346306295955877,-0.3850346105238976,1.295670065483296,0.4449197789630778,0.32635353263190503,-0.05672602451427639,0.5546873712561627
139,1790595442.6173158,1.189761173023897,0.11186150045955878,-0.4377250402113976,1.2726538629762347,0.46507691326657286,0.3356224400504335,-0.06512638416962298,0.5772178128176395
140,1790595442.657335,1.022109805836397,0.07833122702205879,-0.3706644933363976,1.0900625683574439,0.5059993959528972,0.3519580432922692,-0.08184022738898594,0.6217778347303003
141,1790595442.677335,0.935889102711397,0.1310216567095588,-0.39940472771139757,1.0259528369369992,0.5263200538576103,0.35921135342454885,-0.0900952856422772,0.6435547808980503
142,1790595442.6873329,0.8784086339613971,0.05438103170955878,-0.4904154698988976,1.0075050163368322,0.5363149103460572,0.3624323708101251,-0.0942701538890248,0.6541236644433587
143,1790595442.7073328,0.9598392980238971,-0.18991096047794123,-0.4856254308363976,1.0923322342656097,0.5560671823587456,0.3677059808837185,-0.10283301310188278,0.6745317103425635
144,1790595442.71656,1.060430118336397,-0.29050178079044126,-0.5191557042738976,1.2159054098890625,0.5652111078703427,0.3694415652754691,-0.10688627024461494,0.6836485510699293
145,1790595442.7365599,0.974209415211397,-0.3479822495404412,-0.5478959386488976,1.170626153077794,0.5851099218386002,0.3716814977605361,-0.11595460668937674,0.7028130812840468
146,1790595442.762143,0.8065580480238971,-0.2665515854779412,-0.5047855870863976,0.9881265715904428,0.6101623064232424,0.37293780825704004,-0.12783423400205948,0.7264449327995817
147,1790595442.7821429,0.8065580480238971,-0.07974006204044122,-0.39940472771139757,0.903558796561988,0.629229347702127,0.37325319260918216,-0.1370845589274624,0.7443384271276933
148,1790595442.807555,0.8496683995863971,0.06396110983455879,-0.3802445714613976,0.93306663585879,0.6529786418415189,0.3735637390934577,-0.14856098281287258,0.7668124539162142
149,1790595442.827555,0.753867618336397,0.0974913832720588,-0.3754545323988976,0.8478131053996311,0.6712715676053603,0.3740136646517043,-0.15737194205467303,0.7843836223224033
150,1790595442.851287,0.8017680089613971,0.11665153952205878,-0.3706644933363976,0.8909723275652942,0.692490841471259,0.3748486156234612,-0.16758676654847407,0.8050716579774564
151,1790595442.8712869,0.9646293370863971,0.1645519301470588,-0.25091351677389756,1.0102201188764306,0.7103405073611078,0.375868523607712,-0.1758363515772463,0.8226659139487147
152,1790595442.897746,0.916728946461397,0.2986730238970588,-0.06889203239889757,0.9666145294852995,0.7341462193829807,0.3779346710091878,-0.18574779210138553,0.8463495313732301
153,1790595442.917746,0.8257182042738971,0.4375841567095588,0.03648882697610243,0.9352122120495523,0.7520550007458233,0.3803665504986495,-0.19216447373278714,0.8644030436376546
154,1790595442.9424498,0.8400883214613971,0.5190148207720588,-0.040151798023897574,0.9883000247502941,0.7739439833127649,0.38469217309471654,-0.19890819860614822,0.8868719348469133
155,1790595442.9624498,0.892778751148897,0.5717052504595588,-0.10721234489889758,1.0655492850191075,0.7916062772722483,0.3893049471055396,-0.20376996737204597,0.9053844706313884
156,1790595442.9875143,0.9454691808363971,0.4806945082720588,-0.05931195427389757,1.0623074367216645,0.8138764786158463,0.3961970007827348,-0.20926196064315442,0.9290627288001503
157,1790595443.0075142,0.9023588292738971,0.45195427389705883,-0.016201602711397572,1.0093446459920388,0.8317529892514911,0.4022705102573767,-0.2131001770829331,0.9481805123626507
158,1790595443.0020363,0.8640385167738971,0.5094347426470588,-0.08805218864889758,1.0068959744733177,0.8317529892514911,0.4022705102573767,-0.2131001770829331,0.9481805123626507
159,1790595443.0220363,0.7682377355238971,0.5908654067095588,-0.19343304802389757,0.9882952449530216,0.8493693346975882,0.4095348393299558,-0.21642843937023312,0.9674648937909174
160,1790595443.0469432,0.777817813648897,0.5717052504595588,-0.21259320427389758,0.9884550142196762,0.8709050521271773,0.4193961450897856,-0.22071001193279885,0.9915047381148463
161,1790595443.0669432,0.8448783605238971,0.5525450942095588,-0.22696332146139758,1.034716325620403,0.8880381225972488,0.4278132729277553,-0.22429169857316364,1.010911801161723
162,1790595443.076994,0.8448783605238971,0.5812853285845588,-0.22696332146139758,1.0503449083981873,0.8966304077881561,0.43226340929790713,-0.22616381924495907,1.0207584515073445
163,1790595443.096994,0.796977969898897,0.6100255629595588,-0.20301312614889758,1.0239723635709326,0.9136262711144246,0.4415773812043712,-0.22997530781673323,1.0404769046293914
164,1790595443.151746,0.773027774586397,0.6243956801470588,-0.21259320427389758,1.0161878646056293,0.9596221681596216,0.4683197237614573,-0.24055116508192464,1.0945606115285038
165,1790595443.171746,0.753867618336397,0.6818761488970588,-0.27965375114889757,1.0542664221829912,0.9761937757331877,0.47858235992279213,-0.24457323286993962,1.1143659314811898
166,1790595443.1662736,0.7442875402113971,0.7441466567095588,-0.2844437902113976,1.090241468205907,0.9761937757331877,0.47858235992279213,-0.24457323286993962,1.1143659314811898
167,1790595443.1862736,0.7634476964613971,0.7154064223345589,-0.27965375114889757,1.0829888987803136,0.9923385089087553,0.49000461942321305,-0.24904454603120146,1.1344000305127053
168,1790595443.1971507,0.777817813648897,0.6914562270220588,-0.21738324333639758,1.0631875373613926,1.0010592142286117,0.4964325825440748,-0.25151701356919604,1.1453495831047185
169,1790595443.2171507,0.777817813648897,0.7201964613970588,-0.06410199333639757,1.0619757811683348,1.0170223468148636,0.5085963902136488,-0.25580348634415323,1.1655214136535588
170,1790595443.2426007,0.8305082433363971,0.7489366957720588,0.08917925666360244,1.1218747953059425,1.037358371915233,0.5245572836427291,-0.2603919790727002,1.19125006542315
171,1790595443.2626007,0.9215189855238971,0.6914562270220588,0.16581988166360243,1.163960990636501,1.0535703873128321,0.5373793649967095,-0.26307448382964527,1.2116085700377874
172,1790595443.2871902,1.0077396886488972,0.4902745863970588,0.12749956916360244,1.1279027397262087,1.0740708260789136,0.5529585291546786,-0.26533690831019285,1.2368487980793599
173,1790595443.3071902,1.0460600011488972,0.1885021254595588,0.06522906135110243,1.0649081686939714,1.0913245062641093,0.5647473523799182,-0.2666119433838668,1.2573824709879058
174,1790595443.331685,1.1370707433363971,0.006480641084558784,-0.08805218864889758,1.1404933414914418,1.1132968336458902,0.5773781202787177,-0.26798122656256085,1.2824232029141256
175,1790595443.351685,1.2951420323988971,-0.15159064797794122,-0.3467142980238976,1.3492899662766793,1.1321944223086629,0.5859264830464522,-0.26958368797091425,1.30301550960149
176,1790595443.377285,1.299932071461397,-0.41025275735294126,-0.6724369542738976,1.5199678196602604,1.1577375172703277,0.594148357302494,-0.2732839317645917,1.3296813666218041
177,1790595443.397285,1.151440860523897,-0.5539539292279413,-0.8592484777113976,1.539801596778118,1.1783767972974228,0.5981618910929877,-0.27803865269646966,1.350435121269489
178,1790595443.407604,1.1706010167738972,-0.7503455307904413,-0.8544584386488976,1.6320001162461915,1.1892253974809452,0.59891262775881,-0.28145015202440055,1.3609436321087047
179,1790595443.427604,1.352622501148897,-0.9179968979779413,-0.8113480870863976,1.8249908640127976,1.2108827095380088,0.5976469144402917,-0.2895691195379335,1.3810391180513626
180,1790595443.452614,1.429263126148897,-1.0473279526654413,-0.8927787511488976,1.9841226833808157,1.2391210748858834,0.5926150748201348,-0.3013955487468373,1.406219379021221
181,1790595443.472614,1.1658109777113972,-1.1910291245404412,-0.8640385167738976,1.8772927767731944,1.2622079910828323,0.5858372777388284,-0.3120694858107448,1.426100169243375
182,1790595443.4824207,0.8879887120863971,-1.1958191636029414,-0.7299174230238976,1.658700355479176,1.2733407735957303,0.5812568909954356,-0.31769054441648764,1.4353339615025824
183,1790595443.5024207,0.7873978917738971,-1.0042176011029413,-0.39940472771139757,1.337150914015744,1.2951527401643623,0.5700166519391798,-0.3291287374408512,1.4528129024938543
184,1790595443.5276523,1.031689883961397,-0.7359754136029413,-0.26049359489889756,1.2937931593108893,1.3219850590665565,0.5546701598355551,-0.3426431870464184,1.4740107992265639
185,1790595443.5476522,1.2520316808363972,-0.7311853745404413,-0.3275541417738976,1.4864410844541045,1.3434891186948703,0.5421296040561967,-0.35263072182925603,1.4910452527081364
186,1790595443.572367,1.0460600011488972,-0.7072351792279412,-0.23175336052389758,1.2837962240384293,1.370336219025682,0.5262910430807911,-0.3641581238535507,1.5124201646266182
187,1790595443.592367,0.796977969898897,-0.5874842026654412,-0.07368207146139757,0.9928447111912613,1.3915675205274252,0.5134544298524464,-0.37254538683054816,1.5293415841370002
188,1790595443.6024053,0.715547305836397,-0.5587439682904413,0.03648882697610243,0.9085891279807214,1.4017642072913612,0.5071149576379104,-0.37615165839713294,1.5373999294972638
189,1790595443.6224053,0.8592484777113971,-0.3384021714154412,-0.025781680836397574,0.9238445059287784,1.4213944819363593,0.49503334713002023,-0.382242816535615,1.5529101258099138
190,1790595443.6468372,0.9598392980238971,-0.003099437040441217,-0.03536175896139757,0.9604954651313139,1.4451110353323238,0.4818625367778146,-0.3886796619893451,1.572135264038487
191,1790595443.6668372,0.792187930836397,0.016060719209558785,0.07001910041360243,0.7954384570079012,1.4642412818025008,0.4727176009550388,-0.39310649559319355,1.5880797141405967
192,1790595443.692604,0.5095756261488971,-0.12285041360294122,0.09396929572610244,0.5325314745878538,1.4877063404439617,0.4624966809846972,-0.39763737649266606,1.607883334854552
193,1790595443.712604,0.48562543083639703,-0.017469554227941216,-0.16469281364889757,0.5130896288832485,1.5046804906327926,0.45554282837122245,-0.400732763941481,1.6223961894270995
194,1790595443.722379,0.6484867589613971,0.09270134420955879,-0.3946146886488976,0.7647544496529475,1.5125635800403483,0.4527091110050231,-0.40242873420038955,1.629338211962624
195,1790595443.742379,0.595796329273897,0.1070714613970588,-0.4999955480238976,0.7851325441386757,1.5281398180671562,0.44808053185516983,-0.4067201820927656,1.6435962926191776
196,1790595443.7967086,0.38024457146139706,0.11186150045955878,-0.4137748448988976,0.5729821565127766,1.56808262874498,0.4382851798172903,-0.420352546012442,1.6815686998628345
197,1790595443.8167086,0.346714298023897,0.1070714613970588,-0.3419242589613976,0.4985852997895209,1.5816713489452892,0.43554856977127915,-0.42575172082932927,1.694889772372632
198,1790595443.8126628,0.557476016773897,0.1885021254595588,-0.3946146886488976,0.7085430918993763,1.5816713489452892,0.43554856977127915,-0.42575172082932927,1.694889772372632
199,1790595443.8326628,0.466465274586397,0.4471642348345588,-0.24133343864889759,0.6897735381414979,1.5941779513142238,0.43490172360799323,-0.4315456321783658,1.7078566925552754
200,1790595443.8417075,0.27486371208639704,0.7680968520220588,0.03169878791360243,0.8164114449609963,1.5994883421038073,0.43547744790399007,-0.43391500473857253,1.7135593936295976
201,1790595443.8617074,0.25570355583639703,0.8303673598345588,0.13228960822610245,0.8788599440130428,1.6102654060148645,0.4389572519902435,-0.43812240725341456,1.725569294644689
202,1790595443.8869243,0.43293500114889705,0.8782677504595588,-0.020991641773897573,0.9794016570036285,1.623117750960052,0.44591808847094144,-0.4424210533842595,1.7404282701636495
203,1790595443.9069242,0.4377250402113971,0.9644884535845588,-0.049731876148897576,1.060336949950954,1.6330881817751588,0.45337488628127803,-0.4454250821050508,1.752406716699222
204,1790595443.947111,0.41856488396139707,0.9501183363970588,0.15144976447610245,1.0492180166216167,1.6526978757278943,0.4718812262100074,-0.45024918730024116,1.7767404117511039
205,1790595443.9671109,0.317974063648897,0.9836486098345588,0.4101118738511024,1.1121438044859646,1.6620980879717246,0.4826105316102368,-0.45144756621290755,1.7886553285359188
206,1790595443.977108,0.18385296989889705,1.0363390395220589,0.45801226447610244,1.1478570267192145,1.6664682974056135,0.4886837376404416,-0.4513058253320116,1.794325870534894
207,1790595443.997108,0.25570355583639703,1.1177697035845588,0.31910113166360243,1.1902180266438087,1.6745591137691778,0.5022423026220465,-0.4498991278930882,1.8052159929851803
208,1790595444.0071008,0.42335492302389705,1.251890797334559,0.16581988166360243,1.3318994678482527,1.678504180343237,0.5097765436485305,-0.4489382788137793,1.8107440421186651
209,1790595444.0271008,0.308393985523897,1.223150562959559,0.2616206629136024,1.2882738533553153,1.6863132162168146,0.5263064796049255,-0.44666250600639007,1.822130118277379
210,1790595444.067492,0.17906293083639704,1.060289234834559,0.2520405847886024,1.1044461286483627,1.70119509823534,0.5615995459147249,-0.44119979603361076,1.8450246806619344
211,1790595444.087492,0.18385296989889705,0.9357482192095589,0.18498003791360243,0.9714135364102269,1.708003006961591,0.5794478609346057,-0.43824510240514003,1.8560961357412549
212,1790595444.0976973,0.23175336052389703,0.9261681410845588,0.10354937385110244,0.9603226116775039,1.7112738657574993,0.5886142113687095,-0.43674274084413167,1.8616307784117312
213,1790595444.1176972,0.27965375114889707,0.8207872817095588,0.09875933478860244,0.8727264110565827,1.71748958731409,0.6065039907011309,-0.4339366372748399,1.8724098318578966
214,1790595444.1273072,0.35150433708639706,0.6483458754595588,0.06522906135110243,0.7403799724875836,1.720483133587195,0.6148694542559372,-0.432672366895377,1.8775867585307093
215,1790595444.1473072,0.35150433708639706,0.5333849379595588,-0.006621524586397571,0.6388259822678771,1.726833230212482,0.6314405573422814,-0.4303479608395765,1.888351013403384
216,1790595444.2025814,0.32276410271139705,0.3801036879595588,-0.08805218864889758,0.5063681146413269,1.7445458352170975,0.6741556229454918,-0.42528004063048375,1.9180169676207275
217,1790595444.2225814,0.33234418083639705,0.2603527113970588,-0.21738324333639758,0.4748596248904169,1.7509761329579248,0.6882536254955345,-0.42417951883547483,1.9286105712132584
218,1790595444.2176113,0.47604535271139703,0.11186150045955878,-0.3323441808363976,0.5912569895223214,1.7509761329579248,0.6882536254955345,-0.42417951883547483,1.9286105712132584
219,1790595444.2376113,0.514365665211397,0.05438103170955878,-0.3419242589613976,0.6200334934698769,1.758138333858087,0.6991633685659112,-0.4250966953311165,1.9392233025897658
220,1790595444.261608,0.49999554802389706,0.07833122702205879,-0.2652836339613976,0.5714076789983341,1.7672683391178379,0.7105285848812982,-0.42712490237329304,1.9520563348963924
221,1790595444.2816079,0.47604535271139703,0.1549718520220588,-0.20780316521139758,0.5420494518299421,1.775200398536548,0.7189300365029822,-0.42927138123854863,1.9627711968288484
222,1790595444.2927158,0.6293266027113971,0.1741320082720588,-0.25091351677389756,0.6995223528129562,1.7798659004856752,0.7231704280789163,-0.4306668604309124,1.968850435262401
223,1790595444.3127158,0.6628568761488971,0.11186150045955878,-0.23175336052389758,0.7110568568385075,1.7889444346846044,0.7300890737512695,-0.43352655424830744,1.9802266333019602
224,1790595444.3677225,0.6101664464613971,0.06875114889705879,-0.11679242302389757,0.6250362253004121,1.8154199950726897,0.7470085245218084,-0.4416498419943066,2.0121694951349327
225,1790595444.3877225,0.557476016773897,0.016060719209558785,-0.040151798023897574,0.5591508051180563,1.825353801244358,0.7523647446092357,-0.4443957823346502,2.023723503842601
226,1790595444.3677225,0.5622660558363971,0.020850758272058786,-0.08805218864889758,0.5695007107916542,1.825353801244358,0.7523647446092357,-0.4443957823346502,2.023723503842601
227,1790595444.3877225,0.49520550896139703,0.011270680147058783,-0.1311625402113976,0.5124052461591314,1.8355448518189046,0.7563298578229877,-0.44687200593736986,2.0349334992976833
228,1790595444.4122727,0.456885196461397,-0.031839671415441216,-0.09763226677389758,0.46828400243529794,1.8479310870214762,0.7604291224255824,-0.4498769310608669,2.048289775816415
229,1790595444.4322727,0.466465274586397,-0.07015998391544122,-0.07847211052389758,0.4781946757002346,1.8578930599390282,0.7631146919465769,-0.4522218720285659,2.058789760217236
230,1790595444.457354,0.47604535271139703,-0.07015998391544122,-0.09284222771139758,0.4900625270590972,1.8702850892644851,0.7657134460236099,-0.45504374633361117,2.071556952541673
231,1790595444.477354,0.45209515739889705,-0.05099982766544122,-0.1263725011488976,0.4721874869287266,1.8800765240386395,0.7672931226701132,-0.4572852135354179,2.0814745347604418
232,1790595444.4877315,0.35150433708639706,-0.03662971047794122,-0.05452191521139758,0.3575886937789897,1.885020386528717,0.7679216210536183,-0.4584145818507318,2.0864202363291704
233,1790595444.5077314,0.30360394646139705,0.0016906020220587837,0.0077485926011024294,0.30370751576052524,1.8941019480195695,0.7688988012634328,-0.4603348419819464,2.0954082472917817
234,1790595444.5329604,0.35150433708639706,0.04959099264705879,-0.0018314855238975715,0.35499002786204054,1.9050790722848772,0.7700435993589456,-0.46238261121424723,2.106203004395539
235,1790595444.5529604,0.40898480583639707,0.059171070772058784,-0.025781680836397574,0.4140464733433884,1.9136164953534684,0.7709781389709279,-0.46380387456476063,2.1145801985550823
236,1790595444.5930834,0.38024457146139706,0.06875114889705879,-0.044941837086397575,0.3890146826550732,1.930549720629851,0.7729566891801152,-0.4664402762738894,2.1312087646457214
237,1790595444.6130834,0.31318402458639705,0.07833122702205879,-0.049731876148897576,0.3266393636538676,1.9387644171954255,0.7740156180777812,-0.46769932187841284,2.139310706301676
238,1790595444.6076112,0.289233829273897,0.08791130514705879,-0.040151798023897574,0.3049537218229234,1.9387644171954255,0.7740156180777812,-0.46769932187841284,2.139310706301676
239,1790595444.6276112,0.27965375114889707,0.1501818129595588,-0.07847211052389758,0.3269842039082988,1.946320948052058,0.7753497925692854,-0.4689015195960875,2.146905020894734
240,1790595444.651899,0.29402386833639704,0.1645519301470588,-0.07847211052389758,0.3459555534988508,1.9551660978651713,0.7773002962532259,-0.4704283631144944,2.1559622134024647
241,1790595444.671899,0.27486371208639704,0.1789220473345588,-0.06410199333639757,0.33417394391843813,1.9622104602332116,0.779180732937982,-0.4717109156083529,2.163308506139259
242,1790595444.697325,0.25091351677389706,0.22682243795955878,-0.06889203239889757,0.34518418763004394,1.9708252414041145,0.7819864687791684,-0.47335045678284676,2.1724906500249497
243,1790595444.717325,0.298813907398897,0.22682243795955878,-0.05931195427389757,0.37981058112788724,1.9774097488923774,0.7845428746742303,-0.47463897397737187,2.179664880855544
244,1790595444.7576804,0.28444379021139704,0.2220323988970588,-0.03536175896139757,0.36257014486393097,1.9904682121355664,0.7902859171015406,-0.477135465110264,2.1941225549994168
245,1790595444.7776804,0.317974063648897,0.2172423598345588,-0.07368207146139757,0.39208518935905146,1.996872797570111,0.7933641212416467,-0.4783506932422121,2.2013057452962586
246,1790595444.7872255,0.298813907398897,0.2076622817095588,-0.06889203239889757,0.37035049159933287,1.9999124712403156,0.7949170273164219,-0.47894573690539705,2.2047521384137436
247,1790595444.8072255,0.289233829273897,0.2028722426470588,-0.06410199333639757,0.35905768392110543,2.006208258893686,0.7982985839082215,-0.4802050118881441,2.2119559354936524
248,1790595444.8177667,0.31318402458639705,0.22682243795955878,-0.07368207146139757,0.3936517487232762,2.0095050464786053,0.8001532385174263,-0.48087809962222683,2.215761603519023
249,1790595444.8377666,0.33234418083639705,0.23161247702205878,-0.09284222771139758,0.4155919552812885,2.015790126474035,0.8038319250669702,-0.4822133865228866,2.2230801487775804
250,1790595444.8623457,0.30360394646139705,0.24119255514705878,-0.06889203239889757,0.39382142792559244,2.0235279122735563,0.8085463021446557,-0.48390638685967324,2.2321688389782612
251,1790595444.8823457,0.289233829273897,0.2124523207720588,-0.07368207146139757,0.36636217634018675,2.0297689714748297,0.8124874456827513,-0.4852912035822188,2.2395547502189688
252,1790595444.8919516,0.298813907398897,0.1885021254595588,-0.044941837086397575,0.35614964730920085,2.032740540807137,0.8143852835940388,-0.48594201724558117,2.243077604653958
253,1790595444.9119515,0.30360394646139705,0.24598259420955879,-0.044941837086397575,0.3933224652644438,2.0389030921483116,0.8183957026896921,-0.4872286180494594,2.2503975363475863
254,1790595444.9373724,0.308393985523897,0.2603527113970588,-0.08326214958639758,0.41209582646862786,2.0467278632043926,0.8236938797950015,-0.4888630775878481,2.2597684974920824
255,1790595444.9573724,0.27007367302389707,0.23640251608455878,-0.09284222771139758,0.3707365880489056,2.05282830382784,0.8279821166211971,-0.4902202629097976,2.2671511499255086
256,1790595444.9826322,0.24612347771139703,0.2076622817095588,-0.049731876148897576,0.32584298217218366,2.060355294104906,0.83342698090567,-0.4919473589994088,2.2763296497814522
257,1790595445.0026321,0.25570355583639703,0.23640251608455878,-0.03057171989889757,0.3495784434659325,2.066173753027325,0.8377575106512813,-0.49323016248277485,2.2834595721261275
258,1790595445.0120182,0.29402386833639704,0.2507726332720588,-0.05452191521139758,0.39026861004700375,2.0688817662848735,0.8398279430268304,-0.4938017851725151,2.2867931563204964
259,1790595445.0320182,0.28444379021139704,0.3082531020220588,-0.05931195427389757,0.42361085044629815,2.0746542053140256,0.8444164362943395,-0.49500785561193167,2.293962067390986
260,1790595445.0577924,0.24133343864889703,0.3513634535845588,-0.016201602711397572,0.42656839669083235,2.081993734350329,0.8507177842497856,-0.49647496557145027,2.303238166094003
261,1790595445.0777924,0.24133343864889703,0.3561534926470588,0.02211870978860243,0.4307857660804404,2.087558686501864,0.855935255349145,-0.49743375550511415,2.3104040278823343
262,1790595445.1030338,0.30360394646139705,0.4471642348345588,0.01732867072610243,0.5407693519895936,2.0945601642282203,0.8630531101228553,-0.49838762851666607,2.3195760778045087
263,1790595445.1230338,0.34192425896139705,0.44237419577205883,0.01253863166360243,0.5592533819614074,2.1002439280458103,0.8691812684913146,-0.4989852579706884,2.3271198771145287
264,1790595445.1321313,0.30360394646139705,0.3848937270220588,-0.10721234489889758,0.5018097491147279,2.1028819959408844,0.8721151646826968,-0.4992809274168085,2.3306606346278804
265,1790595445.1521313,0.22696332146139703,0.4088439223345588,-0.07847211052389758,0.4741556434851018,2.1086074131189885,0.8787881300381514,-0.500111949984108,2.3385050272926953
266,1790595445.1775715,0.27486371208639704,0.5812853285845588,0.01732867072610243,0.6432285567966537,2.1157552867626066,0.8878921909928478,-0.5011271227457753,2.3485956164145114
267,1790595445.1975715,0.346714298023897,0.7537267348345589,0.08438921760110243,0.8339282554907798,2.1214640956573625,0.8959783382385317,-0.5016529176750627,2.3569138171702195
268,1790595445.2220707,0.48083539177389706,0.6722960707720588,-0.1263725011488976,0.8361547044683384,2.1289287706665982,0.9070179935586242,-0.5022775254921766,2.3679742532015946
269,1790595445.2420707,0.33234418083639705,0.5429650160845588,-0.19343304802389757,0.6653420227937933,2.135328278136958,0.9165013021786685,-0.503190648830335,2.377562264458459
270,1790595445.2526195,0.20301312614889705,0.4950646254595588,-0.10242230583639758,0.54478770314959,2.138620896321269,0.921574163060639,-0.5038340950818436,2.3826134960521492
271,1790595445.2726195,0.27007367302389707,0.5764952895220589,0.05085894416360243,0.6386495438839503,2.144636749906054,0.9313566784090072,-0.5049483868788414,2.3920419989783217
272,1790595445.2973628,0.327554141773897,0.7393566176470588,0.11791949103860243,0.8172177985204044,2.1520720208141633,0.9440857844145297,-0.505806956870471,2.403862023645143
273,1790595445.3173628,0.29402386833639704,0.7872570082720588,0.11791949103860243,0.8486039350555561,2.158112815892352,0.9551212795904166,-0.5060430822583971,2.413666751220398
274,1790595445.3428223,0.03536175896139703,0.8159972426470589,0.22330035041360244,0.8467378581941902,2.165278093448335,0.9701233843799112,-0.5056470300337924,2.425952910068533
275,1790595445.3628223,0.09763226677389703,0.7345665785845589,0.08917925666360244,0.7463732696901109,2.170262025014973,0.9824665203787069,-0.5049138567800084,2.4352034255182047
276,1790595445.372269,0.24612347771139703,0.6291857192095588,-0.006621524586397571,0.6756443444045473,2.172506532462358,0.9883882783285475,-0.5045610092121973,2.4395240999723944
277,1790595445.392269,0.040151798023897026,0.9549083754595589,0.21372027228860244,0.9793561799439875,2.176975123679571,1.0014211154850698,-0.5036153827030285,2.4486105025818548
278,1790595445.4178343,0.16469281364889704,1.103399586397059,0.2616206629136024,1.1458881888701637,2.182223151662333,1.0195282909621757,-0.5016765106146412,2.460328258795119
279,1790595445.4378343,0.289233829273897,1.0123888442095588,0.19935015510110243,1.0716006085362408,2.186393774762611,1.0347425355756124,-0.49969578077976956,2.469960673083531
