imu_index,t_imu,ax,ay,az,mag,vx,vy,vz,velocity
0,1791353901.3125072,0.03582949218750009,0.07424560546875,0.01906435546875009,0.08461449102414002,0.0,0.0,0.0,0.0
1,1791353901.3325071,-0.007280859374999913,0.06466552734375,0.02385439453125009,0.06930853827874554,8.850546735234131e-05,0.00030302955719962483,8.868509364587992e-05,0.0003279103171948628
2,1791353901.3575613,0.0022992187500000872,0.02155517578125,0.03822451171875009,0.04394343302426201,0.0001733857176022295,0.0007877114205171892,0.0002997678198314472,0.0008604723324361726
3,1791353901.3775613,0.04061953125000009,0.055085449218750006,0.05259462890625009,0.08631655706981933,0.0002953573956290072,0.0012315423951042503,0.0005792219109951235,0.001392634440285284
4,1791353901.3881118,0.01666933593750009,0.09340576171875001,0.04301455078125009,0.10417655524046607,0.00039538104547820615,0.001548053937483,0.0007801825260297936,0.0017780556623464545
5,1791353901.4081118,-0.09350156249999991,0.09819580078125001,0.04301455078125009,0.14225051514818873,0.00044130058892272314,0.0023454499996736064,0.0012330332240207214,0.0026863084041657236
6,1791353901.4317553,-0.10787167968749992,0.03592529296875,0.004694238281250087,0.11379350520365498,0.00013035529336430872,0.00338454482720112,0.001772680177483993,0.0038228956566308
7,1791353901.4517553,-0.06476132812499992,0.026345214843750003,0.009484277343750088,0.07055530796765346,-0.0003521677401946176,0.004225073386222658,0.0021819612079813223,0.004768251456177211
8,1791353901.4776428,-0.07434140624999992,0.06466552734375,0.02385439453125009,0.10137705484144498,-0.0011531254575465823,0.005326542138357881,0.002696989203804752,0.006080748328781874
9,1791353901.4976428,-0.11266171874999992,0.10777587890625001,0.05738466796875009,0.16613639897265875,-0.001959608586471066,0.00630852447057247,0.003157059991978637,0.0073215145018592255
10,1791353901.507784,-0.05039121093749992,0.13651611328125002,0.04301455078125009,0.15174378044611725,-0.0024312173236932396,0.0069175623397376585,0.003431712012268732,0.008095686118812437
11,1791353901.5277839,0.026249414062500087,0.06945556640625,0.03343447265625009,0.08143077676922354,-0.0032580063322083996,0.008247473792645038,0.0040067954643467595,0.009730870419144761
12,1791353901.5531602,0.007089257812500088,0.09340576171875001,0.02385439453125009,0.09666398521189022,-0.00408624287263609,0.009991737731501868,0.004736053422037433,0.011788231662369034
13,1791353901.5731602,-0.040811132812499915,0.08382568359375,0.03822451171875009,0.10076411607083079,-0.004691673929445788,0.011426093665995209,0.005317712722738759,0.013447880477083174
14,1791353901.5976517,0.0022992187500000872,0.07424560546875,0.04780458984375009,0.08833445051853103,-0.005392603386243904,0.013209458803087909,0.006081181066204396,0.015509698137351632
15,1791353901.6176517,0.026249414062500087,0.050295410156250005,0.028644433593750088,0.06355441445971123,-0.00583630706001102,0.01463413301238981,0.006725790336642562,0.017130574560578118
16,1791353901.6278,0.05977968750000009,0.04071533203125,0.01906435546875009,0.0747983886821866,-0.005962199008835484,0.015317868938304656,0.007040124177348562,0.0178815064875565
17,1791353901.6478,0.026249414062500087,0.05987548828125,0.02385439453125009,0.06959265747185703,-0.006044044383967679,0.016614120726723646,0.007631061086888286,0.019255975003861534
18,1791353901.6877425,-0.06476132812499992,0.08382568359375,0.03822451171875009,0.11261388967001477,-0.006298351323060191,0.019245067150562633,0.00882017977975976,0.02208704168433704
19,1791353901.7077425,-0.08871152343749991,0.09340576171875001,0.06217470703125009,0.14303868325485863,-0.006636796307993989,0.020630674801541862,0.009476880911389826,0.023653394678342512
20,1791353901.717798,-0.007280859374999913,0.07424560546875,0.02385439453125009,0.07832274882249944,-0.006853828633371288,0.021349266295037115,0.009822409519015888,0.02447949891299415
21,1791353901.737798,0.026249414062500087,0.05987548828125,0.004694238281250087,0.06554495944452049,-0.007192292501454905,0.022765304560943785,0.010449385994884628,0.0260610404790197
22,1791353901.747343,-0.031231054687499916,0.09340576171875001,0.01906435546875009,0.1003168218624991,-0.007333162259260141,0.02344947524099009,0.010720737761808775,0.026806480111270056
23,1791353901.767343,-0.045601171874999916,0.08861572265625,0.04301455078125009,0.10854706240693687,-0.007699302219624447,0.024941028261656336,0.011297138714336703,0.02844221314435322
24,1791353901.807819,-0.03602109374999991,0.08382568359375,0.03822451171875009,0.0989210681353706,-0.008576925122564326,0.02803031353377209,0.012535294561401513,0.03188096189108391
25,1791353901.8278189,-0.040811132812499915,0.08861572265625,0.03343447265625009,0.10313175468850737,-0.00906077776328643,0.029586485037190295,0.013162812329562542,0.033626141898154695
26,1791353901.8378656,-0.06476132812499992,0.050295410156250005,-9.580078124991288e-05,0.0819979699815124,-0.00934692535640693,0.030355618626823008,0.013455874473176518,0.03449476994666366
27,1791353901.8578656,0.0022992187500000872,0.026345214843750003,-0.019255957031249913,0.03271312631365337,-0.009924806723364474,0.03177202489133643,0.01392273521774,0.03608054753097769
28,1791353901.8676746,0.05498964843750009,0.03592529296875,-9.580078124991288e-05,0.06568483301310936,-0.010123569942857654,0.03240831240937493,0.01410312518923648,0.03676524883248926
29,1791353901.8876746,-0.026441015624999915,0.11735595703125,0.03343447265625009,0.12485756653004101,-0.010425223086100338,0.03374098241295936,0.01446576656962428,0.038162777323374295
30,1791353901.9272144,-0.040811132812499915,0.12214599609375,0.06217470703125009,0.14300659816104877,-0.011131569517463597,0.03669069902205192,0.01535869268029494,0.041303857876676266
31,1791353901.9472144,0.02145937500000009,0.055085449218750006,0.028644433593750088,0.06569181887365332,-0.011464287929975862,0.03822476471309443,0.01587883124649184,0.0429499687644518
32,1791353901.9577758,0.03582949218750009,0.02155517578125,-0.019255957031249913,0.04603444356744262,-0.011568253746371528,0.03897405744891783,0.016119738775540713,0.04373382703312914
33,1791353901.9777758,0.0693597656250001,-0.00718505859375,0.028644433593750088,0.07538504978082408,-0.011577815827162791,0.040201691769605676,0.016521591887232814,0.044979827022281434
34,1791353902.0030515,0.04540957031250009,-0.02155517578125,0.04780458984375009,0.0693681013799257,-0.011370521881846455,0.04146595713796777,0.01709819270235957,0.04627161724989036
35,1791353902.0230515,0.04061953125000009,0.011975097656250001,0.028644433593750088,0.051125853134722524,-0.01110205619217172,0.04230190906729977,0.01760067741327795,0.04714330289488115
36,1791353902.0322554,0.12684023437500008,0.04071533203125,0.014274316406250088,0.13397738401530918,-0.010881445029377622,0.04266527737845632,0.017826859166855745,0.04750293304063332
37,1791353902.0522554,0.13163027343750008,0.06466552734375,0.014274316406250088,0.1473496366495081,-0.010086262179062177,0.0434945040194961,0.018287448632937475,0.048248682284069366
38,1791353902.0776594,0.04540957031250009,0.01676513671875,0.028644433593750088,0.0562459106164264,-0.008890413387028125,0.04454494487090713,0.01886650629338866,0.0491857359756147
39,1791353902.0976593,0.011879296875000087,-0.00239501953125,0.028644433593750088,0.031102369503081505,-0.008004234973333996,0.04526944027194831,0.01933993675552518,0.04987407296132483
40,1791353902.1224751,0.0693597656250001,-0.02155517578125,0.014274316406250088,0.07402134016201863,-0.0069184061366348295,0.04598896984413167,0.01991913052986183,0.05059270156713864
41,1791353902.1424751,0.13642031250000008,0.045505371093750004,-0.004885839843749913,0.14389270965534132,-0.005865892704017984,0.04651780656019009,0.020329988094232494,0.05110404524397213
42,1791353902.1530304,0.1555804687500001,0.15567626953125,-9.580078124991288e-05,0.22009178160355247,-0.005162574952857323,0.046914306785243214,0.02051035481455788,0.05146143231491759
43,1791353902.1730304,0.13642031250000008,0.09340576171875001,0.028644433593750088,0.16779642892732952,-0.0035918326025872675,0.04792652035032884,0.020843670727455764,0.052386173974915275
44,1791353902.1980324,0.10768007812500009,0.01676513671875,-0.009675878906249913,0.10940608605929067,-0.0014650586720763737,0.04920867142661321,0.02123341648219356,0.05361434244669326
45,1791353902.2180324,-0.002490820312499913,-0.04071533203125,-0.08152646484374991,0.09116198175864368,0.0001388141134747781,0.050044538230227045,0.02136161872826532,0.05441317699534306
46,1791353902.2579236,-0.16056210937499993,-0.00239501953125,0.01906435546875009,0.16170768916456438,0.0023701582613671404,0.05133267021341543,0.021392093342206223,0.055662216439743555
47,1791353902.2779236,-0.09829160156249991,-0.026345214843750003,0.1340252929687501,0.16827979212681443,0.002932783865724963,0.051838508022754345,0.021634714605149544,0.05624849341337503
48,1791353902.272452,0.08372988281250009,-0.05987548828125,0.06217470703125009,0.12025581718625875,0.002932783865724963,0.051838508022754345,0.021634714605149544,0.05624849341337503
49,1791353902.292452,0.1220501953125001,-0.04071533203125,-0.09110654296874991,0.1576527532583907,0.0036293845139900773,0.05194315846178366,0.02201676551654077,0.05653319473324232
50,1791353902.317987,0.0645697265625001,-0.11256591796875001,-0.07673642578124992,0.1507607857441207,0.0047427571138586675,0.05176317732571365,0.022109941141588128,0.056486899093319186
51,1791353902.337987,0.031039453125000088,-0.03113525390625,0.08133486328125009,0.09245653936355923,0.0056274048884644105,0.05142780230829601,0.022178870993670018,0.05628844334846849
52,1791353902.362228,-0.040811132812499915,-0.07903564453125,0.19629580078125008,0.21550921806795606,0.0065210407626317855,0.05088198608794353,0.022754638196064977,0.05611839306604746
53,1791353902.382228,0.10289003906250009,-0.12214599609375,0.06217470703125009,0.17138173384126723,0.007240858170635011,0.05019743770316724,0.02354612416526678,0.05591630122081366
54,1791353902.4078097,0.1555804687500001,-0.19878662109375,-0.07673642578124992,0.26383684735840285,0.008519375875083154,0.04883742334583146,0.024378712077222767,0.05524486661134263
55,1791353902.4278097,-0.05518124999999992,-0.20357666015625,-0.08631650390624991,0.22790121930023421,0.009519592220045914,0.04733010409485994,0.024687415354988758,0.05422388649456963
56,1791353902.4376907,-0.09829160156249991,-0.20357666015625,-9.580078124991288e-05,0.22606349700003367,0.009825891686930929,0.04639538307641012,0.024753015236220675,0.05349571460906671
57,1791353902.4576907,0.02145937500000009,-0.35685791015625,0.009484277343750088,0.35762833267683086,0.010237622067102941,0.04394657387549596,0.024879960472415193,0.05152788268590317
58,1791353902.4821022,-0.016860937499999912,-0.32811767578125,-0.05278623046874992,0.33276401022431557,0.010673206146250495,0.04015187268510747,0.024932384801206853,0.04845321476885604
59,1791353902.5021021,-0.18930234374999994,-0.39038818359375,-0.11505673828124992,0.44886118596152935,0.010667299721189814,0.036431507237030675,0.02471712858375166,0.04529881287991141
60,1791353902.5131276,-0.07434140624999992,-0.37122802734375004,-0.047996191406249916,0.3816287821407931,0.01044652317761618,0.03405842814732855,0.024481433938920213,0.043225536226551634
61,1791353902.5331275,0.05498964843750009,-0.43349853515625003,-0.019255957031249913,0.43739642579596344,0.010077082715797598,0.029192315675643954,0.024017140908267717,0.03912239701213438
62,1791353902.5579906,0.007089257812500088,-0.36164794921875004,-0.05757626953124992,0.3662711066458762,0.009802462956624926,0.02256766843440329,0.023383261348383474,0.033943553877989426
63,1791353902.5779905,-0.08871152343749991,-0.25147705078125,0.014274316406250088,0.2670471822901399,0.00949225947126994,0.017118404749961638,0.022884895770549273,0.03011413663850131
64,1791353902.6022768,-0.040811132812499915,-0.18441650390625,0.1196551757812501,0.223589705858041,0.008936155859606349,0.01069988491800125,0.022614447622288144,0.02656606218593304
65,1791353902.6222768,0.0693597656250001,-0.18441650390625,0.08612490234375009,0.21502958588129065,0.008589715520589325,0.005653779169684817,0.02273380825480921,0.02495144223067369
66,1791353902.647898,0.04061953125000009,-0.21315673828125,0.014274316406250088,0.21746148510146984,0.00842381120323369,-0.0006049025125584532,0.023056706120215122,0.024554799924890253
67,1791353902.667898,-0.08871152343749991,-0.15567626953125,0.05738466796875009,0.18814312478443687,0.008241593608596762,-0.0053108683001819165,0.023378441433092444,0.025351148122948468
68,1791353902.6782036,-0.14619199218749993,-0.11256591796875001,0.04780458984375009,0.19060027092852352,0.007980221694710068,-0.007579366044025971,0.02360066158381383,0.026040774856362494
69,1791353902.6982036,-0.05518124999999992,-0.15088623046875002,-0.043206152343749915,0.16636825567692465,0.007247008210575845,-0.011716612634266352,0.02397412917284724,0.027650624029521807
70,1791353902.7525876,-0.03602109374999991,-0.28979736328125,-0.07194638671874992,0.3007595609811847,0.005180319744912065,-0.023076581353820208,0.024367648878044344,0.03395801277287386
71,1791353902.7725875,-0.15577207031249993,-0.24189697265625001,-0.024045996093749914,0.2887166313149307,0.004246600653508511,-0.027425153804769037,0.024346671426933725,0.03691792366719298
72,1791353902.7676091,-0.2036724609374999,-0.21315673828125,-0.014465917968749914,0.2951737271535482,0.004246600653508511,-0.027425153804769037,0.024346671426933725,0.03691792366719298
73,1791353902.787609,-0.15577207031249993,-0.24668701171875002,0.014274316406250088,0.29210131076226764,0.0025745309870013173,-0.031836955295897494,0.02428212517283493,0.040122830598366674
74,1791353902.7973108,-0.10787167968749992,-0.32811767578125,-0.019255957031249913,0.3459310629589101,0.0016932617417782397,-0.03407429129226732,0.024251886422191133,0.04185783627268989
75,1791353902.8173108,-0.03602109374999991,-0.36164794921875004,-9.580078124991288e-05,0.36343743278157736,-6.679300726559578e-05,-0.0390293405980275,0.02416987255882939,0.04590726117220141
76,1791353902.843267,-0.07913144531249992,-0.40954833984375,-0.024045996093749914,0.41781555528026665,-0.002232544340700863,-0.045996738470608395,0.024032402868553203,0.051944591554878794
77,1791353902.863267,-0.09829160156249991,-0.38559814453125,-0.06236630859374991,0.4027862019127205,-0.003917137560678542,-0.05175275451394677,0.023812748757196113,0.05710287707133032
78,1791353902.8881829,-0.07913144531249992,-0.48618896484375,-0.06236630859374991,0.4965189337987961,-0.006032550371305403,-0.0594770663846669,0.023347063606359755,0.06417942402941786
79,1791353902.9081829,0.02145937500000009,-0.55324951171875,-0.024045996093749914,0.554187456480717,-0.007562391164738244,-0.06630647170831083,0.022899711242239464,0.07055589787899721
80,1791353902.917735,0.05019960937500009,-0.47660888671875,-0.05278623046874992,0.48214356555676324,-0.008132123765817092,-0.06981681862821872,0.022663055341010083,0.0738521067925475
81,1791353902.937735,-0.07434140624999992,-0.43349853515625003,-0.024045996093749914,0.44048363714669664,-0.009182281281904226,-0.07742929201121204,0.02212663403255459,0.0810505859603011
82,1791353902.9627485,-0.08871152343749991,-0.41912841796875,-0.004885839843749913,0.42844163729797324,-0.010604563545012583,-0.08712143856612298,0.021502102918981227,0.09036007002957341
83,1791353902.9827485,-0.031231054687499916,-0.40475830078125,-0.024045996093749914,0.4066729284773688,-0.01175110833308364,-0.09494437781337689,0.02103425275546212,0.09795388310019051
84,1791353903.0074773,-0.026441015624999915,-0.37122802734375004,-0.014465917968749914,0.3724495111763367,-0.013063059001230667,-0.10460527245266042,0.020471127990997245,0.10738702722670342
85,1791353903.0274773,-0.09829160156249991,-0.35685791015625,-0.028836035156249915,0.371268533412596,-0.014152068177484779,-0.11233885554832672,0.02001905073650942,0.11498287651645758
86,1791353903.053285,-0.14619199218749993,-0.40475830078125,0.004694238281250087,0.430375901397971,-0.01581973597177761,-0.12229540430566675,0.019476472993905442,0.1248429531883381
87,1791353903.0732849,-0.09350156249999991,-0.42391845703125003,0.028644433593750088,0.435051610705677,-0.017277801375523226,-0.1300969917864425,0.019169074375998362,0.13263183292364722
88,1791353903.0823333,-0.10787167968749992,-0.40954833984375,0.014274316406250088,0.42375688555614066,-0.017975173862839963,-0.1336627896957812,0.019079987314690395,0.13620900902872285
89,1791353903.1023333,-0.16056210937499993,-0.42870849609375,-0.004885839843749913,0.4578155054395745,-0.019688027055574646,-0.14161948985798625,0.018926695868729557,0.14422870079663305
90,1791353903.1276834,-0.17014218749999993,-0.40954833984375,0.014274316406250088,0.4437138297877616,-0.022162174727284926,-0.15178562131302192,0.018779392635409776,0.15454029381937154
91,1791353903.1476834,-0.13661191406249992,-0.43349853515625003,-0.014465917968749914,0.4547450470638608,-0.024281489448964997,-0.15986768273328156,0.018680322459834822,0.16277659893108953
92,1791353903.1581292,-0.14619199218749993,-0.50055908203125,-0.004885839843749913,0.5214933984382703,-0.025443914872848434,-0.16418747619685894,0.018621179527798692,0.16718752486641278
93,1791353903.1781292,-0.11745175781249992,-0.52929931640625,0.01906435546875009,0.5425091072146242,-0.027731159643714528,-0.17276247402358946,0.018546195611420294,0.1759541162280487
94,1791353903.2029805,-0.13182187499999992,-0.55324951171875,0.02385439453125009,0.5692372625575416,-0.030611515308839567,-0.18383694181750346,0.01854699300994813,0.18728875298860456
95,1791353903.2229805,-0.17014218749999993,-0.60114990234375,0.03343447265625009,0.6256576004628944,-0.033034818896312726,-0.19314422365657904,0.018633471703257208,0.1968329155886558
96,1791353903.2626066,-0.17493222656249993,-0.57719970703125,0.05259462890625009,0.6054147179222362,-0.03814148004195124,-0.21232073341647645,0.019034786461041266,0.21655758918569087
97,1791353903.2826066,-0.13182187499999992,-0.51971923828125,0.03822451171875009,0.5375371677049832,-0.0407924170557708,-0.22219301571317904,0.019343182897863166,0.22673313883415708
98,1791353903.2781427,-0.10787167968749992,-0.50055908203125,0.02385439453125009,0.5126058193397952,-0.0407924170557708,-0.22219301571317904,0.019343182897863166,0.22673313883415708
99,1791353903.2981427,-0.15098203124999993,-0.47660888671875,0.004694238281250087,0.4999736398378452,-0.043401608235143316,-0.23209234384562824,0.019687972761831443,0.23693495297364803
100,1791353903.3232787,-0.24678281249999992,-0.54366943359375,0.0669647460937501,0.6008015369395783,-0.04693882307958788,-0.24459103387319275,0.020191396625305596,0.2498714058489578
101,1791353903.3432786,-0.28031308593749993,-0.57719970703125,0.09570498046875009,0.6487637252739158,-0.050121756492449196,-0.2547254541742152,0.020775876777110992,0.2604397906119691
102,1791353903.3674731,-0.2132525390624999,-0.51971923828125,0.03822451171875009,0.5630682421806282,-0.05429027701164041,-0.2671367910994363,0.021619904613588092,0.2734536882406327
103,1791353903.387473,-0.21804257812499991,-0.49576904296875,0.004694238281250087,0.5416193734668177,-0.05786618403297275,-0.2773807110576239,0.022277329526561265,0.2842267290952874
104,1791353903.4132934,-0.2755230468749999,-0.51013916015625,-9.580078124991288e-05,0.5797886867316377,-0.06274604742408979,-0.290569958978889,0.02300766753773785,0.2981565365606906
105,1791353903.4332933,-0.31863339843749994,-0.47181884765625004,0.04780458984375009,0.5713366314298703,-0.06685016963675494,-0.30072665849156177,0.023560083154927847,0.3089669008587011
106,1791353903.4425688,-0.31863339843749994,-0.44786865234375,0.06217470703125009,0.5531539266302457,-0.06891136054715916,-0.3053702823946189,0.023854356887413452,0.3139567093163354
107,1791353903.4625688,-0.30905332031249994,-0.41433837890625,0.05259462890625009,0.5195733268948918,-0.07363063241716246,-0.3151744075502229,0.0245658544803486,0.324591833555829
108,1791353903.4874954,-0.2851031249999999,-0.44307861328125003,0.1148651367187501,0.5392554580766135,-0.0797409295892964,-0.3271636832795482,0.025632669742001634,0.33771545014539706
109,1791353903.5074954,-0.38569394531249995,-0.41912841796875,0.1244452148437501,0.583022350941382,-0.08491434690657759,-0.336633678640426,0.02671920293545655,0.34820481862125674
110,1791353903.5329587,-0.40964414062499993,-0.35685791015625,0.10528505859375009,0.5533903085097989,-0.09203188087327079,-0.34836398266668095,0.028333769205834747,0.361427909815876
111,1791353903.5529587,-0.40006406249999993,-0.37122802734375004,0.1244452148437501,0.5597750565066677,-0.09799829112388816,-0.3572875638044405,0.02975629033892617,0.37167661364047233
112,1791353903.5628994,-0.18930234374999994,-0.42391845703125003,0.10528505859375009,0.47605375654865734,-0.1009583620761581,-0.36165038992581794,0.030528547378643495,0.3767168533682119
113,1791353903.5828993,-0.17014218749999993,-0.46223876953125004,0.1196551757812501,0.506883029027695,-0.10655970121625229,-0.3704407226707668,0.032186634746380755,0.3868039275814477
114,1791353903.6075275,-0.22283261718749992,-0.51013916015625,0.0717547851562501,0.5612887734494381,-0.11314847967644662,-0.3814376366074018,0.03427570698142086,0.39933954620448975
115,1791353903.6275275,-0.30905332031249994,-0.48618896484375,0.08612490234375009,0.5825042172686292,-0.11849431774869057,-0.390522923455872,0.035954541877465614,0.40968498406076215
116,1791353903.6680372,-0.35695371093749995,-0.41433837890625,0.10528505859375009,0.5569355326694472,-0.12972153522202082,-0.408900741062437,0.03942647837198787,0.43079222362826486
117,1791353903.6880372,-0.19409238281249994,-0.37601806640625,0.04301455078125009,0.4253371496926195,-0.13525962973658698,-0.41779856561611023,0.041105933253751704,0.44106746265851404
118,1791353903.6826825,-0.12224179687499992,-0.39038818359375,-0.009675878906249913,0.4091938580006604,-0.13525962973658698,-0.41779856561611023,0.041105933253751704,0.44106746265851404
119,1791353903.7026825,-0.2515728515624999,-0.24189697265625001,0.028644433593750088,0.3501764535194406,-0.14022495015573097,-0.426152837722873,0.042390298976825565,0.4506286888257107
120,1791353903.727785,-0.3330035156249999,-0.26584716796875,0.01906435546875009,0.4265319540023387,-0.14662284235017925,-0.4360216225318192,0.043850361332902585,0.46209952110249136
121,1791353903.747785,-0.3521636718749999,-0.20357666015625,0.03343447265625009,0.4081428332222158,-0.1519833703114786,-0.44340909236153975,0.04491789238295468,0.47088022372599936
122,1791353903.7728665,-0.16056210937499993,-0.25626708984375,0.028644433593750088,0.30376556072050176,-0.15866197145927355,-0.4521488565368192,0.04617261507851775,0.48139808894311725
123,1791353903.7928665,-0.07913144531249992,-0.39517822265625,0.028644433593750088,0.4040397466523617,-0.16354821764811184,-0.4590497707477523,0.04710899001099411,0.48958550679048296
124,1791353903.8031814,-0.1988824218749999,-0.28979736328125,0.004694238281250087,0.3515092678275658,-0.16590535403041204,-0.46260494220414117,0.04754527461991026,0.4937494022136491
125,1791353903.8231814,-0.23720273437499992,-0.27542724609375,0.02385439453125009,0.36427233936193454,-0.17044426135501523,-0.4693120318662272,0.04830713518310701,0.50163593251766
126,1791353903.8477407,-0.23241269531249992,-0.25147705078125,0.009484277343750088,0.34255849066807476,-0.17604684001420293,-0.4772832160755645,0.049163749999706956,0.5110859345946179
127,1791353903.8677406,-0.22762265624999992,-0.33290771484375004,-0.028836035156249915,0.40431564051409846,-0.18061501202731647,-0.4836774670067245,0.04972767341368375,0.5186892288864371
128,1791353903.8925347,-0.19409238281249994,-0.27063720703125,0.014274316406250088,0.3333468269001153,-0.18621292820169713,-0.4915377375853296,0.05029482954084292,0.5280285711763116
129,1791353903.9125347,-0.2036724609374999,-0.23231689453125,0.04780458984375009,0.3126321954615528,-0.1906477653398162,-0.49768153335747417,0.05077681630431141,0.5353613397959495
130,1791353903.9226038,-0.24678281249999992,-0.17004638671875,0.03822451171875009,0.30212355664140067,-0.1928857799603312,-0.5006145588467702,0.05104804488007297,0.5389116472357316
131,1791353903.9426038,-0.28989316406249993,-0.23710693359375,0.03343447265625009,0.3759994793749055,-0.19746929291565343,-0.5061771933845222,0.05161345569061887,0.5457778133595828
132,1791353903.9828167,-0.19409238281249994,-0.30895751953125,-9.580078124991288e-05,0.36486519581692967,-0.20676242284602123,-0.5173309174968892,0.05268031851397973,0.5596044975320199
133,1791353904.0028167,-0.24199277343749992,-0.26105712890625,0.004694238281250087,0.3559962960787496,-0.2113452190505625,-0.5229011736214144,0.053138232240374,0.5664945813649189
134,1791353904.0133321,-0.22283261718749992,-0.16525634765625,0.04780458984375009,0.28151254773711853,-0.21375989192880535,-0.5257267765986069,0.053384280807198176,0.5700279084987663
135,1791353904.033332,-0.23241269531249992,-0.22752685546875,0.09091494140625009,0.3377123886872086,-0.2183464813119523,-0.5308840100556308,0.05399013851497738,0.5765656537558618
136,1791353904.057171,-0.08871152343749991,-0.19878662109375,0.03343447265625009,0.22023559902584725,-0.22356756851363876,-0.5368713205356901,0.054826295697896384,0.5841397052116808
137,1791353904.077171,-0.15577207031249993,-0.27063720703125,0.07654482421875008,0.3215097911942923,-0.227657537372291,-0.541845105943309,0.05558754203148163,0.5903507838448541
138,1791353904.0877688,-0.19409238281249994,-0.17962646484375,0.03822451171875009,0.2672052268093456,-0.2297777533626538,-0.5444431955989734,0.05602163148353045,0.5935946700977756
139,1791353904.1077688,-0.08871152343749991,-0.24189697265625001,0.01906435546875009,0.2583550452774235,-0.23360303807017282,-0.5492431257433833,0.05680389594214294,0.5995540619211768
140,1791353904.1324165,-0.18451230468749993,-0.18441650390625,0.05259462890625009,0.2661210861316384,-0.23811520960922714,-0.555059264662206,0.05775580773769055,0.6067333629050146
141,1791353904.1524165,-0.16056210937499993,-0.19399658203125,0.1388153320312501,0.28754923267799404,-0.2417449489865075,-0.5596383824433719,0.058699473594575655,0.6124388685122812
142,1791353904.1931365,-0.2707330078124999,-0.02155517578125,0.03343447265625009,0.2736400027115284,-0.24934375461168742,-0.5682213033423973,0.06085863344310791,0.6234994232559872
143,1791353904.2131364,0.05019960937500009,-0.10777587890625001,0.06217470703125009,0.13416905399472354,-0.2528469418439405,-0.5719985405654254,0.06190346394900066,0.6284472493835063
144,1791353904.2075944,0.1172601562500001,-0.02155517578125,0.0717547851562501,0.13915214349608357,-0.2528469418439405,-0.5719985405654254,0.06190346394900066,0.6284472493835063
145,1791353904.2275944,0.1986908203125001,0.15567626953125,0.05259462890625009,0.25783587407769065,-0.2546905576088194,-0.5746913099477685,0.0630156378724082,0.6317502295061237
146,1791353904.2536957,0.2418011718750001,-0.06466552734375,0.04780458984375009,0.2548229109732832,-0.2558733884848828,-0.5775002590732422,0.06444592346361845,0.6349259934948924
147,1791353904.2736957,0.1651605468750001,-0.026345214843750003,0.04780458984375009,0.17394641531040994,-0.25603333212461665,-0.5794662623494484,0.06552089163786896,0.6368886901186858
148,1791353904.313105,0.026249414062500087,0.17004638671875,0.08612490234375009,0.192411808833158,-0.2557354705310337,-0.5823343850514593,0.06771721302828623,0.6396089335221239
149,1791353904.333105,0.12684023437500008,0.07903564453125,0.02385439453125009,0.1513410397123913,-0.25537734808962836,-0.5831979809085487,0.06882960626185762,0.6403709780676053
150,1791353904.3276768,0.3040716796875001,0.08861572265625,-0.1294268554687499,0.3421456467739956,-0.25537734808962836,-0.5831979809085487,0.06882960626185762,0.6403709780676053
151,1791353904.3476768,0.3423919921875001,0.11256591796875001,-0.1437969726562499,0.3880475892817462,-0.2535994978762053,-0.58330640145284,0.06908887026244918,0.6397908527738316
152,1791353904.3726275,0.2082708984375001,0.18920654296875,-0.043206152343749915,0.2846799161136947,-0.2506837934309379,-0.5828566628920057,0.0690138557586066,0.6382218783880729
153,1791353904.3926275,0.1699505859375001,0.12214599609375,-0.043206152343749915,0.21370451006608476,-0.24812987045025067,-0.582083208851296,0.06883312690862514,0.6364961068194358
154,1791353904.418211,0.05498964843750009,0.19878662109375,-0.05757626953124992,0.21413782705137624,-0.2449213829449208,-0.580626438646136,0.06844324285098846,0.6338753998780099
155,1791353904.438211,-0.08871152343749991,0.21794677734375,-0.06236630859374991,0.24343395119156877,-0.24283995783031928,-0.579033329903528,0.06800425509592282,0.6315658484824448
156,1791353904.4475667,-0.021650976562499914,0.18920654296875,-0.028836035156249915,0.19261203911445374,-0.24208977870167825,-0.5781141832586585,0.06776570906489171,0.6304091220483099
157,1791353904.4675667,0.007089257812500088,0.08861572265625,-0.024045996093749914,0.09209350577734648,-0.24074850366697934,-0.5760273092027881,0.06725293456324499,0.6279253619441264
158,1791353904.493242,0.04540957031250009,0.11256591796875001,-0.043206152343749915,0.12884054705124692,-0.23918380857688862,-0.5733627049500981,0.06656389052004918,0.6248075201485687
159,1791353904.513242,0.04540957031250009,0.11256591796875001,0.03343447265625009,0.12590067087158344,-0.23801157284127475,-0.571260734665706,0.06609300702957309,0.6223798047457765
160,1791353904.5384002,0.04061953125000009,0.14609619140625002,0.02385439453125009,0.1535026892299738,-0.2365958662126119,-0.5685251996176326,0.06569762373444986,0.6192856241456913
161,1791353904.5584002,0.09810000000000009,0.18920654296875,-0.028836035156249915,0.21506799581927094,-0.23543115979530935,-0.5661737785903144,0.06542298119477422,0.616652856179399
162,1791353904.5674515,0.07893984375000009,0.06945556640625,-0.004885839843749913,0.1052589476817349,-0.23486293531696945,-0.5650936376355423,0.06529443919691767,0.615430565922682
163,1791353904.5874515,-0.016860937499999912,-0.01676513671875,0.08612490234375009,0.08934685123885325,-0.2337025910743856,-0.562985906499211,0.0651748730899172,0.6130397997470528
164,1791353904.6275218,-0.17493222656249993,0.12214599609375,0.1148651367187501,0.2423116338215426,-0.2323029280436045,-0.5590797650267444,0.06557528307073444,0.6089621924141093
165,1791353904.6475217,-0.16056210937499993,0.24668701171875002,0.02385439453125009,0.2953027342510202,-0.23221235640328713,-0.5568693198290793,0.06595323771227564,0.6069397395112637
166,1791353904.6577828,-0.05518124999999992,0.17962646484375,-0.009675878906249913,0.188160197322478,-0.23233889017353554,-0.5555772727388089,0.06612897349230491,0.6058221744093798
167,1791353904.6777828,-0.016860937499999912,0.08382568359375,0.01906435546875009,0.08760414426713643,-0.23265658786247234,-0.553041499073463,0.06643420601241358,0.6036534529858429
168,1791353904.6883314,-0.11745175781249992,0.15088623046875002,0.09570498046875009,0.2138247255226549,-0.23290527741619016,-0.5517189812447966,0.06666184561808836,0.6025632781503686
169,1791353904.7083313,-0.05518124999999992,0.11735595703125,0.04780458984375009,0.1382124083156511,-0.2335650117844202,-0.5491852644690225,0.06724397102781182,0.600565417818372
170,1791353904.73304,-0.026441015624999915,0.08382568359375,0.01906435546875009,0.08994065925197481,-0.23440907267560315,-0.5461517297678322,0.06797919277791205,0.5982060647734758
171,1791353904.75304,-0.13182187499999992,0.01676513671875,0.0717547851562501,0.15101928926641653,-0.23522719315561452,-0.5439137269635899,0.0686212647914221,0.5965591779202344
172,1791353904.7919967,-0.18930234374999994,0.11735595703125,0.09570498046875009,0.24241955632021023,-0.2375199656810649,-0.5398164897097715,0.07017359227831665,0.5939207941409002
173,1791353904.8119967,-0.09829160156249991,0.11735595703125,0.09570498046875009,0.18053560002106417,-0.23895188122287556,-0.537676460916922,0.07113811497322149,0.5926673683998815
174,1791353904.822485,-0.03602109374999991,0.055085449218750006,0.04301455078125009,0.07862682423632861,-0.2396958135039095,-0.5365868929361607,0.07167717247757364,0.5920449254377268
175,1791353904.842485,-0.06476132812499992,0.04071533203125,0.1292352539062501,0.15017828982626538,-0.24105279449471775,-0.5346771585152048,0.07280928181893817,0.5910053342319302
176,1791353904.8531306,-0.12703183593749992,0.18920654296875,0.20108583984375009,0.30392715941406695,-0.2418198783596031,-0.5336295442928012,0.07358522860037693,0.590467721370242
177,1791353904.8731306,-0.15098203124999993,0.15567626953125,0.1388153320312501,0.2574885843343129,-0.24346185357951303,-0.5314392873372143,0.07533418786397512,0.5893866558847284
178,1791353904.8980184,-0.28031308593749993,-0.011975097656250001,0.1340252929687501,0.31093666279009335,-0.24600367316658933,-0.5288543508784042,0.07769339917208656,0.588422463821178
179,1791353904.9180183,-0.34737363281249994,-0.02155517578125,0.09091494140625009,0.35972015921715594,-0.2486814301931735,-0.5271389667707741,0.07964230373493777,0.5882693605443765
180,1791353904.9432747,-0.3330035156249999,-0.02155517578125,0.09570498046875009,0.3471532951134037,-0.25284451933114016,-0.5253793381057131,0.08208775464443324,0.5888057398894454
181,1791353904.9632747,-0.18451230468749993,-0.10298583984375001,0.014274316406250088,0.21178911657184155,-0.25642295180996727,-0.5243817500790534,0.08389874715255208,0.5897185343913446
182,1791353904.9730437,-0.14140195312499992,-0.17483642578125,-9.580078124991288e-05,0.22486061750630526,-0.25814743844213106,-0.5241711228224154,0.08466102561250109,0.5903922045834499
183,1791353904.9930437,-0.2084624999999999,-0.15567626953125,0.08612490234375009,0.27406060206665395,-0.2616731923697065,-0.5243003570941784,0.0861165888190768,0.5922666552524043
184,1791353905.0178967,-0.23720273437499992,-0.10777587890625001,0.1148651367187501,0.2847363287366201,-0.26622798954656285,-0.524927929240745,0.08802867228480182,0.595126642370518
185,1791353905.0378966,-0.3809039062499999,-0.11256591796875001,0.08133486328125009,0.4054309209589665,-0.27027072846789324,-0.5256877145511221,0.08963087847630034,0.5978524351986709
186,1791353905.0628934,-0.41443417968749996,-0.04071533203125,0.09570498046875009,0.4272854676234493,-0.27605665104955857,-0.5267822475779953,0.09166491003776359,0.6017551550957029
187,1791353905.0828934,-0.3425835937499999,-0.13651611328125002,0.0717547851562501,0.37569790668155667,-0.2811271105899445,-0.5277924727865498,0.093299419005518,0.6052289882561468
188,1791353905.0927222,-0.2515728515624999,-0.15088623046875002,0.0669647460937501,0.3008983738868603,-0.28368315515658815,-0.5284263303977361,0.09408445224347561,0.6070934057714422
189,1791353905.1127222,-0.39527402343749996,-0.17004638671875,0.1292352539062501,0.44928730016859464,-0.2890743803070131,-0.5300040542164189,0.09573655192568167,0.6112559056650031
190,1791353905.138108,-0.4335943359374999,-0.03592529296875,0.1483954101562501,0.459691062113909,-0.29646908777487624,-0.5320984179075875,0.09804759408397878,0.6169570301499786
191,1791353905.158108,-0.35695371093749995,-0.05987548828125,0.10528505859375009,0.37694292593449713,-0.302606875035836,-0.5336446380425701,0.09997573520370376,0.6215646934632475
192,1791353905.1833344,-0.2946832031249999,-0.06945556640625,0.1340252929687501,0.3310967306757683,-0.31042020801191167,-0.5355470645920357,0.102495705552351,0.6274366371132458
193,1791353905.2033343,-0.37611386718749995,-0.01676513671875,0.1723456054687501,0.41406004229377746,-0.3166917902269226,-0.5369584365083769,0.10465346382799788,0.6321158121941357
194,1791353905.2125645,-0.41922421874999993,-0.00718505859375,0.19150576171875008,0.4609501355081937,-0.31970259492297615,-0.5375286709334235,0.1057517916585589,0.6342950911956773
195,1791353905.2325644,-0.3809039062499999,0.026345214843750003,0.1244452148437501,0.4015824543467745,-0.3264480592087202,-0.5385501834059154,0.10824860807633056,0.6390010927675697
196,1791353905.2580628,-0.40964414062499993,-0.00239501953125,0.1388153320312501,0.4325317959108856,-0.33526982929069526,-0.5396113768583817,0.1114578186369143,0.6449877067068097
197,1791353905.2780628,-0.4431744140624999,-0.02155517578125,0.1483954101562501,0.46785615806361086,-0.34243060164772066,-0.5403548084085632,0.11402824107833529,0.649803413101604
198,1791353905.303136,-0.43838437499999994,-0.03592529296875,0.1196551757812501,0.45583862057780156,-0.35171900249701316,-0.5412551126753706,0.11727139218965241,0.6560609218211533
199,1791353905.323136,-0.37611386718749995,-0.02155517578125,0.09091494140625009,0.3875458595632249,-0.3592383931072329,-0.5419517501190391,0.11978614144927564,0.6611449479672835
200,1791353905.3322985,-0.42880429687499994,-0.04071533203125,0.09091494140625009,0.4402231137182371,-0.36271959518261493,-0.5422658143301793,0.12089034376597846,0.6634999572995232
201,1791353905.3522985,-0.4910748046874999,-0.00718505859375,0.1196551757812501,0.5054932738989746,-0.37055844191539655,-0.5429203802223893,0.12325493786010719,0.6687808892623122
202,1791353905.3780487,-0.47670468749999995,0.08861572265625,0.1627655273437501,0.5114613595158984,-0.38100617713982865,-0.5434794619624641,0.12638813746739727,0.6756549369953524
203,1791353905.3980486,-0.42880429687499994,0.06945556640625,0.1771356445312501,0.4691207065210163,-0.3892619237612672,-0.5436114551144495,0.1289664940250645,0.6809336355351296
204,1791353905.4234784,-0.4431744140624999,0.01676513671875,0.1340252929687501,0.46330056145465415,-0.3998475040173774,-0.5435896659483741,0.1323465452229863,0.6876651506563726
205,1791353905.4434783,-0.41443417968749996,0.08861572265625,0.20108583984375009,0.46908842511919513,-0.4082104644113489,-0.5434170285707239,0.1351088038727004,0.692959045744751
206,1791353905.4678838,-0.35695371093749995,0.07903564453125,0.19150576171875008,0.4127190831909776,-0.41829676699104734,-0.5429310923367467,0.1386925160573514,0.6992724578527703
207,1791353905.4878838,-0.38569394531249995,0.02155517578125,0.1579754882812501,0.4173496135752155,-0.4264364949202903,-0.5424417204555112,0.1417130231214593,0.7043959718885827
208,1791353905.4972506,-0.47670468749999995,0.00239501953125,0.1292352539062501,0.4939178535497989,-0.43028265758922746,-0.5422300825687096,0.1431172159352132,0.7068515865169749
209,1791353905.5172505,-0.3521636718749999,-0.011975097656250001,0.1483954101562501,0.3823399698014857,-0.43850646957967776,-0.5418603450180984,0.14608217123503062,0.7122082266578408
210,1791353905.542836,-0.2755230468749999,0.01676513671875,0.10049501953125009,0.29375715841331956,-0.4486533590085169,-0.5414491077632411,0.14978380488891452,0.7189521270948681
211,1791353905.562836,-0.40485410156249996,0.03113525390625,0.11007509765625009,0.42070509232931647,-0.45641592772416634,-0.5411040145715287,0.1525591749628079,0.72414318717438
212,1791353905.587533,-0.4814947265624999,0.026345214843750003,0.1723456054687501,0.5120881269635628,-0.46620548995699385,-0.5406353257719742,0.15599539851715397,0.7307316051034982
213,1791353905.607533,-0.4335943359374999,-0.00239501953125,0.1531854492187501,0.45986472590098365,-0.4743166718168722,-0.5402767831544906,0.1588489855649765,0.7362800471248837
214,1791353905.617589,-0.36653378906249995,0.05987548828125,0.09091494140625009,0.38235797257587445,-0.4783866962788898,-0.5400801969268668,0.1602526559034502,0.7390679021668466
215,1791353905.637589,-0.44796445312499994,0.050295410156250005,0.1244452148437501,0.46764130596416825,-0.4864889337572555,-0.5395826061679156,0.16294864017303853,0.7445623754135537
216,1791353905.663225,-0.4719146484374999,0.09340576171875001,0.1579754882812501,0.5063440792878381,-0.49708520704759535,-0.5387641726979913,0.16642900326120444,0.7517041638670227
217,1791353905.683225,-0.41922421874999993,0.13651611328125002,0.10528505859375009,0.45328858173911274,-0.5054486253876906,-0.5378765620716456,0.16913182839277652,0.757228554868213
218,1791353905.7078614,-0.44796445312499994,0.11735595703125,0.08133486328125009,0.4701701095340712,-0.5158079013526407,-0.5364780980256828,0.17230665305860052,0.7639084522685468
219,1791353905.7278614,-0.4910748046874999,0.055085449218750006,0.1340252929687501,0.5120074703262218,-0.5243646931489676,-0.5352544509044959,0.17482042431593414,0.7694269552025633
220,1791353905.737672,-0.5246050781249999,0.03592529296875,0.19150576171875008,0.55962091762273,-0.5286798252239584,-0.5346772798238697,0.17610807892265903,0.7722669270534103
221,1791353905.757672,-0.42401425781249996,0.050295410156250005,0.1771356445312501,0.4622713009419598,-0.5375800255592855,-0.5335478252618384,0.17889229193701386,0.778246758963015
222,1791353905.7827039,-0.43838437499999994,0.11256591796875001,0.1340252929687501,0.4720325468520653,-0.548667582555178,-0.5320404984680305,0.18243845354385746,0.7857397772090501
223,1791353905.8027039,-0.5246050781249999,0.08861572265625,0.1531854492187501,0.5536506264322085,-0.5576420173077873,-0.5307150473784874,0.1852775929661129,0.7918022906233382
224,1791353905.8273234,-0.4814947265624999,0.12693603515625002,0.1723456054687501,0.5269278285050766,-0.5688899971570981,-0.5289301744863573,0.18884936139391834,0.7994166871203416
225,1791353905.8473234,-0.42401425781249996,0.11256591796875001,0.1244452148437501,0.45601073256442076,-0.5780150644747046,-0.5273384552579711,0.19176087713130602,0.8055802226666988
226,1791353905.8576033,-0.4719146484374999,0.055085449218750006,0.1436053710937501,0.49634700032587514,-0.5826925230866197,-0.5265137817733291,0.19323957130648678,0.8087576094090357
227,1791353905.8776033,-0.53418515625,0.026345214843750003,0.1867157226562501,0.5664897285830044,-0.591936840757462,-0.5250278634619029,0.19618038676598454,0.815187233099824
228,1791353905.9033346,-0.5198150390624999,0.055085449218750006,0.2154559570312501,0.5653877881343314,-0.6040803251389504,-0.5232457404884261,0.2001725414509296,0.8238738923586457
229,1791353905.9233346,-0.4431744140624999,0.16046630859375,0.1819256835937501,0.5052226754851745,-0.613547676425682,-0.5217450131823859,0.2034061209154823,0.8306820451014486
230,1791353905.9475763,-0.4431744140624999,0.12214599609375,0.1819256835937501,0.4943886730017465,-0.6249131235925539,-0.5196850300075845,0.2073991171318329,0.8388106676951899
231,1791353905.9675763,-0.47670468749999995,0.03113525390625,0.2298260742187501,0.5301290291156311,-0.6342631959117807,-0.5180105025284025,0.2108169153934199,0.8456172031326884
232,1791353905.9771564,-0.4814947265624999,0.03113525390625,0.2346161132812501,0.5365177502697405,-0.6387586112760513,-0.5172839663908917,0.2125421993687638,0.848981420218908
233,1791353905.9971564,-0.46712460937499994,0.10777587890625001,0.20108583984375009,0.5198620545331495,-0.6481586692614097,-0.515786358964934,0.21625727414350238,0.8561030529398919
234,1791353906.0220778,-0.4623345703124999,0.050295410156250005,0.1819256835937501,0.49937945246063403,-0.6598521043596435,-0.5139046991815855,0.22090802660705366,0.8650451986388853
235,1791353906.0420778,-0.5102349609375,0.00718505859375,0.1723456054687501,0.5386040736517668,-0.6692875584836079,-0.5125349164940822,0.22461191378527268,0.8724037989261781
236,1791353906.0671847,-0.53418515625,-0.01676513671875,0.1723456054687501,0.5615495157966262,-0.6813222703799832,-0.511091336788061,0.22921318621183726,0.8820164824927732
237,1791353906.0871847,-0.4814947265624999,-0.01676513671875,0.1388153320312501,0.5013860168808472,-0.6909945387352918,-0.5101641787464912,0.23279546653405447,0.8899071137354103
238,1791353906.0977325,-0.4623345703124999,-0.011975097656250001,0.1340252929687501,0.4815178470475211,-0.6960771278301745,-0.5097712836765756,0.23461719137542889,0.8941114897139302
239,1791353906.1177325,-0.5102349609375,-0.03113525390625,0.1579754882812501,0.5350377316567478,-0.705727575828369,-0.5092027212210973,0.23799126112751398,0.9022076606616802
240,1791353906.1420102,-0.4910748046874999,-0.01676513671875,0.1771356445312501,0.5223146275680646,-0.717508145366913,-0.5087032952552436,0.24208281459700506,0.9122505524222052
241,1791353906.1620102,-0.47670468749999995,0.02155517578125,0.1388153320312501,0.4969725154315673,-0.7272089306331145,-0.5083463967692221,0.24542177229262147,0.9205871681791251
242,1791353906.1878972,-0.4719146484374999,0.06945556640625,0.1244452148437501,0.49296462612667175,-0.7397234946996238,-0.5077770376669305,0.24960641765622393,0.9313064653096751
243,1791353906.2078972,-0.4527544921874999,-0.00239501953125,0.1675555664062501,0.48277037414099394,-0.7493288029425033,-0.5073025492007723,0.2527924722226293,0.9395496609319146
244,1791353906.2326615,-0.42401425781249996,0.026345214843750003,0.1819256835937501,0.4621462057882784,-0.7610666758564929,-0.5067586745755145,0.25679484218306,0.949721238221304
245,1791353906.2526615,-0.4623345703124999,0.06466552734375,0.1292352539062501,0.48439305959613227,-0.770453912126385,-0.5062488042057244,0.26000909573722214,0.9578579290983947
246,1791353906.262305,-0.4814947265624999,0.011975097656250001,0.1388153320312501,0.5012487117971671,-0.7749839248726919,-0.5059844014832778,0.26152033430188343,0.9617760568910216
247,1791353906.282305,-0.44796445312499994,-0.03592529296875,0.1627655273437501,0.47797007733744157,-0.7843637717234989,-0.5055542286961272,0.26463676752355153,0.9699712486822295
248,1791353906.307029,-0.39527402343749996,0.06466552734375,0.1436053710937501,0.4254946376137873,-0.7957834629783481,-0.5050489224529283,0.2684795297738387,0.9800137712952086
249,1791353906.327029,-0.41443417968749996,0.055085449218750006,0.1148651367187501,0.4335713270527695,-0.804850091506741,-0.5045218525567915,0.2715094806914484,0.9879490713650609
250,1791353906.3526108,-0.4814947265624999,-0.03113525390625,0.1483954101562501,0.5048046884674754,-0.8164265568742727,-0.5039028550808461,0.2753088331144248,0.998130935157825
251,1791353906.3726108,-0.47670468749999995,-0.03113525390625,0.1771356445312501,0.509503483485423,-0.8255568020024927,-0.5035849162836258,0.27832192564591113,1.0062827115359865
252,1791353906.3826718,-0.43838437499999994,-0.026345214843750003,0.1436053710937501,0.46205782451580407,-0.8301513450945837,-0.5034923409977972,0.27985232969177576,1.0104321449952505
253,1791353906.4026718,-0.42401425781249996,0.03592529296875,0.1436053710937501,0.44911158981944493,-0.8392082813572692,-0.5033215476410862,0.28286904915311933,1.0186353708698856
254,1791353906.4428902,-0.4527544921874999,-0.045505371093750004,0.1531854492187501,0.48012826499456485,-0.8573338009125554,-0.5030585108139995,0.2889207052083317,1.035163893008082
255,1791353906.4628901,-0.4719146484374999,-0.04071533203125,0.19150576171875008,0.5109164613161166,-0.8663823188406897,-0.5030766581330842,0.2919957292774941,1.0435353143398733
256,1791353906.4725056,-0.3713238281249999,0.01676513671875,0.1531854492187501,0.4020301443859069,-0.870688155116427,-0.50310134598154,0.29350093202315464,1.0475455240164722
257,1791353906.4925056,-0.40006406249999993,0.04071533203125,0.1292352539062501,0.42238695910104956,-0.8794579180842567,-0.5030587732685817,0.2965857484386292,1.0556881477124234
258,1791353906.5025592,-0.4814947265624999,-0.00239501953125,0.1723456054687501,0.5114155996354058,-0.8838697766000029,-0.5030116884233069,0.2981312272091256,1.0597776980643745
259,1791353906.5225592,-0.46712460937499994,-0.04071533203125,0.19150576171875008,0.5064954054259919,-0.8927528443752919,-0.5029967367520259,0.30129029882859415,1.0680773391901845
260,1791353906.5479276,-0.39527402343749996,-0.02155517578125,0.1388153320312501,0.4194947861587508,-0.9039710437499715,-0.5030990944339814,0.3053247643607018,1.0786545130349305
261,1791353906.5679276,-0.4335943359374999,-0.00239501953125,0.11007509765625009,0.44735479364780434,-0.91273191877919,-0.5032036119319326,0.3084016878871408,1.0869245749872998
262,1791353906.5923002,-0.5006548828124999,0.03592529296875,0.1675555664062501,0.5291699218517695,-0.9235144991079683,-0.5032505834312104,0.3120963677449111,1.0970616767283699
263,1791353906.6123002,-0.42401425781249996,0.10298583984375001,0.1244452148437501,0.4537408792847685,-0.9324224003226866,-0.5030749797651133,0.31511142450602675,1.1053466323933896
264,1791353906.6223743,-0.34737363281249994,0.03113525390625,0.08133486328125009,0.35812456602994974,-0.9368191599548897,-0.5028984582401005,0.3165578042573542,1.1093898508617666
265,1791353906.6423743,-0.43838437499999994,-0.06945556640625,0.1388153320312501,0.4650533650624407,-0.9454172730927961,-0.5026580607738289,0.3193287770946958,1.117340509515304
266,1791353906.6671815,-0.5006548828124999,-0.011975097656250001,0.19629580078125008,0.5378947443991501,-0.956229450531673,-0.5025561129881945,0.32287372294200817,1.127468336465526
267,1791353906.6871815,-0.4335943359374999,0.01676513671875,0.19150576171875008,0.47429903514318744,-0.9650402336773816,-0.502479064764737,0.3258847188928456,1.1357767003908863
268,1791353906.713703,-0.3425835937499999,-0.055085449218750006,0.19150576171875008,0.39632358268689377,-0.9765153196507532,-0.5024684421523299,0.330040451901027,1.146727258227795
269,1791353906.733703,-0.3713238281249999,-0.055085449218750006,0.19629580078125008,0.4236128343822791,-0.9849415965016572,-0.5026268893527799,0.33328593749116825,1.154912661004741
270,1791353906.742309,-0.42880429687499994,-0.00718505859375,0.1675555664062501,0.4604341624154077,-0.9885400767515184,-0.5027250369920848,0.33470787136283964,1.1584357147959632
271,1791353906.762309,-0.42880429687499994,-0.03592529296875,0.1340252929687501,0.4506956077539617,-0.996934635826574,-0.5029835753818279,0.33796901561010884,1.1666594193366875
272,1791353906.7871416,-0.39527402343749996,-0.11735595703125,0.1340252929687501,0.43356285981452464,-1.0073288934951694,-0.5035419086691302,0.3419099948014218,1.1769317728744777
273,1791353906.8071415,-0.3617437499999999,-0.045505371093750004,0.1483954101562501,0.39363749467992,-1.0155801868605037,-0.5041684278223021,0.3450315663418935,1.185173279030863
274,1791353906.832763,-0.3617437499999999,0.01676513671875,0.10528505859375009,0.37712670819812033,-1.0259553701033548,-0.5049058789170868,0.3489181542977405,1.1955158913236952
275,1791353906.852763,-0.4431744140624999,0.00239501953125,0.08133486328125009,0.4505825755432347,-1.0340467513372442,-0.5053664425621692,0.3517768616407792,1.203492785854941
276,1791353906.8774045,-0.45754453124999994,-0.07903564453125,0.1244452148437501,0.4807080638815615,-1.0441852053019174,-0.5059904154793532,0.3551509916957343,1.2134583925420925
277,1791353906.8974044,-0.39527402343749996,-0.055085449218750006,0.1340252929687501,0.42099731528296,-1.052458870415525,-0.5066220708653735,0.35786648249244774,1.2216398879767147
278,1791353906.908073,-0.3425835937499999,0.01676513671875,0.1148651367187501,0.36171617070471224,-1.0568006409597896,-0.506939132795931,0.3592968664758603,1.225931938303381
279,1791353906.928073,-0.3617437499999999,-0.01676513671875,0.10528505859375009,0.37712670819812033,-1.064775621577175,-0.5074443621641731,0.3619063685497442,1.2337840672476392
280,1791353906.9525554,-0.41922421874999993,-0.11256591796875001,0.1579754882812501,0.46192671104017635,-1.0745076457701175,-0.5082075326924751,0.3651049685966598,1.2434400730223316
281,1791353906.9725554,-0.3617437499999999,-0.07903564453125,0.1771356445312501,0.4104658455146225,-1.08243675331267,-0.5090248599181603,0.3678286569420373,1.2514286051567463
282,1791353906.9977148,-0.26594296874999995,-0.00718505859375,0.1292352539062501,0.29576855570998756,-1.092099554738726,-0.5100615008088502,0.3713191326206769,1.2612383082978698
283,1791353907.0177147,-0.3713238281249999,-0.026345214843750003,0.1388153320312501,0.3972973094365403,-1.0995845340250954,-0.5108122463832441,0.3740796954686497,1.2688384125191827
284,1791353907.0272653,-0.4719146484374999,-0.08382568359375,0.1675555664062501,0.5077450624807374,-1.1032266903710426,-0.5111958883943956,0.3754196583134366,1.2725448072687096
285,1791353907.0472653,-0.40006406249999993,-0.11735595703125,0.1340252929687501,0.4379343031895124,-1.1110176827567695,-0.5121805420065872,0.3782571583517254,1.2805341373242283
286,1791353907.072536,-0.3330035156249999,-0.08861572265625,0.10528505859375009,0.3603179585915589,-1.1207746385552437,-0.5136284443372129,0.38175821534787613,1.2906158623876036
287,1791353907.092536,-0.39527402343749996,-0.06945556640625,0.11007509765625009,0.41615160270424917,-1.1284307060914627,-0.5148395769206457,0.38443646945909604,1.2985403526514228
288,1791353907.1180809,-0.4431744140624999,-0.055085449218750006,0.1340252929687501,0.4662625302880673,-1.1383489359549481,-0.5163930572343582,0.38781180250654945,1.3087773239604163
289,1791353907.1380808,-0.3809039062499999,-0.02155517578125,0.1148651367187501,0.39842993240077546,-1.1461855817897955,-0.5175418509972414,0.3904314040916332,1.3168248314553561
290,1791353907.1471202,-0.36653378906249995,0.01676513671875,0.1196551757812501,0.38593451442563853,-1.1497029540603392,-0.5179864362172875,0.3915967836578896,1.3204070855805645
291,1791353907.1671202,-0.41443417968749996,-0.03592529296875,0.1483954101562501,0.4416644809395286,-1.1574893636646457,-0.518851287211917,0.3941905344118455,1.3282975806114177
292,1791353907.1916392,-0.4623345703124999,-0.00718505859375,0.1723456054687501,0.4934651838756506,-1.1672155566830407,-0.5198317879073184,0.3974831886126798,1.3381368124042934
293,1791353907.2116392,-0.42401425781249996,-0.00718505859375,0.1675555664062501,0.4559765166420307,-1.175288638686564,-0.5205331635519858,0.4002759692089146,1.3462834063113498
294,1791353907.2380788,-0.39527402343749996,-0.026345214843750003,0.1723456054687501,0.4320169344759794,-1.1859848834290634,-0.5213877798759597,0.40408819573137583,1.3570897651429215
295,1791353907.2580788,-0.41443417968749996,0.00239501953125,0.2250360351562501,0.47159584660029724,-1.1940768378853923,-0.5219732000958017,0.40713542518547696,1.3652965871317442
296,1791353907.2676792,-0.46712460937499994,0.03592529296875,0.2250360351562501,0.5197472890525566,-1.1980132451695387,-0.5221844699711767,0.40870281333512914,1.369288262532319
297,1791353907.2876792,-0.41443417968749996,0.01676513671875,0.1867157226562501,0.45486208919791843,-1.2063060055708867,-0.5224795421590132,0.41209590500581056,1.3776727064051308
298,1791353907.3123202,-0.3617437499999999,-0.10298583984375001,0.1819256835937501,0.4178056704060373,-1.2164249952041835,-0.5229478976183309,0.4163305815218193,1.3879825019398573
299,1791353907.3323202,-0.38569394531249995,-0.07424560546875,0.1723456054687501,0.42892334642279967,-1.2245272959844777,-0.5235368654801255,0.419783514025416,1.3963438497645693
300,1791353907.357281,-0.3617437499999999,-0.02155517578125,0.1627655273437501,0.39726034682373235,-1.2345217310423662,-0.5243410066114367,0.424073846354562,1.4067039570542508
301,1791353907.377281,-0.2755230468749999,0.02155517578125,0.1244452148437501,0.30309105308430184,-1.2422845247925118,-0.5248886817711895,0.42742667207769636,1.4147340841281335
302,1791353907.3878424,-0.2946832031249999,-0.05987548828125,0.10049501953125009,0.3170528556116699,-1.246220619736517,-0.5251648666467241,0.4291098080276787,1.4188020290238141
303,1791353907.4078424,-0.3330035156249999,-0.026345214843750003,0.1148651367187501,0.3532412934485294,-1.2534977796766258,-0.5257387512328359,0.4321420630642585,1.4263255872596292
304,1791353907.432242,-0.2946832031249999,-0.01676513671875,0.1292352539062501,0.3222126795540816,-1.262192697007502,-0.5264127487717694,0.43573314745305913,1.4353062956170264
305,1791353907.452242,-0.29947324218749993,-0.011975097656250001,0.10049501953125009,0.3161121236219137,-1.2691419786854317,-0.5269254563415071,0.4385797744997493,1.4424714961490674
306,1791353907.4779508,-0.35695371093749995,-0.02155517578125,0.0717547851562501,0.36473185568007693,-1.278000673278551,-0.5275503079694299,0.44202221091791977,1.4515435519762525
307,1791353907.4979508,-0.40006406249999993,-0.03113525390625,0.10528505859375009,0.4148561216890741,-1.2849939984351508,-0.5280425258155846,0.4445640767630529,1.4586554436988348
308,1791353907.5081317,-0.40006406249999993,-0.011975097656250001,0.1196551757812501,0.41774635624876777,-1.2886309006968608,-0.5282884217721415,0.4458356766141941,1.462336385839913
309,1791353907.5281317,-0.40964414062499993,0.04071533203125,0.1196551757812501,0.4286996866129616,-1.2959183016553664,-0.5286559045013619,0.4483179383976258,1.4696497146662466
310,1791353907.552824,-0.46712460937499994,0.12214599609375,0.2106659179687501,0.5267875986003246,-1.3051895799450617,-0.5287399430372108,0.45153461154144314,1.4788405162085738
311,1791353907.572824,-0.3904839843749999,0.19399658203125,0.2585663085937501,0.5069210508875925,-1.3128590178915445,-0.5283235878988,0.45445305234145655,1.4863553381247294
312,1791353907.5974295,-0.2707330078124999,0.17483642578125,0.2441961914062501,0.40434628376737136,-1.3220994384859441,-0.5272075412479529,0.4584327735369849,1.4953445504787093
313,1791353907.6174295,-0.33779355468749994,0.18920654296875,0.2585663085937501,0.4655750610056351,-1.329396447236566,-0.5258903990916096,0.4619365116219607,1.502411716724614
314,1791353907.642649,-0.3809039062499999,0.24668701171875002,0.2825165039062501,0.5345632259393136,-1.3385769660855213,-0.523654175880999,0.4667153489823759,1.5112330088467723
315,1791353907.662649,-0.35695371093749995,0.26584716796875,0.2873065429687501,0.5297506187836983,-1.3458721786669192,-0.5213779763844874,0.47079141343196107,1.5181737287048827
316,1791353907.6726995,-0.34737363281249994,0.32811767578125,0.3016766601562501,0.5651003956966166,-1.34951923025722,-0.5199579771298612,0.47297646656616044,1.5215995494020191
317,1791353907.6926994,-0.39527402343749996,0.34248779296875004,0.3639471679687501,0.6371789254279745,-1.3568020082761543,-0.5165502112962567,0.47767081078880996,1.528366845339185
318,1791353907.7173805,-0.3713238281249999,0.34727783203125,0.3256268554687501,0.6037517096921514,-1.3658602945731508,-0.5116988316222285,0.4838713888242642,1.53673080254732
319,1791353907.7373805,-0.33779355468749994,0.32332763671875003,0.2777264648437501,0.5438540571965569,-1.3731631880802582,-0.507351363230468,0.4890472876838992,1.5434214578207508
320,1791353907.7629895,-0.34737363281249994,0.28021728515625,0.2585663085937501,0.5157971535531105,-1.3824275265802997,-0.5014604327814429,0.4957106991915592,1.551869043825948
321,1791353907.7829895,-0.3617437499999999,0.34727783203125,0.2777264648437501,0.5732298165299798,-1.389641129529947,-0.4966086260487343,0.5009384971446645,1.5584164957638358
322,1791353907.7927904,-0.2946832031249999,0.29937744140625,0.2106659179687501,0.4699416683170144,-1.3931283959597216,-0.49411232297150093,0.5034750812338649,1.5615507909655217
323,1791353907.8127904,-0.2755230468749999,0.26584716796875,0.1867157226562501,0.42596998387601664,-1.4000324762172172,-0.4889345718142745,0.5084709368416946,1.567702345341995
324,1791353907.8373778,-0.2946832031249999,0.23231689453125,0.2537762695312501,0.45300300734746957,-1.4082984911398961,-0.48260536042654095,0.5145037232734299,1.575095760683001
325,1791353907.8573778,-0.2084624999999999,0.34727783203125,0.2394061523437501,0.470503785645359,-1.4147684192362848,-0.4773598853807655,0.5194146286318257,1.5808964851234921
326,1791353907.883178,-0.17972226562499993,0.36643798828125,0.19150576171875008,0.45083405903776974,-1.422613909048872,-0.4702271133294367,0.5256333110303455,1.5878394912566482
327,1791353907.903178,-0.1988824218749999,0.29937744140625,0.1867157226562501,0.4050232477782773,-1.4283512736923292,-0.4645285486137227,0.5302981840037678,1.5928560190718322
328,1791353907.9131823,-0.13661191406249992,0.21315673828125,0.1819256835937501,0.3117620318280827,-1.4310424286018566,-0.4617210540110924,0.53255820528927,1.595207511954712
329,1791353907.9331822,-0.15577207031249993,0.11735595703125,0.2154559570312501,0.2906176662909791,-1.4360540049854393,-0.4564545919779291,0.536994665249771,1.5996765830251976
330,1791353907.9575577,-0.17014218749999993,0.12693603515625002,0.1867157226562501,0.2827081217006678,-1.4418416060097885,-0.45055215873683857,0.5423258809220955,1.604999011115346
331,1791353907.9775577,-0.031231054687499916,0.20836669921875,0.09091494140625009,0.22947240943327488,-1.446180069804562,-0.44593271430297404,0.5464604372450844,1.6090095678583252
332,1791353908.0030854,0.011879296875000087,0.17483642578125,0.03822451171875009,0.17935999211179673,-1.450924045242081,-0.4401872727664474,0.5511933847434565,1.613307028296894
333,1791353908.0230854,-0.007280859374999913,0.14130615234375002,0.0669647460937501,0.15653982503770097,-1.4540763611518135,-0.43588692722961336,0.5545030380687694,1.616109246498413
334,1791353908.0331376,0.0022992187500000872,0.07903564453125,0.05738466796875009,0.09769810454258646,-1.4554268463993614,-0.43388361849853024,0.5560107340546337,1.6173033840332312
335,1791353908.0531375,0.03582949218750009,-0.00239501953125,0.1436053710937501,0.14802699495680804,-1.45765355321802,-0.43038072249720855,0.5588619887049765,1.6193542447301699
336,1791353908.0787132,0.1747406250000001,-0.07903564453125,0.1292352539062501,0.2312632049939499,-1.4596699971499019,-0.42672939297763923,0.5624845600272818,1.6214571704734428
337,1791353908.0987132,0.3615521484375001,-0.22273681640625,-0.1437969726562499,0.44834051207499187,-1.4602058777900249,-0.4247550328740669,0.5648706204199787,1.6222505544144648
338,1791353908.123152,0.2849115234375001,-0.33769775390625,-0.16774716796874992,0.47260285816141584,-1.459577558991001,-0.42373158746919115,0.566777874182416,1.6220826944370093
339,1791353908.143152,0.1747406250000001,-0.41433837890625,-0.043206152343749915,0.4517492112449132,-1.4584510147927883,-0.4241477188134792,0.5677881547369624,1.6215313868637873
340,1791353908.1527028,0.3184417968750001,-0.44786865234375,-0.1294268554687499,0.5645731295994473,-1.4576404675903247,-0.42493423876295017,0.5680745786435399,1.6211087461768332
341,1791353908.1727028,0.4190326171875001,-0.60114990234375,-0.26833798828124994,0.7803683843607033,-1.455091521852775,-0.4279077329070527,0.5679877527725314,1.6195698355270354
342,1791353908.1973412,0.2370111328125001,-0.61552001953125,-0.17732724609374992,0.6829964302454357,-1.4512101442687397,-0.4332696398918614,0.5670732981307447,1.617190647120308
343,1791353908.2173412,0.2034808593750001,-0.57719970703125,-0.24438779296874993,0.6590063393330037,-1.447871338631664,-0.43875831996561937,0.5658097718516872,1.6152340308738415
344,1791353908.2423716,0.4094525390625001,-0.7831713867187501,-0.25875791015624994,0.9208498568106139,-1.4431688976935113,-0.4471509283928228,0.5635210983859583,1.6125248675163384
345,1791353908.2623715,0.5292035156250001,-0.93645263671875,-0.21564755859374993,1.0970431948172341,-1.4385671385437302,-0.455430404811736,0.5612550829651647,1.6099377422369823
346,1791353908.288219,0.3998724609375001,-0.7831713867187501,-0.09110654296874991,0.8840564507783987,-1.43171096040822,-0.4678591409614425,0.5581711659212687,1.6063136369962485
347,1791353908.308219,0.2753314453125001,-0.63468017578125,-0.05757626953124992,0.6942199630669834,-1.4261888137885939,-0.47816035652853656,0.5559198346671886,1.60365168341121
348,1791353908.3175726,0.4142425781250001,-0.69695068359375,-0.17253720703124992,0.8289187274417116,-1.4235098430284538,-0.483189568004086,0.5548634331395151,1.6024125128262816
349,1791353908.3375726,0.5052533203125001,-0.9412426757812501,-0.22522763671874993,1.0917628775244954,-1.4172616435220613,-0.4947873116734465,0.5523468052090102,1.5995411977240506
350,1791353908.363112,0.4094525390625001,-0.8454418945312501,-0.08631650390624991,0.943331287311046,-1.4087276109209812,-0.5107981115632413,0.5490184444443528,1.595885160306908
351,1791353908.383112,0.3759222656250001,-0.63947021484375,-0.03362607421874991,0.7425432097408943,-1.4018689768355885,-0.5236828680588895,0.5466230486684752,1.5931971415515602
352,1791353908.4218655,0.4046625000000001,-0.57240966796875,-0.2827081054687499,0.755862712262005,-1.3883038501198923,-0.5484267383659082,0.5417583407297794,1.587974044927268
353,1791353908.4418654,0.3615521484375001,-0.71611083984375,-0.3832989257812499,0.8890741012348483,-1.381203921489587,-0.5612138992295085,0.5386253319931037,1.5851821856465846
354,1791353908.4380507,0.3232318359375001,-0.91250244140625,-0.34018857421874993,1.0260934613205952,-1.381203921489587,-0.5612138992295085,0.5386253319931037,1.5851821856465846
355,1791353908.4580507,0.4142425781250001,-0.9795629882812501,-0.39766904296874994,1.1354652039044706,-1.3740949137406377,-0.5753671983446759,0.5343325021278016,1.5826229708079713
356,1791353908.4821947,0.3423919921875001,-0.95082275390625,-0.35934873046874993,1.0725799251102421,-1.3654301214690447,-0.5933856889159252,0.5285567472902384,1.5798348735014156
357,1791353908.5021946,0.2992816406250001,-0.91729248046875,-0.2539678710937499,0.9977447943675755,-1.3583666456820014,-0.6088748571799019,0.5235700069469217,1.577977847747432
358,1791353908.5280423,0.48609316406250014,-1.1088940429687502,-0.3210284179687499,1.252594031529526,-1.3490847172711125,-0.6298180448902113,0.5169772634787709,1.5760602256886644
359,1791353908.5480423,0.5866839843750001,-1.26217529296875,-0.55095029296875,1.4969404774489956,-1.3413708399059254,-0.647148954926671,0.5113332571922973,1.5746552638350702
360,1791353908.5578876,0.4046625000000001,-1.2286450195312502,-0.45514951171874996,1.3713064577048462,-1.337411165369547,-0.6562398278140265,0.5082287722386115,1.5740444154456632
361,1791353908.5778875,0.4142425781250001,-1.25259521484375,-0.55574033203125,1.4315861840725173,-1.3293455669652996,-0.675659059987251,0.501351868349474,1.5732223293770837
362,1791353908.6030452,0.48609316406250014,-1.37234619140625,-0.67070126953125,1.6029537816688173,-1.319023028625377,-0.7013749679799777,0.4916849803090083,1.5727373320470417
363,1791353908.6230452,0.4956732421875001,-1.45377685546875,-0.6802813476562499,1.6798636315148556,-1.3105750585968217,-0.7229913408538546,0.4831262337052021,1.5728109933682084
364,1791353908.6483276,0.3998724609375001,-1.35797607421875,-0.5461602539062499,1.5173292411713815,-1.2997995806573581,-0.7515497693183888,0.4716042883188225,1.5737587522871066
365,1791353908.6683276,0.45735292968750013,-1.2765454101562501,-0.60843076171875,1.4862462374352328,-1.291268265769501,-0.7747043587440576,0.46212499747507146,1.5751508152973006
366,1791353908.6775572,0.48609316406250014,-1.30528564453125,-0.71381162109375,1.5651147588519319,-1.2872686877925599,-0.785574206140245,0.457491353499511,1.575907943520455
367,1791353908.6975572,0.4908832031250001,-1.4298266601562502,-0.6611211914062499,1.6499854020355018,-1.2784364570105153,-0.8096978930001009,0.4468943111826826,1.577886237315557
368,1791353908.7223573,0.6010541015625002,-1.5064672851562502,-0.5988506835937499,1.7289684368119183,-1.267096245069028,-0.840585867380553,0.43338143636143467,1.5811188962537408
369,1791353908.7423573,0.6681146484375001,-1.44419677734375,-0.6371709960937499,1.714079459479618,-1.2574189882838092,-0.8661849942195217,0.42226457992755667,1.5841989558667016
370,1791353908.7680588,0.6010541015625002,-1.28612548828125,-0.58927060546875,1.5370831633588649,-1.2444019004457054,-0.8994103319584248,0.40775735616101166,1.5886286842965744
371,1791353908.7880588,0.5531537109375001,-1.2765454101562501,-0.5270000976562499,1.4877084106250837,-1.2340605837377188,-0.9252308613500839,0.39648731137896615,1.5925325300332858
372,1791353908.813262,0.5052533203125001,-1.32444580078125,-0.6611211914062499,1.5641351689097436,-1.2209829587266372,-0.95780472010763,0.3821696988887202,1.5981999080559364
373,1791353908.833262,0.46693300781250013,-1.52083740234375,-0.68986142578125,1.734036223650894,-1.2107036116257632,-0.9840442339588906,0.3704857663416305,1.6035604112889392
374,1791353908.8430963,0.3615521484375001,-1.57352783203125,-0.5988506835937499,1.7220139184853993,-1.2057962120890533,-0.997293557212261,0.36465185911233305,1.6067077900786675
375,1791353908.8630962,0.4621429687500001,-1.43940673828125,-0.55574033203125,1.610687802903075,-1.1960775247443611,-1.02471631542651,0.35283522660281563,1.6140438870835392
376,1791353908.8876104,0.7016449218750002,-1.45377685546875,-0.6228008789062499,1.7302178119115463,-1.183812367828318,-1.0586061430469749,0.3383571913043007,1.6237439075258808
377,1791353908.9076104,0.7447552734375001,-1.3915063476562501,-0.73297177734375,1.7401718188911859,-1.1731371898524443,-1.0863758121553557,0.32628337866033164,1.6318468416616494
378,1791353908.9181235,0.6058441406250001,-1.33402587890625,-0.57011044921875,1.5721635069640951,-1.1673025379025337,-1.1009324887021827,0.3198612750050196,1.6361414348770447
379,1791353908.9381235,0.5339935546875001,-1.4250366210937502,-0.3545586914062499,1.5625589120278944,-1.1561579542918583,-1.1286097147109153,0.30808951472716,1.6448040164399542
380,1791353908.963059,0.6297943359375001,-1.42024658203125,-0.34497861328124996,1.5914620645720272,-1.1421709095736245,-1.1632620447415019,0.2943060373194681,1.6566076828914893
381,1791353908.983059,0.7016449218750002,-1.65974853515625,-0.49825986328124994,1.8695811530135145,-1.1306379627873753,-1.1915065614269296,0.2836441747972483,1.6668785518794773
382,1791353909.0080876,0.6776947265625001,-1.60705810546875,-0.79524228515625,1.9168505911687441,-1.1157808936238696,-1.2276831426491603,0.2698748263739255,1.6807752149622375
383,1791353909.0280876,0.4717230468750001,-1.5543676757812501,-0.74734189453125,1.7880440184145907,-1.1039655581803327,-1.2569971145983743,0.2582085429723312,1.6927650018301261
384,1791353909.0526352,0.5771039062500001,-1.53520751953125,-0.48388974609374996,1.7099884014252775,-1.0897079755462789,-1.2932677093009701,0.2437706428291663,1.7086336547648513
385,1791353909.0726352,0.8453460937500001,-1.3867163085937502,-0.3737188476562499,1.6665107007852593,-1.0777004696332253,-1.3227691402139206,0.23248552256300883,1.721977357212151
386,1791353909.0830183,0.7016449218750002,-1.2286450195312502,-0.36892880859374994,1.4621842039299717,-1.0711970609374177,-1.337824304778283,0.22692726073945096,1.7287952439439347
387,1791353909.1030183,0.45735292968750013,-1.32444580078125,-0.4503594726562499,1.4717853226989464,-1.0588107311319708,-1.3663033037043835,0.21659795523857084,1.7420618692478351
388,1791353909.128139,0.3902923828125001,-1.5160473632812501,-0.3737188476562499,1.6094699527754486,-1.0439896753076796,-1.4020600475102385,0.20401744643997613,1.759917593930277
389,1791353909.148139,0.6345843750000001,-1.50167724609375,-0.15816708984374991,1.6379098597723534,-1.0324224916098672,-1.4307843321618443,0.1947059962138362,1.7750916684226095
390,1791353909.1731286,0.7830755859375002,-1.24780517578125,-0.19169736328124992,1.4855884386622087,-1.0174804502985029,-1.4664443595722718,0.18416096153428113,1.794335750692775
391,1791353909.1931286,0.7734955078125001,-1.12805419921875,-0.37850888671874994,1.4191795356142367,-1.004980790936488,-1.4942670276415622,0.17613205343425958,1.809376367783952
392,1791353909.2022958,0.7016449218750002,-1.24301513671875,-0.32581845703124995,1.4640867096750565,-0.9990966295717325,-1.5067371137430388,0.17251968867983689,1.8160985237961311
393,1791353909.2222958,0.6489544921875001,-1.2717553710937501,-0.3737188476562499,1.4758622679402214,-0.9861589262394539,-1.5336342541076664,0.16477148111437107,1.8307629814268025
394,1791353909.2483785,0.5196234375000001,-1.40587646484375,-0.35934873046874993,1.5413074519025654,-0.9695312680087933,-1.5686882222158958,0.15474842111886938,1.850600089701821
395,1791353909.2683785,0.4094525390625001,-1.37713623046875,-0.25875791015624994,1.4598326051581516,-0.957300229275995,-1.595709898526171,0.14728852180534444,1.8666568291686287
396,1791353909.2929819,0.4813031250000001,-1.1520043945312501,-0.23959775390624993,1.2712882862793151,-0.9428672468016144,-1.6286318577150738,0.138568530146135,1.8869662452207694
397,1791353909.3129818,0.6297943359375001,-1.08015380859375,-0.4024590820312499,1.313524445340846,-0.9312279643266201,-1.6547279041824123,0.13158026569096493,1.903319028629495
398,1791353909.3225112,0.5914740234375001,-1.28612548828125,-0.49346982421874996,1.4991573497877106,-0.925641237676011,-1.666987930165242,0.12810971192558673,1.9110396538252763
399,1791353909.3425112,0.4334027343750001,-1.52562744140625,-0.45514951171874996,1.6500115448545578,-0.9141374267439865,-1.6930769523364548,0.1204954549437533,1.9278682413923203
400,1791353909.3676069,0.4908832031250001,-1.41066650390625,-0.5030499023437499,1.5760728119606018,-0.9001281561776318,-1.7264293035209919,0.11057082820973005,1.9501319815978368
401,1791353909.3876069,0.6250042968750001,-1.3148657226562501,-0.53179013671875,1.5499364468389996,-0.8889643596790927,-1.7531106876905633,0.10229556587429048,1.968278206675083
402,1791353909.413177,0.46693300781250013,-1.33402587890625,-0.5078399414062499,1.5018498212084737,-0.8747382228084509,-1.7871861599010703,0.09130880600311103,1.9918681248109111
403,1791353909.433177,0.3184417968750001,-1.3531860351562501,-0.4216192382812499,1.4526804210932742,-0.8641021000189608,-1.813871607561705,0.08261021444033968,2.010877195530732
404,1791353909.4425077,0.4381927734375001,-1.19990478515625,-0.34497861328124996,1.323175968552622,-0.8593547710281653,-1.826240583651657,0.07862425510444267,2.019858179515568
405,1791353909.4625077,0.5100433593750001,-1.08973388671875,-0.27791806640624994,1.234869476479469,-0.8492831113128725,-1.8522104620104303,0.07042776724326075,2.0388539597384203
406,1791353909.4870892,0.5435736328125002,-1.10410400390625,-0.29707822265624995,1.2660068783807565,-0.8368186727382892,-1.8833860780428677,0.060804731646963026,2.061820997419472
407,1791353909.5070891,0.5100433593750001,-1.18553466796875,-0.2635479492187499,1.317229744173627,-0.8266181142290105,-1.9083809105325227,0.05330871114203205,2.0803982852185037
408,1791353909.5322726,0.5483636718750001,-1.20948486328125,-0.23480771484374993,1.3485885266043312,-0.8137014104414961,-1.9396564216527228,0.04434446824711239,2.1038876993027085
409,1791353909.5522726,0.6441644531250001,-1.13284423828125,-0.36892880859374994,1.3543974219878225,-0.8031932487590776,-1.9642823254182697,0.03738758664508381,2.122480219092256
410,1791353909.5617795,0.6154242187500001,-1.18553466796875,-0.5174200195312499,1.4324674148445895,-0.7980493620484109,-1.9758853596771382,0.03394470589594585,2.131233910651454
411,1791353909.5817795,0.4190326171875001,-1.3962963867187501,-0.42640927734374995,1.5188998668890794,-0.7872995574336967,-2.0005062483229095,0.026372522665209314,2.1500142680145227
412,1791353909.6076338,0.47651308593750014,-1.32444580078125,-0.3210284179687499,1.4437037942113629,-0.7737510237527851,-2.0328356751767895,0.01660278666403344,2.1751752070936647
413,1791353909.6276338,0.6010541015625002,-1.2717553710937501,-0.3545586914062499,1.4506342139087367,-0.7632261209963171,-2.0579875082480936,0.009165522429510936,2.1949739640090695
414,1791353909.6529024,0.6106341796875001,-1.28612548828125,-0.42640927734374995,1.4862091860885969,-0.7496269534096566,-2.0898459753879144,-0.00030150909104430766,2.220224506898129
415,1791353909.6729023,0.5339935546875001,-1.31965576171875,-0.3545586914062499,1.4670897421551958,-0.7387608701186892,-2.1151881379148185,-0.00784211654697833,2.2405021715646734
416,1791353909.6979358,0.5244134765625001,-1.29091552734375,-0.19169736328124992,1.4064921870478142,-0.7252130166675245,-2.1470516393102046,-0.016890348721672957,2.266285495097338
417,1791353909.7179358,0.5196234375000001,-1.17595458984375,-0.23959775390624993,1.307778573708416,-0.7144467499343237,-2.1723901286020584,-0.023681855472908766,2.2869791996469986
418,1791353909.7275474,0.4908832031250001,-1.09452392578125,-0.45993955078124993,1.2847152733546516,-0.7093203537024185,-2.184377462055742,-0.026960418793410587,2.2968167373769997
419,1791353909.7475474,0.44777285156250013,-1.2669653320312502,-0.40724912109374994,1.404120196349693,-0.6988453485103212,-2.209121608424356,-0.03405997340135246,2.317274947806157
420,1791353909.7726452,0.3855023437500001,-1.3100756835937502,-0.28749814453124994,1.3955520545251212,-0.6861035785607802,-2.2403660511480723,-0.04294053041223933,2.3434636871099155
421,1791353909.7926452,0.3711322265625001,-1.1567944335937501,-0.2922881835937499,1.2495378639542132,-0.6763380116755804,-2.265229722707699,-0.04982543919817836,2.364567904938864
422,1791353909.817746,0.3663421875000001,-1.09931396484375,-0.3832989257812499,1.220498200796638,-0.6645319546717332,-2.2960010616561486,-0.0584419584266828,2.390949404820341
423,1791353909.837746,0.3902923828125001,-1.1903247070312502,-0.3641387695312499,1.304529837039469,-0.6554011028428731,-2.320276054555164,-0.06539883324125759,2.411951198166964
424,1791353909.8479404,0.3423919921875001,-1.1951147460937501,-0.2635479492187499,1.270822196132198,-0.6508847900932206,-2.3326175253681387,-0.06889295031542521,2.4227054646061372
425,1791353909.8679404,0.3711322265625001,-1.09931396484375,-0.3018682617187499,1.1988973143379813,-0.6422832926522202,-2.3566392799240727,-0.07556771567970752,2.443764923914385
426,1791353909.892538,0.46693300781250013,-1.1472143554687502,-0.4407793945312499,1.3146914793295588,-0.63174519715358,-2.3858960917110155,-0.08391557515180922,2.469543273223122
427,1791353909.912538,0.4429828125000001,-1.26217529296875,-0.4216192382812499,1.4025273702997818,-0.623097210668838,-2.4097302112804413,-0.09097856470175845,2.4906478924842346
428,1791353909.9373517,0.3759222656250001,-1.29570556640625,-0.29707822265624995,1.3814579019953415,-0.6124532046293992,-2.439625503530873,-0.0997645739733435,2.517305006462103
429,1791353909.9573517,0.4238226562500001,-1.1520043945312501,-0.2827081054687499,1.2596283745088659,-0.6039613151765307,-2.463778511345199,-0.10665360097478441,2.538966091502015
430,1791353909.9676163,0.46693300781250013,-1.11847412109375,-0.3306084960937499,1.2563091860806543,-0.599571004282343,-2.476063120887693,-0.11013108147530724,2.5500005535103636
431,1791353909.9876163,0.45735292968750013,-1.06099365234375,-0.3832989257812499,1.2172909673173993,-0.5909134741800182,-2.4996777249226145,-0.11696124151664726,2.571234605099059
432,1791353910.0129647,0.4190326171875001,-1.09931396484375,-0.3641387695312499,1.2315342346208749,-0.5799205138451106,-2.5292249820715518,-0.12574041261115207,2.5979025123504615
433,1791353910.0329647,0.4286126953125001,-1.18553466796875,-0.3306084960937499,1.3032663845999373,-0.5712765910833593,-2.55246819275262,-0.13267030529830176,2.618979234060781
434,1791353910.0572567,0.4621429687500001,-1.08494384765625,-0.3114483398437499,1.2197046136354655,-0.5607296459218598,-2.58060131453653,-0.14099456330274857,2.644579427297326
435,1791353910.0772567,0.4334027343750001,-1.05620361328125,-0.34018857421874993,1.1912733812610274,-0.5520053820643165,-2.60350110972874,-0.14779748689325498,2.665477830956152
436,1791353910.086805,0.4190326171875001,-1.12326416015625,-0.2635479492187499,1.2275048795405827,-0.5478545456553598,-2.614354827219496,-0.15099052596171794,2.6754053720382855
437,1791353910.106805,0.4956732421875001,-1.21427490234375,-0.18211728515624992,1.3241307363834112,-0.5390923535009831,-2.6371850532567835,-0.15734389880317068,2.6963165009350805
438,1791353910.1472237,0.48609316406250014,-1.16158447265625,-0.07194638671874992,1.261245945018764,-0.5210645958333944,-2.6836048328590483,-0.1690278472575128,2.738943888641016
439,1791353910.1672237,0.4717230468750001,-1.1136840820312501,-0.18690732421874992,1.2238256474553206,-0.5120454380814131,-2.706541788562457,-0.17433037020429124,2.7600634162769553
440,1791353910.1771758,0.5196234375000001,-1.17116455078125,-0.42640927734374995,1.3503554323254239,-0.5074907191929072,-2.7179487019358257,-0.17703092550158497,2.770583318546028
441,1791353910.1971757,0.4621429687500001,-1.30528564453125,-0.5174200195312499,1.478198299957128,-0.4982377639499884,-2.741148503410526,-0.18305971884702546,2.7920685607341382
442,1791353910.2077322,0.4190326171875001,-1.36755615234375,-0.34018857421874993,1.470213056025974,-0.49338876893637024,-2.753673274212291,-0.18644353497547358,2.8037314725482787
443,1791353910.2277322,0.4621429687500001,-1.30528564453125,-0.43598935546874995,1.451700194760089,-0.48425824885436863,-2.777852259690558,-0.19305705386598931,2.8263475112411167
444,1791353910.2533164,0.4381927734375001,-1.2669653320312502,-0.5413702148437499,1.445785519633487,-0.47260277743907686,-2.809078484024557,-0.20212350790438288,2.8557186883690777
445,1791353910.2733164,0.4142425781250001,-1.32444580078125,-0.4503594726562499,1.4589644434837845,-0.46357939789536595,-2.833714530892208,-0.20963550067909276,2.8790260408491704
446,1791353910.2982872,0.4621429687500001,-1.23822509765625,-0.34976865234374993,1.3671560357886208,-0.45236195592521866,-2.864659140651304,-0.21910615475306547,2.9084206776765
447,1791353910.3182871,0.5435736328125002,-1.17595458984375,-0.30665830078124995,1.331307930233124,-0.44321660023459497,-2.8893473528703875,-0.22653837140992597,2.9319087151519043
448,1791353910.3282807,0.5387835937500001,-1.13763427734375,-0.28749814453124994,1.291183446683899,-0.438521081517261,-2.9015671617250063,-0.230140360193475,2.9435280393306873
449,1791353910.3482807,0.4908832031250001,-1.0753637695312501,-0.28749814453124994,1.2165643176748326,-0.4289890591606316,-2.9256737119503784,-0.23713017908442965,2.9664505732456834
450,1791353910.372863,0.5052533203125001,-1.06578369140625,-0.23480771484374993,1.202626482954904,-0.41719389996611667,-2.954806676709226,-0.24539577347983635,2.9941864224754156
451,1791353910.392863,0.5196234375000001,-0.98914306640625,-0.2635479492187499,1.1479852107742001,-0.4074996272866854,-2.9780360068533795,-0.2518593897473546,3.016320201264766
452,1791353910.417591,0.4238226562500001,-1.0322534179687501,-0.3928790039062499,1.1830159232103936,-0.3955617746611061,-3.00619761234441,-0.25986969789422504,3.0432261601665282
453,1791353910.437591,0.2561712890625001,-1.1903247070312502,-0.29707822265624995,1.2532964963988253,-0.386334780082625,-3.0288919454413294,-0.26641153906742104,3.0650311723715182
454,1791353910.462798,0.3136517578125001,-1.08015380859375,-0.31623837890624995,1.168381952826946,-0.3753726311485555,-3.057496795783178,-0.27457930804748365,3.0926663358415545
455,1791353910.482798,0.4286126953125001,-1.01309326171875,-0.4216192382812499,1.1780617902350636,-0.36686620825583527,-3.079928176403425,-0.28119455158662443,3.1144210958709073
456,1791353910.4923475,0.4334027343750001,-1.1088940429687502,-0.4024590820312499,1.2567645926762672,-0.3627965065258512,-3.0905517046378783,-0.28446954936075625,3.1247486408831304
457,1791353910.5123475,0.3567621093750001,-1.01309326171875,-0.2539678710937499,1.1036923661843125,-0.35436630122587864,-3.1126468862907894,-0.29128440116481963,3.146266472589727
458,1791353910.5383613,0.3950824218750001,-0.9220825195312501,-0.20127744140624992,1.023151455708665,-0.3435790749533802,-3.1408506952912996,-0.29970703260873593,3.1737696791438403
459,1791353910.5583613,0.3950824218750001,-1.02746337890625,-0.23480771484374993,1.1255690907350857,-0.335344404625715,-3.1622061268623827,-0.3058653273676108,3.1946137570863655
460,1791353910.5822816,0.3807123046875001,-1.0753637695312501,-0.18211728515624992,1.1552124485624322,-0.32558113357038804,-3.187688868269087,-0.31287390644258595,3.2195113723601403
461,1791353910.6022816,0.3519720703125001,-1.08494384765625,-0.16295712890624992,1.1521903127125241,-0.31754342141121195,-3.2090397279719878,-0.3183724644013803,3.240390536073249
462,1791353910.6128004,0.32802187500000013,-1.0753637695312501,-0.17253720703124992,1.1374421634127687,-0.31341371698220505,-3.2202888943841255,-0.3210952636471819,3.2513982975979716
463,1791353910.6328003,0.3519720703125001,-1.1088940429687502,-0.25875791015624994,1.1918414294192319,-0.30571948854852554,-3.2417456636987367,-0.3261426687016005,3.272422404601175
464,1791353910.6726816,0.4525628906250001,-1.09931396484375,-0.37850888671874994,1.2476270839463244,-0.2902716880689254,-3.2847188515588606,-0.3366039111603267,3.31465500160861
465,1791353910.6926816,0.4046625000000001,-1.1520043945312501,-0.4120391601562499,1.2886590446769968,-0.28240099006899194,-3.306413804232117,-0.34224899664270936,3.3360540972399693
466,1791353910.7026505,0.33760195312500013,-1.16637451171875,-0.4407793945312499,1.2917782530234447,-0.2785113388504272,-3.317338974401715,-0.3452783527654699,3.346867726373619
467,1791353910.7226505,0.3759222656250001,-1.18553466796875,-0.4311993164062499,1.3163369056657284,-0.27080808796286565,-3.3394973683997122,-0.35175223646577697,3.3688735995749948
468,1791353910.7326336,0.3807123046875001,-1.28612548828125,-0.34497861328124996,1.3849443577879241,-0.26697323349656155,-3.35074934984485,-0.3550801270133103,3.3800706811380565
469,1791353910.7526336,0.3855023437500001,-1.24301513671875,-0.2731280273437499,1.3297735169830103,-0.2592936056965907,-3.3737038605217795,-0.36167429298008086,3.402928034304772
470,1791353910.7774947,0.4190326171875001,-1.16637451171875,-0.24438779296874993,1.2632273070220954,-0.24967920740505734,-3.402450047724616,-0.3696066240461206,3.4315616110468463
471,1791353910.7974946,0.5339935546875001,-1.08494384765625,-0.24917783203124994,1.2346424020706297,-0.2416753573281475,-3.42548362487932,-0.375771088730194,3.454496917610657
472,1791353910.8220706,0.5435736328125002,-1.0370434570312501,-0.2635479492187499,1.200162050557221,-0.2313293377771715,-3.4534529471234494,-0.3831547956955759,3.4823351530225493
473,1791353910.8420706,0.4286126953125001,-0.97477294921875,-0.25875791015624994,1.0958315569375139,-0.22271438114132922,-3.4758179595824505,-0.3890458042193696,3.5046067998427115
474,1791353910.8524442,0.3902923828125001,-1.00351318359375,-0.2827081054687499,1.1132343538651925,-0.21827911139792058,-3.487217348748746,-0.39206429192348946,3.5159699965853473
475,1791353910.8724442,0.46693300781250013,-1.14242431640625,-0.3018682617187499,1.2705448437320956,-0.20972486538998358,-3.509117285844455,-0.39788777780800294,3.537824660537064
476,1791353910.89734,0.45735292968750013,-1.1136840820312501,-0.34018857421874993,1.2510764176869906,-0.19894799393599263,-3.5365016960839832,-0.4052483184942365,3.5651999593765358
477,1791353910.91734,0.4525628906250001,-1.08494384765625,-0.37850888671874994,1.2349839269654774,-0.1902242153199933,-3.558498874849729,-0.41135245389421987,3.5872427204923967
478,1791353910.9427192,0.5148333984375001,-1.17116455078125,-0.4024590820312499,1.3411387496686498,-0.17897322682184885,-3.586519752339583,-0.4194229978810961,3.615393616329013
479,1791353910.9627192,0.4621429687500001,-1.16637451171875,-0.4407793945312499,1.3297714464506867,-0.16997140452632006,-3.6087955547124353,-0.4260938254267157,3.6378361125998593
480,1791353910.9727967,0.4046625000000001,-1.13763427734375,-0.44556943359374995,1.2870491863354492,-0.16546084473102984,-3.6200775230793134,-0.42962080719603757,3.6492345227758296
481,1791353910.9927967,0.44777285156250013,-1.1520043945312501,-0.48388974609374996,1.3273145587954647,-0.15657320039590775,-3.6425438534306873,-0.436964761215794,3.6719993319433315
482,1791353911.017608,0.48609316406250014,-1.1567944335937501,-0.49825986328124994,1.3500825223292197,-0.1454635781916944,-3.6705304639349468,-0.44653644131534026,3.700452449725222
483,1791353911.037608,0.4525628906250001,-1.1903247070312502,-0.47430966796874996,1.3589171200880916,-0.13644359438589396,-3.693226778665682,-0.45455354055794067,3.7235950121268546
484,1791353911.0621731,0.4381927734375001,-1.2334350585937501,-0.4407793945312499,1.381181170268532,-0.12538540461553077,-3.7213877640084987,-0.46460952758414326,3.752373968959482
485,1791353911.082173,0.48609316406250014,-1.2286450195312502,-0.34976865234374993,1.3668186632942945,-0.11634632634321268,-3.7445692587506465,-0.4727544401683454,3.7760868848495543
486,1791353911.0926383,0.5483636718750001,-1.17595458984375,-0.2539678710937499,1.3221465855020413,-0.11151409314562456,-3.7567670073925417,-0.4768509098123364,3.78855124434025
487,1791353911.1126382,0.5339935546875001,-1.05620361328125,-0.22043759765624993,1.2038720545043893,-0.10204089359436713,-3.77992973303342,-0.4842169800121836,3.812184047808783
488,1791353911.1377482,0.5004632812500001,-1.04662353515625,-0.23480771484374993,1.183646477278003,-0.08998317834494654,-3.8086085948025272,-0.4929352164078224,3.8414296203840266
489,1791353911.1577482,0.46693300781250013,-1.08015380859375,-0.24438779296874993,1.2018669133296536,-0.08036876741145249,-3.831214929108665,-0.49955643192332494,3.864482319855573
490,1791353911.1828394,0.4525628906250001,-1.1136840820312501,-0.23480771484374993,1.2248428746132247,-0.06838585012197933,-3.859450224010788,-0.5075189041290039,3.8932772947944683
491,1791353911.2028394,0.5244134765625001,-1.13763427734375,-0.27791806640624994,1.2831444560230905,-0.05880161891686374,-3.8819574155084813,-0.5136827939671599,3.9162381208280017
492,1791353911.2275643,0.4956732421875001,-1.14242431640625,-0.3306084960937499,1.2884592579613554,-0.046838775245055995,-3.9098363151505966,-0.5212883168755258,3.9447123331680056
493,1791353911.2475643,0.48609316406250014,-1.11847412109375,-0.3306084960937499,1.2635556582098395,-0.03714091066836574,-3.9323961773643177,-0.5275094224532552,3.9677935094674144
494,1791353911.257172,0.5244134765625001,-1.12326416015625,-0.3306084960937499,1.2829785055024363,-0.03245281132690019,-3.9432234423790167,-0.5305261587512713,3.9788845555770807
495,1791353911.277172,0.5148333984375001,-1.21427490234375,-0.3210284179687499,1.3574152687192478,-0.022598840606309324,-3.9658874616610897,-0.5368414128311427,4.002121033737977
496,1791353911.3018422,0.4429828125000001,-1.23822509765625,-0.34018857421874993,1.3583679290476591,-0.01049492849308175,-3.99418802237436,-0.5446862613548786,4.03116995733393
497,1791353911.3218422,0.4190326171875001,-1.1567944335937501,-0.41682919921874995,1.2990412915615253,-0.0008611982317432675,-4.01728223669435,-0.5512276088658618,4.054924066822748
498,1791353911.3478622,0.4334027343750001,-1.13763427734375,-0.45993955078124993,1.3013816002710432,0.011455823817716065,-4.047298633320854,-0.5601723963301997,4.085896545042534
499,1791353911.3678622,0.45735292968750013,-1.1951147460937501,-0.4407793945312499,1.3534243359965874,0.020839180190127087,-4.070408717181748,-0.5673674761265213,4.109813529748806
500,1791353911.3773637,0.3711322265625001,-1.21427490234375,-0.3306084960937499,1.312061220273099,0.02521868128530078,-4.081457807134407,-0.5708226361459106,4.121258581457943
501,1791353911.3973637,0.4094525390625001,-1.11847412109375,-0.2827081054687499,1.2241566951166403,0.034225349863004635,-4.104725931794132,-0.5779245739463298,4.145351995052712
502,1791353911.4228997,0.48609316406250014,-1.08494384765625,-0.2539678710937499,1.2156847437815992,0.04571529273651299,-4.134198441934985,-0.5866600348222204,4.175865975069752
503,1791353911.4428997,0.48609316406250014,-1.06578369140625,-0.31623837890624995,1.2133376089568304,0.05482270856792706,-4.157045105464534,-0.5933307546598909,4.1995322266493735
504,1791353911.4678562,0.4094525390625001,-1.10410400390625,-0.30665830078124995,1.2168551050246632,0.06615872023786319,-4.1853388910313285,-0.6015719561810575,4.228868338871094
505,1791353911.4878561,0.4286126953125001,-1.13284423828125,-0.34497861328124996,1.2593868168325115,0.07513774451131966,-4.20796762876781,-0.608163198211894,4.252352257406171
506,1791353911.49691,0.5052533203125001,-1.1567944335937501,-0.3641387695312499,1.313792724426507,0.07922694857339008,-4.218229779623455,-0.61118098561503,4.263013204326225
507,1791353911.51691,0.45735292968750013,-1.1520043945312501,-0.3545586914062499,1.289184894793902,0.08834887964334481,-4.240961524100077,-0.6179253269464561,4.286652759801447
508,1791353911.5420988,0.3855023437500001,-1.16158447265625,-0.3114483398437499,1.2628897863805337,0.09970637146630461,-4.269667033208458,-0.6264034680467232,4.316523976506913
509,1791353911.5620987,0.44777285156250013,-1.13763427734375,-0.24438779296874993,1.246770896731226,0.10862151771408173,-4.29248936642125,-0.63295916621779,4.340265072671154
510,1791353911.5877242,0.5483636718750001,-1.13763427734375,-0.27791806640624994,1.2931175187331807,0.12024534028439533,-4.321717652143516,-0.6411026931431053,4.370665289159571
511,1791353911.6077242,0.4908832031250001,-1.12326416015625,-0.3018682617187499,1.2624631242277478,0.1295154751304055,-4.344499096952415,-0.6473748030701109,4.394376041870867
512,1791353911.617113,0.3328119140625001,-1.17116455078125,-0.2731280273437499,1.2477936906673637,0.13379455445080582,-4.3552052347679036,-0.6502824555268975,4.405517096972446
513,1791353911.637113,0.3663421875000001,-1.17116455078125,-0.26833798828124994,1.2561203283538407,0.1425911673020985,-4.378103712760518,-0.6563593727674198,4.4293263581384075
514,1791353911.663018,0.4956732421875001,-1.16637451171875,-0.2922881835937499,1.3005974961056763,0.1539506591058801,-4.407855526701417,-0.6641390318480249,4.460265889309223
515,1791353911.683018,0.4956732421875001,-1.1472143554687502,-0.3545586914062499,1.299039878551063,0.16289229882406608,-4.430850416504639,-0.6702146716289362,4.484211973192415
516,1791353911.7081234,0.3663421875000001,-1.12326416015625,-0.34497861328124996,1.2308286702280158,0.17405598132469227,-4.459660698928068,-0.6780144469250828,4.514263242705017
517,1791353911.7281234,0.3663421875000001,-1.18074462890625,-0.32581845703124995,1.2784843151073335,0.1827144101601653,-4.482625374045247,-0.6843022005255619,4.538235813767129
518,1791353911.738172,0.4813031250000001,-1.17595458984375,-0.3641387695312499,1.3217862682692239,0.18705096559828668,-4.494208950550368,-0.6875074774203076,4.550337205795536
519,1791353911.758172,0.5052533203125001,-1.08015380859375,-0.34976865234374993,1.2427193078361471,0.1958672604313605,-4.517189876331111,-0.6940009341331377,4.574385823158649
520,1791353911.7824824,0.4142425781250001,-1.04183349609375,-0.27791806640624994,1.1550984368224042,0.2066526708939273,-4.544802528339964,-0.7018543606825676,4.60331781344739
521,1791353911.8024824,0.4190326171875001,-1.12326416015625,-0.26833798828124994,1.228542218938104,0.21544471166424295,-4.567359421837007,-0.7081655662613732,4.626952234599538
522,1791353911.8274276,0.48609316406250014,-1.1136840820312501,-0.2731280273437499,1.2454628529341087,0.22645920407475784,-4.5954587596419465,-0.7158695713764882,4.656392834147784
523,1791353911.8474276,0.48609316406250014,-1.05620361328125,-0.2731280273437499,1.1943414738580207,0.23542376590329453,-4.617863049921286,-0.7219391692193154,4.679880304178034
524,1791353911.8730712,0.4094525390625001,-1.10410400390625,-0.34976865234374993,1.2284279154060704,0.246916200232022,-4.64643529665284,-0.7297521395162627,4.7098690810941815
525,1791353911.8930712,0.4094525390625001,-1.1567944335937501,-0.3928790039062499,1.288479202412123,0.25576327228143336,-4.668768130386793,-0.7360455868889143,4.733346998978856
526,1791353911.9022768,0.5148333984375001,-1.16637451171875,-0.30665830078124995,1.3113055491272436,0.25986272283948286,-4.679109531487225,-0.7389907930699062,4.744228286520184
527,1791353911.9222767,0.5052533203125001,-1.13763427734375,-0.33539853515624996,1.2891799114395168,0.2689633244605029,-4.70166305132814,-0.7453928023449684,4.767975162258793
528,1791353911.947932,0.3519720703125001,-1.1472143554687502,-0.34497861328124996,1.2485973567548114,0.28053559156643315,-4.730650662238952,-0.7536823775895275,4.79851987935513
529,1791353911.967932,0.3950824218750001,-1.22385498046875,-0.28749814453124994,1.3177884186779347,0.28932431823794813,-4.753415360164687,-0.760124023559677,4.822494653036537
530,1791353912.008003,0.5818939453125002,-1.19990478515625,-0.3114483398437499,1.3694422680141145,0.30722782406834315,-4.799468274075224,-0.7728943020556547,4.871000949690574
531,1791353912.028003,0.5052533203125001,-1.17595458984375,-0.3832989257812499,1.3360644376550288,0.3164540421119981,-4.822569844744411,-0.7793541672129796,4.895377001433024
532,1791353912.0226383,0.3663421875000001,-1.17116455078125,-0.3737188476562499,1.2827699639617571,0.3164540421119981,-4.822569844744411,-0.7793541672129796,4.895377001433024
533,1791353912.0426383,0.3759222656250001,-1.1567944335937501,-0.32581845703124995,1.259225388216241,0.3253446634790662,-4.845745238749642,-0.7860359214861304,4.919852491567779
534,1791353912.0682044,0.4621429687500001,-1.09452392578125,-0.36892880859374994,1.24405273742035,0.3366118145189395,-4.875243510005844,-0.7946281990377495,4.9510343131747545
535,1791353912.0882044,0.5196234375000001,-1.04662353515625,-0.40724912109374994,1.2374494687759636,0.34557646881638854,-4.898069878473841,-0.8015058342032054,4.975230972776453
536,1791353912.1133778,0.44777285156250013,-1.10410400390625,-0.3545586914062499,1.2430840855267746,0.3569939488494293,-4.926551750579558,-0.8103023192467562,5.005491652098752
537,1791353912.1333778,0.3759222656250001,-1.1136840820312501,-0.3306084960937499,1.2210289767453484,0.3659398821690761,-4.949112655751182,-0.8172704644895374,5.029469066293716
538,1791353912.1426337,0.4525628906250001,-1.1136840820312501,-0.31623837890624995,1.2430253886521774,0.3700341207777682,-4.959533783806961,-0.8204605979155203,5.040541260221392
539,1791353912.1626337,0.5435736328125002,-1.1088940429687502,-0.2922881835937499,1.269074731877163,0.37904807852821937,-4.9820077935023805,-0.8272326008057769,5.064424239357351
540,1791353912.1874638,0.5339935546875001,-1.05620361328125,-0.2731280273437499,1.2146250896786417,0.3905670391057804,-5.009756144828319,-0.8354319132959538,5.093932245764003
541,1791353912.2074637,0.4717230468750001,-1.0705737304687502,-0.3210284179687499,1.2131405485212041,0.39996209389794707,-5.031944276685607,-0.8419368241836215,5.117547312545402
542,1791353912.232408,0.4525628906250001,-1.17116455078125,-0.33539853515624996,1.2995890705767192,0.41165128613792484,-5.059660564799428,-0.8500609599068122,5.147059883848561
543,1791353912.252408,0.45735292968750013,-1.20948486328125,-0.31623837890624995,1.3311769413167645,0.4209825491005301,-5.082120674364652,-0.8565751560291337,5.170966819984261
544,1791353912.262452,0.4813031250000001,-1.1520043945312501,-0.34018857421874993,1.2940228317858475,0.42567281310714833,-5.093486981316242,-0.8598503141825964,5.183063720952744
545,1791353912.2824519,0.4429828125000001,-1.1136840820312501,-0.35934873046874993,1.2512623693013791,0.43499786351006103,-5.116123835883161,-0.8664430694043709,5.207174842260342
546,1791353912.307594,0.4286126953125001,-1.16158447265625,-0.3832989257812499,1.2961116449612682,0.4466056288457404,-5.144602708928633,-0.8748881041499302,5.237539767411374
547,1791353912.327594,0.46693300781250013,-1.17116455078125,-0.29707822265624995,1.2953410011144062,0.4557975782481016,-5.167357921192012,-0.8816188094057389,5.261804922566084
548,1791353912.3531585,0.5196234375000001,-1.16158447265625,-0.25875791015624994,1.2985540650985021,0.46767609050779174,-5.196553873471825,-0.8899973719686146,5.2929187040458805
549,1791353912.3731585,0.47651308593750014,-1.05620361328125,-0.3210284179687499,1.2023685121133063,0.4770693355793544,-5.219295445456864,-0.8964386755722084,5.317164883373333
550,1791353912.3828654,0.4429828125000001,-1.09452392578125,-0.34497861328124996,1.2301327732807803,0.4816139028888864,-5.230243187199286,-0.8995808831669821,5.328849924144975
551,1791353912.4028654,0.5100433593750001,-1.1567944335937501,-0.34976865234374993,1.311737664397262,0.49100241650004883,-5.252793122274163,-0.9061260030801949,5.352941555059024
552,1791353912.4425395,0.5339935546875001,-1.08973388671875,-0.42640927734374995,1.2862713291198575,0.509939431757011,-5.2975003253492154,-0.9194716057445751,5.400831042988312
553,1791353912.4625394,0.4429828125000001,-1.1136840820312501,-0.46951962890624993,1.287235288775312,0.5195192417902301,-5.31996209811869,-0.9265339728761796,5.4249757760660495
554,1791353912.4731107,0.3902923828125001,-1.18553466796875,-0.3641387695312499,1.3001606195055155,0.5244838979662116,-5.331876602395956,-0.9303679006892429,5.43779145361756
555,1791353912.4931107,0.44777285156250013,-1.25259521484375,-0.2635479492187499,1.3560799461622024,0.5337248322287282,-5.354693925668897,-0.9374749035663726,5.462276853927285
556,1791353912.5176878,0.4717230468750001,-1.08973388671875,-0.3210284179687499,1.23008203871112,0.5450721540057826,-5.382844873904353,-0.9459759187661387,5.4924487278878
557,1791353912.5376878,0.4238226562500001,-1.09931396484375,-0.4024590820312499,1.245026164367933,0.5542644024365107,-5.405600425371312,-0.9529412927172651,5.516867054220943
558,1791353912.5483172,0.4142425781250001,-1.1567944335937501,-0.3832989257812499,1.287124058368187,0.5590851168594946,-5.417678842694803,-0.956714315636634,5.529839282675471
559,1791353912.5683172,0.4525628906250001,-1.17116455078125,-0.2827081054687499,1.2869978429955633,0.5680952554686409,-5.440488199240799,-0.9637476484149976,5.554318463609177
560,1791353912.5922747,0.48609316406250014,-1.09931396484375,-0.22522763671874993,1.2229085189787057,0.5789559158526729,-5.4677921794966196,-0.9718216129521808,5.58358115532193
561,1791353912.6122746,0.4286126953125001,-1.04662353515625,-0.23959775390624993,1.156086826584808,0.5880345838067285,-5.490385700127981,-0.9782480507592203,5.60777041762025
562,1791353912.6378388,0.3998724609375001,-1.02746337890625,-0.28749814453124994,1.1394007912576558,0.5994868349608317,-5.518909768894242,-0.9862408508376732,5.638299434966954
563,1791353912.6578388,0.4429828125000001,-1.09931396484375,-0.32581845703124995,1.2291796583140806,0.6083667718289137,-5.541068208817122,-0.9924759728078402,5.662027514983496
564,1791353912.6673338,0.4956732421875001,-1.1951147460937501,-0.3306084960937499,1.3354000138687914,0.6126186121300035,-5.551643921019934,-0.9954595450404916,5.673358044010435
565,1791353912.6873338,0.4525628906250001,-1.2286450195312502,-0.3306084960937499,1.350438347974158,0.6216535046883309,-5.574214423862006,-1.001793188773402,5.69753535453316
566,1791353912.713232,0.4238226562500001,-1.14242431640625,-0.33539853515624996,1.2638240146682018,0.6333002497636602,-5.603662704648103,-1.0100581037780298,5.729076914025722
567,1791353912.733232,0.4717230468750001,-1.11847412109375,-0.3641387695312499,1.267321599273524,0.6422886674172888,-5.626384347893763,-1.0165326244864155,5.753440200363766
568,1791353912.7573867,0.4956732421875001,-1.17116455078125,-0.38808896484374994,1.3296358195614348,0.6532684795787845,-5.653857708529429,-1.0245419357067074,5.782953646081773
569,1791353912.7773867,0.4429828125000001,-1.1903247070312502,-0.3641387695312499,1.3212508179052054,0.6624040231650682,-5.676735612805589,-1.0313072068906763,5.807555498020244
570,1791353912.787634,0.3759222656250001,-1.14242431640625,-0.36892880859374994,1.257998145594549,0.6670119860417743,-5.688491932847511,-1.0348169281058277,5.820196863877457
571,1791353912.8076339,0.4094525390625001,-1.11847412109375,-0.34497861328124996,1.2400185421688739,0.675834580345282,-5.711386815277458,-1.041710356918552,5.844814128903249
572,1791353912.8330011,0.5339935546875001,-1.16637451171875,-0.27791806640624994,1.3125612632063821,0.6871412519356223,-5.740417033492096,-1.05032731719291,5.876030828013031
573,1791353912.853001,0.5292035156250001,-1.09931396484375,-0.2539678710937499,1.2462131574486914,0.6963132630268221,-5.763270294750092,-1.056899840164684,5.900607928235532
574,1791353912.8775024,0.4908832031250001,-1.0322534179687501,-0.32581845703124995,1.1885584146185881,0.707738655293425,-5.790984528073998,-1.064809270925725,5.930448093697334
575,1791353912.8975024,0.48609316406250014,-1.1472143554687502,-0.37850888671874994,1.3021736899764715,0.7171315057860695,-5.813482953696542,-1.0713536356442857,5.954717479622311
576,1791353912.90735,0.4908832031250001,-1.16158447265625,-0.3641387695312499,1.3125707027440814,0.7217842183044392,-5.824604327106938,-1.0746411163752274,5.966727876663255
577,1791353912.92735,0.5196234375000001,-1.1520043945312501,-0.33539853515624996,1.3075223972091594,0.7313319549809956,-5.8472735353089025,-1.0813655996994302,5.991227402236833
578,1791353912.952937,0.4956732421875001,-1.12326416015625,-0.34018857421874993,1.2740261388767422,0.7436629315469816,-5.8762912523475235,-1.0899745451463376,6.0226138799727185
579,1791353912.9729369,0.47651308593750014,-1.1567944335937501,-0.35934873046874993,1.3016795276690292,0.7533139514293244,-5.898990804543066,-1.0967436620473925,6.047182904604659
580,1791353912.9980965,0.5004632812500001,-1.16637451171875,-0.33539853515624996,1.3127776562889952,0.7654771566009109,-5.927646820101041,-1.1052927369407837,6.078208957864631
581,1791353913.0180964,0.5196234375000001,-1.1472143554687502,-0.34497861328124996,1.3058022583126245,0.7752257907650074,-5.950479664133938,-1.1120897905700693,6.102944122489485
582,1791353913.027657,0.4381927734375001,-1.1567944335937501,-0.3641387695312499,1.2894895547316645,0.7798737032370221,-5.961409300609123,-1.1153600733687832,6.114787971438977
583,1791353913.047657,0.3663421875000001,-1.17595458984375,-0.3114483398437499,1.270462854281185,0.7893451072153949,-5.984342759025553,-1.1221884481144149,6.139603478146443
584,1791353913.0730045,0.4190326171875001,-1.12326416015625,-0.29707822265624995,1.2351381210759906,0.8010413977878805,-6.013419206218702,-1.1307012872247573,6.171009906945673
585,1791353913.0930045,0.4525628906250001,-1.04183349609375,-0.3545586914062499,1.1899336406730816,0.8101932310981583,-6.036167774422301,-1.1373881130446548,6.195594095192715
586,1791353913.1180446,0.4429828125000001,-1.13284423828125,-0.36892880859374994,1.2710933506976738,0.8216145245015327,-6.064461037712942,-1.1458630000560937,6.226213947473036
587,1791353913.1380446,0.3950824218750001,-1.14242431640625,-0.30665830078124995,1.2471017409293224,0.8306256404034682,-6.087082489284337,-1.1526300570913834,6.250685421164479
588,1791353913.1471226,0.4525628906250001,-1.12805419921875,-0.2731280273437499,1.245760155754951,0.8346793982406309,-6.097356077461151,-1.1556356477607321,6.261783658317744
589,1791353913.1671226,0.46693300781250013,-1.12326416015625,-0.32581845703124995,1.2593277866459465,0.8436499187548422,-6.119971907886678,-1.1621624922018687,6.286208952700985
590,1791353913.1923985,0.4908832031250001,-1.16637451171875,-0.3545586914062499,1.3141946911889142,0.8551020377688915,-6.148606941046436,-1.170463604107519,6.317163276267386
591,1791353913.2123985,0.4621429687500001,-1.1951147460937501,-0.3114483398437499,1.3186642667059802,0.8642339912392101,-6.17140839556005,-1.1770457388473479,6.341815090945259
592,1791353913.2380457,0.4429828125000001,-1.13763427734375,-0.2827081054687499,1.2531438042202405,0.8759289137582267,-6.2007492356662794,-1.1853631838652308,6.373509898261455
593,1791353913.2580457,0.4238226562500001,-1.13284423828125,-0.34497861328124996,1.2577646662946473,0.8849809913742015,-6.22360325324627,-1.191817854140287,6.398191823191828
594,1791353913.2829826,0.4238226562500001,-1.17595458984375,-0.40724912109374994,1.3146659986312188,0.8961598875357067,-6.252142469205209,-1.2000655098808148,6.429039214942845
595,1791353913.3029826,0.47651308593750014,-1.21906494140625,-0.36892880859374994,1.35988695053887,0.9051312626813454,-6.275190738476034,-1.2068523643854112,6.453973507565799
596,1791353913.3130386,0.48609316406250014,-1.11847412109375,-0.3210284179687499,1.261082934960365,0.9096914588201249,-6.286804110897395,-1.2102733051755816,6.466545132624321
597,1791353913.3330386,0.4334027343750001,-1.09931396484375,-0.30665830078124995,1.2208064698805687,0.9187798416934392,-6.309763523864294,-1.2169980313602886,6.491406344770399
598,1791353913.3575969,0.4286126953125001,-1.1088940429687502,-0.3545586914062499,1.240591273049403,0.9298533732502006,-6.337794167310699,-1.2252347007037736,6.521768339549555
599,1791353913.3775969,0.4621429687500001,-1.1520043945312501,-0.35934873046874993,1.2922158328521895,0.9388549307227247,-6.360589150126216,-1.2320072263448265,6.546478803403521
600,1791353913.4032414,0.46693300781250013,-1.16637451171875,-0.24438779296874993,1.2799145786825454,0.9504526039164048,-6.389892297829135,-1.2405497525030247,6.578225248392069
601,1791353913.4232414,0.45735292968750013,-1.06578369140625,-0.18690732421874992,1.1747344070077648,0.9595272275147734,-6.412665837311377,-1.2468596076707725,6.60285048464703
602,1791353913.4331424,0.4908832031250001,-1.02267333984375,-0.28749814453124994,1.170248803565439,0.964049922509505,-6.423799669617113,-1.2498670457757246,6.614889423155889
603,1791353913.4531424,0.5387835937500001,-1.11847412109375,-0.4024590820312499,1.3050844544166627,0.9733598366980313,-6.446128050196919,-1.2560657173830847,6.639103651669963
604,1791353913.47831,0.45735292968750013,-1.2334350585937501,-0.3737188476562499,1.3675523840626445,0.9851982707014386,-6.474450532223119,-1.2641610889344612,6.6698747053878975
605,1791353913.49831,0.4046625000000001,-1.19990478515625,-0.34497861328124996,1.312453228107033,0.9944877784702029,-6.497231474821067,-1.27070730025065,6.694603783783058
606,1791353913.5379677,0.44777285156250013,-1.12326416015625,-0.4024590820312499,1.2744395681229357,1.0126801878914942,-6.542537445179887,-1.2839637260135652,6.743803098715706
607,1791353913.5579677,0.46693300781250013,-1.20469482421875,-0.39766904296874994,1.3518345760557966,1.021850768771728,-6.565450648933747,-1.2908465368851072,6.768722626833826
608,1791353913.552516,0.3998724609375001,-1.23822509765625,-0.27791806640624994,1.330540427464356,1.021850768771728,-6.565450648933747,-1.2908465368851072,6.768722626833826
609,1791353913.572516,0.3759222656250001,-1.13763427734375,-0.25875791015624994,1.2257589301524583,1.0307453803564348,-6.588683944239675,-1.297485753679902,6.7938694009533425
610,1791353913.5980947,0.4525628906250001,-1.0705737304687502,-0.33539853515624996,1.2097245387796307,1.0420040595295779,-6.6181770364021375,-1.305843061668381,6.825779504711836
611,1791353913.6180947,0.4429828125000001,-1.12326416015625,-0.35934873046874993,1.2597966723846505,1.0508300512399624,-6.641069308483222,-1.3124395644525317,6.850587052728193
612,1791353913.643178,0.4381927734375001,-1.19990478515625,-0.30665830078124995,1.3137060986277558,1.0618966335132989,-6.669843874939093,-1.320724633838621,6.88176978216778
613,1791353913.663178,0.4908832031250001,-1.16637451171875,-0.3114483398437499,1.303225187405784,1.07079052296046,-6.6928949946584515,-1.3272669243319215,6.906741144853455
614,1791353913.6725945,0.5100433593750001,-1.1088940429687502,-0.34497861328124996,1.2683849851664004,1.0750568002377319,-6.7037270626134475,-1.3303487792403454,6.918491998129332
615,1791353913.6925945,0.4525628906250001,-1.14242431640625,-0.32581845703124995,1.2712608527085885,1.0842027235114127,-6.726659435569858,-1.336918722334703,6.943399338792176
616,1791353913.7173944,0.4334027343750001,-1.16637451171875,-0.3210284179687499,1.285039562384909,1.095490351682509,-6.755124343252451,-1.3450465263876563,6.97430671547924
617,1791353913.7373943,0.4717230468750001,-1.16158447265625,-0.33539853515624996,1.297803258377051,1.1045855737194241,-6.778128633558358,-1.3516026787430921,6.999283310733912
618,1791353913.7629936,0.4621429687500001,-1.1903247070312502,-0.3641387695312499,1.327797452629665,1.1162738610502625,-6.807672115257642,-1.3600786397120124,7.031378304992656
619,1791353913.7829936,0.44777285156250013,-1.1567944335937501,-0.36892880859374994,1.2941338238375124,1.125400709435159,-6.8308120717013505,-1.3668069693202256,7.056534674121598
620,1791353913.792537,0.4429828125000001,-1.1567944335937501,-0.32581845703124995,1.280845346131265,1.1297400838796976,-6.841853504363962,-1.3700332206191908,7.068540376761112
621,1791353913.812537,0.4286126953125001,-1.1567944335937501,-0.28749814453124994,1.2667033540989157,1.1387773362412557,-6.864992325878198,-1.3767002147050167,7.0936758409918985
622,1791353913.8533752,0.44777285156250013,-1.09452392578125,-0.3114483398437499,1.2228995130816922,1.1571468880940081,-6.912048178674524,-1.39010612322242,7.14477389276693
623,1791353913.8733752,0.44777285156250013,-1.1088940429687502,-0.32581845703124995,1.2394773866715834,1.166137010705471,-6.934941529190416,-1.3966425817724226,7.169651319432971
624,1791353913.883059,0.4621429687500001,-1.1472143554687502,-0.31623837890624995,1.2765906208538023,1.170497882150466,-6.946002191712894,-1.3997990707317134,7.181674538561352
625,1791353913.903059,0.5052533203125001,-1.1567944335937501,-0.31623837890624995,1.301330469778351,1.1796044803514703,-6.968875182813036,-1.4062889979511648,7.206548188241801
626,1791353913.9278345,0.46693300781250013,-1.14242431640625,-0.34976865234374993,1.2827696062284446,1.1909998442625989,-6.997231849757934,-1.4143601810613518,7.23741313661672
627,1791353913.9478345,0.3759222656250001,-1.1520043945312501,-0.34976865234374993,1.2612572239532698,1.2000831795535107,-7.020130726722537,-1.4209476165887631,7.262336207255242
628,1791353913.9577465,0.4142425781250001,-1.18074462890625,-0.3306084960937499,1.294239842499054,1.2044970438098237,-7.031511298539105,-1.4242284393340887,7.274708991941719
629,1791353913.9777465,0.4621429687500001,-1.17116455078125,-0.28749814453124994,1.2914556561030743,1.2133817898391328,-7.05455784971954,-1.430782500616336,7.299741117808407
630,1791353914.002702,0.46693300781250013,-1.11847412109375,-0.3210284179687499,1.253822171795021,1.224543959832809,-7.083286690481018,-1.4388727619331418,7.330948988646808
631,1791353914.022702,0.4142425781250001,-1.1136840820312501,-0.3641387695312499,1.2427735882199813,1.2334695216977807,-7.106205344343032,-1.4454116916379347,7.355869521358469
632,1791353914.0477853,0.4094525390625001,-1.17116455078125,-0.34018857421874993,1.286470385504603,1.2445341148764257,-7.134935944867922,-1.4537074757391442,7.387113206488678
633,1791353914.0677853,0.4621429687500001,-1.14242431640625,-0.31623837890624995,1.2722877640591392,1.2533404356116138,-7.157878231503002,-1.4603145084483835,7.4120578443606675
634,1791353914.0784006,0.48609316406250014,-1.09452392578125,-0.31623837890624995,1.238658912109845,1.2580683707703095,-7.170009656263344,-1.4637988365622254,7.42525969447286
635,1791353914.0984006,0.44777285156250013,-1.0705737304687502,-0.34497861328124996,1.210635734887932,1.267040735105357,-7.192685208033174,-1.4703706493342141,7.449973326979034
636,1791353914.1225924,0.3902923828125001,-1.10410400390625,-0.32581845703124995,1.2155375199743923,1.2777862917876701,-7.219944899028146,-1.478344577664623,7.479695504684226
637,1791353914.1425924,0.4381927734375001,-1.1088940429687502,-0.3018682617187499,1.2299525814670778,1.2865800837237549,-7.242420190553503,-1.4848895070215995,7.504187855886506
638,1791353914.1680624,0.5052533203125001,-1.1136840820312501,-0.36892880859374994,1.2773729361729087,1.297901378801304,-7.2709948554406925,-1.4932556323268988,7.535365058204901
639,1791353914.1880624,0.4381927734375001,-1.17116455078125,-0.3928790039062499,1.3107224051681814,1.3068729538885022,-7.293494307655345,-1.4999823198652926,7.559955230906771
640,1791353914.1982598,0.4142425781250001,-1.1567944335937501,-0.40724912109374994,1.2944582348445097,1.311413091322915,-7.3050257791549775,-1.503509540747146,7.572565408719136
641,1791353914.2182598,0.5100433593750001,-1.19990478515625,-0.32581845703124995,1.3439022988393265,1.3203683359442004,-7.327784823711335,-1.5104893351986328,7.597458851282251
642,1791353914.2430103,0.5004632812500001,-1.16158447265625,-0.24438779296874993,1.2882031580258417,1.331664110825766,-7.356108570100487,-1.518889818740388,7.628413261002605
643,1791353914.2630103,0.4238226562500001,-1.04662353515625,-0.25875791015624994,1.1584481535063198,1.34080909738678,-7.378875184577601,-1.5254144503419356,7.653264484553128
644,1791353914.2881002,0.4046625000000001,-1.10410400390625,-0.2539678710937499,1.2030366037224114,1.3521196270346705,-7.4071989259458135,-1.5333366499318506,7.684135910847063
645,1791353914.3081002,0.4381927734375001,-1.18074462890625,-0.23959775390624993,1.28202100960192,1.3610474790962799,-7.429817249583405,-1.53944476874307,7.7087304271567225
646,1791353914.3170443,0.5052533203125001,-1.1520043945312501,-0.31623837890624995,1.2970743058897478,1.3650740166641155,-7.439979782295804,-1.5421394543750282,7.719774629397023
647,1791353914.3370442,0.5292035156250001,-1.1136840820312501,-0.3641387695312499,1.2856693350140154,1.3742789661750947,-7.462694302766127,-1.5482818253589785,7.744522292830347
648,1791353914.3630168,0.5244134765625001,-1.12805419921875,-0.37850888671874994,1.3003017911625327,1.3864921160972716,-7.49213420900052,-1.5565086372651276,7.776705892057169
649,1791353914.3830168,0.4190326171875001,-1.17116455078125,-0.34497861328124996,1.2908233740117612,1.395901220293878,-7.514852488459056,-1.5629786053747823,7.801567166984881
650,1791353914.4075985,0.33760195312500013,-1.13763427734375,-0.3306084960937499,1.2318639557315663,1.4071260691249543,-7.542843334843445,-1.5709834529139752,7.832143918349097
651,1791353914.4275985,0.4046625000000001,-1.12326416015625,-0.37850888671874994,1.2524947463853267,1.4160022506820023,-7.565592351872756,-1.5775830526760022,7.85697259106474
652,1791353914.4375658,0.4238226562500001,-1.1567944335937501,-0.36892880859374994,1.2860433396097872,1.4203816396785505,-7.576933560811521,-1.580937467754075,7.869356356414199
653,1791353914.4575658,0.4094525390625001,-1.17116455078125,-0.33539853515624996,1.2852120308090544,1.4291009100213115,-7.5997687326962176,-1.5877151507429041,7.8942798025779
654,1791353914.4821556,0.4334027343750001,-1.13763427734375,-0.3210284179687499,1.2590110898219609,1.4397675492661342,-7.6278909699078925,-1.5960088847390939,7.924953981247355
655,1791353914.5021555,0.47651308593750014,-1.0753637695312501,-0.34018857421874993,1.224418320640101,1.4485067339663786,-7.65065259119769,-1.6027345288079877,7.949805959857086
656,1791353914.52761,0.5100433593750001,-1.05620361328125,-0.34018857421874993,1.221244679488877,1.4598443670142465,-7.679345878988454,-1.6113093534362606,7.981216482310911
657,1791353914.54761,0.46693300781250013,-1.10410400390625,-0.28749814453124994,1.2327721883363334,1.4688817493815636,-7.701749354527008,-1.6179776404932118,8.005773439134998
658,1791353914.5570846,0.5004632812500001,-1.1567944335937501,-0.2731280273437499,1.289664986263367,1.473208228697701,-7.7123770706327806,-1.6210611163264737,8.017414901799116
659,1791353914.5770845,0.48609316406250014,-1.12326416015625,-0.3114483398437499,1.2629366595483904,1.48245099980704,-7.734866309097068,-1.6274706151271148,8.0420444160385
660,1791353914.6018696,0.44777285156250013,-1.12326416015625,-0.35934873046874993,1.2614889655393111,1.4939229571161392,-7.762731714477493,-1.6354690886427103,8.072581285602464
661,1791353914.6218696,0.4621429687500001,-1.1472143554687502,-0.39766904296874994,1.2991603321739487,1.503156409705862,-7.785250224670199,-1.6420907425524103,8.097287339568945
662,1791353914.6474576,0.5148333984375001,-1.1903247070312502,-0.4024590820312499,1.3579026655195774,1.5150726385561244,-7.814224914181812,-1.650827269864035,8.129131982225896
663,1791353914.6674576,0.4238226562500001,-1.1951147460937501,-0.31623837890624995,1.3068785760638926,1.5243974344716966,-7.837053053025724,-1.6577096223635657,8.154212977733685
664,1791353914.7076316,0.4381927734375001,-1.12326416015625,-0.25875791015624994,1.2331629804096473,1.5429158585862928,-7.883015140365868,-1.6711930228737168,8.204596465982734
665,1791353914.7276316,0.4908832031250001,-1.14242431640625,-0.29707822265624995,1.278418987735689,1.5521457048957807,-7.905862930440816,-1.6777323955281134,8.229617910641366
666,1791353914.722465,0.4621429687500001,-1.18553466796875,-0.34497861328124996,1.3183621718413692,1.5521457048957807,-7.905862930440816,-1.6777323955281134,8.229617910641366
667,1791353914.742465,0.4046625000000001,-1.1951147460937501,-0.3306084960937499,1.304359219282154,1.5613295830278586,-7.928909574359945,-1.6842890936536634,8.254828093680414
668,1791353914.7673662,0.4142425781250001,-1.16637451171875,-0.28749814453124994,1.2707012230369934,1.5725782568047482,-7.957710121736462,-1.6923824145228024,8.286272442561133
669,1791353914.7873662,0.4429828125000001,-1.1136840820312501,-0.2922881835937499,1.233676776554026,1.5815435485937155,-7.980792302529302,-1.6987773927965282,8.31144815314912
