imu_index,t_imu,ax,ay,az,mag,vx,vy,vz,velocity
0,1791286232.3132043,-0.05479804687499999,-0.004167333984375022,-0.014418017578126047,0.05681612310546343,0.0,0.0,0.0,0.0
1,1791286232.3332043,-0.01647773437499999,-0.013747412109375022,-0.009627978515626046,0.02352031122530916,-0.0001767810130489524,-3.218543927624714e-05,-5.445191462329687e-05,0.0001877563316699644
2,1791286232.38742,-0.01647773437499999,0.0006227050781249783,0.004742138671873955,0.01715783701200887,-0.0007181169045141256,-0.0001597134621003742,-0.00019978496328749388,0.0007623085399500799
3,1791286232.40742,-0.01647773437499999,0.005412744140624978,0.019112255859373956,0.025808755361293585,-0.0009372925250083677,-0.00019064826228917358,-0.00020957435378986055,0.000979175902030315
4,1791286232.4024458,0.012262500000000011,-0.052067724609375025,0.009532177734373955,0.054334880736111056,-0.0009372925250083677,-0.00019064826228917358,-0.00020957435378986055,0.000979175902030315
5,1791286232.4224458,0.007472460937500011,-0.06164780273437503,-4.790039062604557e-05,0.0620990462800058,-0.0010714189163429707,-0.00044305682713808366,-0.00016589916797729988,0.0011712217468552964
6,1791286232.492713,-0.02126777343749999,-0.028117529296875023,0.019112255859373956,0.04010226882339239,-0.0015446703037099792,-0.0016699062767126256,6.500052705153965e-05,0.002275701735440012
7,1791286232.512713,0.01705253906250001,-0.01853745117187502,0.023902294921873957,0.034723851845093176,-0.0016654884736450888,-0.0020367045579696604,0.00018538464348181934,0.0026374959295395926
8,1791286232.492713,0.026632617187500013,-0.013747412109375022,-0.014418017578126047,0.03325908701158323,-0.0016654884736450888,-0.0020367045579696604,0.00018538464348181934,0.0026374959295395926
9,1791286232.512713,0.01705253906250001,0.01499282226562498,0.014322216796873954,0.026845850739795292,-0.0016315534084398724,-0.002341011364152373,0.00028431090864887854,0.0028676006389417386
10,1791286232.5071104,-0.064378125,0.01978286132812498,0.023902294921873957,0.0714648464867566,-0.0016315534084398724,-0.002341011364152373,0.00028431090864887854,0.0028676006389417386
11,1791286232.5271103,-0.064378125,0.03415297851562498,0.043062451171873954,0.0846483527360952,-0.0018605095791672983,-0.0024356303947125264,0.0005049683645417544,0.0031062492435425634
12,1791286232.5519135,-0.03563789062499999,0.03415297851562498,0.014322216796873954,0.051396605760155624,-0.0022879138828904204,-0.0024083063850036178,0.0008443202839441637,0.0034274431171722555
13,1791286232.5719135,-0.002107617187499989,0.02936293945312498,-0.004837939453126046,0.029833369264785404,-0.002637473222273279,-0.0022943048363311966,0.0010911370801591623,0.0036620595036017064
14,1791286232.612633,-0.002107617187499989,0.010202783203124979,0.009532177734373955,0.014120950664127014,-0.0032552870699442183,-0.0019761836860175694,0.0015326095167865457,0.0041050076491491085
15,1791286232.632633,-0.01647773437499999,0.01978286132812498,0.028692333984373954,0.038550322462098024,-0.0035410961121082,-0.0017983928949222973,0.001774256513050105,0.004349892510602478
16,1791286232.6275117,0.02184257812500001,-0.03290756835937502,-4.790039062604557e-05,0.039496943792160566,-0.0035410961121082,-0.0017983928949222973,0.001774256513050105,0.004349892510602478
17,1791286232.6475117,0.012262500000000011,-0.03769760742187502,-0.004837939453126046,0.039936000923176077,-0.0036895954074139324,-0.0017925806965323806,0.001978039333076415,0.004554020139084574
18,1791286232.6728215,-0.02126777343749999,-0.004167333984375022,0.014322216796873954,0.02597711980768491,-0.003866425409904598,-0.0018657982037079315,0.0022152452924308046,0.004830917106818593
19,1791286232.6928215,0.002682421875000011,-0.004167333984375022,0.028692333984373954,0.029117212935369795,-0.004013075864203168,-0.0019274786297894353,0.0024390925866198928,0.005076329816535671
20,1791286232.7170541,0.026632617187500013,0.010202783203124979,0.009532177734373955,0.03007084128696078,-0.00411083081824981,-0.0019800334261241654,0.002739101158087873,0.005321854708565402
21,1791286232.737054,0.012262500000000011,-0.023327490234375022,0.004742138671873955,0.026777389455810378,-0.004121066512179676,-0.0020365893853246894,0.0029709784882921792,0.005473353514996161
22,1791286232.7626235,-0.011687695312499989,-0.03769760742187502,0.019112255859373956,0.04385191160127247,-0.004131087355698657,-0.002215077183204606,0.003268705852405545,0.005714620513867673
23,1791286232.7826235,0.01705253906250001,0.005412744140624978,0.028692333984373954,0.03381326540103483,-0.004129702511334817,-0.002382173037774174,0.0035383583638807174,0.005937101239263818
24,1791286232.791986,0.036212695312500015,0.02936293945312498,0.014322216796873954,0.04877158403312837,-0.004091749456281872,-0.002424242352332975,0.0036758585662716066,0.006010931774280944
25,1791286232.811986,0.026632617187500013,-0.013747412109375022,-0.004837939453126046,0.03035940210401097,-0.003928567918318864,-0.0024772068842849847,0.0039397524082038764,0.006090307781577329
26,1791286232.8826203,-0.002107617187499989,0.005412744140624978,0.014322216796873954,0.015455282052346177,-0.003308779831973699,-0.002680358018094491,0.004782195750726851,0.006403260050935717
27,1791286232.9026203,0.002682421875000011,-0.013747412109375022,0.03348237304687396,0.03629402198255935,-0.00315874961940724,-0.002741753573985849,0.00505665830998454,0.006562370385958511
28,1791286232.897745,0.012262500000000011,0.0006227050781249783,-0.014418017578126047,0.01893768461949545,-0.00315874961940724,-0.002741753573985849,0.00505665830998454,0.006562370385958511
29,1791286232.9177449,0.007472460937500011,-0.03290756835937502,-0.047948291015626046,0.05863262179971631,-0.003001695620434236,-0.002851273097361419,0.005185715165414954,0.00663562933340054
30,1791286232.9122746,-0.011687695312499989,-0.047277685546875024,0.009532177734373955,0.049625035866452775,-0.003001695620434236,-0.002851273097361419,0.005185715165414954,0.00663562933340054
31,1791286232.9322746,-0.02605781249999999,0.0006227050781249783,0.06222260742187396,0.0674614721769109,-0.002950216732602284,-0.0031026194581933405,0.005337610320829647,0.006842522211050075
32,1791286232.9567733,-0.03084785156249999,0.03415297851562498,0.047852490234373955,0.06639184218819077,-0.0030011757454307384,-0.0033004232999718527,0.005698015185762548,0.007236520356576043
33,1791286232.9767733,-0.02126777343749999,0.01499282226562498,-0.03357817382812605,0.04248054453640277,-0.003114710264406266,-0.003363963460507604,0.005969516505407042,0.0075268052653934886
34,1791286233.002383,0.002682421875000011,-0.008957373046875022,-0.023998095703126048,0.025755358983962126,-0.0032739803363339604,-0.0034215290334638176,0.006154434053885918,0.0077654920444983995
35,1791286233.022383,-0.00689765624999999,0.02457290039062498,0.028692333984373954,0.03840123858447279,-0.0033860281724699508,-0.0034363183403582705,0.006284225434392415,0.007922433958784848
36,1791286233.0328088,-0.00689765624999999,0.0006227050781249783,0.043062451171873954,0.0436158242417533,-0.0034464632965661925,-0.0034231701033437738,0.0063978432394848125,0.008032969620758319
37,1791286233.0528088,0.002682421875000011,-0.01853745117187502,-0.004837939453126046,0.019345235620618392,-0.0035513297103703045,-0.0034286031047519473,0.006640441488623355,0.008274220514677131
38,1791286233.0776567,0.026632617187500013,-0.052067724609375025,-0.009627978515626046,0.05927092216720603,-0.0036074414013979135,-0.003565920295931058,0.006869676358531021,0.008539430560196203
39,1791286233.0976567,0.036212695312500015,-0.04248764648437502,0.009532177734373955,0.05663410472442273,-0.003551562867362812,-0.0038017000740963518,0.0070263658646782376,0.008742787857344482
40,1791286233.1229815,0.05537285156250001,-0.03290756835937502,-0.004837939453126046,0.06459463138405322,-0.0033174663975145038,-0.004198674026317729,0.0072039277667069485,0.008973907852538066
41,1791286233.1429815,0.012262500000000011,-0.01853745117187502,0.009532177734373955,0.024184052897712277,-0.0030588697651799637,-0.004542321178996457,0.007330162433705726,0.009149898755614871
42,1791286233.1519222,0.007472460937500011,-0.028117529296875023,0.023902294921873957,0.03765305869056763,-0.0029473749013202966,-0.004704184817031808,0.0074005486400325875,0.009251188776325647
43,1791286233.1719222,0.002682421875000011,0.01978286132812498,0.019112255859373956,0.02763757068697384,-0.0027201444735676303,-0.0050244569182407205,0.007598903863560847,0.009507244248886085
44,1791286233.2117312,0.031422656250000014,0.010202783203124979,-0.004837939453126046,0.03338990519674693,-0.0022338703832220546,-0.0054767926791776875,0.007977116276133877,0.009930751181189214
45,1791286233.2317312,0.026632617187500013,-0.023327490234375022,-0.014418017578126047,0.03822757289933452,-0.0019391296389234126,-0.005689644653756201,0.008109743753193363,0.010094564071074417
46,1791286233.2428188,-0.01647773437499999,-0.004167333984375022,0.023902294921873957,0.02932920225990855,-0.0017917956484029803,-0.005812809988703966,0.008180128126550177,0.01019381124885044
47,1791286233.2628188,-0.04521796874999999,0.05331313476562498,0.028692333984373954,0.07556589882932993,-0.0016584414638400376,-0.005927932776915694,0.008366935788928822,0.010387320616630318
48,1791286233.2718055,-0.00689765624999999,0.01978286132812498,0.023902294921873957,0.03178457120370241,-0.0016426348594325993,-0.005922635321295782,0.008473733242859882,0.01046804726305877
49,1791286233.2918055,-0.002107617187499989,-0.008957373046875022,0.009532177734373955,0.01324911296916224,-0.0016262417168657764,-0.005896376012703297,0.008725911527988258,0.010656145841679147
50,1791286233.33299,-0.02605781249999999,-0.03290756835937502,-0.004837939453126046,0.04225308634601985,-0.001684546425595742,-0.005979727067722561,0.00918180891668472,0.011086047422185793
51,1791286233.35299,-0.01647773437499999,-0.023327490234375022,-0.009627978515626046,0.03013943431893298,-0.0017724165281603622,-0.00609848497409815,0.00934829401953121,0.011301485760916568
52,1791286233.3620443,0.01705253906250001,-0.028117529296875023,-4.790039062604557e-05,0.03288444672920826,-0.0018058397745558687,-0.0061791199683062376,0.009405788992279986,0.011397870302884843
53,1791286233.3820443,0.01705253906250001,0.0006227050781249783,-4.790039062604557e-05,0.01706397212081154,-0.001817435479981375,-0.006371757090007621,0.009513594044211506,0.01159356855226268
54,1791286233.40715,-0.002107617187499989,-0.028117529296875023,0.009532177734373955,0.029764070896457783,-0.0018016678059253723,-0.00662907051424242,0.009646479593786268,0.011842514569087137
55,1791286233.42715,-0.01647773437499999,-0.056857763671875027,0.023902294921873957,0.06384074500216996,-0.0018188689466339166,-0.006930769520013657,0.009786612847043782,0.012129371022542839
56,1791286233.4377742,0.01705253906250001,-0.03769760742187502,0.014322216796873954,0.04378383934499753,-0.0018261777258767918,-0.00714233789609876,0.00988034466733648,0.01232757585472105
57,1791286233.4577742,0.041002734375000016,-0.008957373046875022,-4.790039062604557e-05,0.041969763551575,-0.0017507898476535623,-0.007550855814902488,0.010051738602967724,0.01269323195921689
58,1791286233.4824104,0.036212695312500015,0.0006227050781249783,0.014322216796873954,0.03894705325678621,-0.0015291830365696977,-0.007993991536974852,0.01025757026519373,0.013094275436157002
59,1791286233.5024104,0.01705253906250001,-0.013747412109375022,0.043062451171873954,0.04831309479957901,-0.0012963679402248052,-0.008319459466608121,0.010485679039612329,0.01344780430310999
60,1791286233.527145,0.02184257812500001,0.005412744140624978,0.023902294921873957,0.03282858085283067,-0.000979474886129165,-0.00867705846538974,0.01084969633903511,0.01392719014423302
61,1791286233.547145,0.041002734375000016,0.005412744140624978,0.004742138671873955,0.04162943555396782,-0.0006674068730507831,-0.008906597519139631,0.011142851507811745,0.014280618019794597
62,1791286233.5577104,-0.002107617187499989,-0.008957373046875022,0.014322216796873954,0.017023585876265523,-0.0004964563793903792,-0.009012477401505617,0.011289595300208968,0.014454278947487739
63,1791286233.5777104,-0.002107617187499989,-0.023327490234375022,0.014322216796873954,0.02745432105918057,-0.00022771885835366925,-0.009231266014123352,0.01156867354910616,0.01480210578896622
64,1791286233.6177485,-0.01647773437499999,-0.008957373046875022,0.019112255859373956,0.026777389455809795,0.00017376144291435648,-0.009700508231359534,0.012143958006357402,0.015543672958663593
65,1791286233.6377485,0.007472460937500011,-0.023327490234375022,-0.014418017578126047,0.028423383049532954,0.0003307201039456638,-0.009948173414141162,0.012395262303874912,0.01589710846810958
66,1791286233.6477628,-0.00689765624999999,-0.047277685546875024,-4.790039062604557e-05,0.047778232563163964,0.0003979546805233921,-0.0101066112717892,0.01249135446690411,0.016072830981026718
67,1791286233.6677628,-0.02126777343749999,-0.03290756835937502,0.023902294921873957,0.04589712349208838,0.00046984208415586955,-0.010495848645772183,0.01269025935171285,0.016475019659858897
68,1791286233.6767757,-0.03084785156249999,0.005412744140624978,0.028692333984373954,0.04247514302065107,0.0004621499537892709,-0.010663531789019378,0.012802002317726045,0.016667805978540704
69,1791286233.6967757,-0.00689765624999999,-0.03769760742187502,0.009532177734373955,0.03949113418777264,0.0003910230366845676,-0.011028238907907084,0.013070105897801708,0.017105631254205285
70,1791286233.7224503,0.012262500000000011,-0.028117529296875023,-4.790039062604557e-05,0.03067517977874046,0.0003237419336757534,-0.011552929857386172,0.013380915547730325,0.01768117354772573
71,1791286233.7424502,0.007472460937500011,0.01978286132812498,0.03827241210937395,0.04372615697108586,0.00030879531850071734,-0.011912846960102322,0.013644049539313526,0.018115500685180874
72,1791286233.7677124,0.02184257812500001,-0.004167333984375022,0.03827241210937395,0.04426333042546403,0.0003482900162938189,-0.012269682626427643,0.014071587309641911,0.018672867672148957
73,1791286233.7877123,0.04579277343750001,-0.06164780273437503,-0.009627978515626046,0.0773959149527414,0.0004763206565799716,-0.012608535565693059,0.014402262785780598,0.019147512209942895
74,1791286233.7976296,0.07932304687500001,-0.047277685546875024,-0.009627978515626046,0.09284408051405324,0.0006233439642127516,-0.012832374803072337,0.014527314707465206,0.01939333064210429
75,1791286233.8176296,0.07932304687500001,-0.028117529296875023,0.009532177734373955,0.08469712882768676,0.0011133375342652027,-0.013329168631215811,0.014741532716139713,0.019905251660946383
76,1791286233.8432124,0.05537285156250001,0.0006227050781249783,0.023902294921873957,0.0603146761104561,0.0019045349308693111,-0.013922072046177163,0.0150385964835995,0.02058180574095432
77,1791286233.8632123,0.02184257812500001,-0.03769760742187502,0.009532177734373955,0.044598993675196645,0.0025461154260322874,-0.01437167375493737,0.015286149568005386,0.02113513848775225
78,1791286233.8869655,-0.01647773437499999,-0.08559799804687503,0.019112255859373956,0.08924018894982268,0.0032033550911894984,-0.01504520098814437,0.015587086711890564,0.021899242653066916
79,1791286233.9069655,-0.00689765624999999,-0.052067724609375025,-4.790039062604557e-05,0.05252264180511395,0.0036386741157039635,-0.01573373835682884,0.015831061939307424,0.022614442158223346
80,1791286233.9169905,-0.002107617187499989,0.010202783203124979,0.009532177734373955,0.014120950664127014,0.0038173769996987317,-0.016058576583146352,0.015942141995314442,0.02294781341290219
81,1791286233.9369905,-0.00689765624999999,0.0006227050781249783,0.03827241210937395,0.038893996349401286,0.004106905384953342,-0.016593184364472924,0.01620221335558475,0.023552328055082714
82,1791286233.9618397,0.031422656250000014,-0.03290756835937502,0.03827241210937395,0.059456445485770164,0.00445838066200948,-0.017217947752966437,0.01661952806768677,0.024342218389947337
83,1791286233.9818397,0.01705253906250001,0.01978286132812498,0.028692333984373954,0.03879949381469779,0.004771546989159563,-0.017665052078174023,0.017005471206634242,0.024980147648763495
84,1791286234.0075595,0.012262500000000011,0.06289321289062498,0.047852490234373955,0.07997365788549583,0.005170416293601498,-0.017994298612370726,0.017574998386273598,0.0256789516039465
85,1791286234.0275595,0.01705253906250001,0.02936293945312498,0.052642529296873956,0.06264349281911255,0.005478028120785196,-0.018073535496690874,0.01810217924750613,0.026160091187744358
86,1791286234.0525796,0.007472460937500011,-0.01853745117187502,0.03348237304687396,0.03899415434731398,0.005851150458914966,-0.018137478402366316,0.01882437446687584,0.02678733205375878
87,1791286234.0725796,0.007472460937500011,-0.08559799804687503,0.03348237304687396,0.09221672433428395,0.006127086710668006,-0.018337127591753287,0.019415518808229146,0.027399887052120927
88,1791286234.082501,-0.02126777343749999,-0.028117529296875023,0.06701264648437395,0.07572059448782169,0.006233171865165553,-0.018505926450323913,0.019739556656554264,0.027766379711492917
89,1791286234.102501,-0.04042792968749999,0.05331313476562498,0.08617280273437396,0.10909839489402427,0.006322403333962736,-0.018757366776588097,0.020524567425583562,0.028514372872572177
90,1791286234.127265,-0.011687695312499989,0.08205336914062498,0.028692333984373954,0.08770751187051405,0.006319522510084961,-0.0187705842539847,0.02156411007558232,0.029279379114715526
91,1791286234.147265,-0.02605781249999999,0.04373305664062498,-0.009627978515626046,0.05181011296759181,0.006260926680061758,-0.018590978303093992,0.02230632977178522,0.029705151490050548
92,1791286234.202795,-0.0691681640625,-0.01853745117187502,0.028692333984373954,0.0771435158985992,0.0057260458521593074,-0.01806216928813835,0.024137389104959932,0.030686203957130922
93,1791286234.222795,-0.08353828125,-0.03769760742187502,0.09096284179687396,0.12912781507986973,0.005333237911118502,-0.017984632129729096,0.02487743245801194,0.03115729553669929
94,1791286234.202795,-0.1362287109375,0.05810317382812498,0.18676362304687397,0.23835874514309113,0.005333237911118502,-0.017984632129729096,0.02487743245801194,0.03115729553669929
95,1791286234.222795,-0.1745490234375,0.163484033203125,0.24424409179687398,0.3418326594593109,0.004303065368908396,-0.017570213966858445,0.026412725641274674,0.032013448208706524
96,1791286234.2474937,-0.1362287109375,0.149113916015625,0.30172456054687397,0.3630852958609203,0.0026460098762824255,-0.016556142351902822,0.0290356737097345,0.03352875729310619
97,1791286234.2674937,-0.10748847656249999,0.201804345703125,0.368785107421874,0.43391384167200364,0.00113989354848318,-0.015331786333488057,0.03184679594529919,0.035363560927303826
98,1791286234.3073583,-0.073958203125,0.264074853515625,0.368785107421874,0.45957349741357006,-0.0019543324945790197,-0.011864523296098425,0.03881474183401449,0.040634597477817155
99,1791286234.3273582,-0.05479804687499999,0.24970473632812498,0.34483491210937395,0.4292626211254513,-0.0034669800282009196,-0.009615262010470534,0.042856607784753746,0.04405862055105853
100,1791286234.3228357,-0.05958808593749999,0.24970473632812498,0.287354443359374,0.3853255395750053,-0.0034669800282009196,-0.009615262010470534,0.042856607784753746,0.04405862055105853
101,1791286234.3428357,-0.064378125,0.254494775390625,0.21071381835937397,0.3366191422471805,-0.004891659190563768,-0.00659712571490206,0.04732999827377026,0.04803726817721783
102,1791286234.3678143,-0.1745490234375,0.321555322265625,0.17718354492187396,0.40652084257934007,-0.006851694380379331,-0.002313922003732198,0.052805604892750525,0.0532985164803933
103,1791286234.3878143,-0.217659375,0.345505517578125,0.21550385742187397,0.4617267360312006,-0.008773968935522113,0.0016017349494158485,0.05712122872936245,0.05781334497572191
104,1791286234.4123044,-0.1458087890625,0.383825830078125,0.19155366210937397,0.4530731467109329,-0.01144233526760958,0.007016877934732122,0.06236073034288288,0.06378890421715258
105,1791286234.4323044,-0.10269843749999999,0.340715478515625,0.11012299804687396,0.37250648459309343,-0.013667360585277667,0.011862647591249942,0.06645028096596439,0.06887059600219675
106,1791286234.442292,-0.2128693359375,0.379035791015625,0.12928315429687395,0.453536789068166,-0.014848206146278308,0.014458690121534078,0.06836551700921335,0.07143785314334386
107,1791286234.462292,-0.2607697265625,0.407776025390625,0.20592377929687397,0.5260102090784592,-0.017568593381920378,0.020057657290916006,0.07212826980839902,0.07689897525307017
108,1791286234.4871838,-0.16017890625,0.517946923828125,0.17718354492187396,0.5703685707518827,-0.021232368401930428,0.02770905338832106,0.07682412281317154,0.08438335708921152
109,1791286234.5071838,-0.08353828125,0.551477197265625,0.11970307617187396,0.5704687283130975,-0.024100132607281454,0.03453873745465185,0.08047650259006948,0.09083065697097749
110,1791286234.5327644,-0.0691681640625,0.561057275390625,0.07180268554687395,0.5698465818448609,-0.0275108786992326,0.04409827384517556,0.08481470417361613,0.09947381689161225
111,1791286234.5527644,-0.064378125,0.489206689453125,0.043062451171873954,0.4953000128055035,-0.029977858112245334,0.05202659512781792,0.08787001571652,0.10642639822719395
112,1791286234.562713,-0.064378125,0.359875634765625,0.023902294921873957,0.36636912421628737,-0.031116994712533902,0.05601231073433362,0.08921180087711092,0.10983802497075726
113,1791286234.582713,0.002682421875000011,0.31676528320312497,-0.05273833007812605,0.3211366866138169,-0.03315609486705749,0.06383806220100345,0.09146138942521964,0.11636069167895223
114,1791286234.6080437,-0.02605781249999999,0.331135400390625,-0.06710844726562605,0.3388704865852853,-0.0353957157876221,0.07349383472098923,0.09365551886191092,0.12419966445771083
115,1791286234.6280437,-0.03563789062499999,0.268864892578125,0.023902294921873957,0.27226771643325326,-0.036991312710320405,0.08087401232058108,0.09506323292582332,0.13017673117409098
116,1791286234.6671686,0.002682421875000011,0.273654931640625,-0.004837939453126046,0.27371083766724097,-0.03974119503919854,0.09473782003242202,0.09745993956501312,0.14160881663108132
117,1791286234.6871686,0.11285332031250002,0.201804345703125,-0.11979887695312605,0.2604085958056154,-0.04076272855042657,0.101474898700203,0.09831436495991648,0.14705260780606333
118,1791286234.683085,0.1415935546875,0.168274072265625,-0.10542875976562605,0.24388546802057914,-0.04076272855042657,0.101474898700203,0.09831436495991648,0.14705260780606333
119,1791286234.703085,0.16075371093750002,0.05810317382812498,-0.004837939453126046,0.1710004094943364,-0.040722846590128356,0.10715385311589908,0.09847912245368952,0.15112390952868965
120,1791286234.7280302,0.24697441406250004,0.048523095703124984,0.028692333984373954,0.2533260784988405,-0.03991774847305021,0.11337402239621386,0.09869842320489844,0.155526442576779
121,1791286234.7480302,0.251764453125,0.08205336914062498,-4.790039062604557e-05,0.2647982204228446,-0.03862097330580097,0.11780887983603053,0.09889084142758583,0.15858723235356495
122,1791286234.7728322,0.2805046875,0.048523095703124984,0.11012299804687396,0.3052285131256893,-0.03626396320394037,0.12272648676792819,0.09929842247542614,0.16197852415602326
123,1791286234.7928321,0.18949394531250002,-0.023327490234375022,0.17718354492187396,0.2604729078077283,-0.033943403361630146,0.12613494947425957,0.10000874966044318,0.16451118539263382
124,1791286234.8178363,0.041002734375000016,-0.09996811523437503,0.047852490234373955,0.11817237033829417,-0.03104514404796586,0.12952582787994868,0.10118561083535763,0.16727004781810006
125,1791286234.8378363,0.28529472656250005,-0.24845932617187502,0.08617280273437396,0.38800885260165285,-0.0285852108509301,0.13130859977453993,0.10218678064545592,0.1688229865652926
126,1791286234.847615,0.06974296875000001,-0.10954819335937503,0.09096284179687396,0.15855323063920715,-0.027302484033059442,0.1317869493710515,0.10273277580668305,0.16931405400571378
127,1791286234.867615,0.012262500000000011,-0.11912827148437503,-4.790039062604557e-05,0.11975773990666484,-0.024949501582565106,0.1322755285426638,0.10381834100792553,0.16999276752290787
128,1791286234.8921957,0.14638359375,-0.28198959960937503,-0.004837939453126046,0.317757291757676,-0.0221989118054214,0.13204645578299826,0.10494340355230686,0.17012400218469623
129,1791286234.9121957,0.06974296875000001,-0.36821030273437505,-0.08626860351562606,0.3845584229767174,-0.019972418873732817,0.13091273051317956,0.10558483528622045,0.16936705101200328
130,1791286234.9375246,0.02184257812500001,-0.382580419921875,-0.14853911132812606,0.4109850891709995,-0.01740166586557036,0.12826604867508487,0.10582926642526773,0.16719698217888532
131,1791286234.9575245,0.04579277343750001,-0.43048081054687504,-0.16290922851562606,0.462547427929017,-0.015574800330931178,0.12527008422655697,0.10552614923787018,0.16453247880114827
132,1791286234.968116,0.09848320312500002,-0.473591162109375,-0.17248930664062606,0.5135563172926921,-0.014637848537547205,0.12320332101840296,0.10512327603236005,0.16261681365574593
133,1791286234.988116,0.17512382812500002,-0.5598118652343751,-0.15332915039062606,0.6062734597472134,-0.012723576338606381,0.11833594297577664,0.103987913920504,0.15804673687346016
134,1791286235.0127232,0.12243339843750002,-0.5598118652343751,-0.23475981445312605,0.619266850390211,-0.010172465227064702,0.11117929994666145,0.10208431199856713,0.1512796170726458
135,1791286235.0327232,0.16554375000000002,-0.516701513671875,-0.19164946289062607,0.575425672021274,-0.007978053150571308,0.10462033188751105,0.10012958660843393,0.1450344693192007
136,1791286235.0573056,0.18949394531250002,-0.5837620605468751,-0.19643950195312607,0.6444180138478613,-0.005030860336771834,0.09573893272419746,0.09737187110600605,0.1366474810509918
137,1791286235.0773056,0.14638359375,-0.588552099609375,-0.27308012695312606,0.6651274210333717,-0.0024889091535675156,0.08783851901919877,0.09476049028164374,0.12923370539715384
138,1791286235.088195,0.25655449218750004,-0.588552099609375,-0.4072012207031261,0.7602806163242003,-0.0009833947474777234,0.08322080593105774,0.09299633312111937,0.12479978997986474
139,1791286235.108195,0.40504570312500005,-0.713093115234375,-0.42157133789062606,0.9221096494157209,0.002359309898553366,0.07405948464622697,0.08899909493211162,0.11580678955914958
140,1791286235.1328523,0.22302421875000003,-0.770573583984375,-0.3688809082031261,0.8829476626167236,0.0070237298420512476,0.06171528816842873,0.08334847435805448,0.10394747593097961
141,1791286235.1528523,0.3906755859375,-0.847214208984375,-0.46468168945312605,1.042270791045034,0.011160171164633926,0.050777880927487376,0.0782023014098017,0.09390709535333037
142,1791286235.1772559,0.520006640625,-0.8999046386718751,-0.507792041015626,1.1567575467296813,0.017117085327209118,0.03623642279906148,0.07108504625530095,0.08160365646519509
143,1791286235.1972558,0.5056365234375,-0.9573851074218751,-0.38325102539062605,1.1485364104851543,0.02280524619321156,0.023320639698835827,0.0647904701513432,0.07253782814730533
144,1791286235.207982,0.5152166015625,-1.1154563964843751,-0.43115141601562607,1.3021454075930994,0.02621951847919614,0.015765262076371304,0.061265837239632984,0.06847999306579096
145,1791286235.227982,0.577487109375,-1.321428076171875,-0.5748525878906261,1.552455802847265,0.03326985520124816,0.0001354151664246482,0.054170639315231674,0.06357168997439222
146,1791286235.2523625,0.48647636718750004,-1.417228857421875,-0.5173721191406261,1.5852037092453835,0.04252069481115393,-0.0210674877772142,0.04482163927267911,0.06527501723903666
147,1791286235.2723625,0.45294609375000006,-1.3836985839843752,-0.4886318847656261,1.5357548808235502,0.05038024757929518,-0.04005322358530508,0.03679376903214919,0.0741364384450498
148,1791286235.297067,0.6014373046875,-1.5369798339843752,-0.5317422363281261,1.7340079721384325,0.060585907166127356,-0.06539864747684052,0.026474399684841464,0.09299746812475806
149,1791286235.317067,0.6253875000000001,-1.680681005859375,-0.44552153320312604,1.8477791007478126,0.06944900704410009,-0.0876661896866068,0.017907393416062577,0.11326605904920163
150,1791286235.3271477,0.5726970703125001,-1.7764817871093752,-0.4359414550781261,1.9167457907952932,0.07415209451902198,-0.09982021078033754,0.013570548066557227,0.12508703920317135
151,1791286235.3471477,0.5870671875000001,-1.929763037109375,-0.45989165039062607,2.0688483734028873,0.08382288527887573,-0.12587575031874682,0.004913273422403774,0.15131133754780687
152,1791286235.3878913,0.5487468750000001,-1.8291722167968751,-0.4263613769531261,1.9567263874341823,0.10403965281994362,-0.1824800706340248,-0.012785884428976057,0.21044406472534266
153,1791286235.4078913,0.6397576171875,-1.723791357421875,-0.4886318847656261,1.9025003473012525,0.1142577157306616,-0.21142727610740894,-0.021543225475284124,0.24128909890433536
154,1791286235.4179416,0.6397576171875,-1.963293310546875,-0.21559965820312604,2.0761246698126876,0.11958670198552371,-0.22657095029498303,-0.025814648996768053,0.25749130259519926
155,1791286235.4379416,0.72118828125,-2.0447239746093753,-0.18685942382812606,2.176218075843519,0.13064204970734605,-0.2581983549121285,-0.033643410311035724,0.2913170346691433
156,1791286235.462567,0.6397576171875,-1.996823583984375,-0.2778701660156261,2.115137362789279,0.1447259787605372,-0.29876356444008795,-0.042695202009778485,0.3347060749968513
157,1791286235.482567,0.49605644531250004,-1.9920335449218751,-0.3784609863281261,2.0874631396033183,0.15615239132419517,-0.33275061248617793,-0.04992850751093318,0.3709439247224039
158,1791286235.4922736,0.41462578125000005,-2.1117845214843753,-0.4167812988281261,2.192089198621038,0.1615290546675708,-0.34975869867125836,-0.05349136416263166,0.3889525791635665
159,1791286235.5122736,0.47210625000000006,-2.140524755859375,-0.503002001953126,2.2489423193369706,0.17227585325474537,-0.38592516176228975,-0.061111033969238726,0.427026648546305
160,1791286235.5376897,0.49605644531250004,-2.006403662109375,-0.565272509765626,2.1427227218095006,0.185729924832734,-0.4328966150200079,-0.07137805647699144,0.4764345823096667
161,1791286235.5576897,0.3715154296875,-2.097414404296875,-0.5365322753906261,2.1965968634193542,0.19603024964269689,-0.4704699345228444,-0.07989802221734435,0.5159006803825237
162,1791286235.5829377,0.309244921875,-2.1548948730468753,-0.45031157226562607,2.223057544847979,0.20837203329734783,-0.5188399176905694,-0.0909090045904395,0.5664611297920206
163,1791286235.6029377,0.32361503906250005,-1.9776634277343752,-0.3593008300781261,2.0359215145482237,0.21763127562912082,-0.5576071617289512,-0.09953732198902426,0.6067922193075005
164,1791286235.612496,0.21344414062500003,-1.886652685546875,-0.3688809082031261,1.9341897222054365,0.22177760033514154,-0.5761255368968056,-0.10356435897855497,0.6259644676223126
165,1791286235.6324959,0.20386406250000003,-1.8579124511718752,-0.40241118164062606,1.9118927771472685,0.22977811442864352,-0.6146787114086485,-0.11188368616134302,0.6656920153933269
166,1791286235.672836,0.20865410156250003,-1.7812718261718752,-0.45989165039062607,1.8514767573241515,0.24474275129183803,-0.6917869704515893,-0.1287557449149255,0.7450142741217003
167,1791286235.692836,0.23739433593750003,-1.8722825683593751,-0.4886318847656261,1.9495022968253186,0.2517181549001503,-0.7297619209303439,-0.1372886778126863,0.7840680275344973
168,1791286235.7030103,0.2805046875,-1.771691748046875,-0.42157133789062606,1.8426331492561825,0.25512956229015255,-0.7489631678456757,-0.1416729276830901,0.8038085212176422
169,1791286235.7230103,0.18470390625000002,-1.6615208496093752,-0.37367094726562605,1.7130081854740389,0.26152742424744835,-0.7861959463743932,-0.15019134199399242,0.8420558763757835
170,1791286235.7325542,0.10327324218750002,-1.6327806152343751,-0.35451079101562605,1.6740118879457182,0.26432863092574216,-0.803656190618279,-0.15416777354291072,0.8599422075031199
171,1791286235.7525542,0.20865410156250003,-1.5896702636718751,-0.23954985351562605,1.6211021601431606,0.2697861472733941,-0.839590775175904,-0.16214184883041108,0.8966533411320345
172,1791286235.7776694,0.309244921875,-1.479499365234375,-0.2587100097656261,1.53345416057583,0.27658703322146905,-0.8837285448326068,-0.1715919146153433,0.9417644679321736
173,1791286235.7976694,0.3523552734375,-1.5082395996093751,-0.28266020507812606,1.574432507312991,0.28218280875434104,-0.918086073893707,-0.17880051927822374,0.9769743099632726
174,1791286235.8219159,0.318825,-1.6567308105468752,-0.19643950195312607,1.6985272553503221,0.2891696477914953,-0.9592461068104551,-0.18710004342767575,1.0192048885702574
175,1791286235.8419158,0.21344414062500003,-1.604040380859375,-0.07189848632812605,1.6197757057478388,0.29486675259603706,-0.9929959071041905,-0.19332161843907905,1.053736457311842
176,1791286235.852469,0.26613457031250004,-1.604040380859375,-0.13895903320312605,1.631895451875412,0.29780152914785674,-1.0106721106881462,-0.19627893556886913,1.071759901579492
177,1791286235.872469,0.3715154296875,-1.6663108886718752,-0.2682900878906261,1.7281768611640134,0.30348562373028143,-1.0440521626967665,-0.20165373969468747,1.105808605942098
178,1791286235.8974638,0.2805046875,-1.690261083984375,-0.22517973632812605,1.7281120696859655,0.31074602179935074,-1.0858034719512948,-0.20828836347298918,1.1484408178586587
179,1791286235.9174638,0.23739433593750003,-1.723791357421875,-0.23475981445312605,1.7558259837294876,0.31646095278604847,-1.1193212584895553,-0.2134907415479678,1.1826266997965151
180,1791286235.9418838,0.2805046875,-1.723791357421875,-0.20122954101562607,1.7580195823167564,0.32334073809821473,-1.160422012816447,-0.2196885551151881,1.2244964442543196
181,1791286235.9618838,0.23260429687500003,-1.7142112792968751,-0.12937895507812605,1.73475185055686,0.3288997591038095,-1.1941912763967064,-0.22449907144364956,1.2588358468202276
182,1791286235.9717174,0.23260429687500003,-1.5465599121093752,-0.18206938476562606,1.574516300816668,0.33156612552246384,-1.210709251436722,-0.22673921635295105,1.275603253108425
183,1791286235.9917173,0.328405078125,-1.522609716796875,-0.2682900878906261,1.5805599692143628,0.33701717185034363,-1.243868773730494,-0.23128744921960437,1.3093066808621723
184,1791286236.0170612,0.33798515625000003,-1.599250341796875,-0.2778701660156261,1.6580251658959553,0.34415525344313774,-1.2855194514177841,-0.23722456328036354,1.3517686902238675
185,1791286236.0370612,0.3331951171875,-1.695051123046875,-0.23954985351562605,1.7440187579780848,0.34995005060359713,-1.318399021538493,-0.2419831444752774,1.3853508076011862
186,1791286236.0619931,0.45773613281250003,-1.570510107421875,-0.3593008300781261,1.674849680207523,0.35756921560204713,-1.3593446973443748,-0.24814515757342923,1.4273225877045719
187,1791286236.081993,0.49605644531250004,-1.6279905761718751,-0.4263613769531261,1.7544826407798606,0.36419508043528454,-1.392061519804624,-0.25352525856682123,1.4610778173202812
188,1791286236.0925384,0.33798515625000003,-1.7094212402343751,-0.3593008300781261,1.7791717255241544,0.3678242573971442,-1.40936387865593,-0.2565578539499902,1.4789939686196396
189,1791286236.1125383,0.34756523437500003,-1.7812718261718752,-0.32098051757812607,1.843029951879393,0.37470317137226,-1.4424930134974359,-0.2624671163247009,1.5133002173320227
190,1791286236.1375296,0.4194158203125,-1.728581396484375,-0.33056059570312607,1.8091914166366931,0.3834470608438151,-1.4842591442871043,-0.2699647352543011,1.5565788814417894
191,1791286236.1575296,0.38588554687500004,-1.6711009277343751,-0.29703032226562603,1.7406070717732158,0.3906029270017523,-1.51776952142427,-0.27600627692640883,1.5913435932097038
192,1791286236.1822746,0.22302421875000003,-1.6711009277343751,-0.23475981445312605,1.702183974576721,0.39925854630660934,-1.5592138499416859,-0.283346878112719,1.634270684429316
193,1791286236.2022746,0.28529472656250005,-1.6998411621093752,-0.22517973632812605,1.7382632053456482,0.405967496507309,-1.5927428090377056,-0.28907983241673424,1.668893769378932
194,1791286236.2271795,0.4194158203125,-1.647150732421875,-0.2778701660156261,1.722273786251152,0.41438497532239044,-1.6344836948446984,-0.29608758021790965,1.7119929064238006
195,1791286236.2471795,0.45773613281250003,-1.532189794921875,-0.38325102539062605,1.6443872060460232,0.4214464236076911,-1.6677447846303088,-0.301862708557741,1.7464566554744851
196,1791286236.2572463,0.42420585937500005,-1.565720068359375,-0.3976211425781261,1.6701893654961713,0.4251334453174184,-1.6843140563804921,-0.304923086433262,1.7636979263718469
197,1791286236.2772462,0.33798515625000003,-1.6567308105468752,-0.32098051757812607,1.7210518403364161,0.4325031021043178,-1.7171286967680295,-0.31116912918572714,1.7978921329023976
198,1791286236.3026378,0.2805046875,-1.6567308105468752,-0.23475981445312605,1.696629608608445,0.4416338490578801,-1.758850441877433,-0.3189678375940689,1.8412864565149976
199,1791286236.3226378,0.30445488281250005,-1.647150732421875,-0.23475981445312605,1.6914226205973357,0.4486244384038302,-1.7917394966835827,-0.32489345050202695,1.8754066398752576
200,1791286236.3473847,0.43378593750000005,-1.690261083984375,-0.34493071289062605,1.7788001484989886,0.4573469366353841,-1.8325246572891705,-0.33220159406205213,1.9177254076431096
201,1791286236.3673847,0.4481560546875,-1.675890966796875,-0.3880410644531261,1.7776473918205336,0.46466180531273193,-1.8655914186553093,-0.3383214107230404,1.9521278932565984
202,1791286236.3769355,0.3715154296875,-1.6663108886718752,-0.38325102539062605,1.7497134167243813,0.4682181217268142,-1.8814075964346666,-0.34135798912493037,1.9686157649919578
203,1791286236.3969355,0.3331951171875,-1.695051123046875,-0.37367094726562605,1.7674408823749816,0.47560525930432507,-1.9146016730326365,-0.3478983350154031,2.003230685808251
204,1791286236.422508,0.3810955078125,-1.7525315917968751,-0.33056059570312607,1.8236970893634068,0.4850038178079522,-1.9572903794340013,-0.35635727887293933,2.0477316335201037
205,1791286236.442508,0.35714531250000003,-1.7094212402343751,-0.32577055664062604,1.7764572064587132,0.4923591045604548,-1.9908616878411083,-0.3629650689294178,2.082712507577572
206,1791286236.4672618,0.3523552734375,-1.647150732421875,-0.34014067382812607,1.7184165536997678,0.501414358025183,-2.0324115717326587,-0.3711530023578074,2.1259980495065927
207,1791286236.4872618,0.309244921875,-1.651940771484375,-0.19164946289062607,1.6915289683668242,0.508625564434772,-2.0658950997770287,-0.3775738511271024,2.1608295955799663
208,1791286236.4973135,0.21823417968750003,-1.6615208496093752,-0.08147856445312605,1.6777712738439283,0.5121038389914846,-2.0826971743077007,-0.3805227357618832,2.1782275854948687
209,1791286236.5173135,0.26134453125,-1.719001318359375,-0.16290922851562606,1.7463693519044328,0.5187058382158881,-2.116184461273777,-0.3858766182403099,2.212734323239103
210,1791286236.542367,0.4194158203125,-1.7046312011718752,-0.38325102539062605,1.7968189977847082,0.5270146379761069,-2.158273929595142,-0.3926035394477871,2.2561091115010536
211,1791286236.562367,0.37630546875000004,-1.6615208496093752,-0.45031157226562607,1.7621117591157938,0.5338461318315258,-2.1918828449884735,-0.3984184159021491,2.290868685183903
212,1791286236.587375,0.27571464843750004,-1.7381614746093752,-0.3976211425781261,1.8042523249823974,0.5423298401264038,-2.233980160878292,-0.40618907624603134,2.334476082625593
213,1791286236.607375,0.3427751953125,-1.771691748046875,-0.3880410644531261,1.8457958587885144,0.5490246531744123,-2.2678619678926597,-0.4126499298513509,2.369579274853149
214,1791286236.6169157,0.47689628906250003,-1.723791357421875,-0.3688809082031261,1.8261872409149882,0.5523258181774434,-2.2841017331890026,-0.4158113269671427,2.3864374277605864
215,1791286236.6369157,0.4098357421875,-1.685471044921875,-0.32577055664062604,1.76490918588418,0.5595379975289353,-2.3181519641926034,-0.4224863444953138,2.42186003126806
216,1791286236.6620953,0.3331951171875,-1.7525315917968751,-0.30661040039062604,1.8100817395884035,0.5686591963981816,-2.36108288150702,-0.4308237484373706,2.466514698357045
217,1791286236.6820953,0.3906755859375,-1.7860618652343752,-0.29224028320312606,1.8514990637369353,0.5759031644410427,-2.3953755077120995,-0.4373510087214829,2.502151910374329
218,1791286236.7075522,0.47210625000000006,-1.6663108886718752,-0.24912993164062605,1.7497262676872574,0.5853878364611681,-2.439068873532093,-0.44544659974298073,2.5475789609219937
219,1791286236.7275522,0.42420585937500005,-1.651940771484375,-0.26350004882812605,1.7257726383718393,0.5930661160457469,-2.473224439772071,-0.4516217359012869,2.5831238336219875
220,1791286236.7373455,0.32361503906250005,-1.6567308105468752,-0.33056059570312607,1.7201028979553332,0.5968112016771793,-2.4898707005245333,-0.4546282545880538,2.600447377980887
221,1791286236.7573454,0.3331951171875,-1.6567308105468752,-0.39283110351562606,1.734961740391471,0.6042974437080444,-2.523736837068574,-0.46093230357587633,2.6356937628883843
222,1791286236.7823687,0.38588554687500004,-1.690261083984375,-0.3688809082031261,1.7725584085597337,0.6136085005134679,-2.5660345042091395,-0.46906612035354317,2.6797521329327747
223,1791286236.8023686,0.38588554687500004,-1.690261083984375,-0.3880410644531261,1.7766446057163394,0.6210917928896901,-2.59984097687409,-0.4757273595121931,2.71500361709096
224,1791286236.8269658,0.328405078125,-1.6567308105468752,-0.34493071289062605,1.7238283182059717,0.6302323963166315,-2.6413560978932864,-0.48404306718218537,2.7583061106650564
225,1791286236.8469658,0.29487480468750005,-1.637570654296875,-0.24433989257812605,1.6817522948873527,0.637484713669406,-2.674990132474246,-0.49067425566442213,2.7933349591784697
226,1791286236.8718996,0.39546562500000004,-1.647150732421875,-0.27308012695312606,1.7158296394488863,0.6464608699573244,-2.7167742679502016,-0.49866884163595265,2.836801842392393
227,1791286236.8918996,0.44336601562500005,-1.6998411621093752,-0.33056059570312607,1.7875412464175882,0.6538390987141258,-2.7502833567628913,-0.5050250454305915,2.871691906525912
228,1791286236.9018729,0.33798515625000003,-1.728581396484375,-0.32577055664062604,1.7911878923471856,0.6575509205748309,-2.7670511392405635,-0.508210152005817,2.889156066903116
229,1791286236.9218729,0.27571464843750004,-1.6711009277343751,-0.29703032226562603,1.719541767559871,0.6647984614748151,-2.800732209124244,-0.5145735310960615,2.9241825901454788
230,1791286236.9470115,0.4002556640625,-1.7046312011718752,-0.30182036132812606,1.7768139067260318,0.6738161496936145,-2.8430813949131455,-0.522501186655122,2.9681892648120027
231,1791286236.9670115,0.46252617187500006,-1.762111669921875,-0.31140043945312607,1.8482256979697587,0.6812085308400417,-2.8769201316112154,-0.5287820922651949,3.0033855908390286
232,1791286236.9919589,0.3906755859375,-1.7429515136718752,-0.30182036132812606,1.811519506649302,0.6906428068682613,-2.9193563513374357,-0.5365888912290319,3.0475492827784585
233,1791286237.0119588,0.27571464843750004,-1.685471044921875,-0.34493071289062605,1.742357141153411,0.6980712178486118,-2.953416418832438,-0.5428788269938124,3.082967626981484
234,1791286237.0225105,0.36672539062500004,-1.675890966796875,-0.4072012207031261,1.7632103898464697,0.7019108808386695,-2.971350668064467,-0.5462947514738283,3.101619195313107
235,1791286237.0425105,0.48168632812500006,-1.757321630859375,-0.38325102539062605,1.8620103064837652,0.7093696344050746,-3.005394613292585,-0.5529838746030605,3.13709949242849
236,1791286237.067093,0.35714531250000003,-1.723791357421875,-0.35451079101562605,1.7957414399377205,0.7187087213494947,-3.047380161589047,-0.5613325479920185,3.180905893739317
237,1791286237.0870929,0.251764453125,-1.6615208496093752,-0.2874502441406261,1.7048942830570157,0.7260805439004399,-3.0814932903114336,-0.5680690255061382,3.2164415542963996
238,1791286237.112376,0.35714531250000003,-1.6327806152343751,-0.25391997070312605,1.6905622328822276,0.7351564426895767,-3.124395723656435,-0.5763341545957559,3.2610526967505775
239,1791286237.132376,0.46252617187500006,-1.651940771484375,-0.25391997070312605,1.7341609278505874,0.7424884497474249,-3.1581697669016258,-0.5826532651510009,3.2961811543012813
240,1791286237.1424625,0.3810955078125,-1.690261083984375,-0.32577055664062604,1.7630492828281474,0.7462697129393389,-3.175176306226187,-0.585800660348888,3.3138837447526623
241,1791286237.1624625,0.30445488281250005,-1.6998411621093752,-0.39283110351562606,1.7710079130142329,0.7536710292596966,-3.208924504292221,-0.5921832239048164,3.3490144020691743
242,1791286237.1869235,0.3427751953125,-1.719001318359375,-0.38325102539062605,1.794252411313904,0.7625527928965178,-3.2502810866375023,-0.6002422865081343,3.39206496202833
243,1791286237.2069235,0.4385759765625,-1.7477415527343751,-0.31140043945312607,1.8286387440015905,0.7698974871406767,-3.2842232890931453,-0.6068851686515415,3.427415113647096
244,1791286237.232423,0.36672539062500004,-1.728581396484375,-0.26350004882812605,1.786592687809215,0.7793972903670712,-3.327655942254169,-0.615183760284563,3.4726366445640218
245,1791286237.252423,0.31403496093750005,-1.651940771484375,-0.31140043945312607,1.7101159325832296,0.7867517297759544,-3.3616822694777206,-0.621578589966712,3.5080259276024943
246,1791286237.2613022,0.4002556640625,-1.7094212402343751,-0.36409086914062605,1.7930108014649881,0.7900027169099965,-3.3767611001964855,-0.6244416153220074,3.5237121266458917
247,1791286237.2813022,0.4481560546875,-1.7477415527343751,-0.33056059570312607,1.834315864822369,0.7974996354257211,-3.410816593337188,-0.6309651065680224,3.559184241872687
248,1791286237.3070867,0.36672539062500004,-1.7429515136718752,-0.29703032226562603,1.805711633535477,0.8072909212641979,-3.454886463422037,-0.6393274806040353,3.6050934431922745
249,1791286237.3270867,0.27571464843750004,-1.685471044921875,-0.30182036132812606,1.734337551097044,0.8147100768833156,-3.4890848155649,-0.6457391558553096,3.6406653810787803
250,1791286237.3521123,0.3523552734375,-1.7046312011718752,-0.34493071289062605,1.7745137270314706,0.8237798485239234,-3.5318207684310514,-0.6537724452180582,3.6850766056191286
251,1791286237.3721123,0.46252617187500006,-1.733371435546875,-0.34014067382812607,1.8259799208182514,0.831163297847706,-3.5660084531328726,-0.6602570935204013,3.7206435122231456
252,1791286237.3818114,0.43378593750000005,-1.7525315917968751,-0.33056059570312607,1.8354311556826228,0.8348588542441411,-3.582636801723505,-0.6634180362216502,3.737967261809238
253,1791286237.4018114,0.34756523437500003,-1.637570654296875,-0.32577055664062604,1.7054517570234544,0.8425082188702508,-3.616867074561364,-0.6699428337128428,3.773641601206081
254,1791286237.4276495,0.33798515625000003,-1.6279905761718751,-0.3497207519531261,1.699085602992513,0.8522366542012515,-3.6607842866004043,-0.6784168641993935,3.8194107332695593
255,1791286237.4476495,0.49126640625,-1.7860618652343752,-0.38325102539062605,1.8916239099824395,0.8598812722155742,-3.6948003191021637,-0.685091737601375,3.8549054319495566
256,1791286237.4725246,0.5247966796875,-1.7860618652343752,-0.3688809082031261,1.897762278551316,0.869858733018143,-3.737426202176597,-0.6935515889803525,3.8994900485449735
257,1791286237.4925246,0.3619353515625,-1.680681005859375,-0.34014067382812607,1.7525357400519406,0.8780075455109897,-3.771757348419422,-0.7003966836728561,3.935429615662066
258,1791286237.5020833,0.26134453125,-1.680681005859375,-0.29703032226562603,1.7266199986725466,0.8817647830922299,-3.788113940267548,-0.7036342520247872,3.9525204006777117
259,1791286237.5220833,0.37630546875000004,-1.6998411621093752,-0.25391997070312605,1.7594149975870914,0.8894034552988643,-3.8222747043218104,-0.7102186498366947,3.9881365262703583
260,1791286237.5472133,0.46252617187500006,-1.719001318359375,-0.27308012695312606,1.8009632833368223,0.8991427568778226,-3.865203009724729,-0.7182442321467575,4.032880704985339
261,1791286237.5672133,0.39546562500000004,-1.723791357421875,-0.3497207519531261,1.8028184347919374,0.9070181933368937,-3.89940736584816,-0.7246075844770102,4.06855207160442
262,1791286237.5919263,0.29966484375,-1.7142112792968751,-0.3976211425781261,1.7850551536783044,0.9165782140132672,-3.941704640224743,-0.7326762280929067,4.112659182133315
263,1791286237.6119263,0.3427751953125,-1.6998411621093752,-0.40241118164062606,1.7801375143601348,0.9241181664969449,-3.9759218104836194,-0.7394266575001953,4.148337065686795
264,1791286237.6370704,0.4194158203125,-1.719001318359375,-0.33056059570312607,1.8000404079579109,0.9336128958541164,-4.018934422374708,-0.7480225806819253,4.193209357027561
265,1791286237.6570704,0.3810955078125,-1.6711009277343751,-0.30661040039062604,1.7412128055976548,0.9412330699887678,-4.053100496411815,-0.7547900596362189,4.228859345045639
266,1791286237.6823397,0.38588554687500004,-1.6327806152343751,-0.33535063476562604,1.710947176569128,0.9508702967236977,-4.096054481276359,-0.7632746013017859,4.27368748878155
267,1791286237.7023396,0.45773613281250003,-1.690261083984375,-0.33056059570312607,1.7820704831026697,0.9586192037608317,-4.129936472513328,-0.7699814702786141,4.309083140226851
268,1791286237.7119875,0.43378593750000005,-1.685471044921875,-0.2778701660156261,1.762439988199412,0.9624416130767873,-4.146271876846198,-0.7731717671052498,4.326159834860034
269,1791286237.7319875,0.38588554687500004,-1.7046312011718752,-0.32098051757812607,1.776992875607668,0.9704063940207455,-4.180140818394154,-0.7796915035911153,4.361557596998287
270,1791286237.7575154,0.4385759765625,-1.771691748046875,-0.39283110351562606,1.8669645988085704,0.980626207356965,-4.2235423127648115,-0.7881316817945119,4.406936461320753
271,1791286237.7775154,0.45294609375000006,-1.723791357421875,-0.3593008300781261,1.8181622299070468,0.9887692308590024,-4.257688150224356,-0.7948804971789531,4.4426802699777825
272,1791286237.7876987,0.3810955078125,-1.6998411621093752,-0.29703032226562603,1.7671787614221262,0.9929304666220037,-4.275080999295878,-0.7983026042821854,4.460887300760977
273,1791286237.8076987,0.3715154296875,-1.7046312011718752,-0.2874502441406261,1.7681682299377124,1.001006118459709,-4.3092231978346724,-0.8048921648321298,4.49658417189742
274,1791286237.8320808,0.4481560546875,-1.7477415527343751,-0.3880410644531261,1.8455406395442353,1.0108733380831176,-4.3509159497530225,-0.8129557796397027,4.540179688857275
275,1791286237.8520808,0.520006640625,-1.766901708984375,-0.4072012207031261,1.8863089327170455,1.0192053193397719,-4.385257419125513,-0.8197708500242724,4.576165027784222
276,1791286237.8768265,0.39546562500000004,-1.728581396484375,-0.32577055664062604,1.8029179572022838,1.0296670591244341,-4.427861478706427,-0.8282985569900135,4.620849491897563
277,1791286237.8968265,0.29966484375,-1.651940771484375,-0.31619047851562604,1.7084155670609082,1.037896836316617,-4.462200705453323,-0.8351199241021343,4.656811169267714
278,1791286237.9073896,0.3810955078125,-1.6663108886718752,-0.35451079101562605,1.7457100746480918,1.0421307826800494,-4.480245576161975,-0.838713618598579,4.67569005869198
279,1791286237.9273896,0.46731621093750003,-1.685471044921875,-0.33056059570312607,1.7800189301540097,1.0502173816863458,-4.514314102424156,-0.8455248057402852,4.7113586746568
280,1791286237.9676416,0.43378593750000005,-1.6279905761718751,-0.29703032226562603,1.7107748443387896,1.066771545723133,-4.582598485456741,-0.8590714070315502,4.782908538959752
281,1791286237.9876416,0.3331951171875,-1.642360693359375,-0.27308012695312606,1.6979223742404168,1.0749134881336146,-4.616343177445131,-0.8656478322570121,4.818237178513221
282,1791286237.997153,0.3523552734375,-1.675890966796875,-0.34014067382812607,1.7459840919386498,1.0786938142279214,-4.632351169709439,-0.8687437199223753,4.834973976689694
283,1791286238.017153,0.4289958984375,-1.7429515136718752,-0.34014067382812607,1.826913555119544,1.0866224691740374,-4.666090735332982,-0.8752974639714652,4.870246070919728
284,1791286238.0273292,0.41462578125000005,-1.733371435546875,-0.34493071289062605,1.8153424659667503,1.0906953819620848,-4.68333587434159,-0.8786547363594823,4.888280420951244
285,1791286238.0473292,0.318825,-1.685471044921875,-0.33535063476562604,1.7478335367341897,1.0985996268991316,-4.717273276867881,-0.8852837026683482,4.923750150351348
286,1791286238.0724633,0.29966484375,-1.6711009277343751,-0.30182036132812606,1.7243760784024584,1.1082088272638535,-4.759852527851637,-0.8935658658131231,4.968177014586688
287,1791286238.0924633,0.4098357421875,-1.7094212402343751,-0.2874502441406261,1.7812113729131964,1.1157724678935652,-4.793722704776724,-0.9000515912817847,5.003480632256913
288,1791286238.1175349,0.47689628906250003,-1.7764817871093752,-0.33535063476562604,1.8696998846581265,1.1254992523410388,-4.836367692221181,-0.9081335200846452,5.047960728024971
289,1791286238.1375349,0.43378593750000005,-1.728581396484375,-0.37367094726562605,1.8209321406013506,1.1334605869947434,-4.870541006932147,-0.9146770584578567,5.083653875289622
290,1791286238.1471913,0.3810955078125,-1.690261083984375,-0.3497207519531261,1.7676314441799121,1.137318071258586,-4.887041724485648,-0.9178864212419137,5.1009003807539015
291,1791286238.1671913,0.4002556640625,-1.685471044921875,-0.32098051757812607,1.7618302223962647,1.145281134037899,-4.921154557734165,-0.9245425021983168,5.13655622917359
292,1791286238.1917715,0.4194158203125,-1.7142112792968751,-0.34014067382812607,1.7972550231921145,1.1551109159622437,-4.96305828690815,-0.932714640592214,5.1803653720753955
293,1791286238.2117715,0.4289958984375,-1.7429515136718752,-0.35451079101562605,1.8296435064880272,1.1631819253306708,-4.997225139003732,-0.9394085640019367,5.216103884263332
294,1791286238.237592,0.40504570312500005,-1.6998411621093752,-0.36409086914062605,1.7849605483071478,1.173653977698787,-5.041385982296517,-0.9481458870368785,5.2623204867215145
295,1791286238.257592,0.3523552734375,-1.685471044921875,-0.30661040039062604,1.748993087355394,1.1816847843767007,-5.0755390528788045,-0.9549045138881808,5.298048531069653
296,1791286238.2827952,0.34756523437500003,-1.6711009277343751,-0.2874502441406261,1.7308979015751749,1.1916099074879904,-5.118466445469118,-0.9632668558051884,5.342893968675555
297,1791286238.3027952,0.3810955078125,-1.6567308105468752,-0.2778701660156261,1.7225569929182967,1.19939755318011,-5.152413406995505,-0.9697553701112297,5.3783216606131905
298,1791286238.3121457,0.3810955078125,-1.680681005859375,-0.33056059570312607,1.7547628720037798,1.203026867205581,-5.168244365025328,-0.9727605810059461,5.394838886175708
299,1791286238.3321457,0.3906755859375,-1.728581396484375,-0.38325102539062605,1.8131470999845676,1.2107828893728823,-5.202140129462512,-0.9792949974839651,5.430218763904406
300,1791286238.3575242,0.3523552734375,-1.7381614746093752,-0.32098051757812607,1.8023285059056728,1.2205626986289677,-5.245298166419517,-0.9876833501334583,5.475257487649255
301,1791286238.3775241,0.39546562500000004,-1.680681005859375,-0.28266020507812606,1.7495652304352443,1.2282355183649587,-5.279336208000704,-0.994207820620282,5.510753349249359
302,1791286238.4042404,0.4385759765625,-1.719001318359375,-0.31140043945312607,1.8011897882873475,1.2386187358261336,-5.324796397163758,-1.0028063012879715,5.558169979578758
303,1791286238.4242404,0.38588554687500004,-1.757321630859375,-0.37367094726562605,1.837584541294267,1.2464624412189937,-5.35893795248666,-1.0093052639142157,5.593798504749387
304,1791286238.4323099,0.33798515625000003,-1.733371435546875,-0.3593008300781261,1.8021952130415844,1.2495905734639092,-5.372759575242773,-1.0119777183686691,5.60821905395353
305,1791286238.4523098,0.3619353515625,-1.7046312011718752,-0.32098051757812607,1.7719461683087503,1.25723046463703,-5.407034477415759,-1.018628178039332,5.6439572682887915
306,1791286238.47763,0.40504570312500005,-1.690261083984375,-0.31140043945312607,1.7657901311717823,1.2669082766877813,-5.450364726139356,-1.0269856534804582,5.689132777668212
307,1791286238.49763,0.39546562500000004,-1.7477415527343751,-0.3784609863281261,1.831454698834635,1.2746067638195355,-5.4846138255319214,-1.0336316866956103,5.724858573041924
308,1791286238.5222178,0.3715154296875,-1.7094212402343751,-0.34493071289062605,1.7830092225660394,1.2840659531733227,-5.526778956400672,-1.041910694308701,5.768855077043195
309,1791286238.5422177,0.3715154296875,-1.7046312011718752,-0.30182036132812606,1.7705611474944316,1.2917205552642912,-5.561052882847419,-1.0486049025296986,5.8046036385206525
310,1791286238.5525393,0.35714531250000003,-1.6615208496093752,-0.30661040039062604,1.726908870078292,1.2956424648179032,-5.57869360684882,-1.0520124443374195,5.822992524362032
311,1791286238.5725393,0.3523552734375,-1.7046312011718752,-0.34493071289062605,1.7745137270314706,1.3031662062528706,-5.612797581739173,-1.0586020689963542,5.858530293100819
312,1791286238.5979786,0.33798515625000003,-1.7046312011718752,-0.29224028320312606,1.7622161845189852,1.312617778742265,-5.656174449509729,-1.0669422584095094,5.903697199140294
313,1791286238.6179786,0.39546562500000004,-1.7094212402343751,-0.25391997070312605,1.7728478188053667,1.320034040260137,-5.690282450563824,-1.073334894070422,5.939179407078835
314,1791286238.6424637,0.4002556640625,-1.6998411621093752,-0.32577055664062604,1.7764546232846499,1.3292127864403613,-5.732036570594012,-1.0810517212411266,5.982618381800907
315,1791286238.6624637,0.44336601562500005,-1.7094212402343751,-0.4263613769531261,1.8167218895948227,1.336851010375754,-5.76614029549967,-1.0875377020480905,6.018162741626695
316,1791286238.6720235,0.45294609375000006,-1.7860618652343752,-0.43115141601562607,1.8923711828867398,1.3405970284709008,-5.782502690625587,-1.0907877509603947,6.035259371185501
317,1791286238.6920235,0.42420585937500005,-1.7381614746093752,-0.33535063476562604,1.820334027364766,1.3485741687887296,-5.816885698547442,-1.0977169518414636,6.071226731481052
318,1791286238.717787,0.39546562500000004,-1.6663108886718752,-0.31140043945312607,1.7406766707101853,1.3588925620787844,-5.86111172028799,-1.1065537757664534,6.117489750840068
319,1791286238.737787,0.40504570312500005,-1.680681005859375,-0.32098051757812607,1.7583455740386267,1.3669018919513736,-5.895314624688984,-1.1133333007671662,6.153264689974678
320,1791286238.7628963,0.47210625000000006,-1.7142112792968751,-0.32577055664062604,1.8076313443099052,1.3771008651724994,-5.9382073638863,-1.1217860025706932,6.198154348266575
321,1791286238.7828963,0.5056365234375,-1.6663108886718752,-0.31619047851562604,1.769812614443788,1.385472586440604,-5.972318224267703,-1.1284717568513316,6.2339046965533305
322,1791286238.791948,0.46252617187500006,-1.6663108886718752,-0.31619047851562604,1.757981472052461,1.3893504742761043,-5.987703202488799,-1.131473092875731,6.250049259115293
323,1791286238.811948,0.4481560546875,-1.7094212402343751,-0.31619047851562604,1.7952552032013263,1.397999471188713,-6.021660981192561,-1.138058405825692,6.285696495133327
324,1791286238.837884,0.4289958984375,-1.7429515136718752,-0.31619047851562604,1.8226063421900023,1.4092392841652475,-6.065807362535237,-1.146547342381317,6.332025357477884
325,1791286238.857884,0.4385759765625,-1.771691748046875,-0.33056059570312607,1.854861408501117,1.4179079086797106,-6.100015588576916,-1.153081641625088,6.367907842504526
326,1791286238.882728,0.46252617187500006,-1.8195921386718752,-0.3497207519531261,1.9097514537584441,1.4287399555607183,-6.142826994202917,-1.1612486427403972,6.412809037511573
327,1791286238.902728,0.3810955078125,-1.8722825683593751,-0.34493071289062605,1.9415594244195773,1.4374173722287151,-6.177659126886107,-1.1678790080386643,6.449308673602272
328,1791286238.9128046,0.41462578125000005,-1.886652685546875,-0.29224028320312606,1.9536574104701807,1.4417348565059553,-6.195416854033172,-1.171200014512529,6.467882100479003
329,1791286238.9328046,0.48168632812500006,-1.8722825683593751,-0.23954985351562605,1.948036926447823,1.4503633006064702,-6.231014105278547,-1.1776005301301344,6.505062143630073
330,1791286238.9569902,0.4289958984375,-2.0111937011718752,-0.16290922851562606,2.0628807530357105,1.4608843129323112,-6.274648546577005,-1.1849095955568523,6.550527315298772
331,1791286238.9769902,0.41462578125000005,-2.049514013671875,-0.09105864257812606,2.0930155057005058,1.469544913839191,-6.311410043886763,-1.1904280543741348,6.588670423424315
332,1791286239.0177486,0.45773613281250003,-2.169264990234375,-0.12937895507812605,2.2208043315780417,1.4872137914458778,-6.3879857939646625,-1.2006611585357636,6.667814828186039
333,1791286239.0377486,0.48168632812500006,-2.279435888671875,-0.26350004882812605,2.3446283212910974,1.4959924683283448,-6.426597958825625,-1.2055186206440656,6.70763966939164
334,1791286239.0473156,0.5343767578125,-2.3608665527343753,-0.40241118164062606,2.4538101308413203,1.5002909205018096,-6.445627160911857,-1.2079714681562805,6.727271171248002
335,1791286239.0673156,0.500846484375,-2.293806005859375,-0.39283110351562606,2.3804851331853856,1.5094818271308783,-6.4864228321737185,-1.213522882828803,6.769405759099688
336,1791286239.0778613,0.5631169921875,-2.2315354980468753,-0.4263613769531261,2.3406485104968193,1.5144426565438407,-6.508286433767899,-1.2166589171919386,6.792023835699452
337,1791286239.0978613,0.6014373046875,-2.183635107421875,-0.4790518066406261,2.315055020357131,1.524186468501654,-6.550153860761806,-1.2230724021895358,6.835463853420191
338,1791286239.1226623,0.47210625000000006,-2.135734716796875,-0.3497207519531261,2.215073745085511,1.5364537495810777,-6.602318335436335,-1.231374078820759,6.8896719551102175
339,1791286239.1426623,0.39546562500000004,-2.0016136230468753,-0.25391997070312605,2.0560460860703866,1.546163777018894,-6.644280759304481,-1.237969965956466,6.933228603647748
340,1791286239.1677635,0.41462578125000005,-1.877072607421875,-0.20122954101562607,1.932824213473147,1.558047516683983,-6.696348302215691,-1.2458633268128507,6.987185991365142
341,1791286239.1877635,0.28529472656250005,-1.6615208496093752,-0.13416899414062605,1.6911670330513597,1.5671457568262301,-6.736919358811593,-1.2517122676653514,7.029140194312018
342,1791286239.2125986,0.15596367187500002,-1.522609716796875,-0.03836821289062605,1.5310575222340321,1.577570789704231,-6.78567269931614,-1.2582071583177472,7.079348051340211
343,1791286239.2325985,0.07453300781250001,-1.417228857421875,0.028692333984373954,1.4194773874889173,1.5850526168182741,-6.823454803963007,-1.2626675166173678,7.118023357458795
344,1791286239.2422273,0.06974296875000001,-1.3549583496093751,0.023902294921873957,1.3569626120747607,1.5882185443318348,-6.840918075965323,-1.2644548172248495,7.135786169121925
345,1791286239.2622273,0.01705253906250001,-1.216047216796875,0.10054291992187396,1.2203157383703285,1.5939383092539747,-6.875606686562607,-1.2674237003641762,7.170841615755899
346,1791286239.2876441,-0.02605781249999999,-1.096296240234375,0.24903413085937395,1.1245276582980053,1.6000997312731364,-6.917485857048379,-1.2699643529075793,7.212817701158173
347,1791286239.3076441,-0.0787482421875,-0.9765452636718751,0.14365327148437396,0.9901909917060225,1.6040635707845945,-6.9486058725916084,-1.2710746301192877,7.2437403478497
348,1791286239.3167017,-0.01647773437499999,-0.8376341308593751,-0.019208056640626046,0.838016349691689,1.6055247428095438,-6.961817766067513,-1.2714174884362537,7.256798105060417
349,1791286239.3367016,-0.41884101562500003,-0.708303076171875,-0.043158251953126045,0.8240046594504015,1.6076142263499722,-6.988933957418666,-1.2721545455977794,7.283405697186423
350,1791286239.3611085,-0.3374103515625,-0.5023313964843751,0.11491303710937396,0.615944464487808,1.6083973045464135,-7.019277526446711,-1.272787742613429,7.3128098238843195
351,1791286239.3811085,-0.303880078125,-0.38737045898437505,0.21550385742187397,0.5374391937128599,1.6079808021036033,-7.0417470836889775,-1.2727331542796747,7.334279373774812
352,1791286239.40755,-0.4859015625,-0.11433823242187503,0.009532177734373955,0.4992638803735554,1.6059465197657972,-7.067992600001696,-1.2722255366337707,7.358949750751781
353,1791286239.42755,-0.3374103515625,0.331135400390625,-0.07189848632812605,0.47819012021335733,1.6034036594260563,-7.084541337638909,-1.2719927252651129,7.374252148720081
354,1791286239.4367235,-0.4427912109375,0.575427392578125,-0.09105864257812606,0.7317598082710803,1.601875493339908,-7.090369467836965,-1.2720140744304214,7.3795232970800155
355,1791286239.4567235,-0.706243359375,0.776609033203125,-0.05752836914062605,1.0512900581523437,1.5973199704891703,-7.099142011616569,-1.2722765186627991,7.387011298838225
356,1791286239.4821916,-0.65834296875,0.719128564453125,-0.05752836914062605,0.9766631302403894,1.5897825842007884,-7.105780354890795,-1.2727803580188661,7.391853147671342
357,1791286239.5021915,-0.5625421875000001,0.786189111328125,-0.14853911132812606,0.9780648746797636,1.5829200470441342,-7.107953479792969,-1.2734257721040874,7.392580858082925
358,1791286239.52667,-0.6439728515625001,1.020901025390625,-0.22996977539062605,1.2287497852640228,1.573565692827914,-7.106896651151161,-1.2747921165479457,7.389802699680241
359,1791286239.54667,-0.84994453125,1.3178834472656251,-0.2587100097656261,1.5893877298920613,1.5648283305873174,-7.102654522802643,-1.2764740455735146,7.384157024570939
360,1791286239.5566885,-1.051126171875,1.384943994140625,-0.35451079101562605,1.7744334298736892,1.5596795928044567,-7.0988173770401195,-1.2776509651869032,7.379579972709861
361,1791286239.5766885,-1.051126171875,1.1933424316406251,-0.3976211425781261,1.6392177894897575,1.5477896102423903,-7.0884389116565805,-1.2807762115076937,7.3676323595728785
362,1791286239.601746,-0.9313751953125,1.087961572265625,-0.44073149414062607,1.4984539989928012,1.531401660472199,-7.0730991029326065,-1.2856799634235772,7.350298969018328
363,1791286239.621746,-0.9888556640625,1.169392236328125,-0.40241118164062606,1.5834293434954356,1.517403117696384,-7.059305974378216,-1.2902715652903292,7.3349242513937005
364,1791286239.6470287,-1.1133966796875001,1.298723291015625,-0.4263613769531261,1.7629856428011466,1.498375225677822,-7.039805053968423,-1.2967768142969305,7.3133859204135065
365,1791286239.6670287,-0.7637238281250001,1.159812158203125,-0.35451079101562605,1.433218834968415,1.4827652312637398,-7.023004874634715,-1.302322237785039,7.2950142845108275
366,1791286239.692135,-0.8834748046875001,1.006530908203125,-0.29224028320312606,1.3707795529597264,1.463007342186584,-7.000999489577188,-1.3094571601677565,7.271111496234018
367,1791286239.712135,-0.8212042968750001,1.145442041015625,-0.20601958007812607,1.424379876966665,1.447071928754679,-6.982871318887642,-1.3150357245532922,7.251470745992486
368,1791286239.722261,-0.7158234375,1.246032861328125,-0.15332915039062606,1.4451681263933904,1.4390468403458392,-6.973253675212608,-1.3177093644321833,7.241096643236283
369,1791286239.742261,-0.7110333984375,1.178972314453125,-0.06710844726562605,1.3784221978896534,1.423433512436114,-6.9534694400021255,-1.3225287024762817,7.219832573283351
370,1791286239.766673,-0.380520703125,1.006530908203125,-0.08147856445312605,1.0791381890843705,1.4052358710883284,-6.928941484815739,-1.3278009001260864,7.193606410123475
371,1791286239.786673,-0.2511896484375,1.107121728515625,-0.047948291015626046,1.13627188640963,1.3916159468976435,-6.908690384993234,-1.3316664602202735,7.172163783728965
372,1791286239.8124294,-0.3565705078125,1.1981324707031251,0.03348237304687396,1.2505138998426564,1.375532920536044,-6.882069471763207,-1.3359258255001827,7.144205263071035
373,1791286239.8324294,-0.46674140625,1.226872705078125,0.08617280273437396,1.3154808728009089,1.3636826651547156,-6.8608613515458075,-1.3385576541035495,7.12199308408381
374,1791286239.8414686,-0.2990900390625,1.135861962890625,0.019112255859373956,1.1747350886613481,1.35861102826327,-6.851112151994165,-1.339497333397281,7.111808121110912
375,1791286239.8614686,0.01705253906250001,0.953840478515625,-0.02878813476562605,0.9544271602624679,1.3486497287421457,-6.8296422506356,-1.3412791050460442,7.089562680457539
376,1791286239.8870547,0.007472460937500011,1.016110986328125,0.043062451171873954,1.0170505144338247,1.3378647597018694,-6.802515375963454,-1.3431892321673997,7.061745879659067
377,1791286239.9070547,-0.002107617187499989,1.068801416015625,0.09096284179687396,1.072667305139379,1.3307070374009868,-6.781364320888522,-1.3442573246998415,7.040220950156147
378,1791286239.9317713,0.270924609375,0.8484596191406251,0.09575288085937396,0.895797121825093,1.32368647517428,-6.755591928161132,-1.3450331865998684,7.014220017753232
379,1791286239.9517713,0.318825,0.642487939453125,0.07180268554687395,0.7208299096315757,1.3197423857204864,-6.735629366175861,-1.3453154880252858,6.99430458912668
380,1791286239.962315,0.500846484375,0.5706373535156251,-0.014418017578126047,0.7593958581458006,1.3186231736413407,-6.725724560931367,-1.3453966119052891,6.984570852021306
381,1791286239.982315,0.9223699218750001,0.637697900390625,-0.13416899414062605,1.1293476895673062,1.3189534717303335,-6.707942375471233,-1.3457502896082918,6.967580140566231
382,1791286240.0071318,1.2433025390625,0.431726220703125,-0.21080961914062607,1.332902632904624,1.3233327130438715,-6.687196801850141,-1.3467654116979482,6.948639263210658
383,1791286240.0271318,1.209772265625,0.211384423828125,-0.19164946289062607,1.242964933511344,1.3300121918654273,-6.67202099335433,-1.3480644791981542,6.935565903828423
384,1791286240.0524263,1.1954021484375001,0.048523095703124984,-0.27308012695312606,1.2271566905013969,1.3417555929485998,-6.65521364163422,-1.3503426357092128,6.922109643802038
385,1791286240.0724263,1.5833953125,-0.20534897460937504,-0.38325102539062605,1.6420079979960698,1.353816303066873,-6.644152976818643,-1.352858237429708,6.91431940051941
386,1791286240.0819159,1.9953386718750001,-0.535861669921875,-0.46468168945312605,2.1176527612628946,1.3612274953732695,-6.640219678807853,-1.354476280503912,6.9123124691694136
387,1791286240.1019158,2.0001287109375,-0.727463232421875,-0.4982119628906261,2.1858482963850716,1.3804974352709498,-6.635068376695426,-1.3588192550284497,6.9120398798075104
388,1791286240.141781,1.8755876953125001,-0.8951145996093751,-0.4982119628906261,2.1371182721620343,1.4247339938989918,-6.631191990442276,-1.3691566501221093,6.919332634008194
389,1791286240.161781,2.1917302734375,-1.211257177734375,-0.603592822265626,2.575878459323352,1.4496990303151962,-6.632698514081766,-1.3752175941114626,6.927159611872171
390,1791286240.1723397,2.36896171875,-1.417228857421875,-0.6514932128906261,2.8363639868068447,1.4645134603957886,-6.635456039203052,-1.3789312859241998,6.933651852752434
391,1791286240.1923397,2.3737517578125003,-1.5800901855468752,-0.6179629394531261,2.917749234721353,1.4954796393813692,-6.644391793308094,-1.386814733537773,6.950370980022694
392,1791286240.2026255,2.474342578125,-1.6711009277343751,-0.546112353515626,3.0353234106531937,1.512756489979649,-6.650806147168402,-1.3911589897306524,6.961104649399904
393,1791286240.2226255,2.6659441406249997,-1.757321630859375,-0.622752978515626,3.253192085854923,1.5490212914049708,-6.666550123158985,-1.4000922715405262,6.985886906803209
394,1791286240.2472773,2.6228337890624998,-1.7094212402343751,-0.6610732910156261,3.199749358575857,1.5967942904412278,-6.689454703289988,-1.4118253240844045,7.020812415887514
395,1791286240.2672772,2.4216521484375,-1.532189794921875,-0.5988027832031261,2.9275534954747635,1.6373055165906205,-6.710112230804068,-1.4218063094337028,7.051801804233434
396,1791286240.2917135,2.3450115234375,-1.297477880859375,-0.5173721191406261,2.729505780546739,1.6881140344264522,-6.736751901918887,-1.434217605352485,7.091582004090365
397,1791286240.3117135,2.4408123046875003,-1.206467138671875,-0.5700625488281261,2.78174387264274,1.7306396146010887,-6.759040702341115,-1.4444831393570108,7.125045700303764
398,1791286240.3221517,2.36896171875,-1.254367529296875,-0.6898135253906261,2.7678981598442425,1.7532703913138854,-6.770855053071512,-1.4500234907305096,7.142898804997329
399,1791286240.3421516,2.1438298828125,-1.0627659667968752,-0.6802334472656261,2.4876084115874093,1.7968967599683152,-6.7935719695154715,-1.4611017480105977,7.1774839873740275
400,1791286240.3672276,2.0911394531250003,-0.890324560546875,-0.48384184570312605,2.323713615569337,1.8513552509238869,-6.821455171997723,-1.4750974179545142,7.220504090515704
401,1791286240.3872275,2.186940234375,-0.794523779296875,-0.48384184570312605,2.3765686517013935,1.8946919964419942,-6.8428856022755875,-1.4860371775753,7.254188281286049
402,1791286240.4119022,2.206100390625,-0.828054052734375,-0.5748525878906261,2.4254912792195626,1.948267862653803,-6.868361873927249,-1.4994686357310743,7.295104432796577
403,1791286240.4319022,2.1150896484375,-0.7849437011718751,-0.5413223144531261,2.320079887215472,1.9916615616229416,-6.888333638889344,-1.5103967069294355,7.327834216806773
404,1791286240.45698,2.0671892578125,-0.612502294921875,-0.503002001953126,2.2139199404831267,2.045777111475507,-6.912248080347006,-1.524008139838362,7.367969755936267
405,1791286240.47698,2.1725701171875,-0.612502294921875,-0.5413223144531261,2.3212603954544955,2.0888210924982755,-6.9302969276103195,-1.5348016684934571,7.399175982697061
406,1791286240.487055,2.071979296875,-0.7418333496093751,-0.622752978515626,2.2871895849538504,2.1104594906180445,-6.939048675829745,-1.5403029817524916,7.414645579032752
407,1791286240.507055,2.0767693359375,-1.201677099609375,-0.5365322753906261,2.4586308403157493,2.153193679263216,-6.956731007171096,-1.551324427011382,7.445734134683902
408,1791286240.5323243,2.0671892578125,-1.172936865234375,-0.3688809082031261,2.4052287712144973,2.2069414579756375,-6.980221215543216,-1.5648767877654464,7.486181815701403
409,1791286240.5523243,2.3258513671875,-0.650822607421875,-0.39283110351562606,2.446930919431253,2.2496900060932266,-6.998759966455219,-1.5751367496010937,7.518297810775781
410,1791286240.5769813,2.2971111328125002,-0.353840185546875,-0.5796426269531261,2.3953930801394776,2.303036367075484,-7.0200450664949186,-1.587686781684468,7.556835221203878
411,1791286240.5969813,2.0288689453125,-0.483171240234375,-0.608382861328126,2.172531553418932,2.3463054285855445,-7.0359757738095885,-1.598121543467544,7.58710067954423
412,1791286240.6073287,1.8707976562500002,-0.607712255859375,-0.40241118164062606,2.007768118001078,2.368359927938955,-7.043828100070314,-1.6034947999301312,7.602357438650866
413,1791286240.6273286,1.9618083984375,-0.5406517089843751,-0.22038969726562604,2.0468434432727065,2.41034279865467,-7.058451455540757,-1.6132568769215647,7.631126201825428
414,1791286240.6524806,2.0576091796875002,-0.483171240234375,-0.11021879882812605,2.116449424706153,2.462803013514838,-7.0760145697801535,-1.624315802492339,7.666406113776201
415,1791286240.6724806,2.0863494140625,-0.44006088867187504,-0.047948291015626046,2.1327931221543586,2.504476322094347,-7.0892701639955655,-1.6320276789576766,7.693742096725943
416,1791286240.6976395,2.234840625,-0.363420263671875,-0.3688809082031261,2.2940488293919308,2.5571893769138363,-7.104959856218116,-1.6410601516946632,7.7274025706800105
417,1791286240.7176394,2.06239921875,-0.674772802734375,-0.526952197265626,2.2330444444779163,2.599253708026425,-7.1171187486454714,-1.6485071875397401,7.754165014260413
