imu_index,t_imu,ax,ay,az,mag
0,1790490987.7159603,-0.10835068359375001,-0.07932304687500001,0.28361821289062517,0.3138013815840178
1,1790490987.7359602,-0.07003037109375,-0.06974296875000001,0.26445805664062516,0.2823232159914022
2,1790490987.7455854,0.06888076171875,-0.09369316406250001,0.21176762695312518,0.2415957287543713
3,1790490987.7655854,0.08325087890625,-0.16554375000000002,0.19260747070312517,0.2672696761201705
4,1790490987.7910237,0.01140029296875,-0.22302421875000003,0.21655766601562518,0.3110739325931317
5,1790490987.8110237,0.040140527343749996,-0.251764453125,0.24529790039062518,0.35379042062895616
6,1790490987.8361375,0.11678115234375,-0.25655449218750004,0.2500879394531252,0.3768315571501811
7,1790490987.8561375,0.11199111328125,-0.20865410156250003,0.2596680175781252,0.35143423695733084
8,1790490987.8662474,0.04972060546875,-0.16554375000000002,0.2692480957031252,0.31995532314996866
9,1790490987.8862474,0.09283095703125,-0.1415935546875,0.26445805664062516,0.3140133516819244
10,1790490987.9111567,0.10720107421875,-0.17033378906250002,0.24529790039062518,0.31729596585221703
11,1790490987.9311566,0.06888076171875,-0.18949394531250002,0.21655766601562518,0.29588804868596336
12,1790490987.9858332,0.020980371093750002,-0.16554375000000002,0.22134770507812518,0.27719977575504395
13,1790490988.0058331,0.06409072265625,-0.18470390625000002,0.21655766601562518,0.2917539655681551
14,1790490987.986843,0.07846083984375,-0.16075371093750002,0.2596680175781252,0.315317836986932
15,1790490988.006843,0.02577041015625,-0.14638359375,0.29319829101562517,0.32872101912300894
16,1790490988.0311096,-0.03171005859375,-0.10806328125000002,0.29319829101562517,0.31408348957724425
17,1790490988.0511096,0.05930068359375,-0.20865410156250003,0.26445805664062516,0.3420397183013637
18,1790490988.0764763,0.12636123046875,-0.251764453125,0.24529790039062518,0.3735285268342379
19,1790490988.0964763,0.07846083984375,-0.22302421875000003,0.2548779785156252,0.3476473636750982
20,1790490988.1057727,0.01619033203125,-0.19428398437500002,0.26445805664062516,0.3285520615641355
21,1790490988.1257727,0.07846083984375,-0.24697441406250004,0.2596680175781252,0.36685139217870677
22,1790490988.165486,0.12636123046875,-0.270924609375,0.2500879394531252,0.3897579787387077
23,1790490988.185486,0.04972060546875,-0.22781425781250003,0.24529790039062518,0.3384413311149931
24,1790490988.1958063,0.0018202148437499997,-0.18470390625000002,0.24529790039062518,0.3070666150888684
25,1790490988.2158062,0.03056044921875,-0.17033378906250002,0.23092778320312518,0.2885743956208687
26,1790490988.2413547,0.08325087890625,-0.16554375000000002,0.23571782226562518,0.2998305083482574
27,1790490988.2613547,0.08804091796875,-0.17512382812500002,0.22613774414062518,0.29926215554083274
28,1790490988.2719288,0.03535048828125,-0.18949394531250002,0.2500879394531252,0.3157555855273657
29,1790490988.2919288,0.020980371093750002,-0.20386406250000003,0.2884082519531252,0.35380793058507426
30,1790490988.3158422,0.04493056640625,-0.18949394531250002,0.30277836914062517,0.3600020165598241
31,1790490988.3358421,0.06409072265625,-0.19428398437500002,0.2884082519531252,0.3536003494199107
32,1790490988.3614702,0.07367080078125,-0.19907402343750003,0.2692480957031252,0.34285914124477446
33,1790490988.3814702,0.09762099609375,-0.270924609375,0.2548779785156252,0.3845683122353476
34,1790490988.3912022,0.09762099609375,-0.3331951171875,0.2548779785156252,0.4307106092588611
35,1790490988.4112022,0.06409072265625,-0.26613457031250004,0.24050786132812518,0.36438888787481993
36,1790490988.4356055,0.020980371093750002,-0.20386406250000003,0.24050786132812518,0.31598221992837516
37,1790490988.4556055,0.01140029296875,-0.20386406250000003,0.2500879394531252,0.3228536822133012
38,1790490988.480503,0.03535048828125,-0.22781425781250003,0.26445805664062516,0.35083765021234414
39,1790490988.500503,0.0018202148437499997,-0.18949394531250002,0.24529790039062518,0.30997149615444197
40,1790490988.5105221,-0.07482041015625,-0.136803515625,0.21655766601562518,0.2668529901901872
41,1790490988.530522,-0.050870214843750004,-0.14638359375,0.21176762695312518,0.2624146777578806
42,1790490988.5558653,0.08325087890625,-0.21823417968750003,0.20697758789062518,0.3120842641203824
43,1790490988.5758653,0.12636123046875,-0.318825,0.27403813476562516,0.4389913900025825
44,1790490988.6163392,0.0066102539062499995,-0.18470390625000002,0.3075684082031252,0.3588280286785275
45,1790490988.6363392,-0.050870214843750004,-0.12243339843750002,0.2979883300781252,0.3261514382521632
46,1790490988.631512,0.08325087890625,-0.20865410156250003,0.2692480957031252,0.35065906515770623
47,1790490988.651512,0.27485244140625004,-0.309244921875,0.24529790039062518,0.4809858066393436
48,1790490988.6765091,0.20779189453125002,-0.251764453125,0.2788281738281252,0.4293110315500216
49,1790490988.6965091,0.04493056640625,-0.15117363281250001,0.3171484863281252,0.35419681737070424
50,1790490988.7213511,0.03535048828125,-0.10806328125000002,0.28361821289062517,0.30555952032216466
51,1790490988.7413511,0.16947158203125,-0.19428398437500002,0.2500879394531252,0.35918081958911724
52,1790490988.751033,0.22695205078125003,-0.24218437500000004,0.22134770507812518,0.3989427419960268
53,1790490988.771033,0.08325087890625,-0.18470390625000002,0.23571782226562518,0.3108200983789831
54,1790490988.7964318,-0.04129013671875001,-0.14638359375,0.24529790039062518,0.28862448240831406
55,1790490988.8164318,0.01140029296875,-0.18949394531250002,0.21176762695312518,0.28440015790295914
56,1790490988.841495,0.04972060546875,-0.23260429687500003,0.18781743164062517,0.3030714192413616
57,1790490988.861495,0.01140029296875,-0.22781425781250003,0.21176762695312518,0.31124721776714975
58,1790490988.8855104,0.0018202148437499997,-0.22302421875000003,0.22613774414062518,0.31761831599600193
59,1790490988.9055104,-0.01254990234375,-0.22781425781250003,0.20218754882812517,0.30485511478835875
60,1790490988.9162173,0.0066102539062499995,-0.23739433593750003,0.23092778320312518,0.33125127508738933
61,1790490988.9362173,0.04493056640625,-0.23739433593750003,0.28361821289062517,0.37257766601886516
62,1790490988.9616952,0.07367080078125,-0.18949394531250002,0.30277836914062517,0.36470547434512696
63,1790490988.9816952,0.10241103515625,-0.14638359375,0.2692480957031252,0.32312646700742265
64,1790490989.0056489,0.14552138671875,-0.16075371093750002,0.2548779785156252,0.33463564290872666
65,1790490989.0256488,0.14073134765625,-0.23739433593750003,0.2548779785156252,0.3756649662672345
66,1790490989.035571,0.12157119140625,-0.26613457031250004,0.2692480957031252,0.3976200461937418
67,1790490989.055571,0.14073134765625,-0.25655449218750004,0.2500879394531252,0.3849279116076676
68,1790490989.0815125,0.13594130859375,-0.21344414062500003,0.2596680175781252,0.3625822939723884
69,1790490989.1015124,0.09283095703125,-0.18470390625000002,0.27403813476562516,0.3432637744842434
70,1790490989.1261952,0.06409072265625,-0.17991386718750002,0.2884082519531252,0.34591319739440285
71,1790490989.1461952,0.11678115234375,-0.19907402343750003,0.27403813476562516,0.3582809004903155
72,1790490989.1561458,0.15989150390625,-0.21823417968750003,0.2692480957031252,0.3816883378425881
73,1790490989.1761458,0.10241103515625,-0.18470390625000002,0.24050786132812518,0.3200743420932271
74,1790490989.2014682,0.03535048828125,-0.17991386718750002,0.22134770507812518,0.28742557849195827
75,1790490989.2214682,0.06888076171875,-0.251764453125,0.27403813476562516,0.37845316552792696
76,1790490989.2465296,0.09762099609375,-0.20865410156250003,0.2788281738281252,0.36167878497019595
77,1790490989.2665296,0.06409072265625,-0.1415935546875,0.2692480957031252,0.3108872665443242
78,1790490989.2756886,0.01140029296875,-0.1272234375,0.2596680175781252,0.28938425852496413
79,1790490989.2956886,0.10241103515625,-0.19907402343750003,0.19260747070312517,0.29532376250485537
80,1790490989.3214748,0.15989150390625,-0.2805046875,0.20697758789062518,0.3835203966152211
81,1790490989.3414748,0.06409072265625,-0.24697441406250004,0.28361821289062517,0.3815013402537238
82,1790490989.365788,0.0018202148437499997,-0.18949394531250002,0.2884082519531252,0.34509504239677435
83,1790490989.385788,0.09283095703125,-0.22781425781250003,0.23092778320312518,0.33740860051443206
84,1790490989.3960047,0.16468154296875,-0.2805046875,0.20218754882812517,0.38299176910890187
85,1790490989.4160047,0.08804091796875,-0.22781425781250003,0.22613774414062518,0.3328495435244748
86,1790490989.4419832,0.01140029296875,-0.16554375000000002,0.26445805664062516,0.31220628367470754
87,1790490989.4619832,0.06409072265625,-0.17033378906250002,0.27403813476562516,0.32896522571969755
88,1790490989.4864523,0.14073134765625,-0.16075371093750002,0.22613774414062518,0.3111034347581725
89,1790490989.5064523,0.08804091796875,-0.15117363281250001,0.24529790039062518,0.30129011007757595
90,1790490989.5157714,0.04972060546875,-0.17033378906250002,0.2692480957031252,0.3224597267013768
91,1790490989.5357714,0.07846083984375,-0.18470390625000002,0.30277836914062517,0.36324423903546227
92,1790490989.561565,0.15510146484375,-0.17512382812500002,0.27403813476562516,0.36030781129425227
93,1790490989.581565,0.15510146484375,-0.16554375000000002,0.28361821289062517,0.3631810681244433
94,1790490989.6056683,0.06888076171875,-0.16554375000000002,0.3267285644531252,0.37269403983511423
95,1790490989.6256683,0.05451064453125,-0.15596367187500002,0.3602588378906252,0.39633635663442324
96,1790490989.652087,0.06409072265625,-0.17991386718750002,0.4847998535156252,0.5210638332351741
97,1790490989.672087,-0.026920019531250002,-0.18470390625000002,0.5614404785156252,0.5916549935151616
98,1790490989.6815743,-0.13230087890625,-0.27571464843750004,0.5327002441406252,0.6142407020296378
99,1790490989.7015743,0.02577041015625,-0.06974296875000001,0.20218754882812517,0.21542516248296142
100,1790490989.7408829,0.12157119140625,-0.012262500000000011,-0.018154248046874828,0.12352934958273087
101,1790490989.7608829,-0.02212998046875,0.09790839843749999,-0.04210444335937483,0.10885115833442614
102,1790490989.7710743,0.0018202148437499997,-0.05058281250000001,0.07285649414062517,0.08871303647689281
103,1790490989.7910743,0.04972060546875,-0.4194158203125,0.2548779785156252,0.49329965828976396
104,1790490989.8013175,0.12636123046875,-0.5535369140625,0.2788281738281252,0.6325467779664515
105,1790490989.8213174,0.12157119140625,-0.6397576171875,0.3458887207031252,0.7373658321613549
106,1790490989.846106,0.07846083984375,-0.6110173828125001,0.3746289550781252,0.7210029122485927
107,1790490989.866106,0.09283095703125,-0.6397576171875,0.43210942382812517,0.7775769733562331
108,1790490989.8917909,0.20300185546875002,-0.6924480468750001,0.3746289550781252,0.8130442207701163
109,1790490989.9117908,0.18384169921875002,-0.6684978515625001,0.3985791503906252,0.7997202554902736
110,1790490989.9209967,0.14552138671875,-0.6684978515625001,0.5374902832031252,0.8700354338037055
111,1790490989.9409966,0.14073134765625,-0.6301775390625001,0.6285010253906252,0.9010785658693033
112,1790490989.9663057,0.15989150390625,-0.47210625000000006,0.5422803222656252,0.7365579082644997
113,1790490989.9863057,0.19821181640625002,-0.49126640625,0.4704297363281252,0.7084735301298167
114,1790490990.0113785,0.10720107421875,-0.5247966796875,0.4895898925781252,0.7256734032878279
115,1790490990.0313785,0.09762099609375,-0.5487468750000001,0.4416895019531252,0.7111558252845867
116,1790490990.0416226,0.06409072265625,-0.48168632812500006,0.3937891113281252,0.6254591942195271
117,1790490990.0616226,0.08804091796875,-0.4098357421875,0.4273193847656252,0.5985970225515923
118,1790490990.0856535,0.11678115234375,-0.39546562500000004,0.4895898925781252,0.6401008990886007
119,1790490990.1056535,0.05930068359375,-0.40504570312500005,0.5566504394531252,0.6909691052703218
120,1790490990.1315315,0.04493056640625,-0.29966484375,0.41294926757812517,0.5121961264697424
121,1790490990.1515315,-0.02212998046875,-0.328405078125,0.3602588378906252,0.4879816201990997
122,1790490990.1609569,-0.07003037109375,-0.37630546875000004,0.4033691894531252,0.556072622673295
123,1790490990.1809568,-0.04608017578125001,-0.3523552734375,0.3889990722656252,0.5268756015823501
124,1790490990.2059815,0.13594130859375,-0.20386406250000003,0.27403813476562516,0.3676105203432133
125,1790490990.2259815,0.13115126953125,-0.11285332031250002,0.2979883300781252,0.34457738211897193
126,1790490990.2515042,0.06888076171875,0.1266486328125,0.3746289550781252,0.4014116210464747
127,1790490990.2715042,0.23653212890625003,0.11227851562499999,0.3794189941406252,0.4609909827649127
128,1790490990.3107703,0.32754287109375,0.002107617187499989,0.41294926757812517,0.5270824148535559
129,1790490990.3307703,0.27485244140625004,-0.11285332031250002,0.4177393066406252,0.5126264378327772
130,1790490990.3258257,0.21737197265625002,-0.136803515625,0.3698389160156252,0.45027391683667595
131,1790490990.3458257,0.28443251953125004,-0.041002734375000016,0.3267285644531252,0.43512600154750775
132,1790490990.371462,0.30359267578125004,0.02126777343749999,0.2788281738281252,0.41275414170585284
133,1790490990.391462,0.37544326171875,-0.06495292968750001,0.27403813476562516,0.46933295766526567
134,1790490990.4164977,0.46645400390625,-0.31403496093750005,0.3602588378906252,0.6678201290238959
135,1790490990.4364977,0.50477431640625,-0.30445488281250005,0.3219385253906252,0.6716653186687997
136,1790490990.4466567,0.51914443359375,-0.4098357421875,0.3458887207031252,0.7464015578865032
137,1790490990.4666567,0.52872451171875,-0.5056365234375,0.3889990722656252,0.8285759961220873
138,1790490990.4915721,0.70595595703125,-0.3523552734375,0.3075684082031252,0.8468331463232458
139,1790490990.5115721,0.7778065429687501,-0.251764453125,0.24529790039062518,0.8535452056443041
140,1790490990.5355427,0.72511611328125,-0.34756523437500003,0.31235844726562517,0.8626486941185547
141,1790490990.5555427,0.79696669921875,-0.29966484375,0.28361821289062517,0.8974375905468933
142,1790490990.5663326,0.95024794921875,-0.17033378906250002,0.23092778320312518,0.9926290373276101
143,1790490990.5863326,0.85444716796875,-0.17991386718750002,0.2788281738281252,0.9166210301845064
144,1790490990.611463,0.78259658203125,-0.251764453125,0.27403813476562516,0.8665677407855362
145,1790490990.631463,0.95503798828125,-0.31403496093750005,0.1782373535156252,1.0210210918191496
146,1790490990.656084,1.11789931640625,-0.40504570312500005,0.21655766601562518,1.2085769011327836
147,1790490990.676084,1.12268935546875,-0.4289958984375,0.24529790039062518,1.2266376521593831
148,1790490990.6854577,1.06041884765625,-0.596647265625,0.1782373535156252,1.2297335671724392
149,1790490990.7054577,1.15621962890625,-0.7451384765625001,0.10159672851562518,1.3792741115409468
150,1790490990.7307694,1.29513076171875,-0.8648894531250001,0.04890629882812517,1.558136477379988
151,1790490990.7507694,1.25202041015625,-0.79782890625,0.015376025390625174,1.4846960945771726
152,1790490990.79128,1.25681044921875,-0.6924480468750001,-0.008574169921874826,1.4349670098215803
153,1790490990.81128,1.37656142578125,-0.615807421875,-0.05647456054687483,1.509082342277652
154,1790490990.8062432,1.48673232421875,-0.7307683593750001,-0.12353510742187483,1.661221334352003
155,1790490990.8262432,1.5011024414062502,-0.8984197265625,-0.22891596679687484,1.7643324699520182
156,1790490990.8503475,1.5394227539062502,-1.0421208984375,-0.33429682617187484,1.8888072294951315
157,1790490990.8703475,1.63043349609375,-1.324733203125,-0.3582470214843748,2.1310965189424755
158,1790490990.8956065,1.57774306640625,-1.4157439453125,-0.3678270996093748,2.151488061200676
159,1790490990.9156065,1.49152236328125,-1.4444841796875,-0.31034663085937486,2.099401947417721
160,1790490990.926451,1.52026259765625,-1.4444841796875,-0.14269526367187482,2.1019264614810824
161,1790490990.946451,1.64959365234375,-1.4684343750000002,0.09680668945312518,2.2106176210863127
162,1790490990.9706695,1.6256434570312501,-1.3774236328125,0.1734473144531252,2.1377783992991186
163,1790490990.9906695,1.5442127929687501,-1.4349041015625001,0.12554692382812518,2.1117066464667715
164,1790490991.016126,1.44841201171875,-1.6839861328125,0.11117680664062518,2.223975479525519
165,1790490991.036126,1.33824111328125,-1.9043279296875002,0.11596684570312518,2.330408215391984
166,1790490991.0609763,1.27597060546875,-1.9522283203125002,0.1351270019531252,2.3361412002075763
167,1790490991.0809762,1.36219130859375,-2.0097087890625,0.21176762695312518,2.437076138709821
168,1790490991.0909271,1.29034072265625,-2.1773601562500002,0.21176762695312518,2.53982715128322
169,1790490991.110927,0.9598280273437501,-2.3354314453125,0.19739750976562517,2.5326815146580706
170,1790490991.1362126,0.79217666015625,-2.4647625,0.28361821289062517,2.6044264883052146
171,1790490991.1562126,0.7778065429687501,-2.61804375,0.4800098144531252,2.7730029782115966
172,1790490991.1954653,0.88318740234375,-2.6755242187499997,0.4800098144531252,2.8581216305027715
173,1790490991.2154653,0.8783973632812501,-2.5030828124999998,0.3554687988281252,2.6764460691358365
174,1790490991.2110517,0.76343642578125,-2.5078728515625,0.3075684082031252,2.6394809606319343
175,1790490991.2310517,0.7586463867187501,-2.4982927734375,0.3458887207031252,2.633752100901126
176,1790490991.255441,0.7203260742187501,-2.474342578125,0.2979883300781252,2.594231657347589
177,1790490991.275441,0.7203260742187501,-2.5988835937499997,0.3410986816406252,2.7183476410641965
178,1790490991.3008647,0.71553603515625,-2.723424609375,0.3889990722656252,2.8425962954278283
179,1790490991.3208647,0.66284560546875,-2.627623828125,0.4081592285156252,2.74050455840562
180,1790490991.330962,0.74906630859375,-2.44560234375,0.20697758789062518,2.5661081193735353
181,1790490991.350962,0.74906630859375,-2.4408123046875003,0.08243657226562517,2.5544981561612214
182,1790490991.3757312,0.68679580078125,-2.6515740234375,0.1542871582031252,2.7434171758822403
183,1790490991.3957312,0.6197352539062501,-2.7090544921874997,0.2788281738281252,2.792990006622982
184,1790490991.4208596,0.78738662109375,-2.5270330078125,0.1399170410156252,2.6505566004177106
185,1790490991.4408596,0.90234755859375,-2.378541796875,0.13033696289062519,2.5472887390080077
186,1790490991.4513447,0.84965712890625,-2.3306414062500003,0.26445805664062516,2.494743406635305
187,1790490991.4713447,0.65326552734375,-2.3210613281250003,0.3458887207031252,2.4359229349966602
188,1790490991.495643,0.73469619140625,-2.436022265625,0.4416895019531252,2.5824547601890737
189,1790490991.515643,0.78259658203125,-2.4599724609374998,0.5758105957031252,2.6448969282189205
190,1790490991.5411146,0.75385634765625,-2.3258513671875,0.4991699707031252,2.4954067072926898
191,1790490991.5611145,0.66284560546875,-2.2204705078125,0.41294926757812517,2.353801323465438
192,1790490991.5707467,0.76822646484375,-2.206100390625,0.3363086425781252,2.3601174415428665
193,1790490991.5907466,0.79217666015625,-2.225260546875,0.3650488769531252,2.3901023084670396
194,1790490991.615441,0.72511611328125,-2.4072820312500003,0.4560596191406252,2.555149806162043
195,1790490991.635441,0.7586463867187501,-2.4168621093750002,0.3985791503906252,2.5642995407986375
196,1790490991.6612813,0.77301650390625,-2.3258513671875,0.3363086425781252,2.4739124076313104
197,1790490991.6812813,0.75385634765625,-2.1629900390625,0.3602588378906252,2.318752192939884
198,1790490991.7061563,0.7586463867187501,-2.0384490234375,0.4081592285156252,2.213009877306738
199,1790490991.7261562,0.7394862304687501,-2.0815593750000003,0.3985791503906252,2.2446814152189583
200,1790490991.7508698,0.65805556640625,-2.129459765625,0.43210942382812517,2.2703203685944864
201,1790490991.7708697,0.59578505859375,-2.0192888671875,0.3985791503906252,2.1427441994594334
202,1790490991.7808714,0.66284560546875,-1.9043279296875002,0.3554687988281252,2.0474831445991013
203,1790490991.8008714,0.67242568359375,-1.8133171875,0.3171484863281252,1.959810879860517
204,1790490991.825718,0.62452529296875,-1.7941570312500001,0.3794189941406252,1.9372635513672891
205,1790490991.845718,0.58141494140625,-1.8899578125,0.5183301269531252,2.0441746470464457
206,1790490991.8559873,0.64847548828125,-1.8276873046875002,0.4273193847656252,1.9858406782050613
207,1790490991.8759873,0.69158583984375,-1.7127263671875002,0.27403813476562516,1.867302729082111
208,1790490991.900815,0.61015517578125,-1.7558367187500001,0.30277836914062517,1.8833286123942554
209,1790490991.920815,0.51435439453125,-1.7797869140625,0.3746289550781252,1.8901187149554002
210,1790490991.9612317,0.56225478515625,-1.8085271484375,0.3602588378906252,1.9278711887325046
211,1790490991.9812317,0.71553603515625,-1.8276873046875002,0.29319829101562517,1.9845397298057472
212,1790490992.006256,0.67242568359375,-1.899537890625,0.2979883300781252,2.036957913836058
213,1790490992.026256,0.64847548828125,-1.8947478515625,0.3315186035156252,2.0299001119215854
214,1790490992.0210323,0.73469619140625,-1.9139080078125001,0.3315186035156252,2.0767106058651055
215,1790490992.0410323,0.74427626953125,-2.0097087890625,0.3315186035156252,2.168589672275363
216,1790490992.0656414,0.73469619140625,-2.06239921875,0.3698389160156252,2.220371557863024
217,1790490992.0856414,0.79217666015625,-2.0001287109375,0.3889990722656252,2.1861790867713315
218,1790490992.12645,0.86402724609375,-1.899537890625,0.3458887207031252,2.115283973139793
219,1790490992.14645,0.8975575195312501,-1.9330681640625,0.3171484863281252,2.1547494495089854
220,1790490992.1404881,0.82091689453125,-2.0097087890625,0.3315186035156252,2.1960734388992647
221,1790490992.1604881,0.72511611328125,-2.0097087890625,0.3650488769531252,2.167483212654692
222,1790490992.186027,0.7778065429687501,-1.9713884765625,0.3554687988281252,2.1488865979266385
223,1790490992.206027,0.77301650390625,-1.9186980468750001,0.2979883300781252,2.0899171646876655
224,1790490992.2305777,0.74906630859375,-1.937858203125,0.2788281738281252,2.09622038455155
225,1790490992.2505777,0.75385634765625,-1.937858203125,0.31235844726562517,2.102655846280762
226,1790490992.2613232,0.78259658203125,-1.928278125,0.3171484863281252,2.105064630822705
227,1790490992.2813232,0.70595595703125,-1.880377734375,0.3602588378906252,2.0405834135068996
228,1790490992.3054128,0.66763564453125,-1.8660076171875002,0.4416895019531252,2.030470732954807
229,1790490992.3254128,0.74427626953125,-1.880377734375,0.3937891113281252,2.060300330903533
230,1790490992.3359566,0.74906630859375,-1.8947478515625,0.4177393066406252,2.0798259263658503
231,1790490992.3559566,0.65326552734375,-1.8324773437500002,0.5135400878906252,2.0120766601805893
232,1790490992.411389,0.59578505859375,-1.7318865234375,0.5039600097656252,1.8995700717664925
233,1790490992.431389,0.68679580078125,-1.688776171875,0.3746289550781252,1.861182496330348
234,1790490992.4255447,0.70116591796875,-1.7845769531250002,0.3746289550781252,1.9536364554667782
235,1790490992.4455447,0.65805556640625,-1.8947478515625,0.3985791503906252,2.044987014287639
236,1790490992.471217,0.56225478515625,-1.9234880859375,0.3842090332031252,2.0404787284775816
237,1790490992.491217,0.52393447265625,-1.8372673828125001,0.3650488769531252,1.9450756926528632
238,1790490992.5162263,0.55267470703125,-1.7797869140625,0.4368994628906252,1.9141504465256411
239,1790490992.5362263,0.50956435546875,-1.7558367187500001,0.4704297363281252,1.8878354144619702
240,1790490992.5462914,0.61494521484375,-1.6648259765625002,0.3985791503906252,1.818974570636605
241,1790490992.5662913,0.50477431640625,-1.688776171875,0.3698389160156252,1.8009838680553996
242,1790490992.5914118,0.49998427734375,-1.7223064453125,0.3937891113281252,1.8361355160653383
243,1790490992.6114118,0.46645400390625,-1.6935662109375,0.4656396972656252,1.8172963919677483
244,1790490992.6362493,0.28443251953125004,-1.5115447265625002,0.4847998535156252,1.6126686629728284
245,1790490992.6562493,0.42813369140625,-1.4396941406250001,0.4177393066406252,1.5590137281562628
246,1790490992.666384,0.53830458984375,-1.6312957031250002,0.5039600097656252,1.790215962928469
247,1790490992.686384,0.23653212890625003,-1.5929753906250002,0.6380811035156252,1.7322429211301493
248,1790490992.7113454,0.35149306640625,-1.14271171875,0.43210942382812517,1.2712419132727342
249,1790490992.7313454,0.42334365234375,-1.2241423828125,0.6668213378906253,1.4568442325944988
250,1790490992.7420561,0.19821181640625002,-1.2001921875000001,0.8392627441406252,1.4778738663368918
251,1790490992.762056,0.09762099609375,-0.91278984375,0.8440527832031253,1.2470526286265657
252,1790490992.8010817,0.35149306640625,-1.2241423828125,0.7674121582031252,1.486940943577623
253,1790490992.8210816,0.74906630859375,-1.774996875,0.8057324707031253,2.0882813640109408
254,1790490992.8314393,0.47124404296875,-1.7175164062500001,0.8632129394531253,1.9791589457673058
255,1790490992.8514392,-0.31432236328125,-1.1139714843750002,0.8153125488281252,1.4157914988923919
256,1790490992.8768296,-0.026920019531250002,-1.0756511718750001,1.0979248535156252,1.5372667676675156
257,1790490992.8968296,0.27485244140625004,-1.2528826171875,1.1601953613281253,1.7295409776714963
258,1790490992.9061704,0.31796279296875,-1.1954021484375001,1.0931348144531252,1.6507665966971068
259,1790490992.9261703,0.58620498046875,-0.7642986328125001,0.8392627441406252,1.2775565087102319
260,1790490992.9514904,0.55746474609375,-0.7259783203125001,0.8584229003906252,1.2548710454131058
261,1790490992.9714904,0.50956435546875,-0.6876580078125001,0.7530420410156252,1.1400007384251634
262,1790490992.980434,0.52393447265625,-0.6637078125,0.7147217285156252,1.107177736961632
263,1790490993.000434,0.46645400390625,-1.0038005859375,0.7051416503906253,1.3124098830793127
264,1790490993.0254676,0.39460341796875,-1.1091814453125,0.5518604003906252,1.3002096898644646
265,1790490993.0454676,0.09762099609375,-0.9894304687500001,0.4177393066406252,1.0784287828511308
266,1790490993.0709298,-0.22331162109375,-0.7068181640625001,0.21176762695312518,0.770912138307317
267,1790490993.0909297,-0.20415146484375,-0.5822771484375,0.07764653320312517,0.6218950733916608
268,1790490993.131525,0.0066102539062499995,-0.6014373046875,-0.04689448242187483,0.6032989469641774
269,1790490993.151525,0.24132216796875003,-0.6205974609375,-0.15227534179687482,0.6830559105919255
270,1790490993.1463645,0.04972060546875,-0.6062273437500001,-0.22412592773437484,0.6482408213011227
271,1790490993.1663644,-0.18978134765625,-0.49126640625,-0.25286616210937485,0.5842096693550503
272,1790490993.1920557,-0.28558212890625,-0.24697441406250004,-0.07563471679687483,0.38506379203592317
273,1790490993.2120557,0.020980371093750002,-0.48168632812500006,-0.11395502929687483,0.49542672856420283
274,1790490993.2363036,-0.29516220703125,-0.5535369140625,-0.31992670898437486,0.7041853043134079
275,1790490993.2563035,-0.7933262695312501,-0.17512382812500002,-0.45883784179687487,0.9330418480273744
276,1790490993.266436,0.18863173828125002,0.2511896484375,-0.6121190917968748,0.6880174087269826
277,1790490993.286436,0.43292373046875,0.23681953125,-0.7079198730468749,0.8629351038398845
278,1790490993.311079,-0.13709091796875,-0.22781425781250003,-0.7606103027343749,0.8057426937167051
279,1790490993.331079,0.30838271484375,0.011687695312499989,-0.6887597167968749,0.7547360124694136
280,1790490993.3561578,0.82570693359375,-0.25655449218750004,-0.15227534179687482,0.8779521213401871
281,1790490993.3761578,0.52393447265625,-0.8169890625,0.0010059082031251743,0.970556269225811
282,1790490993.3856518,0.66763564453125,-1.0612810546875,-0.08521479492187484,1.2567085549803692
283,1790490993.4056518,1.00293837890625,-1.0996013671875,-0.14269526367187482,1.4951155463301498
284,1790490993.43156,0.96940810546875,-1.0325408203125002,-0.16185541992187483,1.4255138713875106
285,1790490993.45156,1.1466395507812501,-1.1379216796875,-0.022944287109374826,1.6156034317955648
286,1790490993.4764862,1.37656142578125,-1.2385125000000001,-0.08042475585937484,1.8534569628022655
287,1790490993.4964862,1.8986756835937502,-1.5163347656250001,-0.15706538085937483,2.4349353188078156
288,1790490993.5062306,2.21960830078125,-1.6744060546875001,-0.27202631835937485,2.793616824611304
289,1790490993.5262306,2.36809951171875,-1.7366765625,-0.38219721679687485,2.9614211947419222
290,1790490993.550965,2.21960830078125,-1.8468474609375,-0.25286616210937485,2.8985251161251377
291,1790490993.570965,1.99447646484375,-1.7989470703125001,-0.04210444335937483,2.6862463987415883
292,1790490993.596471,1.6591737304687502,-1.8564275390625,0.12554692382812518,2.4929786813669192
293,1790490993.616471,1.35740126953125,-1.8324773437500002,0.1686572753906252,2.286691211865803
294,1790490993.6262932,1.37656142578125,-2.21568046875,0.4512695800781252,2.647226007059657
295,1790490993.6462932,1.26160048828125,-2.4647625,0.7099316894531252,2.858442404024875
296,1790490993.671583,1.3430311523437501,-2.3450115234375,0.6380811035156252,2.776681331352981
297,1790490993.691583,1.64959365234375,-2.2492107421875,0.5901807128906252,2.8510386623987625
298,1790490993.7164176,1.64959365234375,-2.0959294921875,0.5279102050781252,2.7189646630104947
299,1790490993.7364175,1.56337294921875,-2.1150896484375,0.5566504394531252,2.688419407573855
300,1790490993.746327,1.66875380859375,-1.9713884765625,0.6285010253906252,2.65821845192163
301,1790490993.766327,1.5873231445312501,-1.9426482421875002,0.6764014160156252,2.5982678525561416
302,1790490993.806357,1.54900283203125,-2.0576091796875002,0.8153125488281252,2.7014625413378797
303,1790490993.826357,1.55379287109375,-2.301901171875,0.9781738769531252,2.944460124521092
304,1790490993.8361528,1.4627821289062501,-2.3737517578125003,0.9350635253906252,2.940879589660444
305,1790490993.8561528,1.29034072265625,-2.2204705078125,0.7434619628906252,2.673612564840938
306,1790490993.8815978,1.29034072265625,-2.071979296875,0.6141309082031252,2.5169891059823972
307,1790490993.9015977,1.21370009765625,-1.9905486328125002,0.4273193847656252,2.3702222771797112
308,1790490993.9114578,0.92150771484375,-2.0049187500000003,0.27403813476562516,2.223504567551849
309,1790490993.9314578,0.70116591796875,-1.9713884765625,0.1399170410156252,2.0970414751289357
310,1790490993.9713924,0.71074599609375,-1.7558367187500001,0.09680668945312518,1.8967060892497123
311,1790490993.9913924,0.90713759765625,-1.7893669921875002,0.21176762695312518,2.0173196032451206
312,1790490994.0009472,0.8400770507812501,-1.8516375,0.3171484863281252,2.0578809598797965
313,1790490994.0209472,0.84965712890625,-1.8660076171875002,0.3363086425781252,2.0777403993703656
314,1790490994.031546,0.82570693359375,-1.69835625,0.3315186035156252,1.9173185641869237
315,1790490994.051546,0.89276748046875,-1.4396941406250001,0.3171484863281252,1.7234663196920033
316,1790490994.076252,1.10352919921875,-1.363053515625,0.3075684082031252,1.780530793249769
317,1790490994.096252,1.24244033203125,-1.458854296875,0.3937891113281252,1.9562677992466084
318,1790490994.121306,1.33824111328125,-1.5402849609375,0.5231201660156252,2.1064239236817195
319,1790490994.141306,1.21849013671875,-1.44927421875,0.6572412597656252,2.004265463443555
