imu_index,t_imu,ax,ay,az,mag,vx,vy,vz,velocity
0,1790995631.4982295,-0.10207573242187475,0.10207573242187501,0.04152963867187535,0.15021192092221217,0.0,0.0,0.0,0.0
1,1790995631.5182295,-0.08291557617187474,0.14039604492187502,0.0032093261718753488,0.16308384952562469,-0.00040763313297889425,0.0004938537538774254,0.00012005862207533358,0.0006515139093339768
2,1790995631.5430691,0.01767524414062526,0.02064506835937501,0.01757944335937535,0.03236772979094241,-0.0009595065746882466,0.0013152233378980346,0.0002855317074756101,0.0016528743604386745
3,1790995631.563069,-0.0014849121093747388,-0.0033051269531249893,0.07984995117187535,0.07993211826481092,-0.0013129173823909336,0.0019033697859969717,0.0005449236702226051,0.002375607375304112
4,1790995631.5875638,-0.10207573242187475,0.06854545898437502,0.05589975585937535,0.13506560554774327,-0.001871077464576077,0.0026354970012316516,0.0010643424039685563,0.003402881143212474
5,1790995631.6075637,-0.10686577148437475,0.08770561523437502,0.01278940429687535,0.13883852822923387,-0.00257186842596178,0.003377990541804161,0.0015278674504290626,0.0045121731180283965
6,1790995631.61792,-0.02064506835937474,-0.01288520507812499,0.01278940429687535,0.027492111954841296,-0.0029793529054164725,0.0037629045288625628,0.0017517500446709586,0.00510926828884065
7,1790995631.63792,-0.0014849121093747388,-0.03683540039062499,0.05589975585937535,0.06696143958315108,-0.003681445479819495,0.004320171206821454,0.0022222934825672884,0.006095531838961518
8,1790995631.6624918,-0.10686577148437475,0.04938530273437501,0.07984995117187535,0.14225053934262374,-0.004614323986628427,0.004925256570434064,0.0029638571531716462,0.007371199859085705
9,1790995631.6824918,-0.15955620117187475,0.08770561523437502,0.04631967773437535,0.18787221407503663,-0.0056593654393339654,0.005549519036330775,0.0036661597613260764,0.008733058233293298
10,1790995631.7085016,-0.04938530273437474,0.01585502929687501,0.02236948242187535,0.05648613833493308,-0.00722216199348261,0.00644160903159199,0.004576491673331944,0.010705056133064826
11,1790995631.7285016,0.060785595703125264,-0.05599555664062499,0.06068979492187535,0.10253605325024231,-0.008226504183338717,0.006964467625462581,0.00529607270059958,0.012009478191605243
12,1790995631.7525678,-0.006274951171874739,0.04459526367187501,0.07026987304687535,0.08346237243331539,-0.009155370485881092,0.00747867804332302,0.006268448604312266,0.013380765371021525
13,1790995631.7725677,-0.12123588867187475,0.10207573242187501,0.01757944335937535,0.1594573067637445,-0.010002772789916077,0.008061914302047462,0.007087093162874799,0.014672314582216045
14,1790995631.783479,-0.08291557617187474,-0.0033051269531249893,-0.006370751953124652,0.08322561574742765,-0.01056280230372221,0.008413205160428013,0.007475893748177822,0.015435148231002383
15,1790995631.803479,0.036835400390625266,-0.137426220703125,0.03194956054687535,0.1458203939022939,-0.01150446353558206,0.008749428939063898,0.008120023685953031,0.016578298243839877
16,1790995631.828323,0.008095166015625262,-0.032045361328124994,0.02715952148437535,0.04277939343575209,-0.012415014682646336,0.008788661371327378,0.008910277576011365,0.017628562186172675
17,1790995631.8483229,-0.06854545898437474,0.09249565429687502,0.0032093261718753488,0.11517042061945897,-0.01312875385810803,0.008906182343346634,0.009496578691812401,0.0184897071001547
18,1790995631.873532,-0.04938530273437474,0.04459526367187501,-0.011160791015624652,0.06747005946510158,-0.014116418376116891,0.009291289626581283,0.010109702993926679,0.019692826747828705
19,1790995631.893532,-0.02064506835937474,-0.04641547851562499,0.036739599609375354,0.06269301135577167,-0.014887501964644636,0.009548258962919954,0.010561535618385456,0.020599830062131674
20,1790995631.9028537,-0.05417534179687474,0.01585502929687501,0.04631967773437535,0.07301960119193583,-0.015245292783521883,0.009628697440011031,0.010798608097121931,0.021017628393370333
21,1790995631.9228537,-0.07333549804687474,0.05417534179687501,-0.011160791015624652,0.09185655223600464,-0.016089062685565564,0.009880438706382702,0.011283695925694955,0.02199551774508135
22,1790995631.9482298,-0.05417534179687474,-0.01288520507812499,-0.006370751953124652,0.056049822918201826,-0.017241734848253233,0.010230521398359047,0.011773489485818422,0.02324986114651933
23,1790995631.9682298,-0.06375541992187474,-0.05599555664062499,0.05110971679687535,0.09905785725506497,-0.01819083074211253,0.010361728293379469,0.01216872112926051,0.024214654865096014
24,1790995631.992706,-0.08291557617187474,0.025435107421875013,0.07984995117187535,0.11788957614491268,-0.019447368527687782,0.010442114906931279,0.012820263709224584,0.02552639943186893
25,1790995632.012706,-0.08770561523437474,0.10207573242187501,0.0032093261718753488,0.13461808893153956,-0.020576027195712093,0.010689213430349046,0.013397380786231615,0.0267791334969884
26,1790995632.023254,-0.0014849121093747388,0.06375541992187501,-0.06864125976562466,0.09369408239370909,-0.021152545940770293,0.010931171521444192,0.01360433121887966,0.027422591754256452
27,1790995632.043254,-0.0014849121093747388,-0.05599555664062499,0.02236948242187535,0.06031667324453993,-0.022086174374411034,0.011332774506033249,0.013868465071422857,0.02843528090135147
28,1790995632.0676103,-0.09728569335937474,-0.00809516601562499,0.09901010742187535,0.13904329979156177,-0.02323304355796189,0.011631416154736585,0.01436360972801138,0.029688001602489935
29,1790995632.0876102,-0.12602592773437474,0.09728569335937502,0.036739599609375354,0.16339167290036968,-0.024368489615332157,0.011973644381073149,0.014912829632290322,0.030977151798360546
30,1790995632.1121106,-0.006274951171874739,0.025435107421875013,-0.006370751953124652,0.026961197714863765,-0.025793898342820462,0.012555498120674184,0.01554051764045587,0.03262626876170993
31,1790995632.1321106,0.08952583007812527,-0.089525830078125,0.01757944335937535,0.1278232581777673,-0.026658065379738673,0.012863090893676099,0.015992862286207804,0.03364347189626841
32,1790995632.1438167,0.032045361328125264,-0.04641547851562499,0.06068979492187535,0.08285259824618561,-0.026981262926317053,0.012896770637727283,0.016286625557739322,0.034052450925582484
33,1790995632.1638167,-0.08770561523437474,0.07333549804687502,0.06068979492187535,0.12943578108499476,-0.02753411079050687,0.012986061403847374,0.016895306959064132,0.034816898843081964
34,1790995632.1880884,-0.07333549804687474,0.08770561523437502,0.05589975585937535,0.12726017807060136,-0.028397556594109138,0.013371325177473564,0.017735429099498847,0.036052170570725975
35,1790995632.2080884,-0.02543510742187474,0.01585502929687501,0.05589975585937535,0.06342798553245123,-0.029150472166515028,0.013796505798265623,0.01849155205508447,0.037175678839508
36,1790995632.233427,-0.006274951171874739,-0.00809516601562499,0.06068979492187535,0.06154801323104775,-0.03002154391404655,0.014269126939564742,0.019527382692428406,0.03855152081847084
37,1790995632.253427,-0.05417534179687474,0.035015185546875015,0.07505991210937535,0.09896979985610478,-0.030696631054237762,0.014626593745122589,0.02042595742967519,0.039666612403679705
38,1790995632.2628677,-0.06375541992187474,0.12123588867187501,0.08463999023437535,0.16101808040822313,-0.031050996044155375,0.014880653099041033,0.020899566623030094,0.04027890362235082
39,1790995632.2828677,-0.05896538085937474,0.12123588867187501,0.07505991210937535,0.15430180571794208,-0.031873189106357176,0.015701850114851337,0.0219919536770576,0.0417862932954421
40,1790995632.3079562,-0.15476616210937474,0.10207573242187501,0.09422006835937535,0.20796500033701068,-0.033152030311211035,0.016997655540177632,0.023475251209747278,0.044034813806563634
41,1790995632.3279562,-0.16913627929687475,0.09728569335937502,0.09901010742187535,0.21880262447808085,-0.0345044254548166,0.018174734282945814,0.024770177612800287,0.04619997880077819
42,1790995632.3524153,-0.07812553710937474,0.05896538085937501,0.09901010742187535,0.1392246998926941,-0.03636384434494553,0.019684956140222636,0.026479526475767734,0.0491018532864779
43,1790995632.3724153,-0.07812553710937474,0.04459526367187501,0.08943002929687535,0.12684662877125402,-0.03789058473927345,0.020889956280162627,0.027950246270632004,0.051510221819170476
44,1790995632.3978422,-0.16913627929687475,0.09249565429687502,0.11817026367187536,0.22611222491160884,-0.040011977673848065,0.022453565393724076,0.029935465834985193,0.05478369347735077
45,1790995632.4178421,-0.14518608398437474,0.16434624023437502,0.13254038085937536,0.25623356185371404,-0.04190178921929385,0.02388423122292886,0.031638816616033794,0.05768215632023023
46,1790995632.428143,-0.09249565429687474,0.217036669921875,0.19960092773437535,0.3090321868463012,-0.042912750001921705,0.024805202290290037,0.03264112340440775,0.059348505545560426
47,1790995632.448143,-0.06375541992187474,0.279307177734375,0.3193519042968754,0.42902551425456853,-0.04481555915861856,0.027069636160061784,0.035073702613989136,0.06301876037809942
48,1790995632.473333,-0.06854545898437474,0.379897998046875,0.32414194335937535,0.5040723840007449,-0.04710259924205902,0.030739270157350257,0.038893665616766375,0.06838329335644357
49,1790995632.4933329,-0.05417534179687474,0.42779838867187503,0.3193519042968754,0.5365930187647818,-0.04883014334312709,0.03442735285049013,0.042436897819963154,0.07328380325682124
50,1790995632.5185354,-0.03022514648437474,0.322417529296875,0.3097718261718754,0.4481352552162815,-0.05084006215565069,0.03979573650538252,0.04742124392848926,0.08010734635301273
51,1790995632.5385354,-0.12602592773437474,0.24577690429687502,0.24271127929687536,0.367692243928249,-0.05243019967641465,0.04426919147195459,0.051612085054542886,0.08586323121899535
52,1790995632.5477872,-0.19787651367187475,0.25535698242187505,0.19960092773437535,0.37974048175953634,-0.05328019880496131,0.04637589914515268,0.053566852413215536,0.08865050075254391
53,1790995632.5677872,-0.15955620117187475,0.288887255859375,0.12775034179687536,0.35388441299325163,-0.05537819694361602,0.05106328103359555,0.05764970908894847,0.09485616650846834
54,1790995632.592814,-0.06375541992187474,0.298467333984375,0.07505991210937535,0.31429523291170386,-0.058028869674334675,0.05715143798531085,0.06237307536626046,0.10258672969792418
55,1790995632.612814,-0.07333549804687474,0.298467333984375,0.11817026367187536,0.32927960147237206,-0.06003503155571787,0.062182348935607985,0.06587136712885783,0.108673301875256
56,1790995632.637742,-0.08291557617187474,0.389478076171875,0.13733041992187536,0.4212218047850532,-0.06245257774963809,0.06879850972623835,0.07005530056824562,0.11636711110031536
57,1790995632.657742,0.032045361328125264,0.379897998046875,0.06547983398437535,0.3868294233396613,-0.06417755488807043,0.07446453546000734,0.07321279451836907,0.12257177029754818
58,1790995632.6677988,0.11826606445312526,0.331997607421875,0.07505991210937535,0.36033770790877184,-0.06480145698458614,0.07742321147984427,0.07466834689335869,0.12557445811535403
59,1790995632.6877987,0.13263618164062527,0.331997607421875,0.12775034179687536,0.37965104746763556,-0.06547975307177922,0.08342057297625925,0.07743303936844223,0.131310569429362
60,1790995632.7134767,0.09910590820312527,0.408638232421875,0.11338022460937536,0.43550230925921973,-0.06577368704562826,0.09139191828678991,0.08091456298583391,0.13865722894571353
61,1790995632.7334766,0.10389594726562526,0.46611870117187504,0.13254038085937536,0.49560868031010674,-0.0656637825930511,0.09798145591222646,0.08358837503446158,0.14456526030830802
62,1790995632.758587,0.15179633789062527,0.41342827148437505,0.12296030273437536,0.4572573672540359,-0.06506495686420931,0.10667014395946589,0.08692300729392417,0.1522089925763067
63,1790995632.7785869,0.21885688476562526,0.370317919921875,0.04631967773437535,0.432642127363939,-0.06410356424079254,0.11372812438046023,0.0894345192885137,0.15824628420231035
64,1790995632.7884965,0.22364692382812526,0.34636772460937504,0.08943002929687535,0.42188419895618173,-0.06336978577132167,0.11723331778659339,0.09059315904991425,0.16114124554129106
65,1790995632.8084965,0.23322700195312526,0.41342827148437505,0.03194956054687535,0.475750506591154,-0.0614256775478933,0.1243861748733399,0.09276287638853797,0.16688314953198252
66,1790995632.833635,0.2859174316406253,0.461328662109375,0.0032093261718753488,0.5427552044652129,-0.058369814477516185,0.13367749519085126,0.09514727395164872,0.1741542755807902
67,1790995632.853635,0.37692817382812527,0.470908740234375,0.02715952148437535,0.6037942774337893,-0.05530902030450803,0.1413591032326496,0.09680527549466125,0.1800353997339985
68,1790995632.8782172,0.4248285644531253,0.42300834960937506,0.007999365234375349,0.5995659787368722,-0.0506331115685554,0.15103248398811864,0.09860228085986499,0.18734175454901342
69,1790995632.8982172,0.3912982910156253,0.389478076171875,-0.054271142578124654,0.5547547938387095,-0.046175259796408,0.15894091747732458,0.09977560691268372,0.19326029494077115
70,1790995632.9079351,0.30028754882812525,0.293677294921875,-0.035110986328124656,0.42148754061628846,-0.04383005022125693,0.16270511729877893,0.10019505993555156,0.19604356284534333
71,1790995632.9279351,0.26675727539062527,0.293677294921875,-0.06864125976562466,0.4026380757810565,-0.03887691478583891,0.17017101380675054,0.10077319768231861,0.20155601160571304
72,1790995632.9535525,0.30028754882812525,0.38468803710937505,-0.17402211914062465,0.5181131110350918,-0.03239477924064005,0.1796027703603684,0.10093640907270211,0.20855391513865398
73,1790995632.9735525,0.2619672363281253,0.36552788085937504,-0.08780141601562466,0.45819925059878713,-0.02724977605373868,0.1869871183646304,0.10065198315350588,0.21409706780341678
74,1790995632.9971652,0.3242377441406253,0.33678764648437504,-0.054271142578124654,0.47063934224267856,-0.02104840485266894,0.1956413934219979,0.10011494555620595,0.22077498157777048
75,1790995633.0171652,0.4344086425781253,0.26493706054687505,-0.18839223632812466,0.5425810073219481,-0.015445760917996288,0.2027746224982434,0.09936431076890398,0.2263390936498164
76,1790995633.0430572,0.36734809570312527,0.21224663085937504,-0.2698229003906247,0.5027898699288573,-0.007723612468450585,0.21155075613444674,0.09764849470376362,0.2331278729121207
77,1790995633.0630572,0.2954975097656253,0.11165581054687501,-0.10696157226562465,0.33350648606601324,-0.0016591958992300008,0.21779877596711605,0.09595676115779138,0.2380057977354742
78,1790995633.07366,0.38650825195312527,-0.01767524414062499,0.07026987304687535,0.39324152647109284,0.001615858851500306,0.22068896557153309,0.09516526206802386,0.2403386311630674
79,1790995633.0936599,0.4439887207031253,0.06375541992187501,-0.03990102539062465,0.4503141453565896,0.008112700610628003,0.22539210520628405,0.09394175593721112,0.24432042589412137
80,1790995633.1182294,0.36734809570312527,0.11644584960937501,-0.16444204101562465,0.4189814365354938,0.01639179794771564,0.2306352075007213,0.09228761873769122,0.2489544025542287
81,1790995633.1382294,0.3433979003906253,0.07812553710937502,-0.25545278320312464,0.43506533071199865,0.023186337550481065,0.23455483908810976,0.09051325676131512,0.25248015454327033
82,1790995633.1629784,0.4823090332031253,-0.03683540039062499,-0.3464635253906247,0.5949922895780845,0.03186573274986031,0.23875428752076022,0.0875296564888821,0.25628202336155587
83,1790995633.1829784,0.4152484863281253,-0.07036567382812499,-0.37041372070312467,0.5608823031048651,0.039173897944515146,0.24147806475878292,0.0844049225557448,0.25878647760548756
84,1790995633.1933117,0.36734809570312527,-0.094315869140625,-0.3368834472656247,0.5072776001658608,0.04298990346055119,0.24254662638958757,0.0824844932186706,0.2597704551985437
85,1790995633.2133117,0.4391986816406253,-0.132636181640625,-0.39436391601562465,0.6049882121911524,0.050477681516433975,0.24396415892550147,0.07822819992398182,0.2611247947530995
86,1790995633.2379715,0.47751899414062526,-0.132636181640625,-0.5189049316406247,0.7175507470041689,0.06002067462055222,0.2449591789181519,0.07207832865648958,0.2623028139004122
87,1790995633.2579715,0.5254193847656253,-0.151796337890625,-0.5093248535156247,0.747341598262271,0.06810381432152426,0.24521847586230708,0.06629639687395068,0.26299323692414966
88,1790995633.2835557,0.6403803222656252,-0.276337353515625,-0.47100454101562467,0.841602381027041,0.07912981383591072,0.2446789072989659,0.05812845425087487,0.2636441015997094
89,1790995633.3035557,0.6882807128906253,-0.24280708007812501,-0.6003355957031247,0.945033568367557,0.08844926513086102,0.24354166349740913,0.05109408107946599,0.2640954741805123
90,1790995633.313241,0.5781098144531253,-0.223646923828125,-0.6530260253906247,0.9003731970368103,0.09320528233823666,0.2427347156026156,0.04728812262386643,0.2642792715210993
91,1790995633.333241,0.6068500488281253,-0.30028754882812503,-0.5859654785156246,0.895430140075677,0.10333067038117646,0.24053242770869793,0.03874926798116713,0.26464047685480696
92,1790995633.3577971,0.7505512207031253,-0.338607861328125,-0.5907555175781247,1.0133975035498934,0.11639785022739178,0.2370573754866653,0.027670615380512048,0.26553779724498805
93,1790995633.3777971,0.7792914550781253,-0.333817822265625,-0.7152965332031247,1.1092243419761194,0.12773888988177112,0.2336429940487377,0.018041898854108798,0.2668928301220316
94,1790995633.4034083,0.6260102050781253,-0.396088330078125,-0.7344566894531247,1.0431689080721673,0.1427826885622558,0.22852449287808962,0.004776537615015328,0.2695053901313327
95,1790995633.4234083,0.5302094238281253,-0.46793891601562504,-0.5045348144531246,0.868702619561654,0.1545026754098629,0.22383093319932718,-0.00588712915486022,0.2720404779722553
96,1790995633.433256,0.7745014160156253,-0.463148876953125,-0.42310415039062466,0.9966827216877605,0.16037140885696902,0.22117888409801198,-0.01103527095824845,0.2734243309486793
97,1790995633.453256,0.9325727050781253,-0.391298291015625,-0.5763854003906247,1.1640559834440702,0.17306321282837417,0.21531898189655632,-0.02142174164810146,0.27707766170279174
98,1790995633.4785402,0.7457611816406253,-0.30986762695312503,-0.5763854003906247,0.9921682397955719,0.18988427531686197,0.20769239228416927,-0.034768894622523916,0.2835507782719054
99,1790995633.4985402,0.7361811035156253,-0.338607861328125,-0.4997447753906247,0.9520308511056333,0.20341688865882304,0.20159191494600917,-0.045357094789500035,0.2899568878488295
100,1790995633.5236278,0.8080316894531253,-0.477518994140625,-0.40394399414062465,1.0218171809711496,0.22075122701490593,0.19355184129338773,-0.05834683918447863,0.2993288712093551
101,1790995633.5436277,0.7649213378906253,-0.42961860351562503,-0.4997447753906247,1.0096641214668003,0.23485683687873424,0.18674298056938776,-0.06850454774900436,0.30777190853441894
102,1790995633.5522938,0.7792914550781253,-0.343397900390625,-0.5811754394531247,1.031010272196162,0.24105569712759417,0.18373280527448052,-0.07294825001181111,0.3117483601103401
103,1790995633.5722938,0.7792914550781253,-0.443988720703125,-0.45184438476562466,1.0042830796710682,0.2555537418232469,0.17664672949357269,-0.08321489466785968,0.32161545468963576
104,1790995633.597936,0.7457611816406253,-0.42961860351562503,-0.35125356445312467,0.9295756833468499,0.2742865279123035,0.1672442876862499,-0.09594789626810211,0.3352756328099948
105,1790995633.617936,0.7888715332031253,-0.276337353515625,-0.48058461914062467,0.9641795501880386,0.2890077523393204,0.1599518167327458,-0.10563725202627297,0.34679863552787255
106,1790995633.6436,0.8080316894531253,-0.281127392578125,-0.4853746582031247,0.9836342718938006,0.308138288797656,0.1509247250383566,-0.11806495875432217,0.36285921806771143
107,1790995633.6636,0.7792914550781253,-0.314657666015625,-0.39436391601562465,0.9283466577714173,0.3231914055594452,0.14405147116540787,-0.12761672179652242,0.3761509519521373
108,1790995633.673157,0.8080316894531253,-0.204486767578125,-0.4566344238281247,0.9503920487356076,0.33044333363968875,0.1408876291484482,-0.13210636741313986,0.3827456245407344
109,1790995633.693157,0.9038324707031253,-0.156586376953125,-0.5811754394531247,1.085908522836134,0.34591083937067046,0.13471818550337888,-0.14164925136999482,0.3973258218554699
110,1790995633.7182577,0.9038324707031253,-0.199696728515625,-0.4757945800781247,1.0407556874256696,0.3658143075078918,0.1274660177129509,-0.15381922187557664,0.4168069652338893
111,1790995633.7382576,0.8942523925781253,-0.142216259765625,-0.39436391601562465,0.9876414857774068,0.3819914757235573,0.12204146515982124,-0.16336682752346904,0.4330130795702363
112,1790995633.763411,0.9373627441406253,-0.07036567382812499,-0.5236949707031247,1.0760374828489367,0.40274055038098716,0.11584147065713027,-0.17530533584782967,0.45425891077876235
113,1790995633.783411,0.8559320800781253,-0.166166455078125,-0.6003355957031247,1.058599945195692,0.4194538011599967,0.11129639187565037,-0.18506004913436938,0.47177918557066884
114,1790995633.8080084,0.8655121582031253,-0.261967236328125,-0.46142446289062466,1.0152096649760232,0.44010140899738515,0.1057551850960603,-0.19721627712626896,0.493728335564945
115,1790995633.8280084,1.0619037597656253,-0.233227001953125,-0.4566344238281247,1.179215597958769,0.4572626931156268,0.1011827050914399,-0.2069948872762543,0.5120292898687403
116,1790995633.838573,1.0523236816406254,-0.166166455078125,-0.5428551269531247,1.195695659686947,0.46664320685686794,0.09881323048116784,-0.21217736711883312,0.5220528442037895
117,1790995633.858573,0.9277826660156253,-0.180536572265625,-0.5524352050781247,1.0947870957835557,0.4847080287382474,0.09448033346069819,-0.22215969484535103,0.5415010032751019
118,1790995633.8832762,1.0427436035156252,-0.276337353515625,-0.5332750488281247,1.2033531623440434,0.5073249820633897,0.08908479857376915,-0.2346515822663987,0.5660177592820496
119,1790995633.9032762,1.0475336425781254,-0.276337353515625,-0.4949547363281247,1.1910790302472203,0.5260246473492823,0.08454275550669825,-0.2447904365092254,0.5863205308821953
120,1790995633.927297,0.9182025878906253,-0.199696728515625,-0.45184438476562466,1.0426591599526234,0.5486563503003996,0.07904822280776928,-0.2568468112220773,0.6109359186436586
121,1790995633.947297,0.8894623535156253,-0.166166455078125,-0.43268422851562466,1.0029806631839653,0.5673846645993217,0.07461085956402795,-0.2667060927952617,0.6313669914728538
122,1790995633.957347,1.0571137207031254,-0.147006298828125,-0.47100454101562467,1.1665957089117414,0.5768510655878443,0.07247953320286324,-0.2715983102137869,0.6416978079393141
123,1790995633.977347,1.1098041503906253,-0.118266064453125,-0.4853746582031247,1.2170623127232594,0.5961145285033747,0.06847633521338058,-0.2813084106634551,0.6627035245772087
124,1790995634.0029073,0.9565229003906253,-0.05120551757812499,-0.41352407226562465,1.043340894600266,0.621001966230821,0.06380271076344793,-0.2935798736780679,0.6898574999172947
125,1790995634.0229073,0.8750922363281253,-0.04641547851562499,-0.3895738769531247,0.9590144025674913,0.6403018027494506,0.06054789280053058,-0.3029461618162859,0.710935174883055
126,1790995634.046969,0.8750922363281253,-0.07994575195312499,-0.4470543457031247,0.9859185226727201,0.6631966756640372,0.05699140838603015,-0.3140341386087035,0.7359995186502256
127,1790995634.066969,0.9517328613281253,-0.108685986328125,-0.5332750488281247,1.0963532098090363,0.6821125256564637,0.054195744655039714,-0.32333847444459185,0.7568107064863117
128,1790995634.0779462,1.0044232910156252,-0.099105908203125,-0.5380650878906247,1.1437666577506844,0.6925479131354044,0.052720397457616905,-0.32856129576486526,0.7683453503282102
129,1790995634.0979462,0.9565229003906253,-0.08473579101562499,-0.47100454101562467,1.069561354438387,0.711650127952566,0.05015983371326989,-0.33816323877780496,0.7895038249392723
130,1790995634.1232283,0.8942523925781253,-0.094315869140625,-0.46142446289062466,1.0106905360976497,0.7356846757999514,0.04706901727795005,-0.3502484867064447,0.8161626290357493
131,1790995634.1432283,0.9325727050781253,-0.07515571289062499,-0.5332750488281247,1.0769041318239376,0.754585997286654,0.044736512193059415,-0.35986678422415036,0.8372009825675822
132,1790995634.1678286,0.9900531738281253,-0.094315869140625,-0.5763854003906247,1.14948723349255,0.7778948458657495,0.04198517082461227,-0.3719701789643552,0.8632757148399604
133,1790995634.1878285,0.9182025878906253,-0.175746533203125,-0.47100454101562467,1.0468180902140056,0.7968647772105063,0.03967876662256707,-0.38190529805818274,0.8845448176120572
134,1790995634.1977024,0.8703021972656253,-0.156586376953125,-0.3464635253906247,0.949727425337808,0.8061497738250419,0.038464801919239636,-0.38667983676729756,0.8949180381393799
135,1790995634.2177024,0.9996332519531254,-0.07515571289062499,-0.43268422851562466,1.0918473616749915,0.8249407911468618,0.03602708802365199,-0.3960689516195477,0.9158034037971697
136,1790995634.258085,1.0140033691406254,-0.103895947265625,-0.5093248535156247,1.13947751487051,0.8632898163339147,0.03130103632612226,-0.41503620325350515,0.9583862018372439
137,1790995634.278085,0.9229926269531253,-0.166166455078125,-0.4949547363281247,1.0604276831621784,0.8823392018156189,0.028906404170387843,-0.4245273171165563,0.9795823039647391
138,1790995634.2880733,0.9373627441406253,-0.156586376953125,-0.4374742675781247,1.046208364688013,0.8918193676650935,0.027648092855297905,-0.4292548322049621,0.9901342901608915
139,1790995634.3080733,0.9804730957031254,-0.113476025390625,-0.44226430664062466,1.081573860938048,0.9108312505279781,0.025101368437198072,-0.43862061442007616,1.011252534745909
140,1790995634.3176224,0.9182025878906253,-0.151796337890625,-0.5093248535156247,1.0609193781879747,0.9199068158367928,0.023877824421782552,-0.4431031273773098,1.02134180459514
141,1790995634.3376224,0.9182025878906253,-0.190116650390625,-0.49016469726562467,1.058065103672876,0.9388183155298163,0.021186725095764292,-0.4525824129462492,1.0424296366675185
142,1790995634.362707,0.9421527832031253,-0.194906689453125,-0.4087340332031247,1.0453248272137543,0.9624796712245193,0.017593406705991962,-0.4643793357801184,1.0687959641482396
143,1790995634.3827069,0.8894623535156253,-0.118266064453125,-0.4470543457031247,1.002490762219201,0.9812626006737343,0.01468842446994409,-0.47365789573616685,1.089698969205534
144,1790995634.407822,0.8559320800781253,-0.089525830078125,-0.5668053222656246,1.0304867167055973,1.0045989646843174,0.011196275954384926,-0.48547146168592925,1.1158077686373769
145,1790995634.4278219,0.9565229003906253,-0.156586376953125,-0.5428551269531247,1.1109217079876932,1.023113686869887,0.008463323917493843,-0.49513238018449335,1.1366570802222573
146,1790995634.4527586,0.9229926269531253,-0.156586376953125,-0.43268422851562466,1.031334244783571,1.0462509350429887,0.004981203162134735,-0.507195618888235,1.1627180342983807
147,1790995634.4727585,0.8607221191406254,-0.060785595703124994,-0.49016469726562467,0.992370336854349,1.064699771401574,0.0022812927870168205,-0.5168037160640039,1.1835019596337422
148,1790995634.482928,0.8798822753906254,-0.127846142578125,-0.5380650878906247,1.039255259079999,1.0740010215469287,0.0009705077179175596,-0.5217406223122396,1.194023623359203
149,1790995634.502928,0.9325727050781253,-0.185326611328125,-0.4470543457031247,1.0506642618530178,1.092268254180538,-0.001690441447911998,-0.5314711419887125,1.2147075250650567
150,1790995634.5282426,0.9948432128906253,-0.089525830078125,-0.43268422851562466,1.0885511168943243,1.115580803742693,-0.005075110277077795,-0.5436101836620137,1.2409908614508673
151,1790995634.5482426,0.9565229003906253,-0.02725532226562499,-0.4997447753906247,1.079547938765909,1.1341633786507441,-0.00752325413943883,-0.5531607919126986,1.2618914495846312
152,1790995634.5725276,0.8798822753906254,-0.170956494140625,-0.46142446289062466,1.008132668049865,1.1566875596528385,-0.010411043759330678,-0.5647687903992905,1.2872444550654998
153,1790995634.5925276,0.9277826660156253,-0.24280708007812501,-0.3991539550781247,1.0387780481650717,1.1751663792163016,-0.013053192294226443,-0.5741854608663857,1.3080043379667232
154,1790995634.6181397,1.0187934082031254,-0.151796337890625,-0.44226430664062466,1.1209727265743166,1.1990200641683568,-0.016687210283285042,-0.5860519446304611,1.3346851535363964
155,1790995634.6381397,0.9517328613281253,-0.137426220703125,-0.5141148925781247,1.0904107153908482,1.2178086800161148,-0.019533114901999816,-0.5953628637342357,1.3556904009449195
156,1790995634.647697,0.8703021972656253,-0.180536572265625,-0.5284850097656246,1.0340772572867896,1.2267463266818108,-0.02091698776766577,-0.5998921333079017,1.3657286121368675
157,1790995634.667697,0.9421527832031253,-0.194906689453125,-0.4997447753906247,1.0841518920433604,1.2453628739940128,-0.023941720384602568,-0.6094909291749736,1.3867159358153258
158,1790995634.6924877,0.9565229003906253,-0.089525830078125,-0.46142446289062466,1.065768956283102,1.268507647437099,-0.027657451741994955,-0.6213914107600464,1.412800011186872
159,1790995634.7124877,0.8990424316406254,-0.04641547851562499,-0.4566344238281247,1.0094288917803802,1.2871622574017205,-0.030409383942707775,-0.6309291174008798,1.433800180881395
160,1790995634.7230341,0.8367719238281253,-0.127846142578125,-0.4470543457031247,0.9572823390678306,1.2968967087189665,-0.031780705092247986,-0.6359189528581046,1.4447643409588973
161,1790995634.7430341,0.9182025878906253,-0.132636181640625,-0.48058461914062467,1.0448205229817156,1.315220284868058,-0.03438188257597194,-0.6453536051086999,1.4654240980701387
162,1790995634.7676404,0.9277826660156253,-0.170956494140625,-0.4853746582031247,1.0609407886747098,1.337789157012066,-0.037662375013337274,-0.6570026867111523,1.4908892693477849
163,1790995634.7876403,0.8463520019531253,-0.132636181640625,-0.4757945800781247,0.979941095332769,1.3560427691979506,-0.040384194617179105,-0.6664925723487354,1.5115208315021527
164,1790995634.8283908,0.8990424316406254,-0.07994575195312499,-0.5189049316406247,1.041120043619659,1.3929905922401775,-0.04574782025009985,-0.6859681747473093,1.5534052883563358
165,1790995634.8483908,0.9852631347656253,-0.094315869140625,-0.4757945800781247,1.0981891505253807,1.411230658479114,-0.048246768803079224,-0.6955849056330639,1.5740832516343888
166,1790995634.8425002,0.9325727050781253,-0.103895947265625,-0.36562368164062464,1.0070585358813053,1.411230658479114,-0.048246768803079224,-0.6955849056330639,1.5740832516343888
167,1790995634.8625002,0.8942523925781253,-0.099105908203125,-0.37041372070312467,0.9729931382890633,1.4295945797337735,-0.050609481450318794,-0.7047098560092089,1.5946529287507594
168,1790995634.888229,0.9613129394531253,-0.113476025390625,-0.4662145019531247,1.0744092971162629,1.453255589889789,-0.05360324827765696,-0.7163021256195736,1.6210841597335266
169,1790995634.9082289,0.9661029785156253,-0.123056103515625,-0.5141148925781247,1.1012773912506457,1.4717804876581364,-0.05593614772713127,-0.7254320949223643,1.6418033928632332
170,1790995634.9326575,0.9086225097656253,-0.113476025390625,-0.5332750488281247,1.0596480317982364,1.494448116527159,-0.05879156426790796,-0.736829952666031,1.667258228399688
171,1790995634.9526575,0.8176117675781253,-0.113476025390625,-0.4949547363281247,0.9624687017427234,1.5128119768294224,-0.06111909004841534,-0.7463041195958723,1.687988583886947
172,1790995634.9627554,0.8415619628906253,-0.113476025390625,-0.4374742675781247,0.9552418963361022,1.5219496680305804,-0.06228986347734398,-0.7510762702143043,1.698330469251921
173,1790995634.9827554,0.8846723144531253,-0.137426220703125,-0.4757945800781247,1.0138597302034993,1.5399223505344841,-0.06463721745276985,-0.7604801036323651,1.718682286979295
174,1790995635.0074954,0.8415619628906253,-0.094315869140625,-0.4757945800781247,0.9713405700308172,1.5620227560338387,-0.06753534033058342,-0.7721334383040295,1.7437506011779091
175,1790995635.0274954,0.9086225097656253,-0.02725532226562499,-0.4566344238281247,1.0172771082008236,1.5798342399528595,-0.06970913107379653,-0.7815396251427162,1.7639557177975616
176,1790995635.0531263,0.9421527832031253,-0.04641547851562499,-0.41352407226562465,1.029955543645635,1.6027943672466396,-0.07221869604734266,-0.7934586634571955,1.7898999900417938
177,1790995635.0731263,0.8846723144531253,-0.094315869140625,-0.42310415039062466,0.9851688734472751,1.6207631356594354,-0.0740942868608979,-0.8026190256097884,1.810127179379625
178,1790995635.0826402,0.9134125488281253,-0.147006298828125,-0.5236949707031247,1.0631038324602085,1.6293116174021436,-0.07502485459998434,-0.8069984975333804,1.8197614267893667
179,1790995635.1026402,0.9852631347656253,-0.190116650390625,-0.5093248535156247,1.1252997786779533,1.6474346194040315,-0.07719333837507603,-0.8163735551753587,1.8402351529872614
180,1790995635.1281412,0.9038324707031253,-0.175746533203125,-0.44226430664062466,1.0214684018404805,1.6706892604848653,-0.08024326937770748,-0.8283541736772769,1.866497314337327
181,1790995635.1481411,0.8655121582031253,-0.132636181640625,-0.49016469726562467,1.003476498540518,1.6888457384434765,-0.08273904765054811,-0.8377395700177441,1.8870223277529934
182,1790995635.1726127,1.0187934082031254,-0.166166455078125,-0.4997447753906247,1.1468636099910035,1.711187600384905,-0.08588317014211384,-0.8493176080436534,1.9122968707702528
183,1790995635.1926126,1.0523236816406254,-0.180536572265625,-0.4566344238281247,1.1612465637804683,1.7298148156879858,-0.08858739698778606,-0.8587952577043291,1.933296748596598
184,1790995635.2183456,0.8750922363281253,-0.132636181640625,-0.43268422851562466,0.9851875051827066,1.7539063946937379,-0.09214929902483286,-0.8708768828213664,1.9603840643330617
185,1790995635.2383456,0.8415619628906253,-0.132636181640625,-0.43268422851562466,0.955528406522113,1.7723969895451466,-0.09490030596671059,-0.8801564163492168,1.9811795662841793
186,1790995635.2483845,0.9373627441406253,-0.151796337890625,-0.38478383789062465,1.024572908192329,1.7816254095104878,-0.09628818081971724,-0.8847310277180104,1.9915344599042093
187,1790995635.2683845,0.9325727050781253,-0.132636181640625,-0.37520375976562464,1.013933956566796,1.800057891627903,-0.09906508282418774,-0.8936177417918758,2.0121070976198228
188,1790995635.2927063,0.8655121582031253,-0.05599555664062499,-0.48058461914062467,0.9915686433704247,1.8223910778907868,-0.10227959293676309,-0.9043648091613395,2.0370189159545573
189,1790995635.3127062,0.8942523925781253,-0.06557563476562499,-0.5428551269531247,1.0481789896605966,1.8406407465437575,-0.10470876648513812,-0.9134117473773282,2.057484703190501
190,1790995635.3383243,0.8415619628906253,-0.137426220703125,-0.41352407226562465,0.9476891166749842,1.8638455420302604,-0.10774361480260512,-0.9250993204531966,2.0835876856469886
191,1790995635.3583243,0.7888715332031253,-0.060785595703124994,-0.3895738769531247,0.8819189249287724,1.8816897367364043,-0.11005483725125684,-0.934059761405345,2.1036482525408395
192,1790995635.3678615,0.8750922363281253,0.006274951171875012,-0.5284850097656246,1.0223121845311935,1.8901127832278992,-0.11103064121636246,-0.938348396695716,2.1131379155634527
193,1790995635.3878615,0.9421527832031253,-0.06557563476562499,-0.5476451660156246,1.091726732581277,1.907852630615676,-0.11285895138156958,-0.9476070329721652,2.133213044211106
194,1790995635.4131753,0.8990424316406254,-0.151796337890625,-0.4470543457031247,1.0154688622007777,1.930433446062021,-0.11523860946135249,-0.9594563185343702,2.158798196673557
195,1790995635.4331753,0.7745014160156253,-0.05120551757812499,-0.43268422851562466,0.8886450866610436,1.948108320837303,-0.11714121504934787,-0.9687335305149084,2.178828296842744
196,1790995635.4576676,0.7745014160156253,0.001484912109375011,-0.46142446289062466,0.9015360133284097,1.9693518843912898,-0.11921301221512429,-0.9800327924009193,2.20295775288998
197,1790995635.4776676,0.9182025878906253,-0.07515571289062499,-0.44226430664062466,1.021930570301844,1.9866360117282114,-0.12076154455975154,-0.989231097412783,2.222585017007973
198,1790995635.4877014,0.9229926269531253,-0.113476025390625,-0.42310415039062466,1.0216698683165992,1.995392205422125,-0.12156385155814496,-0.9938048351238914,2.232490957155403
199,1790995635.5077014,0.8990424316406254,-0.113476025390625,-0.46142446289062466,1.0168906712044534,2.012960559064652,-0.12326359916559722,-1.0028807458800397,2.2523263346340463
200,1790995635.5333056,0.9421527832031253,-0.175746533203125,-0.49016469726562467,1.076475796883429,2.0356137993089805,-0.125668632662097,-1.0145843391516052,2.2779151710333734
201,1790995635.5533056,1.0140033691406254,-0.238017041015625,-0.46142446289062466,1.1391959793627584,2.0535886879060707,-0.1278861034884471,-1.0237823420740264,2.2981974759588906
202,1790995635.5781138,0.8942523925781253,-0.290707470703125,-0.4757945800781247,1.0538399582413018,2.0760910034513733,-0.13120784128541874,-1.0352240411476097,2.3235873488200305
203,1790995635.5981138,0.8559320800781253,-0.357768017578125,-0.4757945800781247,1.0425920403208375,2.0941361584439733,-0.13445679937177385,-1.0444919337782221,2.3440239505447793
204,1790995635.607672,0.9469428222656253,-0.472728955078125,-0.5811754394531247,1.2074511439529039,2.102758950125116,-0.13637195813547723,-1.0490144783593822,2.3538529879974646
205,1790995635.627672,0.9469428222656253,-0.530209423828125,-0.6051256347656246,1.2425778750674101,2.120936063673151,-0.14128261911681989,-1.0588376161890063,2.374756337418786
206,1790995635.6532016,0.8176117675781253,-0.568529736328125,-0.5236949707031247,1.1251539832002109,2.1440370449032358,-0.14871451519758652,-1.0716571964386172,2.401553664531886
207,1790995635.6732016,0.7792914550781253,-0.721810986328125,-0.33209340820312466,1.1129206187836262,2.1618151669477546,-0.15559886808794784,-1.0814773397640653,2.422240504206541
208,1790995635.6976757,0.9469428222656253,-0.501469189453125,-0.26503286132812465,1.1038181345651714,2.1834757260942754,-0.16500504741751654,-1.092787844148495,2.447238889940027
209,1790995635.7176757,1.1098041503906253,-0.352977978515625,-0.3177232910156247,1.207148207634437,2.2016064833928497,-0.17282034264715146,-1.1015183663635932,2.4678494058565303
210,1790995635.728511,0.9325727050781253,-0.362558056640625,-0.27461293945312465,1.0375704608395733,2.2116155429087625,-0.17700081217391278,-1.1060201837721366,2.479083145853966
211,1790995635.748511,0.5828998535156253,-0.271547314453125,-0.09259145507812466,0.6496794292331612,2.229592249734298,-0.1845108277016487,-1.1136340201126573,2.4990611389813324
212,1790995635.7725146,0.4104584472656253,-0.233227001953125,0.08463999023437535,0.47961953600601615,2.2497194927040263,-0.1930808962714791,-1.1214155897196052,2.5211289045234535
213,1790995635.7925146,0.5302094238281253,-0.166166455078125,0.04631967773437535,0.5575650961590042,2.2653851944721173,-0.1997495587441236,-1.1267302852690249,2.5379895786417963
214,1790995635.8176959,0.5110492675781253,-0.0033051269531249893,-0.020740869140624653,0.5114806559480262,2.284117240455033,-0.20720646481667188,-1.1323697962400259,2.5578091098912004
215,1790995635.8376958,0.5302094238281253,0.15476616210937502,-0.04469106445312465,0.5541406764461271,2.298325200095496,-0.21201345817811335,-1.1362751986314163,2.572619240942489
216,1790995635.863027,0.5206293457031252,0.07812553710937502,-0.0015807128906246515,0.5264608378684356,2.3156176286907013,-0.21674611081345665,-1.1405675840587197,2.5903587189154806
217,1790995635.883027,0.3817182128906253,0.16913627929687503,-0.025530908203124654,0.41829140835125894,2.328576217731409,-0.2195513345128768,-1.1434889011392062,2.603466315760442
218,1790995635.892578,0.12305610351562526,0.09249565429687502,0.01757944335937535,0.1549428523846156,2.3341978113609754,-0.22050259255712548,-1.144680388108757,2.609098312982398
219,1790995635.9125779,-0.04459526367187474,0.19787651367187503,0.02236948242187535,0.2040692185233294,2.3443216697300584,-0.22176022844617949,-1.1467412544758915,2.619167271253093
220,1790995635.93893,-0.20745659179687476,0.09249565429687502,0.06068979492187535,0.23511047350435374,2.3551619104255015,-0.22259484542023414,-1.148885199815084,2.629880851270814
221,1790995635.95893,-0.15476616210937474,0.17392631835937503,-0.12612172851562467,0.26478221155485665,2.3616116986752242,-0.22273363061112442,-1.1503664230945094,2.636316178478626
222,1790995635.9834898,0.7697113769531253,0.34636772460937504,-0.5045348144531246,0.9833522173958835,2.3694766386944814,-0.2219201218406896,-1.1530741657016244,2.6444750165969015
223,1790995636.0034897,1.2726654785156253,0.25535698242187505,-0.6961363769531247,1.4729190283224785,2.377984227467658,-0.2204544336691935,-1.1567494409159926,2.6535784164913654
224,1790995636.027748,0.6499604003906253,0.231406787109375,-0.3464635253906247,0.7720327697852764,2.390253381233265,-0.21805772829205564,-1.162435466710474,2.6668551917251424
225,1790995636.047748,-0.48048881835937474,0.6960405761718751,0.05589975585937535,0.8476241920516437,2.399105666910319,-0.21498697565567257,-1.166856011899252,2.6764678875727625
226,1790995636.0584316,-0.6529302246093748,1.3235356933593752,0.13733041992187536,1.4822025010236117,2.4022168844518736,-0.21197448189878682,-1.1687083350705072,2.679824306439734
227,1790995636.0784316,0.2859174316406253,1.534297412109375,-0.11175161132812465,1.5647062820721114,2.4066170342874864,-0.2028941602609806,-1.1716174425539336,2.684335862310699
228,1790995636.1184623,0.9182025878906253,1.1702544433593751,-0.3799937988281247,1.5352481043008104,2.417718174737682,-0.17932585788812241,-1.1780430969932323,2.695422874826439
229,1790995636.1384623,0.6308002441406253,0.906802294921875,-0.31293325195312466,1.1480969341747278,2.4247560365868637,-0.166201443041475,-1.1818112915349586,2.702543743481876
230,1790995636.132986,0.20927680664062528,1.179834521484375,-0.34167348632812466,1.2460124602681857,2.4247560365868637,-0.166201443041475,-1.1818112915349586,2.702543743481876
231,1790995636.152986,0.4535687988281253,1.3570659667968752,-0.37520375976562464,1.4792330968616767,2.4319062564511595,-0.15025324680771185,-1.1864437497303448,2.7100540307559835
232,1790995636.1786757,0.4391986816406253,1.107983935546875,-0.24108266601562467,1.215995368098911,2.441433044809681,-0.1280913993830023,-1.1926889213149228,2.720203959616249
233,1790995636.1986756,0.24759711914062527,0.9355425292968751,-0.34167348632812466,1.026296706020996,2.4487675488323877,-0.11036060520198243,-1.1976957701994726,2.728207677092936
234,1790995636.2226112,0.3960883300781253,0.7774712402343751,-0.4374742675781247,0.9760795200231751,2.457384184629925,-0.08924859463742985,-1.2041877480247054,2.738023096141968
235,1790995636.2426112,0.9421527832031253,0.5619194824218751,-0.6147057128906247,1.2574849840387894,2.4655114217069576,-0.07224492120043305,-1.2103768772481778,2.7475403698915453
236,1790995636.268308,0.9756830566406253,0.24577690429687502,-0.7200865722656247,1.2372907440285026,2.478083445583085,-0.052118348412442755,-1.2197085936071914,2.7624813010830334
237,1790995636.288308,0.7218109863281253,0.19787651367187503,-0.6626061035156247,0.9996064540923472,2.488946851371247,-0.038137902950950445,-1.2279561350474184,2.7756417633032067
238,1790995636.2985408,0.9852631347656253,0.24577690429687502,-0.7488268066406247,1.2617017546779974,2.494981470939108,-0.03171732036105754,-1.2326262202931053,2.7830389734415197
239,1790995636.3185408,1.2870355957031254,-0.161376416015625,-0.7152965332031247,1.4812670598731872,2.5084152438949125,-0.02092419033498679,-1.2425808271432286,2.7993913569791378
240,1790995636.3435063,1.2582953613281254,-0.372138134765625,-0.8158873535156247,1.5451427705275154,2.5274348722819533,-0.010471253170980369,-1.2560100321734664,2.8223390798573895
241,1790995636.3635063,1.3828363769531253,-0.496679150390625,-0.9595885253906247,1.7549178789672617,2.544347760947033,-0.0046566718155527445,-1.267817704494948,2.8427256190247094
242,1790995636.3732762,1.7612494628906255,-0.707440869140625,-1.0553893066406248,2.1717087379375575,2.5536741710628204,-0.003124642002357558,-1.274196970417935,2.853916511526444
243,1790995636.3932762,1.8139398925781254,-0.836771923828125,-1.0026988769531247,2.235166710613868,2.5752652176649917,-0.0027751755142710697,-1.2883842372872354,2.8795715976173373
244,1790995636.4184601,1.7468793457031253,-1.1433344238281251,-1.0362291503906247,2.3307878293130515,2.605100144675912,-0.006141147840693904,-1.3074202310779517,2.914778231378707
245,1790995636.43846,1.8091498535156254,-1.478637158203125,-1.1751402832031248,2.6154054605933177,2.630573754756953,-0.012346245110919453,-1.3235872131336823,2.9448181301661775
246,1790995636.462973,1.7085590332031253,-1.598388134765625,-1.2230406738281248,2.6400467967703687,2.6635794789399414,-0.02446777427126249,-1.3448390326384503,2.983931355831712
247,1790995636.482973,1.7708295410156254,-1.512167431640625,-1.2182506347656248,2.628045321860919,2.6916883146607784,-0.037539989455997555,-1.3632392884484943,3.017452003207225
248,1790995636.4935694,1.9528510253906253,-1.469057080078125,-1.2422008300781247,2.7413169707539597,2.707306193477953,-0.04579619937992763,-1.373481070447444,3.036124893346647
249,1790995636.5135694,2.0821820800781254,-1.507377392578125,-1.2278307128906247,2.848725518152213,2.7384150593667154,-0.06350657992952634,-1.393617371677173,3.0732913141616023
250,1790995636.5377336,2.010331494140625,-1.564857861328125,-1.1272398925781246,2.785836071615423,2.777780149721859,-0.08726263519257034,-1.4185650694391114,3.1202570701662284
251,1790995636.5577335,1.9097406738281253,-1.445106884765625,-1.2038805175781246,2.680442435545797,2.811354357801634,-0.10849042416609977,-1.439612936516491,3.1603748043945057
252,1790995636.5832915,1.9959613769531253,-1.469057080078125,-1.2901012207031246,2.7939849109248915,2.855309837116458,-0.1371343983715763,-1.4672560505741425,3.2131667288046506
253,1790995636.6032915,2.0630219238281255,-1.478637158203125,-0.9452184082031247,2.708480227548387,2.890635436964512,-0.1606085685574053,-1.4889959344670478,3.255560970798807
254,1790995636.6432617,2.2402533691406252,-1.224765087890625,-0.8973180175781247,2.7062823768284026,2.963544408301954,-0.20858908192037323,-1.5314496869659793,3.3423708664333405
255,1790995636.6632617,2.283363720703125,-1.0571137207031251,-1.1751402832031248,2.777083719431005,3.001339244121886,-0.23241881940488027,-1.5526146692675669,3.3871327221035386
256,1790995636.6582851,1.9384809082031254,-1.234345166015625,-1.1464000488281247,2.568180151836565,3.001339244121886,-0.23241881940488027,-1.5526146692675669,3.3871327221035386
257,1790995636.6782851,1.6223383300781253,-1.291825634765625,-0.9356383300781247,2.275129493587051,3.039370083533784,-0.2563466646191941,-1.5739893846709416,3.432335458576034
258,1790995636.7035844,1.6989789550781254,-1.167284619140625,-0.8973180175781247,2.2481686984189975,3.0865636963010505,-0.2867404383075196,-1.6004498830425609,3.488629438392008
259,1790995636.7235844,1.6271283691406253,-1.047533642578125,-1.0122789550781246,2.18393730333297,3.123264809504509,-0.31048589328272935,-1.6210945247632895,3.5325814949459167
260,1790995636.7483253,1.5840180175781253,-1.071483837890625,-1.1751402832031248,2.244581337372223,3.1678141963672086,-0.33938600411036884,-1.6468610835043456,3.586416187624177
261,1790995636.7683253,1.7516693847656253,-1.196024853515625,-1.1703502441406246,2.4225071264523197,3.203428484727006,-0.3626450998343807,-1.6680840264523862,3.62987187714661
262,1790995636.7778244,1.8905805175781254,-1.128964306640625,-1.0937096191406248,2.458669524380056,3.2204012141291964,-0.37369144550264044,-1.6782649469822233,3.650644122435916
263,1790995636.7978244,1.8235199707031253,-0.707440869140625,-1.2757311035156247,2.335206096977473,3.2563475470852588,-0.39621510565207635,-1.7000393545293893,3.694715085673558
264,1790995636.8236034,1.5361176269531254,-0.669120556640625,-1.4577525878906248,2.2209057365536644,3.3022262797279427,-0.42355370784951873,-1.729180577224865,3.7515545597272926
265,1790995636.8436034,1.3924164550781253,-1.1433344238281251,-1.3140514160156247,2.2299704735747943,3.3368738360743544,-0.44430084632951383,-1.7525554771012595,3.7952049931781446
266,1790995636.8688657,1.6223383300781253,-1.4594770019531251,-1.1943004394531247,2.4876511644820076,3.379785210241434,-0.4715075214512782,-1.7824044809110602,3.8499653431847523
267,1790995636.8888657,1.7277191894531254,-1.3397260253906251,-1.2134605957031248,2.500473162830929,3.4136869598740467,-0.4940147109428205,-1.8061026297458902,3.893496616643843
268,1790995636.8986099,1.6893988769531254,-1.0235834472656251,-1.2086705566406246,2.315745269552897,3.4302238796776057,-0.505062693423708,-1.8176868088715143,3.91478090372174
269,1790995636.9186099,1.8426801269531254,-0.980473095703125,-1.1559801269531247,2.3860191943017175,3.4643728286200237,-0.5273434364829812,-1.8414439083214946,3.9586469738001044
