imu_index,t_imu,ax,ay,az,mag,vx,vy,vz,velocity
0,1791274515.8361697,-0.036595898437499934,0.04344565429687497,-0.08650810546874975,0.10349124103770188,0.0,0.0,0.0,0.0
1,1791274515.8561697,0.025674609375000067,-0.07630532226562503,-0.13919853515624975,0.16080397993291531,-6.304164398030815e-05,6.103701454441634e-06,-0.000448857367346004,0.0004533039160077601
2,1791274515.881396,0.05920488281250007,-0.09067543945312503,-0.04339775390624974,0.1166645555126604,2.9960092384430134e-05,-0.00030327608444602624,-0.0012755547238129145,0.0013114548577720993
3,1791274515.901396,0.011304492187500065,0.03386557617187497,0.038032910156250266,0.05216484494392483,0.000198397715575326,-0.0005969811419536009,-0.0018407114762004442,0.0019452421124399276
4,1791274515.941331,-0.0030656249999999347,0.05302573242187497,-0.02902763671874974,0.06052875390252649,0.0005089520926856184,-0.0008352177700689698,-0.002772942753796466,0.002940379647583009
5,1791274515.961331,0.08794511718750007,-0.014034814453125034,-0.14398857421874975,0.16930454559581432,0.0007684719379473411,-0.000878147040139154,-0.003429310863618042,0.0036224113988952747
6,1791274515.955852,0.15500566406250008,-0.028404931640625034,-0.08650810546874975,0.1797699873303593,0.0007684719379473411,-0.000878147040139154,-0.003429310863618042,0.0036224113988952747
7,1791274515.975852,0.09273515625000008,-0.033194970703125035,0.04761298828125026,0.10940160847886896,0.0016373478529030515,-0.0010556738278266892,-0.004255762429438107,0.0046804774412426585
8,1791274516.0014238,0.030464648437500068,0.014705419921874968,0.0045026367187502615,0.034126498749801316,0.002817928525947401,-0.0012840714295743424,-0.005054001033683232,0.005927266407212381
9,1791274516.0214238,0.07357500000000007,0.03865561523437497,-0.05297783203124974,0.098560579852593,0.0037588302995028794,-0.0013558672120417912,-0.005657377655106854,0.006926261838080713
10,1791274516.0457094,0.09273515625000008,-0.04756508789062504,-0.07692802734374975,0.12953828847779147,0.005032889978445489,-0.0014461981619185024,-0.00651675772226093,0.008360000111801491
11,1791274516.0657094,0.10231523437500006,-0.04277504882812504,0.033242871093750265,0.11577219211026184,0.006217312063751452,-0.0016449402574001384,-0.0071838548158684535,0.00964202093774751
12,1791274516.076537,0.08315507812500007,0.08655600585937497,-0.005077441406249739,0.1201352969761049,0.00691296275639933,-0.001700842586345225,-0.007467961340100866,0.010317575594689427
13,1791274516.0965369,0.049624804687500065,0.08655600585937497,-0.08171806640624975,0.12896668472042275,0.008204351770226194,-0.0015289453134112447,-0.008044221239184843,0.011591313863663964
14,1791274516.1210828,0.09752519531250008,-0.04756508789062504,-0.05297783203124974,0.12074871425201796,0.009822426257302194,-0.001277841658768439,-0.008893344251274927,0.013311818390314242
15,1791274516.1410828,0.08794511718750007,-0.061935205078125034,0.023662792968750263,0.11013737347637478,0.011221276094299893,-0.0012681827888855939,-0.009525401651747738,0.014773577813029936
16,1791274516.1663046,0.08315507812500007,0.009915380859374968,0.023662792968750263,0.0870230404355264,0.013044402633563766,-0.0013562317866489743,-0.010113399214787176,0.016561299719626485
17,1791274516.1863046,0.09752519531250008,0.04344565429687497,-0.07692802734374975,0.1315925909351494,0.014544244333462414,-0.0013355369893840111,-0.010589618397469264,0.01804047449723776
18,1791274516.1961715,0.11189531250000007,-0.06672524414062504,-0.07692802734374975,0.15129686234717293,0.015328172469425942,-0.001344086107273108,-0.010903175741606833,0.018858384871684945
19,1791274516.2161715,0.11189531250000007,-0.04277504882812504,-0.01465751953124974,0.12068599189852201,0.01701450460778692,-0.0015230658478051905,-0.011580788573040603,0.02063801736113769
20,1791274516.2410944,0.09273515625000008,0.07218588867187498,-0.01465751953124974,0.11842911215942313,0.019183202825836864,-0.0016576699923219762,-0.012353327087444514,0.02287679677293197
21,1791274516.2610943,0.06878496093750007,0.11529624023437497,-0.07213798828124975,0.1524089341758607,0.020904761339366494,-0.0014682611446532488,-0.013010472134871704,0.02466652027783902
22,1791274516.286748,0.049624804687500065,-0.04756508789062504,-0.05297783203124974,0.08678542223810819,0.02300956331650319,-0.0011314365472648122,-0.013967668972616734,0.026940971200111845
23,1791274516.306748,0.044834765625000064,-0.061935205078125034,0.033242871093750265,0.08337394266360316,0.024546050870064923,-0.0010724818007542371,-0.014631581201323803,0.02859618853937874
24,1791274516.3316417,0.044834765625000064,-0.028404931640625034,-0.009867480468749738,0.0539848452897517,0.026339048830727678,-0.0011787764446211505,-0.015290348333416167,0.030478349026334305
25,1791274516.3516417,0.030464648437500068,-0.05235512695312503,-0.07213798828124975,0.09419683368332525,0.027676438644864555,-0.0013725051770983891,-0.015863229409848332,0.03192978349180575
26,1791274516.3611937,0.054414843750000066,-0.07151528320312503,-0.11045830078124974,0.14239539024645825,0.028280173723237923,-0.0015398921643997323,-0.01622660848921546,0.03264111390189948
27,1791274516.3811936,0.04004472656250007,-0.023614892578125032,0.028452832031250264,0.05450510918749108,0.029496348333626205,-0.0019804909235324863,-0.016996333199282447,0.03410032626732241
28,1791274516.4060633,0.016094531250000065,-0.023614892578125032,0.01887275390625026,0.03424730540698783,0.030886511604280516,-0.002534281481205097,-0.017721630380776038,0.03569951491351358
29,1791274516.4260633,0.04004472656250007,-0.07630532226562503,-0.11524833984374974,0.14390365585441783,0.03192098405214621,-0.0030627121826530043,-0.018361979660313815,0.03695256047714315
30,1791274516.4515731,0.054414843750000066,-0.10504555664062504,-0.09129814453124974,0.149435254826713,0.03322325060135477,-0.00398258767837454,-0.019451398986970136,0.03870403477270378
31,1791274516.471573,-0.022225781249999937,-0.028404931640625034,0.014082714843750262,0.0387188371603773,0.03413937632993267,-0.004795776551784706,-0.02029322089194095,0.040003891099498354
32,1791274516.480577,0.049624804687500065,0.02428549804687497,0.033242871093750265,0.06447864091474784,0.03450844804176509,-0.005109737421603763,-0.02058339827591834,0.04050455143998038
33,1791274516.500577,0.13584550781250007,-0.023614892578125032,-0.10087822265624974,0.17084519586630553,0.0354834878056626,-0.00570151274822186,-0.021232727468324865,0.04174223125585047
34,1791274516.526061,0.15021562500000007,-0.018824853515625035,-0.08171806640624975,0.17203764553492829,0.03708627912420219,-0.006423564959869768,-0.02228499690790273,0.04374100334076867
35,1791274516.546061,0.13105546875000007,-0.014034814453125034,0.09551337890625027,0.16277382300635695,0.038577379188385885,-0.006954522712963906,-0.02296625434693031,0.045431579434766896
36,1791274516.5708663,0.04004472656250007,0.04344565429687497,0.07156318359375026,0.09280298620638118,0.040467650964089566,-0.007459556614284881,-0.023373625127984445,0.04732443460894854
37,1791274516.5908663,0.09273515625000008,-0.05235512695312503,-0.07213798828124975,0.12862642759656934,0.04196229293571465,-0.00781903900209555,-0.023653673419857555,0.048800283458114206
38,1791274516.6013236,0.15021562500000007,-0.07151528320312503,-0.06734794921874974,0.17948514141770933,0.04281710898214454,-0.00807595649461767,-0.023887534835535282,0.04969044390434354
39,1791274516.6213236,0.025674609375000067,-0.033194970703125035,0.061983105468750264,0.07485316967296969,0.04447058485727462,-0.008650682373211916,-0.024275761385070833,0.05139824718699226
40,1791274516.6461189,0.030464648437500068,0.00033530273437496735,0.009292675781250263,0.03185217505162857,0.046317418578812566,-0.009317436458229283,-0.02455232711271157,0.05324410439295287
41,1791274516.6661189,0.12147539062500007,-0.05235512695312503,-0.09608818359374974,0.16349394139270224,0.047811542225285095,-0.009852601604131738,-0.024872137397880734,0.05478722978093542
42,1791274516.6911275,0.07357500000000007,-0.12420571289062504,-0.09608818359374974,0.17341648931406306,0.049765447634420576,-0.01075257899607657,-0.025572509879556348,0.05697517876111606
43,1791274516.7111275,0.025674609375000067,-0.07630532226562503,-0.005077441406249739,0.0806688798971055,0.051242515251960094,-0.011665116936006453,-0.026200345737862618,0.058722469628427615
44,1791274516.72132,0.044834765625000064,-0.11462563476562504,0.014082714843750262,0.12388508873727111,0.05193624667212867,-0.01220636080668296,-0.02646542600027513,0.05955491361682226
45,1791274516.74132,0.09752519531250008,-0.12899575195312504,-0.06734794921874974,0.17517652241857282,0.05330686713094987,-0.013474537937912494,-0.026987453470584392,0.06124955429049214
46,1791274516.7657814,0.04004472656250007,-0.10983559570312504,-0.07213798828124975,0.13737295062053323,0.05498417239782492,-0.015231117114034758,-0.027786063823234973,0.06346110214614982
47,1791274516.7857814,-0.022225781249999937,-0.13378579101562504,0.014082714843750262,0.13634861967478706,0.056176575554916355,-0.016817316500781415,-0.02842815589834763,0.06516739846844768
48,1791274516.8113647,0.06878496093750007,-0.04756508789062504,0.028452832031250264,0.0883366972883571,0.05756239865164554,-0.018889941162513888,-0.029044681252638954,0.06718521507535416
49,1791274516.8313646,0.09752519531250008,-0.05714516601562503,-0.01465751953124974,0.11398059746511072,0.05873273782659915,-0.020424257600603134,-0.029433667057347023,0.068796987925247
50,1791274516.8414154,0.06878496093750007,-0.14815590820312505,-0.04818779296874974,0.1703044549560149,0.05935802383274417,-0.021234411177433802,-0.029647198867739023,0.06966513914494261
51,1791274516.8614154,0.030464648437500068,-0.17210610351562505,0.0045026367187502615,0.17483958192918606,0.0605645134057294,-0.02308510598338912,-0.030073896480545186,0.07145223335809478
52,1791274516.901136,0.030464648437500068,-0.10025551757812504,0.04761298828125026,0.11509239880352086,0.06278272866451676,-0.027020685170292352,-0.030638960575654545,0.07490350025727038
53,1791274516.921136,0.05920488281250007,-0.09067543945312503,-0.009867480468749738,0.10874107153996766,0.06386660632902987,-0.02899146906573359,-0.030824184034677828,0.07661317774365159
54,1791274516.930966,0.08315507812500007,-0.17210610351562505,-0.06255791015624974,0.20111879576117028,0.06442437852080782,-0.030008549580166702,-0.0309549614319164,0.077519179774744
55,1791274516.950966,0.07357500000000007,-0.13857583007812505,-0.005077441406249739,0.15697873014544134,0.06562408380349675,-0.0322335095483395,-0.03128258059663365,0.07952433188424873
56,1791274516.9764102,0.07836503906250007,-0.028404931640625034,0.009292675781250263,0.08387057476821759,0.0672113743110896,-0.03495819501628079,-0.03162881820181259,0.08209644557729052
57,1791274516.9964101,0.11189531250000007,-0.023614892578125032,-0.03860771484374974,0.12070120031054103,0.06855727499806201,-0.036856658523352494,-0.031904121146276374,0.08412125878030588
58,1791274517.0059116,0.14063554687500007,-0.12899575195312504,-0.05297783203124974,0.19805280041825668,0.06928072210921157,-0.0377320332335532,-0.03208055657771037,0.0851627083778307
59,1791274517.0259116,0.08315507812500007,-0.14336586914062505,0.04282294921875027,0.17117927570887007,0.07091079751155616,-0.039706793545649474,-0.032411466725681105,0.08749556464593895
60,1791274517.051476,0.0017244140625000655,-0.10504555664062504,0.06677314453125026,0.12448371541847933,0.07284459936251185,-0.042328636974659724,-0.032560864951914244,0.09032308171688004
61,1791274517.071476,0.07357500000000007,-0.12899575195312504,-0.16314873046874975,0.22061435334201834,0.07424349910341402,-0.04442318719406013,-0.032804775888593415,0.09252929287905526
62,1791274517.1116953,0.05920488281250007,-0.22000649414062504,-0.22062919921874974,0.3171518865792816,0.07703519306633572,-0.049056195465961634,-0.03437934443794982,0.09758519666601817
63,1791274517.1316953,0.08315507812500007,-0.14336586914062505,0.06677314453125026,0.1786818185574932,0.07842873205603049,-0.05155954346399754,-0.03527567034534156,0.10026876608618303
64,1791274517.126748,0.10710527343750006,0.02428549804687497,0.11946357421875027,0.16227406009164028,0.07842873205603049,-0.05155954346399754,-0.03527567034534156,0.10026876608618303
65,1791274517.146748,0.0017244140625000655,-0.018824853515625035,-0.005077441406249739,0.019573684501840414,0.07984139006855086,-0.05351184876194369,-0.035514235187889466,0.10246670887161523
66,1791274517.1708138,0.06878496093750007,-0.15294594726562505,-0.10566826171874974,0.19821608201862673,0.08141351357641216,-0.055818690395664755,-0.03595812626561631,0.10505652399959618
67,1791274517.1908138,0.11668535156250007,-0.13378579101562504,-0.09608818359374974,0.20185898090817483,0.08280226356128093,-0.05787833573281369,-0.03657432438053583,0.1074420671895547
68,1791274517.2159708,0.08794511718750007,-0.10025551757812504,0.04282294921875027,0.14006897380138303,0.08467316804852,-0.06052203462816161,-0.03733364583960274,0.11057243406284492
69,1791274517.2359707,0.05920488281250007,-0.023614892578125032,-0.005077441406249739,0.06394264392056485,0.08615816830092687,-0.062494336206166116,-0.037790143878969805,0.11294630138793127
70,1791274517.2460167,0.08794511718750007,-0.08588540039062503,-0.06255791015624974,0.13792801659017107,0.08690306774505921,-0.06341892450831108,-0.03803600816934151,0.11410890012068044
71,1791274517.2660167,0.19811601562500009,-0.15773598632812505,-0.04339775390624974,0.2569318237862705,0.08859268778850339,-0.06534895687038421,-0.03861099633830918,0.11666173122269144
72,1791274517.2910848,0.10231523437500006,-0.12420571289062504,0.06677314453125026,0.17422433564364884,0.09095763880994266,-0.06793527920621749,-0.03917963650905791,0.12009803551968956
73,1791274517.3110847,0.011304492187500065,-0.061935205078125034,-0.009867480468749738,0.06372698284469312,0.09273186819708572,-0.06996841402217294,-0.03947990345182358,0.12269246560675678
74,1791274517.336351,0.020884570312500066,-0.09546547851562504,-0.06255791015624974,0.11603152583876694,0.09469805633332334,-0.07244988960619678,-0.03993957749973883,0.12574529107730845
75,1791274517.356351,0.07836503906250007,-0.09546547851562504,-0.05297783203124974,0.13439266208471257,0.09616985235316669,-0.0744059113533356,-0.040422166098875396,0.1281359889261225
76,1791274517.366409,0.09273515625000008,-0.09546547851562504,-0.03381767578124974,0.137321163657227,0.09692807607905075,-0.07538608779438047,-0.04069393466980637,0.12936038993540008
77,1791274517.386409,0.03525468750000007,-0.16252602539062505,0.014082714843750262,0.16690094300922073,0.0984015858268984,-0.0774297371315431,-0.041182871512780966,0.13181147594783446
78,1791274517.4113533,0.06399492187500007,-0.16731606445312505,-0.005077441406249739,0.1792088051996987,0.10014938203988495,-0.080213355397514,-0.041684362807824976,0.13491355458141743
79,1791274517.4313533,0.12147539062500007,-0.004454736328125033,-0.16314873046874975,0.20345422939033295,0.10161874116740954,-0.0823680962625501,-0.04227847698135416,0.13747123864368352
80,1791274517.4564257,0.03525468750000007,-0.11462563476562504,-0.10566826171874974,0.15983651232058124,0.10347917315807773,-0.08488805664849051,-0.04341704062303515,0.14070878030705494
81,1791274517.4764256,0.07357500000000007,-0.19605629882812503,-0.009867480468749738,0.20963950034758294,0.10490386016231795,-0.08706270670778622,-0.04436233289959117,0.1433623080050517
82,1791274517.4856272,0.15500566406250008,-0.07151528320312503,-0.03381767578124974,0.17402536257202722,0.10561875257951386,-0.08809779181630444,-0.04476215162466854,0.1446381417103777
83,1791274517.5056272,0.10231523437500006,-0.023614892578125032,-0.009867480468749738,0.10546770836369176,0.10732550998837369,-0.09015282505347291,-0.045566351487463595,0.14738585192366896
84,1791274517.5313141,0.044834765625000064,-0.028404931640625034,-0.04339775390624974,0.0685591816919126,0.10947226098494216,-0.0924965174430643,-0.046546911319678495,0.15068641815921036
85,1791274517.551314,0.030464648437500068,-0.10983559570312504,-0.03381767578124974,0.11889317929606617,0.11100595829729566,-0.09425496476280568,-0.04731168186368269,0.15311667577605323
86,1791274517.5759196,0.06399492187500007,-0.12420571289062504,-0.04818779296874974,0.14779875686775862,0.11278411665238329,-0.09652573814730776,-0.048262763400116954,0.15609858879873545
87,1791274517.5959196,0.06399492187500007,-0.11462563476562504,-0.11045830078124974,0.17156754466591537,0.11420463338038452,-0.09845286539953237,-0.04915783590478288,0.15859431837795462
88,1791274517.606654,0.030464648437500068,-0.17210610351562505,-0.06734794921874974,0.18730817370238498,0.11492873286916207,-0.09956287849882314,-0.04970932324128465,0.15997623958259913
89,1791274517.626654,0.025674609375000067,-0.19126625976562503,0.038032910156250266,0.19669384826741226,0.11615970084884561,-0.10186586858133047,-0.05062668839511323,0.16258164982856485
90,1791274517.6515436,0.09752519531250008,-0.08109536132812503,0.033242871093750265,0.13112097402107772,0.11769181602802078,-0.10481042784856179,-0.051464037211574304,0.16578641823709916
91,1791274517.6715436,0.08315507812500007,-0.11941567382812504,-0.05297783203124974,0.15485968119730625,0.11900929014620683,-0.10712236518479494,-0.05206555941396356,0.16837230989975038
92,1791274517.6961548,0.11189531250000007,-0.14336586914062505,-0.08650810546874975,0.20139013308926487,0.12074737202977831,-0.11002565523076235,-0.052952207772880094,0.1717250970856576
93,1791274517.7161548,0.09752519531250008,-0.09546547851562504,-0.024237597656249738,0.1386083779903105,0.12226206655318637,-0.11238932278378415,-0.05373077036107753,0.1745461786383427
94,1791274517.7412364,0.09752519531250008,-0.033194970703125035,-0.009867480468749738,0.10349124103770219,0.12424359990285948,-0.11515094870605773,-0.05462485093271372,0.1779890093352625
95,1791274517.7612364,0.09752519531250008,-0.12899575195312504,-0.0002874023437497386,0.1617131730651546,0.1258792310138158,-0.11726602628139585,-0.05524607864551827,0.18069042842985739
96,1791274517.771466,0.07357500000000007,-0.17210610351562505,-0.03860771484374974,0.19111344049487297,0.12672160586954975,-0.11841658402065586,-0.05554600336798134,0.1821159280662577
97,1791274517.791466,0.006514453125000066,-0.13378579101562504,0.033242871093750265,0.13800784200816277,0.1282416359533111,-0.1207874694726551,-0.05605247887555329,0.184871334613248
98,1791274517.8160238,0.06878496093750007,-0.061935205078125034,0.028452832031250264,0.09683441604017322,0.12996679387161567,-0.1236224695070173,-0.056467458342063404,0.1880490795720445
99,1791274517.8360238,0.06878496093750007,-0.06672524414062504,-0.01944755859374974,0.09778464394810035,0.1313673769545209,-0.1257779687679002,-0.056741217052543605,0.19051784921076012
100,1791274517.8614726,0.06878496093750007,-0.14815590820312505,-0.01465751953124974,0.1640011794636709,0.13314478679304434,-0.12851943791569126,-0.057102402624559824,0.19366327622403737
101,1791274517.8814726,0.06878496093750007,-0.16731606445312505,0.023662792968750263,0.1824444135794178,0.13453846423957508,-0.13082396684733408,-0.057330169328747495,0.19621991992883558
102,1791274517.8921983,0.04004472656250007,-0.11462563476562504,-0.01944755859374974,0.12296675894787662,0.13526130996970512,-0.13210127551958664,-0.05743060460711485,0.19759717435773508
103,1791274517.9121983,0.020884570312500066,-0.14336586914062505,-0.06255791015624974,0.15780820585350433,0.13649839350220871,-0.13451275988317934,-0.057712799718003,0.2001406037049054
104,1791274517.9664001,0.08794511718750007,-0.17210610351562505,-0.08171806640624975,0.20983969329378654,0.13979052265741565,-0.14135024526533083,-0.05894936062924615,0.2073555139850386
105,1791274517.9864001,0.10710527343750006,-0.23437661132812504,-0.04339775390624974,0.2613183892876352,0.1411156485357979,-0.14410449259035737,-0.05952487184303898,0.21029251392841689
106,1791274517.980923,0.006514453125000066,-0.19126625976562503,-0.08171806640624975,0.20809387929832443,0.1411156485357979,-0.14410449259035737,-0.05952487184303898,0.21029251392841689
107,1791274518.000923,0.06399492187500007,-0.10504555664062504,-0.10566826171874974,0.16215949102777893,0.1423236809577776,-0.14708159772651155,-0.06038128043789927,0.21338914119156782
108,1791274518.0117874,0.15021562500000007,-0.07151528320312503,-0.10566826171874974,0.19709122573170532,0.14305602642273832,-0.1486001191509899,-0.06094892471762063,0.21508554933278476
109,1791274518.0317874,0.09752519531250008,-0.20084633789062503,-0.03381767578124974,0.22581862270428923,0.1445735589104909,-0.1513847345099998,-0.06204636244453234,0.21833140605809917
110,1791274518.0567524,0.054414843750000066,-0.22479653320312504,0.028452832031250264,0.2330322299834921,0.14646817374565493,-0.15513621929034663,-0.06322080595091616,0.22252425207418017
111,1791274518.0767524,0.06399492187500007,-0.14336586914062505,0.028452832031250264,0.15955778298419895,0.14793592881216266,-0.15824304110717693,-0.06393518646317828,0.22586192056308724
112,1791274518.1012957,0.09752519531250008,-0.15294594726562505,-0.06734794921874974,0.19349256515352714,0.1497642479335636,-0.16202917272174755,-0.06475194612381156,0.22994694453029987
113,1791274518.1212957,0.11189531250000007,-0.23916665039062504,-0.06255791015624974,0.2713572179649208,0.15134476938427188,-0.1652398170255924,-0.06551253587427176,0.23345519635961723
114,1791274518.1306148,0.11668535156250007,-0.20084633789062503,0.04282294921875027,0.23619595189827242,0.15213051374561495,-0.16681896542610125,-0.06582756895921538,0.23517127646338906
115,1791274518.1506147,-0.017435742187499936,-0.11462563476562504,0.033242871093750265,0.12061562804880274,0.153712754834577,-0.17017287946835877,-0.06628815848346603,0.23870596946979866
116,1791274518.17669,0.006514453125000066,-0.13857583007812505,-0.009867480468749738,0.13907935127890253,0.1554448424809106,-0.17438487440701603,-0.06675287149754856,0.24295911040550444
117,1791274518.19669,0.08315507812500007,-0.16731606445312505,0.0045026367187502615,0.18689490677778833,0.15670859120601227,-0.1775897462665614,-0.06706389109214626,0.24615699467050287
118,1791274518.2203324,0.11189531250000007,-0.09067543945312503,0.038032910156250266,0.14896005684224017,0.15832426238788824,-0.18126746105368427,-0.06730098033268592,0.24990775588456315
119,1791274518.2403324,0.06878496093750007,-0.07151528320312503,0.009292675781250263,0.09966022479390674,0.15975703000434358,-0.18415520567795413,-0.06740047090803113,0.25293926522531585
120,1791274518.2513368,0.016094531250000065,-0.10025551757812504,-0.009867480468749738,0.10201749806683226,0.1604971742470914,-0.18564754168188757,-0.06744747600943148,0.2545064138560603
121,1791274518.2713368,0.09273515625000008,-0.15294594726562505,0.0045026367187502615,0.17892050113699193,0.1618038144748794,-0.18833274657011456,-0.06752813808334655,0.25731254777462315
122,1791274518.2954156,0.06878496093750007,-0.11941567382812504,0.04761298828125026,0.14580284860066706,0.16343265862560755,-0.19157251768927092,-0.06751656746430955,0.2607081707990815
123,1791274518.3154156,0.020884570312500066,-0.14336586914062505,-0.04818779296874974,0.15268268108329663,0.16471714831180223,-0.1942540108952766,-0.06750926066041638,0.2634840791618927
124,1791274518.3406065,0.049624804687500065,-0.24395668945312504,-0.07213798828124975,0.2591937054067223,0.1662255517191986,-0.19785662109945984,-0.06772877088814744,0.26714296352939254
125,1791274518.3606064,0.12147539062500007,-0.23916665039062504,-0.04818779296874974,0.2725417776741153,0.1675001449330724,-0.20101252005069917,-0.06805739544686766,0.27035928104051526
126,1791274518.3862307,0.07357500000000007,-0.14336586914062505,0.014082714843750262,0.1617571510531056,0.16926307053331827,-0.20518455620836418,-0.06848082219189541,0.27466399866176205
127,1791274518.4062307,-0.007855664062499936,-0.15294594726562505,-0.04339775390624974,0.1591776972033131,0.1705312320511144,-0.20839688899863426,-0.06880570988536884,0.2779287501537213
128,1791274518.4160848,0.05920488281250007,-0.24874672851562504,-0.10566826171874974,0.27666935976130447,0.17110028642183736,-0.2100390832121581,-0.06905194055192052,0.27957091226417785
129,1791274518.4360847,0.10710527343750006,-0.21521645507812504,-0.11045830078124974,0.26455755204869374,0.17233146830638044,-0.21356809543800323,-0.06980092043370087,0.2831636185159402
130,1791274518.4605656,0.07836503906250007,-0.16252602539062505,-0.005077441406249739,0.18050365283776157,0.17395296894781773,-0.21793336461765697,-0.07079231666386188,0.28769104768478554
131,1791274518.4805655,0.0017244140625000655,-0.14815590820312505,-0.024237597656249738,0.15013529857930816,0.1751991063474364,-0.22143071961007407,-0.07152473507591157,0.2912766351420156
132,1791274518.5066295,0.006514453125000066,-0.16731606445312505,-0.12482841796874974,0.20885219045100054,0.17659557998547315,-0.22592148404450815,-0.07262744119630356,0.29580612069056506
133,1791274518.5266294,0.05920488281250007,-0.20563637695312503,-0.05297783203124974,0.2204499679337262,0.17760499771223778,-0.22940997753666953,-0.0736133816083229,0.2993182302459237
134,1791274518.5359814,0.044834765625000064,-0.17689614257812505,0.061983105468750264,0.19272858332696594,0.1780791730902458,-0.23106481826454847,-0.07399893627169538,0.30096342750818905
135,1791274518.5559814,0.07357500000000007,-0.12420571289062504,-0.05297783203124974,0.15377577971319054,0.1791187423021366,-0.23452463566237627,-0.07468628860942227,0.30440658712110596
136,1791274518.5810645,0.10710527343750006,-0.07151528320312503,-0.08171806640624975,0.15252481013566638,0.18056685672896663,-0.23858110541894298,-0.07567242165071006,0.3086286587638724
137,1791274518.6010644,0.09752519531250008,-0.15294594726562505,0.0045026367187502615,0.18144944266418037,0.1818552580238939,-0.2416670590455179,-0.07645659385551781,0.3119613967186236
138,1791274518.6263616,0.06878496093750007,-0.14336586914062505,0.028452832031250264,0.16153856176225778,0.18355599575524945,-0.24554705068335794,-0.07723715534246185,0.3161514444730441
139,1791274518.6463616,0.11668535156250007,-0.12420571289062504,-0.03860771484374974,0.17473719131710028,0.18497711614126344,-0.24855580637446312,-0.07777693388754298,0.319446042115637
140,1791274518.6562212,0.07357500000000007,-0.11941567382812504,-0.03381767578124974,0.1442810416377387,0.18571330202674147,-0.24999672064204076,-0.07805667444951583,0.3210617313034488
141,1791274518.6762211,-0.007855664062499936,-0.19605629882812503,0.014082714843750262,0.1967183433882471,0.18708122213242856,-0.252954371108401,-0.07856860914649443,0.3242812419499844
142,1791274518.7012708,-0.007855664062499936,-0.19605629882812503,-0.01465751953124974,0.1967603279293234,0.188508009945779,-0.2568397956447725,-0.07911470122144607,0.3282698377705833
143,1791274518.7212708,0.14063554687500007,-0.08588540039062503,-0.06255791015624974,0.17626159867709623,0.18967546993215811,-0.25989955333745346,-0.07960112994936443,0.3314527139852809
144,1791274518.7455754,0.16937578125000008,-0.12899575195312504,-0.07213798828124975,0.22479312411474192,0.19144649828841634,-0.26345181847225696,-0.08034911541227052,0.3354319643545767
145,1791274518.7655754,0.006514453125000066,-0.17210610351562505,-0.08171806640624975,0.19063260829151216,0.19294908729493057,-0.26638811896564923,-0.08110308113685633,0.33877675537718804
146,1791274518.7757807,0.020884570312500066,-0.22958657226562504,0.01887275390625026,0.23130572902940105,0.1936217678003874,-0.26796911759135805,-0.08147819592156594,0.34049307387885486
147,1791274518.7957807,0.08794511718750007,-0.14815590820312505,-0.0002874023437497386,0.17229219185071368,0.1949055664547292,-0.2711693655513612,-0.08207518585384369,0.3438856507351093
148,1791274518.8205514,0.07836503906250007,-0.10983559570312504,-0.08650810546874975,0.16027660385258927,0.1965660667588997,-0.27501774796720574,-0.08286492052140369,0.3480511102568648
149,1791274518.8405514,0.04004472656250007,-0.18168618164062506,-0.06255791015624974,0.19628280833463999,0.19788327101270908,-0.278096148221078,-0.08363050872459449,0.35141047023619476
150,1791274518.86592,-0.046175976562499936,-0.17210610351562505,0.023662792968750263,0.1797572236376428,0.19929177598200948,-0.28208833169787073,-0.08452994710823401,0.3555788953414871
151,1791274518.88592,0.025674609375000067,-0.13378579101562504,-0.04339775390624974,0.1429726844132919,0.20020488669763814,-0.2852223980188943,-0.08516227822533466,0.3587289040790998
152,1791274518.8964598,0.030464648437500068,-0.10983559570312504,-0.07692802734374975,0.13751317856438897,0.20065828322745163,-0.2868188522536081,-0.08554064049732235,0.3603415072019284
153,1791274518.9164598,0.030464648437500068,-0.08109536132812503,-0.01944755859374974,0.08878490845080014,0.20148097706309506,-0.2896802283048043,-0.08629547819525288,0.36325766109742313
154,1791274518.9414995,0.0017244140625000655,-0.10504555664062504,0.09551337890625027,0.1419871406990318,0.2024169275089311,-0.29307483589520533,-0.08695591700016153,0.36664261001484316
155,1791274518.9614995,-0.027015820312499935,-0.20563637695312503,0.023662792968750263,0.20874889663096893,0.2030144277475358,-0.2958455319922261,-0.08722553932117935,0.369252936864818
156,1791274518.9860752,0.03525468750000007,-0.27269692382812505,-0.09129814453124974,0.2897272104081594,0.20365368373624354,-0.2996210908444781,-0.08763181540234204,0.3727290652053942
157,1791274519.0060751,0.08315507812500007,-0.22479653320312504,-0.005077441406249739,0.23973741628989093,0.20427349668333256,-0.3029790326253264,-0.0880574157613193,0.37586974356600705
158,1791274519.0161254,0.04004472656250007,-0.15294594726562505,0.06677314453125026,0.17162370390198434,0.2046311069537815,-0.304698069033778,-0.0881927013467393,0.3774821264336605
159,1791274519.0361254,-0.05575605468749994,-0.17689614257812505,0.0045026367187502615,0.18552966509633134,0.2052124344395147,-0.3081005658366511,-0.08831462208971977,0.3805753202617147
160,1791274519.060836,-0.07012617187499993,-0.20563637695312503,-0.07213798828124975,0.22892769352246461,0.20558964937967944,-0.3123828282619318,-0.08856801226210587,0.3843103278875597
161,1791274519.080836,-0.007855664062499936,-0.287067041015625,0.01887275390625026,0.28779398592627903,0.20573218615996672,-0.3160679151214106,-0.08882223276527723,0.3874455425279319
162,1791274519.106183,0.05920488281250007,-0.27269692382812505,0.05719306640625026,0.2848506227114728,0.2059833497897076,-0.3211017936930393,-0.08895148837332296,0.39172422644930405
163,1791274519.126183,0.044834765625000064,-0.13378579101562504,-0.01944755859374974,0.14243244581759634,0.20630786212876043,-0.32508769081433947,-0.08898156065073355,0.3951742132667304
164,1791274519.1510098,0.05920488281250007,-0.12899575195312504,-0.01465751953124974,0.14268834938285255,0.2068439901914954,-0.3297826655812805,-0.08907679497620173,0.39934411000973385
165,1791274519.1710098,0.04004472656250007,-0.21521645507812504,0.06677314453125026,0.22886755010802917,0.20735997505379827,-0.33351384021732716,-0.0890638327668227,0.40269344069395674
166,1791274519.181379,0.04004472656250007,-0.18168618164062506,0.07156318359375026,0.1993357418294281,0.20764965273954708,-0.3354668230714499,-0.0889505365515272,0.4044361082016671
167,1791274519.201379,0.016094531250000065,-0.14336586914062505,0.009292675781250263,0.1445654183882836,0.20820877456432263,-0.3391562247363835,-0.08864350903170215,0.40771989193129476
168,1791274519.241156,0.016094531250000065,-0.16731606445312505,-0.04339775390624974,0.1736003007035038,0.20925001337587903,-0.3463201041467866,-0.08822621600858534,0.4141340940145356
169,1791274519.261156,0.025674609375000067,-0.23916665039062504,-0.005077441406249739,0.2405943736600343,0.20975767356101332,-0.34999153942805167,-0.088120585282276,0.417441728675317
170,1791274519.2713592,-0.022225781249999937,-0.24874672851562504,0.009292675781250263,0.24991053223618717,0.20998045100501686,-0.35195696347543115,-0.08807155465658026,0.4191921906270956
171,1791274519.2913592,-0.027015820312499935,-0.24874672851562504,-0.009867480468749738,0.2504039869195067,0.21027777040853915,-0.35597790390485656,-0.08799072424432806,0.4227048336008508
172,1791274519.300588,0.0017244140625000655,-0.24395668945312504,-0.07213798828124975,0.2544046565730532,0.2103768796201068,-0.35789602488324246,-0.08801578123748421,0.42437574607034756
173,1791274519.3205879,0.04004472656250007,-0.21042641601562503,0.023662792968750263,0.21550588032285392,0.21062210002812184,-0.36211092461052014,-0.08813465086119938,0.42808142616208833
174,1791274519.3461368,0.08794511718750007,-0.18647622070312503,-0.01944755859374974,0.20708918866058906,0.2111336182069456,-0.36744812540138333,-0.08825564605012783,0.43287941583987616
175,1791274519.3661368,0.04004472656250007,-0.22000649414062504,-0.11045830078124974,0.24941426142262857,0.21166596142942448,-0.3716091643243376,-0.08853101353779004,0.4367305697975624
176,1791274519.3915002,0.011304492187500065,-0.26311684570312505,-0.13919853515624975,0.29788336345963506,0.21233747893245147,-0.3770135710606621,-0.08930275703193351,0.4418160478488833
177,1791274519.4115002,-0.027015820312499935,-0.277486962890625,-0.009867480468749738,0.27897354048766265,0.21276400013244917,-0.3814468082929015,-0.0900436210142202,0.44595744303078394
178,1791274519.4213202,0.0017244140625000655,-0.18647622070312503,0.028452832031250264,0.1886423021015649,0.21292338155171947,-0.3836387270269618,-0.09033913231231372,0.44796897003389474
179,1791274519.4413202,0.09273515625000008,-0.17689614257812505,-0.07692802734374975,0.21403265137528196,0.213340985826845,-0.3879783514473014,-0.09092342296249667,0.4520051396483815
180,1791274519.4658442,0.049624804687500065,-0.21042641601562503,-0.09129814453124974,0.2346854256069226,0.21403808457166212,-0.3932138128226514,-0.0918418295634504,0.4570167676346186
181,1791274519.4858441,-0.007855664062499936,-0.2583268066406251,-0.02902763671874974,0.2600712482772393,0.21458396608872146,-0.3975461564210223,-0.09265895622254373,0.4611668972896307
182,1791274519.510566,-0.017435742187499936,-0.22958657226562504,0.07156318359375026,0.2411126054696868,0.21511061913298263,-0.4030027230821502,-0.09343862809353132,0.4662773321698199
183,1791274519.530566,0.025674609375000067,-0.17210610351562505,0.038032910156250266,0.17811849620082496,0.2154851303058374,-0.4073574687358537,-0.09381037535033455,0.4702917554467401
184,1791274519.5407028,0.030464648437500068,-0.14815590820312505,-0.03381767578124974,0.15499000979146693,0.2156891564082621,-0.40947704725031897,-0.09396732541323384,0.4722532399701078
185,1791274519.5607028,0.03525468750000007,-0.22958657226562504,-0.03381767578124974,0.23472648412705255,0.21612989712599295,-0.4135982978409816,-0.0943319913181621,0.47610314953243005
186,1791274519.586425,0.011304492187500065,-0.24874672851562504,0.07635322265625026,0.2604468105023332,0.21670153426311387,-0.41902642412561536,-0.09464858481002433,0.48114556391390323
187,1791274519.606425,0.06399492187500007,-0.24395668945312504,0.12425361328125027,0.28115685438587895,0.2171922813425401,-0.4233529564763784,-0.09455691318885395,0.48511980238274327
188,1791274519.6307108,0.10231523437500006,-0.18647622070312503,0.0045026367187502615,0.2127488232878218,0.21800172762229952,-0.42860258007849894,-0.09422777350620283,0.49000387569507
189,1791274519.6507108,0.08794511718750007,-0.09546547851562504,-0.05776787109374974,0.1420743754378124,0.21885372788935556,-0.4327002132845034,-0.09407727447308241,0.493940241689019
190,1791274519.6612651,-0.017435742187499936,-0.18168618164062506,0.04282294921875027,0.18747714176552518,0.21929171342570744,-0.4347576284638625,-0.09402159681813992,0.49592651850141806
191,1791274519.681265,-0.017435742187499936,-0.23916665039062504,0.08114326171875026,0.2531578967503444,0.2199448758093672,-0.4387028151309137,-0.09374596688485781,0.4996240733849435
192,1791274519.7069163,-0.012645703124999935,-0.296647119140625,-0.01944755859374974,0.2975527426141711,0.2205990669764439,-0.44403459044601584,-0.09332678852889902,0.5045201238013767
193,1791274519.7269163,0.006514453125000066,-0.20084633789062503,-0.08171806640624975,0.21693209057391483,0.22102342612621254,-0.44831438919147487,-0.09320073224841768,0.508452085200106
194,1791274519.7514505,-0.0030656249999999347,-0.23916665039062504,-0.03381767578124974,0.24156514630831538,0.22147225385267463,-0.4535866125497728,-0.0932818861578896,0.513314995491204
195,1791274519.7714505,-0.09407636718749994,-0.31580727539062503,0.033242871093750265,0.33119433348323324,0.22163753774072978,-0.45807224326317375,-0.09333898063225596,0.5173640338189333
196,1791274519.7963276,-0.14676679687499994,-0.31101723632812506,-0.0002874023437497386,0.34390739532356596,0.22136292807454297,-0.463984312251495,-0.09333785761454418,0.5224891803715184
197,1791274519.8163276,-0.027015820312499935,-0.277486962890625,-0.01944755859374974,0.27947643309709985,0.22091459726514948,-0.468907136389157,-0.09336669260286448,0.5266825430267272
198,1791274519.8258793,-0.022225781249999937,-0.23916665039062504,0.0045026367187502615,0.24023935095788398,0.2206973214117621,-0.47127567999436754,-0.09338910445308538,0.5287055882653685
199,1791274519.8458793,-0.017435742187499936,-0.22958657226562504,-0.0002874023437497386,0.23024787050136908,0.2202511271914377,-0.47619428232597233,-0.0934226696438328,0.5329158927564719
200,1791274519.8714,-0.022225781249999937,-0.28227700195312505,-0.01465751953124974,0.2835297763245095,0.21969125473850512,-0.48250890871000507,-0.09348768110675112,0.5383484381994772
201,1791274519.8914,0.016094531250000065,-0.32059731445312506,-0.06255791015624974,0.3270400038127302,0.2193091141539346,-0.4876195349415165,-0.09364680974835841,0.5428066169305691
202,1791274519.9154153,0.011304492187500065,-0.24395668945312504,-0.0002874023437497386,0.24421863252555676,0.2189684331671191,-0.4938525178771459,-0.09392241698572257,0.5483237224028336
203,1791274519.9354153,-0.017435742187499936,-0.23916665039062504,0.023662792968750263,0.24096601323793024,0.21871807345010508,-0.4989894353165847,-0.09408245207380679,0.5528829532545833
204,1791274519.9612355,0.006514453125000066,-0.25353676757812504,-0.09129814453124974,0.2695527440192939,0.21842218895101587,-0.5055806223792207,-0.09438904563472333,0.5587748296830731
205,1791274519.9812355,-0.03180585937499994,-0.29185708007812505,-0.05297783203124974,0.29832669771417153,0.21818944235200277,-0.5107383314793225,-0.09480731973532151,0.563425863687101
206,1791274519.9915547,-0.041385937499999935,-0.24395668945312504,0.028452832031250264,0.24907273195249802,0.2180307209437758,-0.5134150257389625,-0.09500974223413301,0.5658261526734149
207,1791274520.0115547,-0.05575605468749994,-0.2583268066406251,0.06677314453125026,0.2725805009424732,0.21762352922465114,-0.518578056994042,-0.0952003757883725,0.5703913684639309
208,1791274520.0356803,-0.05096601562499994,-0.26311684570312505,-0.0002874023437497386,0.2680076339240303,0.21701291524206187,-0.5248154185571932,-0.09527553909567742,0.5758500302050805
209,1791274520.0556803,0.006514453125000066,-0.21042641601562503,0.028452832031250264,0.21244123495050876,0.21651597143495144,-0.529920862876854,-0.09528625449392843,0.5803229765346638
210,1791274520.0657275,0.05920488281250007,-0.14336586914062505,0.10509345703125027,0.18735961489624153,0.2163532954367243,-0.5323675163043513,-0.09519019759239018,0.5824818405582036
211,1791274520.0857275,-0.05096601562499994,-0.12420571289062504,0.17694404296875027,0.22211210729152758,0.21609040389849235,-0.5369086415489748,-0.0946046122649133,0.5864435051126183
212,1791274520.111487,-0.11802656249999995,-0.12899575195312504,0.24400458984375029,0.30018063452250776,0.21547610921935625,-0.542369340655492,-0.0931502706483374,0.5909919020166381
213,1791274520.131487,0.006514453125000066,-0.08109536132812503,0.21047431640625028,0.22565091091137954,0.21490343674681509,-0.5462882715739159,-0.09150875854500778,0.594128113856984
214,1791274520.1558084,0.049624804687500065,0.11529624023437497,0.20089423828125028,0.23688465384456417,0.21441388859969934,-0.5502767552139173,-0.08906159720399064,0.597251865672873
215,1791274520.1758084,-0.09886640624999994,0.18235678710937497,0.36854560546875026,0.4229118435323982,0.21399784789183454,-0.5526180976082395,-0.08649695135127097,0.5988852672253264
216,1791274520.1866875,-0.20424726562499995,-0.018824853515625035,0.5409870117187503,0.578565698493747,0.2135581685369856,-0.55356720953293,-0.08456904952814187,0.5993293509891199
217,1791274520.2066875,-0.13239667968749994,0.03386557617187497,0.37812568359375026,0.4020631674687057,0.21236614412608337,-0.5550277653338715,-0.08017777219040267,0.599652961817006
218,1791274520.2315753,-0.027015820312499935,0.12008627929687497,0.09551337890625027,0.15579914817678972,0.21080774416058956,-0.5562852784721528,-0.07464888777780498,0.5995545617284389
219,1791274520.2515752,-0.10844648437499994,0.17756674804687497,0.22005439453125028,0.30284406307166506,0.20954006251679705,-0.5566977624945862,-0.07039894946378218,0.5989786712827312
220,1791274520.2764022,0.016094531250000065,0.20630698242187498,0.3206452148437503,0.3816214862063873,0.2080305082668748,-0.5564182118725669,-0.0649078364403945,0.5975708711982304
221,1791274520.2964022,-0.027015820312499935,0.20630698242187498,0.38770576171875026,0.44000929900752495,0.20698047773332356,-0.5556078726821763,-0.06008533921247579,0.5959456974736931
222,1791274520.3059425,0.13105546875000007,0.12966635742187496,0.3014850585937503,0.35338667305321053,0.20662917105298198,-0.5550389123686916,-0.057636857831190526,0.595051103649187
223,1791274520.3259425,0.054414843750000066,0.23025717773437498,0.3302252929687503,0.40623649175675175,0.20628137962117618,-0.5534851919159957,-0.05232632150245705,0.5929889620985207
224,1791274520.3510196,0.4040876953125001,0.661360693359375,0.22484443359375028,0.8069943317904131,0.20677305488705788,-0.5501523313064914,-0.04562250330632486,0.5894947808736133
225,1791274520.3710196,0.2891267578125001,0.517659521484375,0.21047431640625028,0.6291781147920503,0.20814618644540997,-0.5461244279422595,-0.04042495008010478,0.5858420455344653
226,1791274520.396263,0.08794511718750007,0.19672690429687498,0.23921455078125028,0.32196182975133913,0.21033322750739417,-0.5404506206285125,-0.03399743263829983,0.5809326685231407
227,1791274520.4162629,0.054414843750000066,-0.08109536132812503,0.23921455078125028,0.2583815669794412,0.21201962097819246,-0.5364561714745902,-0.028951204705538646,0.5775601404588212
228,1791274520.4263155,0.6148494140625,0.08655600585937497,-0.11524833984374974,0.6315171604636475,0.2132447071312995,-0.5347454685610917,-0.02670179311274369,0.5763150241157791
229,1791274520.4463155,0.6867000000000001,-0.31101723632812506,-0.19667900390624976,0.7790835910675693,0.2172687597880929,-0.5321892082568541,-0.0233657272325226,0.5753060268883143
230,1791274520.4712505,0.3897175781250001,-0.36370766601562504,-0.20146904296874976,0.5698708908980112,0.2235462405669303,-0.5307420602654244,-0.020574955567241173,0.5762667654853862
231,1791274520.4912505,0.32265703125000006,0.014705419921874968,-0.30205986328124973,0.44222615277211896,0.2288946106097218,-0.5302789384955684,-0.019427578883496135,0.5778978510078034
232,1791274520.515896,0.46156816406250006,0.10571616210937497,-0.28768974609374975,0.5540635947385903,0.2359462700495606,-0.5295712579812025,-0.019315876921293582,0.5800771179173784
233,1791274520.535896,0.3849275390625001,-0.28227700195312505,-0.21583916015624974,0.5238664517005382,0.24208009591969992,-0.5293479561390099,-0.019994119941214993,0.5824189182549464
234,1791274520.576528,0.23164628906250007,-0.5457291503906251,-0.16314873046874975,0.6148965905549205,0.2545513145649656,-0.5314856112008294,-0.022320280041687006,0.5897215627407655
235,1791274520.596528,0.6435896484375001,-0.12420571289062504,-0.44576103515624976,0.7926774849547227,0.26108198729150206,-0.5333848837938544,-0.024206883500687643,0.5943477194005875
236,1791274520.591439,0.45198808593750006,-0.631949853515625,-0.5655120117187498,0.9609670559317068,0.26108198729150206,-0.5333848837938544,-0.024206883500687643,0.5943477194005875
237,1791274520.611439,0.4663582031250001,-0.737330712890625,-0.3834905273437498,0.9530013317704039,0.2685747767354906,-0.5377751245608849,-0.028282828855973913,0.6017760494595064
238,1791274520.6361592,0.5190486328125001,-0.7421207519531251,-0.32601005859374976,0.9625161048046404,0.2782737284200776,-0.5451304760405457,-0.033880478682875276,0.6129856365958208
239,1791274520.6561592,0.48072832031250007,-0.6463199707031251,-0.46492119140624977,0.9300435133362164,0.2864433253104843,-0.5522713829112885,-0.038916357329997264,0.6233521812470948
240,1791274520.6972935,0.7010701171875001,-0.9480924316406251,-0.47929130859374974,1.2728309890323373,0.3043714504295063,-0.5696740857127292,-0.050633108187587525,0.6478690109998557
241,1791274520.7172935,0.6531697265625,-1.249864892578125,-0.2733196289062498,1.4364875777195254,0.3138121335820172,-0.5801631976432526,-0.056604315629163786,0.6620207244722688
242,1791274520.7116492,0.3274470703125001,-1.5803775878906252,-0.41702080078124976,1.6669496850377534,0.3138121335820172,-0.5801631976432526,-0.056604315629163786,0.6620207244722688
243,1791274520.7316492,0.45198808593750006,-1.9156803222656251,-0.6852629882812498,2.0841568295244297,0.32305246400273996,-0.5965942185983467,-0.06345212032090941,0.681405699812111
244,1791274520.7567008,0.7154402343750002,-2.179132470703125,-0.5319817382812497,2.3544590936561205,0.33508403156288236,-0.6217818429347474,-0.07302997921617355,0.710089674813034
245,1791274520.7767007,0.5046785156250001,-1.9923209472656251,-0.5655120117187498,2.1316301265569124,0.34507881636034243,-0.6451313110664539,-0.08117574270725939,0.7361136455894918
246,1791274520.8012476,0.4471980468750001,-1.647438134765625,-0.6804729492187498,1.8376838508370585,0.3572582204600463,-0.6761913209550618,-0.09196762684661167,0.7702766925001873
247,1791274520.8212476,0.6771199218750001,-1.642648095703125,-0.8768645507812498,1.981331773160142,0.36737956928075416,-0.7026371247232972,-0.10177757430129092,0.7993906126512804
248,1791274520.8463285,0.6435896484375001,-2.112071923828125,-0.9151848632812498,2.3901085291212327,0.3806526664645845,-0.7378896542749144,-0.11560535902902412,0.8382971987360929
249,1791274520.8663285,0.5238386718750001,-2.107281884765625,-0.7283733398437497,2.290321291480361,0.3914003848942469,-0.7681130356339287,-0.12744324184250302,0.8714549194866367
250,1791274520.8758771,0.48072832031250007,-1.9540006347656251,-0.5655120117187498,2.0902205706606973,0.3964814295160409,-0.7832867329683606,-0.13317389074748973,0.8879588476794156
251,1791274520.8958771,0.4998884765625001,-2.059381494140625,-0.5798821289062498,2.1970898731808157,0.40699840156755196,-0.8163213237265665,-0.1450945529026283,0.9236236418213046
252,1791274520.920955,0.7872908203125001,-2.030641259765625,-0.6277825195312497,2.2665925203794037,0.4206284520776737,-0.8592225307190521,-0.16007111400657267,0.9699558822605373
253,1791274520.940955,0.6244294921875001,-2.0785416503906253,-0.46492119140624977,2.2195493455520943,0.43198569487254795,-0.8944685650668865,-0.17186261737525774,1.0080785751708086
254,1791274520.9504983,0.3992976562500001,-1.968370751953125,-0.7810637695312498,2.1549901734127745,0.4373248828685376,-0.9116608081846547,-0.17753702204343047,1.0265952837179446
255,1791274520.9704983,0.5190486328125001,-2.097701806640625,-0.7954338867187498,2.3027113194989,0.4482132597771955,-0.9483849794144991,-0.19000975676664134,1.0660360702554383
256,1791274520.9964828,0.5813191406250001,-1.9827408691406252,-0.6229924804687498,2.1580808437447647,0.46238220699428245,-0.9968932028968542,-0.2065482241982148,1.1181482604048034
257,1791274521.0164828,0.46156816406250006,-1.9156803222656251,-0.7523235351562497,2.1092337397125416,0.4732163563491142,-1.034476602270859,-0.21943123898521696,1.1585446168382036
258,1791274521.055741,0.4280378906250001,-2.021061181640625,-1.1163665039062498,2.3482288872231267,0.49391221157154325,-1.1087748506977635,-0.24642836244777772,1.2385709023297915
259,1791274521.075741,0.4136677734375001,-2.260563134765625,-0.8960247070312498,2.466602316680288,0.5041366884104569,-1.1473706277258382,-0.2611375020966438,1.2801585655576893
260,1791274521.0707583,0.2843367187500001,-2.452164697265625,-0.5511418945312497,2.529370763658983,0.5041366884104569,-1.1473706277258382,-0.2611375020966438,1.2801585655576893
261,1791274521.0907583,0.3082869140625001,-2.4952750488281255,-0.7140032226562498,2.613663902006127,0.513302762406847,-1.1886859514258639,-0.27550770701625826,1.323766789746996
262,1791274521.116312,0.15979570312500008,-2.6389762207031255,-0.9918254882812498,2.823729441603445,0.5241545184792655,-1.2433957090069998,-0.2943834979600106,1.3810982920452917
263,1791274521.136312,-0.0030656249999999347,-2.4473746582031253,-0.9678752929687497,2.631812056057736,0.5316089066023969,-1.2874217135482822,-0.3098804489152015,1.4269157616041943
264,1791274521.161262,0.25080644531250007,-2.5240152832031253,-0.46013115234374974,2.5778436143820733,0.5399769551685734,-1.343408607695282,-0.32898522204761677,1.4847737456153443
265,1791274521.181262,0.5573689453125001,-2.433004541015625,-0.5846721679687498,2.5635937240129723,0.5468908817620308,-1.38899143475202,-0.34356967908001856,1.53180513341354
266,1791274521.2062333,0.4184578125000001,-2.5623355957031255,-0.9343450195312498,2.759288180196557,0.556056057651571,-1.4467230220876348,-0.3618927384931808,1.5915942309720401
267,1791274521.2262332,0.05920488281250007,-2.8257877441406256,-0.8529143554687498,2.952294783867099,0.56301204090468,-1.4941078445384302,-0.37704764027193277,1.6405809130760847
268,1791274521.236284,-0.046175976562499936,-2.7922574707031256,-0.4936614257812498,2.83593646029196,0.5659931680842746,-1.5185835916389188,-0.3845362417694902,1.6656267626173746
269,1791274521.256284,0.006514453125000066,-2.7395670410156256,-0.47450126953124977,2.7803635490894707,0.5709759855958524,-1.5682798555316075,-0.39865478344638483,1.7159373292046767
270,1791274521.281466,-0.08928632812499994,-2.8880582519531255,-0.7044231445312498,2.9740653122646585,0.5761524510766706,-1.6320952239081155,-0.41599153692214275,1.78009421817391
271,1791274521.301466,-0.24256757812499996,-3.2233609863281254,-0.8002239257812498,3.3300530640715635,0.5791492223041516,-1.6843431100912596,-0.4299522789311875,1.8322894139206072
272,1791274521.3260384,-0.07970624999999994,-2.9838590332031254,-0.5224016601562498,3.0302922814228594,0.5816849034440571,-1.7503464383143879,-0.4469693599380356,1.8978544701156628
273,1791274521.3460383,0.2795466796875001,-2.8162076660156257,-0.3834905273437498,2.855912629758108,0.5837389322755739,-1.8047098258108034,-0.4601011790387752,1.9517740113509963
274,1791274521.3566017,0.4471980468750001,-2.6533463378906252,-0.5224016601562498,2.741010101488211,0.5852368414966498,-1.8334492024927016,-0.46671432368733584,1.98036875321265
275,1791274521.3766017,-0.12281660156249995,-2.7587271972656255,-0.5319817382812497,2.812234740631933,0.5881340476740511,-1.8878185272239225,-0.47893864801452557,2.034488308721715
276,1791274521.4007888,-0.5060197265624999,-2.9024283691406256,-0.3834905273437498,2.9710623329417185,0.589971508227387,-1.9539771104240147,-0.4931653649749489,2.0998345186685436
277,1791274521.4207888,-0.027015820312499935,-2.9838590332031254,-0.44576103515624976,3.017092554934074,0.590463421579025,-2.009306336689008,-0.504408541484357,2.154155747294932
278,1791274521.4467313,0.2124861328125001,-2.7922574707031256,-0.5750920898437498,2.85877299748264,0.5913666537338544,-2.0815486750235133,-0.5187910844887402,2.2252423676951514
279,1791274521.4667313,0.22206621093750006,-2.5192252441406255,-0.5990422851562498,2.598973045677995,0.5926103634473234,-2.1368557989931993,-0.5299770658927591,2.279959525721527
280,1791274521.476753,0.2124861328125001,-2.4761148925781256,-0.34517021484374977,2.509071102041565,0.5934667079348143,-2.1641669545160562,-0.5354511175408044,2.3070607360279842
281,1791274521.496753,0.03525468750000007,-2.375524072265625,-0.2733196289062498,2.3914558600253595,0.5952909527887622,-2.2177728556914036,-0.5456645927754754,2.360219821483283
282,1791274521.5213082,0.0017244140625000655,-2.4952750488281255,-0.29726982421874976,2.5129205899309888,0.5972628319353677,-2.2826860882304723,-0.5573741682056136,2.4244679068189976
283,1791274521.5413082,0.13105546875000007,-2.6772965332031253,-0.4026506835937498,2.7105755543037846,0.5988271667861487,-2.335385464760105,-0.5665307846820726,2.4766058173811962
284,1791274521.5658739,0.15979570312500008,-2.6006559082031253,-0.44576103515624976,2.6434161080073273,0.60099627192861,-2.400130128944603,-0.5776538238627095,2.540768603191352
285,1791274521.5858738,0.10231523437500006,-2.4665348144531256,-0.45055107421874974,2.5094339338930993,0.6028905047800812,-2.4525355902677197,-0.5866956700586218,2.5928014948216433
286,1791274521.6265264,0.0017244140625000655,-2.389894189453125,-0.44576103515624976,2.4311108799989443,0.6064804447715825,-2.557885213315858,-0.6050503708862699,2.6975324364499977
287,1791274521.6465263,-0.14197675781249994,-2.5288053222656255,-0.35954033203124974,2.558179627789074,0.6077713001170304,-2.6093181424280116,-0.613933852511201,2.7486072649451323
288,1791274521.6406002,-0.17071699218749994,-2.5144352050781253,-0.31163994140624973,2.5394188597073764,0.6077713001170304,-2.6093181424280116,-0.613933852511201,2.7486072649451323
289,1791274521.6606002,-0.0030656249999999347,-2.3180436035156253,-0.34038017578124974,2.3429029450494148,0.6080445852758984,-2.6601572705516285,-0.6221859512607941,2.7987980062338065
290,1791274521.7018313,0.09273515625000008,-2.217452783203125,-0.42660087890624976,2.2600187974491677,0.6088007582821238,-2.7632692668881544,-0.6390180802301664,2.900799805480298
291,1791274521.7218313,0.09752519531250008,-2.3515738769531254,-0.3834905273437498,2.3846332730739714,0.6093979256078915,-2.8126368227898557,-0.647173257439405,2.9497669321140183
292,1791274521.7165725,-0.07012617187499993,-2.5288053222656255,-0.23499931640624974,2.5406689506136373,0.6093979256078915,-2.8126368227898557,-0.647173257439405,2.9497669321140183
293,1791274521.7365725,-0.07012617187499993,-2.4713248535156254,-0.2733196289062498,2.487381722038521,0.6096539344073337,-2.8620275475845447,-0.6546164244626306,2.998566701950681
294,1791274521.7616231,0.011304492187500065,-2.4042643066406253,-0.32122001953124973,2.4256539218687814,0.6098159809453467,-2.9237717889694945,-0.6636578361068997,3.059535704648061
295,1791274521.7816231,0.11189531250000007,-2.4138443847656252,-0.46013115234374974,2.459854864048121,0.6101107492636579,-2.9729001140292075,-0.6709655872500971,3.1081449505510204
296,1791274521.8062148,-0.041385937499999935,-2.5814957519531254,-0.5415618164062498,2.6380148434313297,0.6105488714805508,-3.0334597512223187,-0.6804507644788125,3.1682268273644403
297,1791274521.8262148,-0.19945722656249995,-2.7970475097656253,-0.41702080078124976,2.8349892954645037,0.610490476556356,-3.0833918258767805,-0.6884456445514534,3.2177571660011295
298,1791274521.8368337,-0.12760664062499993,-2.5383854003906254,-0.34996025390624974,2.56557129602005,0.6102036426468598,-3.1101756503733426,-0.692664610456933,3.244275778082714
299,1791274521.8568337,-0.0030656249999999347,-2.337203759765625,-0.4122307617187498,2.37328148638682,0.609548438069644,-3.1603676215497503,-0.7005620966546582,3.293973292691114
300,1791274521.8821952,-0.041385937499999935,-2.3276236816406253,-0.46971123046874974,2.3749049326626697,0.6087576630780823,-3.2233409001917925,-0.7107520869902124,3.3564387347851987
301,1791274521.9021952,0.030464648437500068,-2.576705712890625,-0.37870048828124975,2.6045641642071446,0.6082112201649359,-3.2729087357585116,-0.7188551121001864,3.4056724964581475
302,1791274521.9262843,0.049624804687500065,-2.5096451660156256,-0.33080009765624974,2.5318392889666703,0.6077964748655313,-3.332845093521498,-0.7284327312420652,3.4652398497382637
303,1791274521.9462843,-0.11802656249999995,-2.308463525390625,-0.4026506835937498,2.3462867877804268,0.6074011812772646,-3.3823701020491366,-0.7362919543910506,3.5144686005645145
304,1791274521.9716892,-0.22819746093749996,-2.313253564453125,-0.4026506835937498,2.3590980707956857,0.6063146938319225,-3.4446488566949904,-0.7463120374866217,3.5763395967363105
305,1791274521.9916892,-0.10844648437499994,-2.4761148925781256,-0.20625908203124974,2.4870561734992744,0.605082693569107,-3.4935074048603543,-0.7539304482531188,3.6247938113324625
306,1791274522.001236,0.0017244140625000655,-2.5096451660156256,-0.21104912109374974,2.5185042315675985,0.6045064110792853,-3.5169009903049355,-0.7573203190542767,3.647952116228538
307,1791274522.021236,-0.06054609374999994,-2.308463525390625,-0.46013115234374974,2.354652916012142,0.6033919879441336,-3.5657852855115086,-0.7643634577346609,3.69637093498551
308,1791274522.0461166,-0.25214765624999996,-2.4809049316406253,-0.5224016601562498,2.5478169508277375,0.6016300633956898,-3.6264141283073457,-0.7736445274980696,3.756509552509662
309,1791274522.0661166,-0.23298749999999996,-2.5383854003906254,-0.34996025390624974,2.572966341673877,0.5996985064891244,-3.6753683988711443,-0.7812944649590589,3.8050482529242107
310,1791274522.0911953,-0.08449628906249994,-2.5240152832031253,-0.30205986328124973,2.5434293647974133,0.5970426009013282,-3.737068163827885,-0.7906745321743087,3.866174406854404
311,1791274522.1111953,-0.03180585937499994,-2.452164697265625,-0.45534111328124977,2.4942852372274116,0.5950678065350349,-3.786356441878483,-0.7981690372278466,3.9150574212032105
312,1791274522.1217957,-0.15634687499999994,-2.5144352050781253,-0.46013115234374974,2.5609665017753995,0.5940285471998719,-3.812510089595005,-0.8022732425920865,3.941033551485108
313,1791274522.1417956,-0.23777753906249996,-2.6102359863281253,-0.24457939453124974,2.6324302730811793,0.5917706777053839,-3.862140278779197,-0.809912313331001,3.990272925909419
314,1791274522.1658587,-0.16592695312499994,-2.428214501953125,-0.23978935546874974,2.445660719777976,0.5887330136531743,-3.9219892970034778,-0.8185988187749853,4.0495321499248265
315,1791274522.1858587,-0.03180585937499994,-2.346783837890625,-0.4026506835937498,2.3812882159607955,0.5862903812708552,-3.971433617614264,-0.825699276090716,4.098512008622663
316,1791274522.2109737,-0.036595898437499934,-2.4617447753906254,-0.49845146484374975,2.5119674483859,0.583554298821758,-4.033267414728875,-0.8349755660828563,4.159923779871751
317,1791274522.2309737,-0.09886640624999994,-2.4952750488281255,-0.45534111328124977,2.5384065208380635,0.5814990915042427,-4.082557327150499,-0.8426852381398244,4.208982529480166
318,1791274522.241844,-0.13718671874999994,-2.4665348144531256,-0.33559013671874977,2.4930372894470745,0.5803571709580271,-4.109373710128736,-0.8468918084556775,4.2356808745004555
319,1791274522.261844,-0.18029707031249995,-2.5096451660156256,-0.33080009765624974,2.5377656703246365,0.5780950909943429,-4.158776236248026,-0.8544700672971498,4.284825878996701
320,1791274522.2868853,0.016094531250000065,-2.433004541015625,-0.36912041015624975,2.460898211574938,0.5753792653116884,-4.2206360654466435,-0.8638498113527046,4.346385462942012
321,1791274522.3068852,-0.041385937499999935,-2.4761148925781256,-0.42660087890624976,2.512935746682259,0.573497617427086,-4.269994935062195,-0.8714110819573769,4.395578862494617
322,1791274522.3315864,-0.14676679687499994,-2.5671256347656253,-0.42660087890624976,2.6064655814376962,0.5711736975087007,-4.331154830258682,-0.8809295205966241,4.456588199133668
323,1791274522.3515863,-0.18987714843749995,-2.5910758300781254,-0.31642998046874976,2.6172228069564993,0.5690693469681332,-4.380984033914429,-0.8885949150384215,4.506269183049768
324,1791274522.3616347,-0.041385937499999935,-2.5048551269531254,-0.35475029296874977,2.5301896713897807,0.5679963828109759,-4.406104384469003,-0.8923742961301788,4.531303082129594
325,1791274522.3816347,0.011304492187500065,-2.5862857910156256,-0.5080315429687497,2.635734818414809,0.5661360072671094,-4.456239993978193,-0.9000624691665857,4.58134230450611
326,1791274522.406321,-0.027015820312499935,-2.6341861816406253,-0.6373625976562498,2.7103316725051747,0.564155067359896,-4.5185063611678755,-0.91024934088731,4.643675757256118
327,1791274522.426321,-0.10365644531249994,-2.4856949707031255,-0.44097099609374973,2.5266340386826007,0.5625949058936877,-4.569065248860116,-0.9188819208907427,4.694381137170111
328,1791274522.451099,-0.08928632812499994,-2.3515738769531254,-0.20625908203124974,2.3622901083649257,0.5605934066354002,-4.631296155116304,-0.9291753314294273,4.756735838838975
329,1791274522.471099,-0.10365644531249994,-2.385104150390625,-0.26852958984374975,2.4024101663719,0.5589307742903884,-4.681097473638049,-0.9369497703731492,4.806553031055798
330,1791274522.481652,-0.07491621093749994,-2.456954736328125,-0.47450126953124977,2.503475677895275,0.5580437328045318,-4.707266180807661,-0.9410247662922069,4.832731661852669
331,1791274522.501652,-0.017435742187499936,-2.5288053222656255,-0.47450126953124977,2.572996661057171,0.5564762732180977,-4.756899885588265,-0.9490126643223067,4.882457106950195
332,1791274522.5412016,0.025674609375000067,-2.4617447753906254,-0.35954033203124974,2.487994327784278,0.5538660327281882,-4.855130217480735,-0.9649131459540445,4.9809752448832265
333,1791274522.5612016,-0.06533613281249993,-2.433004541015625,-0.35954033203124974,2.4602945265172393,0.5526845554942158,-4.904695631463663,-0.9728264242760843,5.030694853293168
334,1791274522.5718815,-0.09407636718749994,-2.5575455566406253,-0.45055107421874974,2.598631545185864,0.5520205955249413,-4.931190726343667,-0.9770671321650574,5.057274848989201
335,1791274522.5918815,-0.03180585937499994,-2.6437662597656253,-0.5271916992187498,2.69600495858054,0.5507749043199637,-4.981166643536734,-0.9852839540721655,5.107461071419317
336,1791274522.6168897,-0.03180585937499994,-2.5910758300781254,-0.37870048828124975,2.618797363243305,0.5493316108424889,-5.044102075188391,-0.9957163048819169,5.170704199951718
337,1791274522.6368897,-0.09407636718749994,-2.4617447753906254,-0.37870048828124975,2.492479039400471,0.5481616709230662,-5.094463316339792,-1.0039440705287321,5.221296907450371
338,1791274522.6469324,-0.07970624999999994,-2.4617447753906254,-0.39786064453124975,2.494961626542365,0.5475314313774525,-5.119666560187747,-1.0080407000992315,5.246610563869538
339,1791274522.6669323,-0.007855664062499936,-2.5527555175781256,-0.4122307617187498,2.5858377066031517,0.5463332344142284,-5.169851743376391,-1.0161905112296739,5.297026543885791
340,1791274522.6910067,-0.08449628906249994,-2.4856949707031255,-0.33080009765624974,2.509033243074617,0.544940539662212,-5.230296479338294,-1.0258706641309003,5.357739455504557
341,1791274522.7110066,-0.17071699218749994,-2.389894189453125,-0.35954033203124974,2.4228098931943665,0.5435742741715527,-5.2802926692038685,-1.0337417757718623,5.407918797741439
342,1791274522.736213,-0.22819746093749996,-2.5575455566406253,-0.44576103515624976,2.6061113283845145,0.541356497399991,-5.343205093376652,-1.0436962627957687,5.471033669804751
343,1791274522.756213,-0.12281660156249995,-2.6102359863281253,-0.5415618164062498,2.668652285879702,0.5393342345486889,-5.393386985136918,-1.051890882085301,5.521410962409401
344,1791274522.766881,-0.07970624999999994,-2.5240152832031253,-0.47929130859374974,2.570355305133033,0.5382553174097634,-5.420246988185574,-1.056423045358884,5.548407505800201
345,1791274522.786881,-0.11802656249999995,-2.5000650878906256,-0.3930706054687498,2.5335272278048833,0.5362394171743191,-5.47058568247774,-1.0649537859118254,5.599016609011785
346,1791274522.8114996,-0.12760664062499993,-2.7060367675781256,-0.46971123046874974,2.7494630534423874,0.533676659310262,-5.532867215630149,-1.075472474245911,5.661631517976784
347,1791274522.8314996,-0.16113691406249994,-2.6533463378906252,-0.32122001953124973,2.677572444364267,0.5314738744358627,-5.583913762783225,-1.0839223758307086,5.712919140530021
348,1791274522.8566184,-0.08928632812499994,-2.4713248535156254,-0.2541594726562498,2.485963720076175,0.5286505134261953,-5.648062995471503,-1.094027042790797,5.777281552470667
349,1791274522.8766184,-0.10365644531249994,-2.4138443847656252,-0.39786064453124975,2.448608271036056,0.5264502981410017,-5.698805822196509,-1.1018437340817875,5.828172726494032
350,1791274522.931558,-0.07970624999999994,-2.5240152832031253,-0.5367717773437498,2.5816913403977604,0.5205574073010363,-5.837633107079767,-1.1239462899532524,5.967595459636103
351,1791274522.9515579,-0.06533613281249993,-2.5958658691406256,-0.5128215820312497,2.646842344344888,0.5185164011771836,-5.888270378865595,-1.1323598931500387,6.018540208433477
352,1791274522.931558,-0.09886640624999994,-2.5479654785156254,-0.37870048828124975,2.5778511799203243,0.5185164011771836,-5.888270378865595,-1.1323598931500387,6.018540208433477
353,1791274522.9515579,-0.16113691406249994,-2.4856949707031255,-0.31642998046874976,2.510930609354199,0.5164424116065238,-5.938964669917674,-1.1406181057240654,6.069515942654888
354,1791274522.9767222,-0.12281660156249995,-2.5096451660156256,-0.35475029296874977,2.537567840922952,0.5136883943649138,-6.002609375600513,-1.1507168900660294,6.133461049328969
355,1791274522.9967222,0.10710527343750006,-2.6293961425781256,-0.45534111328124977,2.670679902879987,0.511804329543247,-6.0533136080973815,-1.158754338633815,6.184436993536181
356,1791274523.006854,-0.13239667968749994,-2.5575455566406253,-0.3834905273437498,2.589523728342119,0.5109738261252174,-6.079088518105183,-1.162852709461995,6.21036535848306
357,1791274523.026854,-0.29525800781249995,-2.4617447753906254,-0.33080009765624974,2.5013582979952775,0.508938861359862,-6.1298645987615865,-1.1708007102897515,6.261392262665534
358,1791274523.0516021,-0.19945722656249995,-2.5240152832031253,-0.42660087890624976,2.56757174095575,0.5058802520380101,-6.192524712909574,-1.1805661923072581,6.324319226906299
359,1791274523.071602,-0.046175976562499936,-2.5910758300781254,-0.5032415039062498,2.639897382339013,0.5034107792194478,-6.243239898548898,-1.1886690704735479,6.37529615018531
360,1791274523.09661,-0.03180585937499994,-2.5335953613281252,-0.47929130859374974,2.578727830952209,0.5006398635740597,-6.306753817633387,-1.1991239648672045,6.439229944050112
361,1791274523.11661,-0.19466718749999995,-2.4713248535156254,-0.33559013671874977,2.5015920101719415,0.4984165334703087,-6.357436861958247,-1.207453343485862,6.490251618490401
362,1791274523.1261542,-0.27609785156249994,-2.423424462890625,-0.24457939453124974,2.451333357828636,0.49717771442737463,-6.381498937749129,-1.2112472479358998,6.514432766392542
363,1791274523.1461542,-0.12760664062499993,-2.4809049316406253,-0.3834905273437498,2.513610494713284,0.4943655774142521,-6.431714723776659,-1.2189470434191265,6.564844515054247
364,1791274523.1856518,0.011304492187500065,-2.5240152832031253,-0.5032415039062498,2.5737196725052236,0.4893004587757843,-6.530835643100586,-1.2344990915405318,6.664474258571762
365,1791274523.2056518,-0.07491621093749994,-2.5000650878906256,-0.46013115234374974,2.5431591691649937,0.4870249871988336,-6.5810339290633815,-1.242637833645058,6.715009285119829
366,1791274523.2158906,-0.24256757812499996,-2.5814957519531254,-0.34038017578124974,2.615113384037934,0.4857910077467298,-6.606780081166175,-1.2467941580261046,6.740922163664979
367,1791274523.2358906,-0.22340742187499996,-2.6246061035156254,-0.30684990234374976,2.651909677445421,0.48304322625395035,-6.657336472002064,-1.254665894357932,6.791733664267445
368,1791274523.2457826,-0.10844648437499994,-2.6150260253906255,-0.41702080078124976,2.650288305397702,0.48164182978523795,-6.682478154189487,-1.2585122887454612,6.816989534563035
369,1791274523.2657826,-0.20903730468749995,-2.5048551269531254,-0.45055107421874974,2.5536233223116604,0.4787572191003192,-6.733365485566188,-1.26642390908294,6.868132843397219
370,1791274523.2908506,-0.31441816406249995,-2.4856949707031255,-0.32601005859374976,2.526622414919876,0.474699824936193,-6.7969632377924984,-1.276312908517312,6.93202883866946
371,1791274523.3108506,-0.16592695312499994,-2.3515738769531254,-0.30684990234374976,2.3773069459180207,0.4712277716415286,-6.847348176370209,-1.2839684577473214,6.982607511646112
372,1791274523.3510828,-0.041385937499999935,-2.409054345703125,-0.4122307617187498,2.4444201433634696,0.46466546540460674,-6.947864622789838,-1.2992282104931647,7.083553540017576
373,1791274523.3710828,-0.10365644531249994,-2.5240152832031253,-0.5128215820312497,2.5776702239609337,0.4616750198490098,-6.997737133494055,-1.307063748976498,7.133714632456409
374,1791274523.381734,-0.08928632812499994,-2.5000650878906256,-0.36433037109374977,2.5280494677479943,0.46016719773448994,-7.0243264593695915,-1.3113113813913082,7.160478587122297
375,1791274523.4017339,-0.19466718749999995,-2.4042643066406253,-0.18709892578124976,2.4193776427221496,0.45733466915180543,-7.074121531793676,-1.3189180687756779,7.210540570466132
376,1791274523.4112422,-0.07970624999999994,-2.375524072265625,-0.35475029296874977,2.403188605699506,0.45599436354081585,-7.097652627908211,-1.3223783858341438,7.234175024241163
377,1791274523.4312422,-0.14676679687499994,-2.5240152832031253,-0.5319817382812497,2.583640495961588,0.45325832659429377,-7.147073094130162,-1.3298951713427984,7.2838669736773225
378,1791274523.4558034,0.044834765625000064,-2.5335953613281252,-0.5319817382812497,2.5892315811871254,0.45021454511138376,-7.20797723798963,-1.3397014861061411,7.345231723498005
379,1791274523.4758034,0.011304492187500065,-2.6054459472656255,-0.31642998046874976,2.624615078103062,0.44819200400803144,-7.257840526868476,-1.3477615321395136,7.395511228672854
380,1791274523.500687,-0.19466718749999995,-2.5000650878906256,-0.31642998046874976,2.527518286801932,0.44571086236463714,-7.320101681495362,-1.357466518075146,7.45823451950635
381,1791274523.5206869,-0.11323652343749994,-2.4042643066406253,-0.44097099609374973,2.4469909656192548,0.44355393407795224,-7.369993915148281,-1.3652328973963093,7.508489279867944
382,1791274523.5307345,-0.05096601562499994,-2.409054345703125,-0.46013115234374974,2.4531329056243543,0.4425091293909444,-7.394926423363983,-1.3692283961995724,7.533627116968321
383,1791274523.5507345,0.07357500000000007,-2.5096451660156256,-0.34038017578124974,2.5336911421867248,0.4407753041103895,-7.444488579838596,-1.3771892752497361,7.583623367752631
384,1791274523.5764601,-0.036595898437499934,-2.5240152832031253,-0.31642998046874976,2.544036230513405,0.43895099323600173,-7.508388873405283,-1.387160478984045,7.648058292350704
385,1791274523.59646,-0.11802656249999995,-2.428214501953125,-0.46492119140624977,2.4751379054851945,0.43751351931011184,-7.558043780003855,-1.3949216718884496,7.69813291199484
386,1791274523.6204154,0.020884570312500066,-2.4761148925781256,-0.39786064453124975,2.5079621645852517,0.43587549234614664,-7.617408964081608,-1.4043734845048048,7.758039163015291
387,1791274523.6404154,0.030464648437500068,-2.5383854003906254,-0.30205986328124973,2.5564758353495507,0.4347900852674398,-7.667059391379912,-1.4121308719304453,7.808133946638775
388,1791274523.6509626,-0.07491621093749994,-2.5575455566406253,-0.37870048828124975,2.586516145856796,0.43426838352799046,-7.693346502821977,-1.4161466645628662,7.834643630502136
389,1791274523.6709626,-0.18987714843749995,-2.456954736328125,-0.45055107421874974,2.5051299723454736,0.43303031156521493,-7.74323798558505,-1.4238632217558695,7.884962664871058
390,1791274523.6957545,-0.11802656249999995,-2.5527555175781256,-0.39786064453124975,2.5862683724718036,0.4311532905919491,-7.805121640733417,-1.4335713766615261,7.9473859777046565
391,1791274523.7157545,-0.05096601562499994,-2.5575455566406253,-0.34517021484374977,2.581235999721098,0.4296127181163476,-7.8552210558129705,-1.4413428583694123,7.997908111414338
392,1791274523.7413344,-0.10365644531249994,-2.5431754394531256,-0.3834905273437498,2.5740145607697733,0.4276412454058741,-7.919472242637379,-1.4511895412042435,8.062683717049604
393,1791274523.7613344,-0.13718671874999994,-2.456954736328125,-0.46492119140624977,2.504315971754604,0.4259697739410027,-7.9696726712111605,-1.4590060946629388,8.113311994421574
394,1791274523.7713892,-0.11802656249999995,-2.4713248535156254,-0.44097099609374973,2.5131319544455892,0.4250630437316317,-7.994841322458109,-1.4630294908773864,8.13871130177297
395,1791274523.7913892,-0.007855664062499936,-2.423424462890625,-0.40744072265624975,2.457449039405136,0.42334118581522323,-8.044736799559866,-1.4711045785533128,8.189087654607238
396,1791274523.8158581,0.13584550781250007,-2.5288053222656255,-0.27810966796874975,2.547676460488945,0.421785458297385,-8.105712733326316,-1.480760197669614,8.250644377928435
397,1791274523.835858,0.016094531250000065,-2.5240152832031253,-0.26852958984374975,2.5383105256057155,0.42093251268917564,-8.155655526166905,-1.4882884825346783,8.301018241696676
398,1791274523.861306,-0.05575605468749994,-2.4904850097656253,-0.12961845703124975,2.4944789567973435,0.41993432509452583,-8.219240994962584,-1.4971904828143277,8.365037161453374
399,1791274523.881306,-0.17550703124999995,-2.5623355957031255,-0.14398857421874975,2.5723722772046482,0.41892060920035584,-8.269297368246226,-1.503547717060457,8.415309214685726
400,1791274523.8908699,-0.17071699218749994,-2.5431754394531256,-0.17272880859374976,2.554744771709566,0.41826022254085815,-8.293305791174237,-1.5063589032397204,8.439370812154994
401,1791274523.9108698,-0.017435742187499936,-2.7060367675781256,-0.20146904296874976,2.713582275860646,0.41680414876601546,-8.343854852035014,-1.5119171155025766,8.489966599133735
402,1791274523.9357474,-0.022225781249999937,-2.6581363769531254,-0.13919853515624975,2.661871374808202,0.4151906455026567,-8.407308773412751,-1.5184294186414806,8.553411715976955
403,1791274523.9557474,-0.47727949218749993,-3.0365494628906253,-0.11524833984374974,3.0759893585773086,0.41333880661056766,-8.459211804734906,-1.523261247697785,8.60519832166316
404,1791274523.9959161,-0.4676994140625,-3.1754605957031257,-0.23020927734374974,3.2179634939123822,0.4073304978880873,-8.56653396808062,-1.5325507661067115,8.712068308472054
405,1791274524.015916,0.10710527343750006,-3.4197525878906254,-0.09129814453124974,3.4226473165048135,0.40424680663701346,-8.621847023823047,-1.536964481314644,8.767093098610585
406,1791274524.0411093,0.3753474609375001,-3.4293326660156254,0.11946357421875027,3.451880617315608,0.4018566495944318,-8.694012696923137,-1.541637083621634,8.838777655234994
407,1791274524.0611093,0.29391679687500005,-3.1275602050781255,0.04282294921875027,3.141632334448666,0.40124770474455657,-8.752544284994661,-1.5445466524177573,8.89683401794427
408,1791274524.055629,0.054414843750000066,-2.7922574707031256,0.13862373046875026,2.7962259022773583,0.40124770474455657,-8.752544284994661,-1.5445466524177573,8.89683401794427
409,1791274524.075629,-0.32399824218749995,-2.5048551269531254,-0.03381767578124974,2.5259488718418655,0.40084748979675594,-8.81032677903375,-1.5462602626448774,8.953963226598049
410,1791274524.1013668,0.044834765625000064,-2.203082666015625,-0.06255791015624974,2.2044266559879646,0.39987083405252233,-8.882620387632809,-1.5483207422785359,9.025416264953426
411,1791274524.1213667,0.4280378906250001,-2.059381494140625,-0.03381767578124974,2.103666373124507,0.399935053967489,-8.93676454468027,-1.5498262676635537,9.078968555644758
412,1791274524.1612463,0.08794511718750007,-1.8629898925781252,-0.16314873046874975,1.8721867406161552,0.40158718737267973,-9.040264236081791,-1.5529670769770405,9.181468099896444
413,1791274524.1812463,-0.43416914062499995,-1.719288720703125,-0.2637395507812498,1.7927674412634604,0.4017721284289236,-9.089757821092732,-1.5549462828073928,9.230545814398807
414,1791274524.1762664,-1.0377140625,-1.130113916015625,-0.2637395507812498,1.5567808096609879,0.4017721284289236,-9.089757821092732,-1.5549462828073928,9.230545814398807
415,1791274524.1962664,-1.008973828125,-0.952882470703125,-0.5607219726562498,1.4968040350807534,0.3969590701396624,-9.132274412760594,-1.558285485338689,9.27277014204198
416,1791274524.2212548,-0.34794843749999993,-1.173224267578125,-0.7858538085937498,1.4543347295840188,0.38930451100624164,-9.181411999492944,-1.5643554063753342,9.321860980736549
417,1791274524.2412548,-0.10365644531249994,-0.7804410644531251,-0.45055107421874974,0.9070993243406257,0.3834195954753147,-9.217771515682381,-1.5703394682434686,9.358434075583537
418,1791274524.2661676,-0.4197990234375,0.10092612304687497,-0.14877861328124975,0.45667535313638646,0.37621061078626816,-9.257538491007596,-1.577795196860755,9.398563242293593
419,1791274524.2861676,-0.6449308593749999,0.800271826171875,-0.10087822265624974,1.0327377328949143,0.3696942609278945,-9.283322826543857,-1.583257311080068,9.424619900106409
420,1791274524.2960832,-0.43416914062499995,0.776321630859375,-0.18709892578124976,0.9089467119912522,0.3661456929454965,-9.293016216345437,-1.5857732767159756,9.43445228674502
421,1791274524.3160832,-0.07012617187499993,0.718841162109375,-0.44576103515624976,0.8487362351096894,0.3593053367375869,-9.3073925019791,-1.5910361137896185,9.449235494276119
422,1791274524.3413973,0.13105546875000007,0.742791357421875,-0.6804729492187498,1.0158533216800432,0.3520618175039932,-9.32008423577185,-1.5988363562165897,9.462779474297555
423,1791274524.3613973,0.09752519531250008,0.939182958984375,-0.5559319335937498,1.0957354192306976,0.34754021559231457,-9.326084563388493,-1.6059293085184752,9.469722616258922
424,1791274524.3859913,0.22206621093750006,1.102044287109375,-0.4313909179687498,1.2041233893984742,0.3434035200970941,-9.328591243077081,-1.6151643806155058,9.473610533183141
425,1791274524.4059913,0.5190486328125001,0.843382177734375,-0.6804729492187498,1.20156082474545,0.3416558125757244,-9.327405780609025,-1.6232156682990873,9.473756192567818
426,1791274524.41601,0.8160310546875001,1.149944677734375,-0.8816545898437498,1.66300759464789,0.34191482647526467,-9.32540324821407,-1.6278176022793172,9.472583683275408
427,1791274524.43601,0.8064509765625001,1.490037451171875,-0.8529143554687498,1.8968494092199466,0.34478805349516367,-9.318045292847097,-1.6382282192802122,9.467240283199162
428,1791274524.4609227,0.8495613281250001,1.4708772949218751,-0.7714836914062497,1.8655887952783219,0.3509244130924164,-9.304722357383977,-1.6522860706638738,9.456799424277504
429,1791274524.4809227,1.4387361328125001,1.331966162109375,-1.2361174804687498,2.3177752139465673,0.3585441762071375,-9.2914268107543,-1.66489024586754,9.446217530667012
430,1791274524.506028,2.0614412109375,1.322386083984375,-1.4325090820312498,2.837309833516427,0.3732647214080895,-9.272242952234551,-1.6833633063148523,9.431199708338195
431,1791274524.526028,2.1045515625,1.207425146484375,-1.2888079101562497,2.7473693950514417,0.38948170531642523,-9.255457910681582,-1.6999542901172189,9.418335400890244
432,1791274524.5360897,2.1093416015625004,1.140364599609375,-1.3558684570312498,2.754656545723406,0.39959641583110816,-9.24650850353813,-1.7090447531512787,9.411611486340792
433,1791274524.5560896,2.4925447265625,1.217005224609375,-1.5187297851562498,3.1623442397945536,0.4235887182743776,-9.227851830580516,-1.7287155913520342,9.397932453746469
434,1791274524.5814815,3.062559375,1.020613623046875,-1.6720110351562498,3.6354563667624364,0.460059153611498,-9.203457130581729,-1.7560198434844494,9.380771997548418
435,1791274524.6014814,3.1535701171875004,0.900862646484375,-1.65764091796875,3.6748239964348084,0.49380052844764494,-9.184242511404285,-1.7792946879172433,9.368032827474048
436,1791274524.6261706,2.9907087890625004,0.603880224609375,-1.7965520507812498,3.5407075080859576,0.540582378302422,-9.161294450164505,-1.8101128875056836,9.354039446990814
437,1791274524.6461706,3.302061328125,0.38353842773437496,-2.1701750976562497,3.9699333363086726,0.582233615929866,-9.144012215911825,-1.8372831394916675,9.344921868208626
438,1791274524.6558795,3.7187947265625003,0.369168310546875,-2.47194755859375,4.480652206125655,0.6045324260443736,-9.136332989180323,-1.8518745785751864,9.341706450006699
439,1791274524.6758795,3.7762751953125004,0.36437827148437496,-2.6395989257812498,4.6217430006922635,0.6548196223240546,-9.121786555932996,-1.8850910987916971,9.337523609636778
440,1791274524.7011821,3.88644609375,0.345218115234375,-2.76413994140625,4.78164285600545,0.7234381779552838,-9.104797251175048,-1.9310656030788076,9.335400909747909
441,1791274524.721182,4.1163679687500005,-0.10025551757812504,-2.78330009765625,4.970039824444987,0.7815448472391715,-9.093015275077548,-1.9702754515432237,9.33679412303782
442,1791274524.7462656,4.1977986328125,-0.08109536132812503,-2.82162041015625,5.058619530888023,0.8591307078255587,-9.08079625041947,-2.022619515490593,9.342909387294974
443,1791274524.7662656,3.9199763671875,0.06739584960937497,-2.83599052734375,4.838760088187526,0.9238899795781054,-9.072535544087101,-2.06658130615135,9.350680840881207
444,1791274524.7908208,3.8720759765625004,0.23504721679687499,-2.81683037109375,4.794033051816868,1.005822737289238,-9.063357702176896,-2.122870174309248,9.362836642461998
445,1791274524.8108208,4.097207812500001,-0.037985009765625036,-2.9222112304687498,5.032680517900538,1.0745000826775488,-9.056708134281196,-2.17044846202627,9.374932489545802
446,1791274524.8213644,4.2025886718750005,-0.23916665039062504,-3.10423271484375,5.230221121476352,1.1118378128491664,-9.053947607308563,-2.1965339493507554,9.382692150370282
447,1791274524.8413644,4.3414998046875,-0.08109536132812503,-3.2814641601562498,5.442720279981372,1.1848555458102152,-9.049977055093061,-2.248171507106502,9.400012898263151
448,1791274524.880728,4.542681445312501,-0.20084633789062503,-3.15692314453125,5.5355629980615,1.3332394849347964,-9.044166866192517,-2.3535667150261093,9.440008374456166
449,1791274524.900728,4.6384822265625,-0.5026187988281251,-3.02759208984375,5.5618753029491845,1.411093849664372,-9.04271281423926,-2.408360550493996,9.463722387863207
450,1791274524.9107785,4.370240039062501,-0.9576725097656251,-3.2144036132812497,5.508949557226074,1.451139883815544,-9.04319247182258,-2.4364707909502337,9.47742195747253
451,1791274524.9307785,4.183428515625001,-1.168434228515625,-3.4443254882812497,5.543436728324331,1.531706262863226,-9.047192945995192,-2.494005958134362,9.5088322099493
452,1791274524.940681,4.3319197265625,-1.3025553222656252,-3.57365654296875,5.764824366105804,1.5719373096905838,-9.050711737132357,-2.5234321158997606,9.52649355732827
453,1791274524.960681,4.566631640625,-1.3504557128906252,-3.6407170898437498,5.994387049725489,1.6543513915285166,-9.060732101152325,-2.5847707428757034,9.566336003336428
454,1791274524.9857674,4.3558699218750005,-1.494156884765625,-3.67903740234375,5.894185590938928,1.7590065820960459,-9.076767626448268,-2.663940312656018,9.621766609609192
455,1791274525.0057673,4.298389453125,-1.6282779785156252,-3.85626884765625,5.999854205850275,1.8429083115494427,-9.092317864884086,-2.72889309731899,9.670233334178837
456,1791274525.031378,4.279229296875,-1.9444205566406252,-3.93290947265625,6.128650063140268,1.9507074844676708,-9.116106046584047,-2.8145527559202144,9.738087921064508
457,1791274525.051378,4.2552791015625,-2.289303369140625,-3.86584892578125,6.188141729559628,2.0350646878631196,-9.138246859974362,-2.88311046216792,9.79598743847096
458,1791274525.0614326,4.3558699218750005,-2.236612939453125,-3.99517998046875,6.319612590464922,2.077605859569831,-9.151121048346244,-2.918334525086782,9.827315958567631
459,1791274525.0814326,4.5522615234375,-2.140812158203125,-4.04787041015625,6.45688907539059,2.1628953279821146,-9.179454455195513,-2.9899548342279814,9.893448852929847
460,1791274525.1063898,4.4660408203125,-2.4856949707031255,-3.99038994140625,6.484397580388832,2.2702406151214714,-9.218167008957936,-3.0809670702886773,9.981029683544218
461,1791274525.1263897,4.149898242187501,-2.7491471191406256,-4.07182060546875,6.431110972943167,2.3562844768405107,-9.252388942016621,-3.155054820104664,10.055503398041129
462,1791274525.1510506,4.1163679687500005,-2.8114176269531255,-3.97122978515625,6.373320981545327,2.461754822983458,-9.29854108299409,-3.247581280151942,10.152334079008854
463,1791274525.1710505,4.303179492187501,-2.576705712890625,-3.79878837890625,6.291864526556451,2.5470903015903157,-9.33843832022097,-3.323019574993208,10.234088057116518
464,1791274525.1815994,4.2935994140625,-2.5335953613281252,-3.79399833984375,6.264864307079473,2.592149837070147,-9.360368354494089,-3.3628476278739106,10.278350095123942
465,1791274525.2015994,4.279229296875,-2.5335953613281252,-4.09098076171875,6.439490074759774,2.6776248338188244,-9.403310514881655,-3.438860047103589,10.364250180960148
466,1791274525.2258806,3.9343464843750002,-2.7299869628906253,-4.02392021484375,6.254905672517762,2.780788856189816,-9.457210360260238,-3.5320794221823952,10.471255870502228
467,1791274525.2458806,3.7858552734375004,-2.7635172363281253,-3.8371086914062498,6.057485516001054,2.864597132067539,-9.503187380643768,-3.609136416067848,10.561361313318638
468,1791274525.2709217,4.260069140625,-2.4617447753906254,-3.7173577148437498,6.166613722471744,2.968900826200793,-9.561931802857345,-3.705332073657438,10.67587924689976
469,1791274525.2909217,4.5043611328125,-2.2509830566406253,-3.8035784179687497,6.310578635728481,3.0528574822395966,-9.608881487802245,-3.7819190806623415,10.768168562303103
470,1791274525.3011448,4.6001619140625,-1.9348404785156252,-3.54491630859375,6.121399263879761,3.0963160992111254,-9.632489811526485,-3.8208292902286645,10.815302576463814
471,1791274525.3211448,4.992945117187501,-1.771979150390625,-3.3245745117187497,6.2547747150985025,3.1829726858372456,-9.677308102957522,-3.895836951034368,10.90683972502567
472,1791274525.3462229,4.849243945312501,-1.771979150390625,-3.50659599609375,6.241097053434576,3.2938446025873453,-9.731741936184706,-3.9886299398345506,11.021133434245066
473,1791274525.3662229,4.1690583984375005,-2.279723291015625,-3.65508720703125,5.994818488009864,3.382530206126785,-9.774719242134008,-4.062275223417692,11.112548170815648
474,1791274525.390677,3.8193855468750004,-2.5527555175781256,-3.76525810546875,5.939817782474588,3.489352514283455,-9.828248647395107,-4.152424186389381,11.225536916676704
475,1791274525.410677,3.9487166015625004,-2.380314111328125,-3.75567802734375,5.946711319133942,3.575265261267844,-9.872860752935,-4.226375228469416,11.318928779133334
476,1791274525.4382133,3.9103962890625,-1.920470361328125,-3.87063896484375,5.827628294805722,3.692039629899158,-9.933952307840856,-4.32867006340792,11.44779234617079
477,1791274525.4582133,3.953506640625,-1.609117822265625,-3.87542900390625,5.765277520442241,3.7759277921198855,-9.976962426292868,-4.403442327074965,11.540698171031007
478,1791274525.4663827,4.3798201171875,-1.4318863769531252,-4.00955009765625,6.10815969347884,3.810159671697927,-9.993758796565793,-4.434234458053285,11.57821086510159
479,1791274525.4863827,4.30796953125,-1.613907861328125,-3.5976067382812498,5.840040608622659,3.8944255224305055,-10.03327957080409,-4.509721481691379,11.66922606422986
480,1791274525.5110824,4.303179492187501,-1.6713883300781252,-3.03717216796875,5.525876172136725,3.9988345181175515,-10.080851953317138,-4.6012538318816745,11.780738110720915
481,1791274525.5310824,4.38461015625,-1.762399072265625,-3.06591240234375,5.632998808011467,4.0837274718508,-10.118745137545089,-4.673407159623144,11.87040722564134
