imu_index,t_imu,ax,ay,az,mag
0,1789529294.6899338,-0.014557961856617748,0.10777587890625001,-0.15267075482536713,0.18744581538775618
1,1789529294.7099338,0.042922506893382256,0.13172607421875002,-0.028129739200367116,0.14136966596330613
2,1789529294.7199411,0.028552389705882253,0.04071533203125,-0.06645005170036712,0.08299750954885915
3,1789529294.7399411,-0.0001878446691177485,-0.050295410156250005,-0.2101512235753671,0.21608609473686424
4,1789529294.7652817,-0.0001878446691177485,0.07424560546875,-0.12872055951286712,0.1485982087992536
5,1789529294.7852817,-0.04329819623161775,0.11256591796875001,0.019770651424632888,0.12221578598042632
6,1789529294.814501,-0.09119858685661775,0.03592529296875,0.04851088579963289,0.10936688237578866
7,1789529294.834501,-0.13909897748161776,-0.050295410156250005,0.03414076861213289,0.15180166633026207
8,1789529294.8558686,-0.12472886029411775,-0.045505371093750004,0.03893080767463289,0.13836052607174018
9,1789529294.8758686,-0.12472886029411775,-0.06945556640625,0.04372084673713289,0.14930799286874905
10,1789529294.8854048,-0.13430893841911776,-0.00718505859375,-0.008969582950367113,0.13479973822144278
11,1789529294.9054048,-0.08640854779411775,0.21315673828125,0.09162123736213289,0.2475816700451751
12,1789529294.930072,-0.13430893841911776,0.26105712890625,0.2736427217371329,0.4013353394005451
13,1789529294.950072,-0.20615952435661775,0.13172607421875002,0.2209522920496329,0.32965652348166385
14,1789529294.97515,-0.19178940716911777,0.10298583984375001,0.10120131548713289,0.24006450417946085
15,1789529294.99515,-0.14867905560661776,0.09819580078125001,0.005400534237132887,0.17826116413058993
16,1789529295.00485,-0.15346909466911776,0.01676513671875,0.0724610811121329,0.17054161106221588
17,1789529295.02485,-0.14388901654411776,0.01676513671875,0.1730519014246329,0.22568136714827086
18,1789529295.0504308,-0.09119858685661775,-0.00239501953125,0.1203614717371329,0.151029143684018
19,1789529295.0704308,-0.04329819623161775,-0.06945556640625,0.03893080767463289,0.09063342257646423
20,1789529295.0948236,-0.04329819623161775,-0.09340576171875001,0.0006104951746328869,0.10295505244294634
21,1789529295.1148236,-0.03850815716911775,0.03592529296875,-0.05686997357536712,0.07750934613267581
22,1789529295.1253772,-0.02413803998161775,0.08382568359375,0.005400534237132887,0.08739883279632578
23,1789529295.1453772,-0.02413803998161775,0.03113525390625,0.12515151079963288,0.13120575317184632
24,1789529295.1700206,-0.10077866498161775,-0.12693603515625002,0.014980612362132887,0.1627682864793089
25,1789529295.1900206,-0.11993882123161775,-0.03592529296875,-0.12393052045036712,0.176166743207733
26,1789529295.2155166,-0.05766831341911775,0.19878662109375,-0.11914048138786712,0.23882254793843996
27,1789529295.2355165,-0.02413803998161775,0.17962646484375,0.014980612362132887,0.1818590954369938
28,1789529295.2453475,-0.08161850873161776,0.00239501953125,0.11078139361213289,0.1376220703839851
29,1789529295.2653475,-0.16304917279411776,-0.04071533203125,0.03893080767463289,0.17250617031706506
30,1789529295.2902331,-0.20136948529411774,0.01676513671875,-0.004179543887867113,0.20210939612973686
31,1789529295.310233,-0.17262925091911777,0.05987548828125,0.04851088579963289,0.18904824360696623
32,1789529295.334695,-0.15825913373161776,-0.00239501953125,0.09641127642463289,0.1853289609042907
33,1789529295.354695,-0.17262925091911777,0.00239501953125,0.10599135454963289,0.2025851959811397
34,1789529295.365581,-0.17741928998161777,0.07903564453125,0.0724610811121329,0.20730375259505213
35,1789529295.385581,-0.18220932904411777,0.16046630859375,0.10120131548713289,0.2630425479665569
36,1789529295.4096687,-0.15346909466911776,0.10777587890625001,0.1682618623621329,0.25195328419797713
37,1789529295.4296687,-0.12472886029411775,0.08382568359375,0.1682618623621329,0.2256016137925489
38,1789529295.4557652,-0.13909897748161776,0.050295410156250005,0.05330092486213289,0.1572232247804877
39,1789529295.4757652,-0.14388901654411776,-0.01676513671875,-0.04728989545036712,0.15238586910517138
40,1789529295.485557,-0.07682846966911776,0.03592529296875,0.0006104951746328869,0.08481517040569637
41,1789529295.505557,-0.04329819623161775,0.07903564453125,0.0628810029871329,0.10988806777830612
42,1789529295.5302107,-0.08640854779411775,-0.055085449218750006,-0.032919778262867114,0.10763157365938748
43,1789529295.5502107,-0.11514878216911775,-0.011975097656250001,-0.10956040326286712,0.15939299533552195
44,1789529295.5750446,-0.05287827435661775,0.14609619140625002,-0.018549661075367114,0.15647459528101157
45,1789529295.5950446,-0.0001878446691177485,0.19878662109375,0.03414076861213289,0.2016971692734359
46,1789529295.6204846,-0.04808823529411775,0.026345214843750003,0.02456069048713289,0.06008141339940762
47,1789529295.6404846,-0.10077866498161775,0.00239501953125,-0.042499856387867116,0.10939978622932289
48,1789529295.6505375,-0.10077866498161775,0.055085449218750006,-0.018549661075367114,0.11633931389311021
49,1789529295.6705375,-0.07682846966911776,0.011975097656250001,0.11557143267463289,0.13929383606621823
50,1789529295.6956246,-0.11993882123161775,-0.05987548828125,0.11078139361213289,0.17390489385291716
51,1789529295.7156246,-0.19178940716911777,-0.08382568359375,-0.032919778262867114,0.21188117833615489
52,1789529295.7405543,-0.15825913373161776,0.045505371093750004,-0.07603012982536712,0.18137605368163723
53,1789529295.7605543,-0.08161850873161776,0.14609619140625002,-0.013759622012867114,0.16791368410264182
54,1789529295.7696044,-0.07682846966911776,0.02155517578125,0.08204115923713289,0.11444645544372149
55,1789529295.7896044,-0.12951889935661776,-0.02155517578125,0.014980612362132887,0.13215214580268744
56,1789529295.8156292,-0.21094956341911775,0.05987548828125,-0.06645005170036712,0.22912966149020503
57,1789529295.8356292,-0.27801011029411776,0.14609619140625002,0.0006104951746328869,0.31406064903696135
58,1789529295.8599927,-0.21573960248161775,0.16046630859375,0.1491017061121329,0.3074480948683532
59,1789529295.8799927,-0.12951889935661776,0.14130615234375002,0.2544825654871329,0.3185968457434217
60,1789529295.8905458,-0.06724839154411776,0.09819580078125001,0.1538917451746329,0.19454416128282043
61,1789529295.9105458,-0.009767922794117749,0.00718505859375,0.04372084673713289,0.045371244440937805
62,1789529295.9351177,0.009392233455882252,-0.045505371093750004,0.08683119829963289,0.09848152032650521
63,1789529295.9551177,0.042922506893382256,-0.10298583984375001,0.10120131548713289,0.15063243695386852
64,1789529295.9803894,0.018972311580882254,-0.11735595703125,0.0676710420496329,0.13679085930545892
65,1789529296.0003893,0.004602194393382252,-0.14609619140625002,0.005400534237132887,0.14626839407983042
66,1789529296.0098875,-0.02413803998161775,-0.05987548828125,0.005400534237132887,0.06478336855334653
67,1789529296.0298874,-0.05766831341911775,0.02155517578125,0.05330092486213289,0.0814324785741225
68,1789529296.055688,-0.13430893841911776,0.07424560546875,0.1682618623621329,0.22773527437853144
69,1789529296.075688,-0.16783921185661776,0.07424560546875,0.1634718232996329,0.24577519805907655
70,1789529296.0997524,-0.21094956341911775,0.050295410156250005,0.08683119829963289,0.23360009329546932
71,1789529296.1197524,-0.22052964154411775,0.050295410156250005,0.0006104951746328869,0.22619311171368756
72,1789529296.1304355,-0.17262925091911777,0.12214599609375,-0.07124009076286712,0.22314939651841242
73,1789529296.1504354,-0.08640854779411775,0.20357666015625,-0.028129739200367116,0.22293760544094465
74,1789529296.175654,-0.03850815716911775,0.19399658203125,0.05330092486213289,0.20483783976484354
75,1789529296.195654,-0.05766831341911775,0.08861572265625,0.05809096392463289,0.12063557006201785
76,1789529296.2197392,-0.08161850873161776,0.045505371093750004,-0.032919778262867114,0.09907588791845068
77,1789529296.2397392,-0.062458352481617754,0.07424560546875,-0.08561020795036711,0.1293930578950988
78,1789529296.2650616,-0.03371811810661775,0.045505371093750004,-0.06645005170036712,0.08731128024495567
79,1789529296.2850616,-0.0001878446691177485,0.01676513671875,-0.09998032513786712,0.10137638043199075
80,1789529296.2956173,0.05729262408088225,0.08382568359375,-0.08561020795036711,0.13280925310134786
81,1789529296.3156173,0.10519301470588226,0.08861572265625,-0.037709817325367115,0.14261958830228735
82,1789529296.3398364,0.05729262408088225,0.00239501953125,0.014980612362132887,0.05926718855634074
83,1789529296.3598363,-0.03371811810661775,-0.011975097656250001,0.014980612362132887,0.038790890673881626
84,1789529296.3849325,-0.07203843060661776,0.00239501953125,0.010190573299632888,0.07279505056660612
85,1789529296.4049325,-0.07203843060661776,0.011975097656250001,-0.008969582950367113,0.07357575596923706
86,1789529296.4150352,-0.11993882123161775,0.07424560546875,0.014980612362132887,0.14185256260144097
87,1789529296.4350352,-0.13430893841911776,0.14130615234375002,0.08204115923713289,0.21151139789249668
88,1789529296.4603927,-0.09598862591911775,0.19878662109375,0.09641127642463289,0.24088393730910626
89,1789529296.4803927,-0.09119858685661775,0.17004638671875,0.02456069048713289,0.1945152523530005
90,1789529296.504975,-0.09598862591911775,0.10298583984375001,-0.032919778262867114,0.14458081240275
91,1789529296.524975,-0.08640854779411775,0.09819580078125001,-0.032919778262867114,0.13487981399688986
92,1789529296.5344203,-0.03371811810661775,0.12214599609375,-0.032919778262867114,0.1309208449837632
93,1789529296.5544202,-0.03371811810661775,0.055085449218750006,-0.04728989545036712,0.0800478133117324
94,1789529296.5805178,-0.03850815716911775,0.07424560546875,-0.028129739200367116,0.08824154535967413
95,1789529296.6005177,-0.062458352481617754,0.08861572265625,-0.05207993451286712,0.12027514986676156
96,1789529296.625564,-0.019348000919117748,0.10298583984375001,-0.05207993451286712,0.11701601568483365
97,1789529296.645564,0.042922506893382256,0.10298583984375001,0.005400534237132887,0.11170313592903924
98,1789529296.6699264,0.05250258501838225,0.055085449218750006,0.09641127642463289,0.12282533277411023
99,1789529296.6899264,0.038132467830882255,-0.011975097656250001,0.11557143267463289,0.12228754686073802
100,1789529296.7003317,0.07645278033088225,0.02155517578125,0.12994154986213288,0.15229727378996608
101,1789529296.7203317,0.07166274126838225,0.00718505859375,0.1874220186121329,0.20078393016808244
102,1789529296.7449653,-0.02892807904411775,-0.09340576171875001,0.1586817842371329,0.1863903933364663
103,1789529296.7649653,-0.009767922794117749,-0.12214599609375,0.13473158892463288,0.18211989932899286
104,1789529296.774754,0.09561293658088225,-0.04071533203125,0.1586817842371329,0.1896825784111834
105,1789529296.794754,0.11477309283088226,-0.050295410156250005,0.1586817842371329,0.20219396570974052
106,1789529296.8206348,0.08124281939338225,-0.11256591796875001,0.11557143267463289,0.18063288084288612
107,1789529296.8406348,0.14830336626838225,-0.045505371093750004,0.08204115923713289,0.17548612211193917
108,1789529296.8648558,0.17704360064338226,-0.10777587890625001,0.029350729549632887,0.20933595469456218
109,1789529296.8848557,0.10998305376838226,-0.12693603515625002,-0.013759622012867114,0.1685181187153019
110,1789529296.8949864,0.05250258501838225,-0.00239501953125,-0.008969582950367113,0.05331707953809025
111,1789529296.9149864,0.05729262408088225,0.10298583984375001,0.014980612362132887,0.11879792392605311
112,1789529296.9403322,0.028552389705882253,-0.00239501953125,0.03414076861213289,0.044570922784914806
113,1789529296.9603322,-0.004977883731617749,0.03113525390625,0.029350729549632887,0.04307724094400492
114,1789529296.9852316,-0.009767922794117749,0.11735595703125,-0.018549661075367114,0.11921376972666971
115,1789529297.0052316,-0.014557961856617748,0.20357666015625,-0.004179543887867113,0.20413931370733726
116,1789529297.030781,-0.0001878446691177485,0.12693603515625002,-0.004179543887867113,0.12700496405227263
117,1789529297.050781,-0.014557961856617748,0.08861572265625,0.0006104951746328869,0.08980564158039521
118,1789529297.0604994,-0.02892807904411775,0.15088623046875002,0.0006104951746328869,0.15363548094958313
119,1789529297.0804994,-0.004977883731617749,0.15088623046875002,-0.004179543887867113,0.15102616481466005
120,1789529297.1059456,0.033342428768382254,0.10298583984375001,-0.018549661075367114,0.10982663925709536
121,1789529297.1259456,0.009392233455882252,0.050295410156250005,0.04372084673713289,0.06730048121289381
122,1789529297.1499853,-0.009767922794117749,0.15567626953125,0.07725112017463288,0.1740639215320447
123,1789529297.1699853,0.009392233455882252,0.23231689453125,0.04851088579963289,0.23751349345879016
124,1789529297.179848,-0.004977883731617749,0.17962646484375,-0.023339700137867115,0.181204822786906
125,1789529297.199848,-0.07203843060661776,0.19399658203125,-0.05686997357536712,0.2146122159117112
126,1789529297.225212,-0.009767922794117749,0.29937744140625,0.010190573299632888,0.2997100474172324
127,1789529297.245212,0.07645278033088225,0.28979736328125,0.0676710420496329,0.30725707366498517
128,1789529297.270039,0.05250258501838225,0.12693603515625002,0.03414076861213289,0.1415445885091634
129,1789529297.290039,-0.014557961856617748,0.08382568359375,-0.028129739200367116,0.08961005362602399
130,1789529297.300711,0.023762350643382252,0.17962646484375,-0.037709817325367115,0.18507389470985516
131,1789529297.320711,0.07166274126838225,0.17004638671875,0.0724610811121329,0.1982471447414587
132,1789529297.3448768,0.05729262408088225,0.05987548828125,0.0724610811121329,0.11008236528586447
133,1789529297.3648767,0.05729262408088225,-0.08861572265625,-0.08561020795036711,0.13588340141926022
134,1789529297.3906937,0.10998305376838226,-0.03592529296875,-0.04728989545036712,0.12499293181142697
135,1789529297.4106936,0.13872328814338225,0.06945556640625,0.12515151079963288,0.19932668419846725
136,1789529297.4202614,0.08603285845588225,0.00718505859375,0.0628810029871329,0.10680495464983498
137,1789529297.4402614,0.10040297564338226,0.00239501953125,-0.11435044232536712,0.1521923693770742
138,1789529297.4658327,0.17225356158088226,0.15088623046875002,-0.04728989545036712,0.23382531563984726
139,1789529297.4858327,0.17225356158088226,0.16525634765625,0.1203614717371329,0.26733468498627483
140,1789529297.5099,0.11477309283088226,0.09340576171875001,0.05809096392463289,0.15897188194746648
141,1789529297.5299,0.07645278033088225,0.06945556640625,-0.013759622012867114,0.10420379322784808
142,1789529297.5399406,0.08124281939338225,0.055085449218750006,0.07725112017463288,0.12491011963349001
143,1789529297.5599406,0.07645278033088225,-0.00718505859375,0.07725112017463288,0.10892377268325464
144,1789529297.5850897,0.07166274126838225,-0.055085449218750006,-0.008969582950367113,0.09083175997432891
145,1789529297.6050897,0.11477309283088226,0.06466552734375,-0.023339700137867115,0.13378802213627777
146,1789529297.6296434,0.08603285845588225,0.08861572265625,0.04372084673713289,0.1310187447481892
147,1789529297.6496434,0.038132467830882255,0.00239501953125,0.019770651424632888,0.04301976149611568
148,1789529297.674756,0.06687270220588226,0.026345214843750003,-0.07603012982536712,0.10462604497323855
149,1789529297.694756,0.12435317095588226,0.17483642578125,-0.08561020795036711,0.23099912253523933
150,1789529297.705397,0.12435317095588226,0.23710693359375,-0.10477036420036712,0.287506936089708
151,1789529297.7253969,0.13872328814338225,0.21315673828125,-0.13351059857536712,0.28723688077955095
152,1789529297.7499926,0.16267348345588226,0.21794677734375,-0.08082016888786711,0.2837170415629994
153,1789529297.7699926,0.15788344439338226,0.19399658203125,-0.013759622012867114,0.2505018623708469
154,1789529297.79517,0.12435317095588226,0.11256591796875001,-0.023339700137867115,0.1693503428324129
155,1789529297.81517,0.11477309283088226,0.14130615234375002,-0.013759622012867114,0.18256401268075365
156,1789529297.8247335,0.09561293658088225,0.16525634765625,0.010190573299632888,0.19119451317043165
157,1789529297.8447335,0.042922506893382256,0.14609619140625002,0.05809096392463289,0.16297545468909447
158,1789529297.8693328,0.023762350643382252,0.10777587890625001,0.09641127642463289,0.14654495420839536
159,1789529297.8893328,0.08124281939338225,0.07424560546875,0.1491017061121329,0.18532167817056872
160,1789529297.9144783,0.07166274126838225,0.00239501953125,0.14431166704963289,0.16114323396065458
161,1789529297.9344783,0.07166274126838225,0.055085449218750006,0.10599135454963289,0.1392986806864895
162,1789529297.94458,0.11956313189338226,0.11256591796875001,0.08683119829963289,0.18575813681896106
163,1789529297.96458,0.15309340533088225,0.06466552734375,0.0628810029871329,0.17768860886145432
164,1789529297.9896047,0.10519301470588226,0.08382568359375,0.03893080767463289,0.14002829485168597
165,1789529298.0096047,0.06687270220588226,0.16046630859375,0.03414076861213289,0.17716372815971224
166,1789529298.0346909,0.06687270220588226,0.29458740234375,-0.004179543887867113,0.3021111790501399
167,1789529298.0546908,0.05729262408088225,0.24189697265625001,-0.04728989545036712,0.253047276938596
168,1789529298.064767,0.042922506893382256,0.16046630859375,-0.15267075482536713,0.225610587452505
169,1789529298.0847669,0.10998305376838226,0.17483642578125,-0.10477036420036712,0.2316050023442045
170,1789529298.1098752,0.14830336626838225,0.16525634765625,-0.004179543887867113,0.2220833570403868
171,1789529298.1298752,0.08124281939338225,0.08382568359375,-0.018549661075367114,0.11819996133229574
172,1789529298.1545658,0.05729262408088225,-0.00239501953125,-0.08082016888786711,0.09909631976865599
173,1789529298.1745658,0.11477309283088226,0.01676513671875,-0.008969582950367113,0.11633738034470353
174,1789529298.1846147,0.07645278033088225,-0.00239501953125,0.10120131548713289,0.12685609955852895
175,1789529298.2046146,0.033342428768382254,-0.06945556640625,0.09641127642463289,0.1234136438276361
176,1789529298.2593362,0.062082663143382254,-0.055085449218750006,0.04372084673713289,0.09380925443695853
177,1789529298.2793362,0.11956313189338226,0.045505371093750004,0.10599135454963289,0.16613322529163216
178,1789529298.2749534,0.10519301470588226,0.09340576171875001,0.1682618623621329,0.2193222765492489
179,1789529298.2949533,0.038132467830882255,0.07424560546875,0.09162123736213289,0.12393928420828823
180,1789529298.3055074,0.042922506893382256,0.15088623046875002,0.02456069048713289,0.15878357490712297
181,1789529298.3255074,0.06687270220588226,0.20357666015625,0.11078139361213289,0.2412217486698416
182,1789529298.349644,0.04771254595588226,0.15088623046875002,0.1826319795496329,0.24165591559255994
183,1789529298.369644,-0.0001878446691177485,0.14609619140625002,0.04851088579963289,0.15393972349623206
184,1789529298.3953655,-0.004977883731617749,0.18441650390625,0.0006104951746328869,0.18448468484892636
185,1789529298.4153655,0.023762350643382252,0.18441650390625,0.029350729549632887,0.1882433572432203
186,1789529298.4401982,0.038132467830882255,0.13172607421875002,-0.028129739200367116,0.13998973519311184
187,1789529298.4601982,0.07166274126838225,0.20836669921875,-0.008969582950367113,0.2205281915033079
188,1789529298.4851298,0.08603285845588225,0.24189697265625001,0.0628810029871329,0.2643289969924152
189,1789529298.5051298,0.10040297564338226,0.10777587890625001,0.029350729549632887,0.15019275254537406
190,1789529298.529696,0.12914321001838225,0.01676513671875,-0.05207993451286712,0.14025461875430303
191,1789529298.549696,0.13393324908088225,0.055085449218750006,-0.08082016888786711,0.16584457068006928
192,1789529298.574162,0.14351332720588225,0.13651611328125002,-0.09040024701286711,0.21772672994170722
193,1789529298.594162,0.16267348345588226,0.14130615234375002,-0.11435044232536712,0.24393875167728762
194,1789529298.589389,0.20578383501838227,0.14130615234375002,-0.04728989545036712,0.25406839562758393
195,1789529298.609389,0.18183363970588226,0.13651611328125002,0.010190573299632888,0.22760485385483956
196,1789529298.6349647,0.07645278033088225,0.21794677734375,-0.013759622012867114,0.2313766465587771
197,1789529298.6549647,0.07166274126838225,0.32332763671875003,-0.037709817325367115,0.3333141753285384
198,1789529298.6944506,0.10998305376838226,0.31853759765625,0.0628810029871329,0.3428067878171342
199,1789529298.7144506,0.06687270220588226,0.25626708984375,0.1491017061121329,0.30393436528772144
200,1789529298.7101853,-0.02892807904411775,0.24668701171875002,0.1682618623621329,0.3000056163365659
201,1789529298.7301853,-0.04329819623161775,0.26584716796875,0.0724610811121329,0.27892661900552906
202,1789529298.755258,0.038132467830882255,0.22752685546875,0.010190573299632888,0.23092510224431195
203,1789529298.775258,0.038132467830882255,0.11735595703125,0.03893080767463289,0.12939131941437618
204,1789529298.8004153,0.018972311580882254,0.12214599609375,0.05809096392463289,0.1365802074172882
205,1789529298.8204153,0.062082663143382254,0.19399658203125,0.019770651424632888,0.20464557058616373
206,1789529298.8298373,0.12435317095588226,0.24668701171875002,0.05809096392463289,0.2822990488244737
207,1789529298.8498373,0.08603285845588225,0.17962646484375,0.1203614717371329,0.23271055731333173
208,1789529298.874579,0.009392233455882252,0.10298583984375001,0.11078139361213289,0.1515480597970777
209,1789529298.894579,0.018972311580882254,0.15567626953125,0.09641127642463289,0.1840928671179724
210,1789529298.919928,0.07166274126838225,0.19399658203125,0.03414076861213289,0.2096087173934658
211,1789529298.939928,0.06687270220588226,0.12693603515625002,0.07725112017463288,0.162949227950736
212,1789529298.9503577,0.023762350643382252,0.16046630859375,0.11557143267463289,0.19917540398420397
213,1789529298.9703577,0.023762350643382252,0.26584716796875,0.019770651424632888,0.2676382720816628
214,1789529298.99508,0.038132467830882255,0.27063720703125,-0.018549661075367114,0.2739391772977351
215,1789529299.01508,0.018972311580882254,0.21794677734375,0.05330092486213289,0.22517045754806947
216,1789529299.0402293,-0.019348000919117748,0.17483642578125,0.05809096392463289,0.18524762079233764
217,1789529299.0602293,-0.009767922794117749,0.27542724609375,0.08683119829963289,0.2889554242519928
218,1789529299.0848505,0.023762350643382252,0.29458740234375,0.1491017061121329,0.3310252342243509
219,1789529299.1048505,0.004602194393382252,0.22752685546875,0.08683119829963289,0.24357608082667334
220,1789529299.1154082,0.014182272518382253,0.21794677734375,0.09641127642463289,0.23874058898758455
221,1789529299.1354082,0.062082663143382254,0.24668701171875002,0.12515151079963288,0.2834989232239375
222,1789529299.1604564,0.08603285845588225,0.23710693359375,0.10120131548713289,0.2717775872816724
223,1789529299.1804564,0.07166274126838225,0.15088623046875002,0.03414076861213289,0.17049280076470982
224,1789529299.2197924,0.05250258501838225,0.16525634765625,0.10120131548713289,0.20076824482627234
225,1789529299.2397923,0.042922506893382256,0.20357666015625,0.1586817842371329,0.26165952458694436
226,1789529299.2352073,0.05250258501838225,0.15088623046875002,0.03893080767463289,0.16443474013991222
227,1789529299.2552073,0.09082289751838225,0.20357666015625,0.02456069048713289,0.22426654407470725
228,1789529299.2796638,0.08603285845588225,0.22273681640625,0.0676710420496329,0.24817879048976882
229,1789529299.2996638,0.06687270220588226,0.17483642578125,0.03893080767463289,0.19119451317043176
230,1789529299.3247762,0.08603285845588225,0.17004638671875,0.019770651424632888,0.191594115327029
231,1789529299.3447762,0.07166274126838225,0.23231689453125,-0.008969582950367113,0.24328407549415673
232,1789529299.3546934,0.05729262408088225,0.22273681640625,-0.09040024701286711,0.2471160432202899
233,1789529299.3746934,0.062082663143382254,0.29458740234375,-0.04728989545036712,0.30474961672546824
234,1789529299.400235,0.10519301470588226,0.28979736328125,0.014980612362132887,0.3086624383601303
235,1789529299.420235,0.09082289751838225,0.19878662109375,0.014980612362132887,0.2190646895011818
236,1789529299.4446595,0.062082663143382254,0.13651611328125002,-0.04728989545036712,0.15724897602242252
237,1789529299.4646595,0.05250258501838225,0.11735595703125,-0.07124009076286712,0.14698330727070538
238,1789529299.4746914,0.13393324908088225,0.15088623046875002,0.014980612362132887,0.20230963521586134
239,1789529299.4946914,0.12435317095588226,0.08861572265625,0.04851088579963289,0.1602178625176897
240,1789529299.520164,0.07645278033088225,0.045505371093750004,0.019770651424632888,0.0911407980898586
241,1789529299.540164,0.08124281939338225,0.13172607421875002,0.05809096392463289,0.1653079381692312
242,1789529299.5798838,0.07645278033088225,0.16525634765625,0.10120131548713289,0.20831801246491313
243,1789529299.5998838,-0.0001878446691177485,0.04071533203125,0.11557143267463289,0.12253378961944274
244,1789529299.5949094,-0.02892807904411775,0.026345214843750003,0.04851088579963289,0.06232343173647528
245,1789529299.6149094,-0.004977883731617749,0.15567626953125,0.05330092486213289,0.16462341514125697
246,1789529299.6403465,-0.02892807904411775,0.21794677734375,0.0724610811121329,0.23149133847219416
247,1789529299.6603465,-0.08161850873161776,0.23710693359375,0.08683119829963289,0.26536943291184517
248,1789529299.684928,-0.03371811810661775,0.28979736328125,0.10120131548713289,0.3088059738893385
249,1789529299.704928,-0.03371811810661775,0.22273681640625,0.08204115923713289,0.23974851966261637
250,1789529299.714559,-0.02413803998161775,0.18920654296875,-0.032919778262867114,0.19355999761628423
251,1789529299.734559,-0.03850815716911775,0.21315673828125,-0.008969582950367113,0.21679281967253047
252,1789529299.7593668,0.023762350643382252,0.26584716796875,0.07725112017463288,0.27786165909196503
253,1789529299.7793667,0.05729262408088225,0.14130615234375002,0.0676710420496329,0.16682099207339454
254,1789529299.820545,0.028552389705882253,0.03592529296875,0.005400534237132887,0.046206400020489945
255,1789529299.840545,0.042922506893382256,0.03592529296875,-0.028129739200367116,0.06264383848698638
256,1789529299.849703,0.10998305376838226,0.07424560546875,-0.028129739200367116,0.13564646797878968
257,1789529299.869703,0.10040297564338226,0.055085449218750006,0.0006104951746328869,0.1145230847385598
258,1789529299.880256,0.09082289751838225,0.045505371093750004,0.029350729549632887,0.10574026119274604
259,1789529299.900256,0.09082289751838225,0.045505371093750004,0.05330092486213289,0.11471933622181223
260,1789529299.9250898,0.07645278033088225,0.05987548828125,0.09162123736213289,0.13350862463904173
261,1789529299.9450898,0.04771254595588226,0.055085449218750006,0.03414076861213289,0.08047661671970847
262,1789529299.9698293,0.038132467830882255,0.10298583984375001,0.04372084673713289,0.11820186441257033
263,1789529299.9898293,0.028552389705882253,0.15567626953125,0.1491017061121329,0.21744346074010093
264,1789529299.9997916,0.004602194393382252,0.09340576171875001,0.11078139361213289,0.1449770108884188
265,1789529300.0197916,0.023762350643382252,0.05987548828125,-0.004179543887867113,0.0645537914620649
266,1789529300.060005,0.042922506893382256,0.12214599609375,0.03414076861213289,0.1338939059149969
267,1789529300.080005,0.009392233455882252,0.13651611328125002,0.010190573299632888,0.13721775037830955
268,1789529300.0905523,-0.014557961856617748,0.13172607421875002,-0.05686997357536712,0.14421472454976755
269,1789529300.1105523,0.009392233455882252,0.19399658203125,-0.008969582950367113,0.19443081367777285
270,1789529300.1201508,0.014182272518382253,0.25147705078125,0.0676710420496329,0.26080876874734144
271,1789529300.1401508,-0.05766831341911775,0.20836669921875,0.10599135454963289,0.24078306201888167
272,1789529300.1648257,-0.11514878216911775,0.22273681640625,0.0628810029871329,0.2585052261647533
273,1789529300.1848257,-0.08640854779411775,0.28021728515625,0.05809096392463289,0.29893598666256366
274,1789529300.210367,-0.04329819623161775,0.29458740234375,0.0724610811121329,0.30644262055479365
275,1789529300.230367,-0.04329819623161775,0.19878662109375,0.019770651424632888,0.20440580515370926
276,1789529300.2404656,0.023762350643382252,0.18920654296875,-0.07124009076286712,0.20356550725058023
277,1789529300.2604656,0.10519301470588226,0.19399658203125,-0.028129739200367116,0.2224669108209132
278,1789529300.2857533,0.10998305376838226,0.07903564453125,0.05330092486213289,0.1455468784064011
279,1789529300.3057532,0.08124281939338225,0.01676513671875,0.019770651424632888,0.0852780403734657
280,1789529300.3297045,0.10040297564338226,0.02155517578125,0.0628810029871329,0.12041346958573203
281,1789529300.3497045,0.09561293658088225,-0.05987548828125,0.1730519014246329,0.20657654350196386
282,1789529300.360058,0.042922506893382256,-0.07424560546875,0.1778419404871329,0.19743988281414332
283,1789529300.380058,0.038132467830882255,0.10777587890625001,0.11557143267463289,0.1625622380116463
284,1789529300.405059,0.05250258501838225,0.22752685546875,0.09641127642463289,0.25262645470127804
285,1789529300.425059,0.05729262408088225,0.19399658203125,0.07725112017463288,0.2165291070090032
286,1789529300.4496243,0.033342428768382254,0.16046630859375,0.04372084673713289,0.16962507535529972
287,1789529300.4696243,0.042922506893382256,0.19399658203125,-0.032919778262867114,0.20139693949684612
288,1789529300.495542,0.07645278033088225,0.19878662109375,-0.05686997357536712,0.220443512584642
289,1789529300.515542,0.05250258501838225,0.12214599609375,-0.07603012982536712,0.15315595462341328
290,1789529300.525176,0.038132467830882255,0.07903564453125,-0.09040024701286711,0.12598778857226905
291,1789529300.545176,0.05250258501838225,0.08382568359375,-0.07124009076286712,0.12189510734838167
292,1789529300.5698893,0.07166274126838225,0.12214599609375,0.005400534237132887,0.1417192951502368
293,1789529300.5898893,0.014182272518382253,0.09819580078125001,0.029350729549632887,0.10346505434180323
294,1789529300.6148875,0.038132467830882255,0.07903564453125,-0.06166001263786711,0.10725052618913024
295,1789529300.6348875,0.10519301470588226,0.15088623046875002,-0.008969582950367113,0.18415395273054616
296,1789529300.6455424,0.10998305376838226,0.16525634765625,0.0724610811121329,0.21132094272182614
297,1789529300.6655424,0.08124281939338225,0.10777587890625001,0.0724610811121329,0.15318826343078473
298,1789529300.690242,0.10040297564338226,0.04071533203125,0.0628810029871329,0.12526977415613216
299,1789529300.710242,0.08124281939338225,0.02155517578125,0.11078139361213289,0.1390594781976138
300,1789529300.7352855,-0.0001878446691177485,0.050295410156250005,0.11557143267463289,0.12604134091191008
301,1789529300.7552855,-0.004977883731617749,0.11735595703125,0.05330092486213289,0.1289891025177121
302,1789529300.764887,0.05250258501838225,0.16046630859375,0.0676710420496329,0.1818937260034008
303,1789529300.784887,0.004602194393382252,0.09819580078125001,0.1538917451746329,0.18260959645429253
304,1789529300.8097544,-0.019348000919117748,0.05987548828125,0.12515151079963288,0.14007969121865924
305,1789529300.8297544,0.018972311580882254,0.14130615234375002,0.0006104951746328869,0.1425754186431708
306,1789529300.8696694,0.042922506893382256,0.23710693359375,-0.018549661075367114,0.24167360112816297
307,1789529300.8896694,0.042922506893382256,0.15088623046875002,-0.028129739200367116,0.1593746478288246
308,1789529300.885194,0.062082663143382254,0.16525634765625,-0.07603012982536712,0.19220951627044958
309,1789529300.905194,0.05729262408088225,0.17483642578125,-0.018549661075367114,0.18491703674904272
310,1789529300.9296238,0.062082663143382254,0.15567626953125,0.010190573299632888,0.1679083254109702
311,1789529300.9496238,0.04771254595588226,0.09819580078125001,-0.028129739200367116,0.11273945431899068
312,1789529300.974933,0.05729262408088225,0.08382568359375,-0.042499856387867116,0.11007010401113514
313,1789529300.994933,0.08603285845588225,0.07424560546875,0.03414076861213289,0.11865772097482047
314,1789529301.0054207,0.09082289751838225,0.06466552734375,0.11078139361213289,0.15717170963925461
315,1789529301.0254207,0.07645278033088225,0.09340576171875001,0.10120131548713289,0.15751625376102696
316,1789529301.050005,0.042922506893382256,0.11735595703125,0.029350729549632887,0.1283597583895698
317,1789529301.070005,0.018972311580882254,0.17962646484375,0.014980612362132887,0.18124578402194497
318,1789529301.094367,0.062082663143382254,0.24189697265625001,0.02456069048713289,0.2509414871248634
319,1789529301.114367,0.08603285845588225,0.20836669921875,-0.008969582950367113,0.2256075962721788
320,1789529301.1401012,0.10519301470588226,0.21315673828125,0.05330092486213289,0.24360286124914873
321,1789529301.1601012,0.09561293658088225,0.19878662109375,0.029350729549632887,0.2225295928468518
322,1789529301.1701474,0.11477309283088226,0.15088623046875002,0.010190573299632888,0.18985090246614644
323,1789529301.1901474,0.12435317095588226,0.14130615234375002,0.04372084673713289,0.19324247011562917
324,1789529301.2142434,0.08603285845588225,0.19878662109375,0.07725112017463288,0.2299684957297316
325,1789529301.2342434,0.018972311580882254,0.16046630859375,0.05809096392463289,0.17170889578038664
326,1789529301.259675,0.014182272518382253,0.13651611328125002,0.03414076861213289,0.14143329919305406
327,1789529301.279675,0.038132467830882255,0.16525634765625,0.13473158892463288,0.21660181577658322
328,1789529301.290289,0.07645278033088225,0.26105712890625,0.1682618623621329,0.3198560715363551
329,1789529301.310289,0.08603285845588225,0.24189697265625001,0.2065821748621329,0.3295329924076151
330,1789529301.3497093,0.062082663143382254,0.22752685546875,0.2928028779871329,0.3759737389499697
331,1789529301.3697093,0.05250258501838225,0.32332763671875003,0.3215431123621329,0.4590068139006998
332,1789529301.3796895,0.08124281939338225,0.31853759765625,0.2257423311121329,0.3987808883077781
333,1789529301.3996894,0.09561293658088225,0.30895751953125,0.1730519014246329,0.36680177630868066
334,1789529301.4245858,0.06687270220588226,0.31853759765625,0.1970020967371329,0.3804576001866151
335,1789529301.4445858,0.08124281939338225,0.36164794921875004,0.1682618623621329,0.4070647236038597
336,1789529301.454521,0.09082289751838225,0.37601806640625,0.1538917451746329,0.4163184528824344
337,1789529301.474521,0.08603285845588225,0.31853759765625,0.08683119829963289,0.3411854493568784
338,1789529301.5005672,0.10998305376838226,0.33290771484375004,0.08204115923713289,0.3600757844227782
339,1789529301.5205672,0.05250258501838225,0.30895751953125,0.2065821748621329,0.3753497905677903
340,1789529301.5297813,0.04771254595588226,0.31374755859375003,0.1922120576746329,0.371024921913134
341,1789529301.5497813,0.07166274126838225,0.44307861328125003,0.10120131548713289,0.46010424067776295
342,1789529301.5743818,0.07645278033088225,0.51013916015625,0.10120131548713289,0.5256697600219861
343,1789529301.5943818,0.038132467830882255,0.49576904296875,0.1586817842371329,0.5219395920197121
344,1789529301.6196191,0.033342428768382254,0.5245092773437501,0.1730519014246329,0.5533250944630276
345,1789529301.639619,0.08124281939338225,0.53408935546875,0.14431166704963289,0.5591759048587972
346,1789529301.6501806,0.05729262408088225,0.5245092773437501,0.09162123736213289,0.5355248621021292
347,1789529301.6701806,0.038132467830882255,0.52929931640625,-0.032919778262867114,0.5316912292410636
348,1789529301.6938398,0.033342428768382254,0.6442602539062501,-0.12393052045036712,0.656918386269268
349,1789529301.7138398,0.06687270220588226,0.72090087890625,0.02456069048713289,0.7244123570352214
350,1789529301.7396214,0.08124281939338225,0.74964111328125,0.1682618623621329,0.7725763708204588
351,1789529301.7596214,0.10040297564338226,0.73527099609375,0.11078139361213289,0.7503177409507171
352,1789529301.7695026,0.16267348345588226,0.6825805664062501,0.0628810029871329,0.7045089867360218
353,1789529301.7895026,0.15309340533088225,0.63468017578125,0.14431166704963289,0.668642186473579
354,1789529301.8148088,0.18183363970588226,0.60114990234375,0.08683119829963289,0.6340223455168902
355,1789529301.8348088,0.20099379595588227,0.5867797851562501,0.03414076861213289,0.6211880668221155
356,1789529301.8599997,0.14351332720588225,0.51013916015625,0.0628810029871329,0.5336591218627248
357,1789529301.8799996,0.08603285845588225,0.51492919921875,0.11078139361213289,0.533691156112596
358,1789529301.9047115,0.06687270220588226,0.5867797851562501,0.2736427217371329,0.6508938574975474
359,1789529301.9247115,0.009392233455882252,0.63468017578125,0.2592726045496329,0.6856598450025775
360,1789529301.9353564,-0.009767922794117749,0.6251000976562501,0.0676710420496329,0.6288282073330111
361,1789529301.9553564,0.004602194393382252,0.81670166015625,-0.018549661075367114,0.8169252547333938
362,1789529301.9792156,-0.014557961856617748,1.0705737304687502,0.05330092486213289,1.071998617169982
363,1789529301.9992156,-0.03371811810661775,0.9843530273437501,-0.013759622012867114,0.9850264570697552
364,1789529302.0252976,-0.062458352481617754,0.73527099609375,-0.24847153607536712,0.7786286584316466
365,1789529302.0452976,-0.11993882123161775,0.62989013671875,-0.1957811063878671,0.6704305682115433
366,1789529302.0553517,-0.22531968060661775,0.5867797851562501,0.03414076861213289,0.6294799971548821
367,1789529302.0753517,-0.2540599149816178,0.47181884765625004,0.03893080767463289,0.537284908768465
368,1789529302.0995936,-0.3354905790441178,0.16046630859375,0.0724610811121329,0.37888517138705907
369,1789529302.1195936,-0.42650132123161777,-0.050295410156250005,0.10599135454963289,0.44234282240629497
370,1789529302.1445086,-0.36902085248161776,-0.21315673828125,-0.028129739200367116,0.427087188836708
371,1789529302.1645086,-0.17741928998161777,-0.24189697265625001,-0.16225083295036713,0.3410529029797692
372,1789529302.1750665,-0.13909897748161776,-0.31853759765625,-0.07603012982536712,0.35580234301970076
373,1789529302.1950665,-0.15825913373161776,-0.35206787109375004,0.11557143267463289,0.402932370648518
374,1789529302.2194166,0.009392233455882252,-0.40954833984375,0.2017921357996329,0.45665974509325763
375,1789529302.2394166,-0.004977883731617749,-0.49097900390625004,0.2449024873621329,0.5486915252848167
376,1789529302.2794201,-0.12472886029411775,-0.57240966796875,0.1203614717371329,0.5980777545211767
377,1789529302.29942,-0.20615952435661775,-0.43828857421875,-0.06645005170036712,0.48889081924764455
378,1789529302.2946508,-0.20615952435661775,-0.27063720703125,-0.04728989545036712,0.34348592623909524
379,1789529302.3146508,-0.20136948529411774,-0.28500732421875,0.11557143267463289,0.36760794403333674
380,1789529302.369906,-0.26843003216911776,-0.48618896484375,0.10599135454963289,0.5653923937810066
381,1789529302.389906,-0.29238022748161774,-0.5245092773437501,-0.023339700137867115,0.6009500154292294
382,1789529302.385205,-0.24926987591911776,-0.35206787109375004,-0.013759622012867114,0.4315977109475382
383,1789529302.405205,-0.20615952435661775,-0.18920654296875,0.04851088579963289,0.28399678066167816
384,1789529302.4151406,-0.19657944623161777,-0.08382568359375,-0.10956040326286712,0.24015350481267406
385,1789529302.4351406,-0.24447983685661775,-0.10777587890625001,-0.23410141888786712,0.3552316216622131
386,1789529302.4743652,-0.32112046185661774,-0.15567626953125,-0.18141098920036713,0.40032911325661735
387,1789529302.4943652,-0.39776108685661776,-0.23231689453125,-0.15746079388786713,0.486804810282108
388,1789529302.5054953,-0.3929710477941178,-0.13651611328125002,-0.26763169232536715,0.4946611126081834
389,1789529302.5254953,-0.3259105009191178,-0.050295410156250005,-0.39696274701286716,0.516068508444506
390,1789529302.535292,-0.34986069623161775,0.026345214843750003,-0.3251121610753671,0.47832467466348744
391,1789529302.555292,-0.42650132123161777,-0.09340576171875001,-0.1957811063878671,0.47849582542905517
392,1789529302.5803518,-0.4744017118566178,-0.16046630859375,-0.2101512235753671,0.5431113671949962
393,1789529302.6003518,-0.5223021024816178,-0.14609619140625002,-0.4257029813878671,0.689468354431622
394,1789529302.6251786,-0.5749925321691178,-0.11256591796875001,-0.35864243451286715,0.6869584367133994
395,1789529302.6451786,-0.6468431181066178,-0.34727783203125,-0.21973130170036712,0.7663483261606009
396,1789529302.6692362,-0.6564231962316178,-0.48618896484375,-0.32990220013786714,0.8809691162251805
397,1789529302.6892362,-0.6707933134191177,-0.46702880859375,-0.40654282513786716,0.9128836979897137
398,1789529302.7004924,-0.6085228056066178,-0.42870849609375,-0.3921727079503671,0.8413622361548195
399,1789529302.7204924,-0.5845726102941178,-0.53408935546875,-0.4257029813878671,0.8989992239671968
400,1789529302.7452972,-0.6516331571691177,-0.64905029296875,-0.22931137982536712,0.9478796143194694
401,1789529302.7652972,-0.6947435087316178,-0.71132080078125,0.03893080767463289,0.9950685566004975
402,1789529302.7898738,-0.6372630399816178,-0.88855224609375,-0.15267075482536713,1.1040550871871424
403,1789529302.8098738,-0.5893626493566178,-1.0753637695312501,-0.35864243451286715,1.2776462597724094
404,1789529302.819933,-0.5366722196691178,-1.04183349609375,-0.25805161420036715,1.2000103085136058
405,1789529302.839933,-0.4552415556066178,-1.14242431640625,-0.037709817325367115,1.230365889884035
406,1789529302.864337,-0.42650132123161777,-1.33402587890625,-0.11435044232536712,1.4052061935046811
407,1789529302.884337,-0.4217112821691178,-1.4298266601562502,-0.29158188763786713,1.5189682948635763
408,1789529302.9095132,-0.3450706571691178,-1.45377685546875,-0.18620102826286714,1.5057263120706508
409,1789529302.9295132,-0.21094956341911775,-1.53520751953125,-0.10477036420036712,1.5531705236536932
410,1789529302.9400058,-0.14867905560661776,-1.5831079101562502,-0.18141098920036713,1.6003893475582813
411,1789529302.9600058,-0.19657944623161777,-1.52083740234375,-0.31074204388786714,1.5646566718894035
412,1789529302.9851956,-0.14867905560661776,-1.2669653320312502,-0.2724217313878671,1.3044233261780835
413,1789529303.0051956,-0.06724839154411776,-1.2669653320312502,-0.06166001263786711,1.270246218609931
414,1789529303.0302603,-0.14867905560661776,-1.57352783203125,-0.18141098920036713,1.5909133372863833
415,1789529303.0502603,-0.25884995404411776,-1.60226806640625,-0.40654282513786716,1.673183589450047
416,1789529303.0600686,-0.27801011029411776,-1.3962963867187501,-0.32990220013786714,1.4614269337347625
417,1789529303.0800686,-0.23968979779411775,-1.30049560546875,-0.11914048138786712,1.327755426769346
418,1789529303.1049042,-0.23010971966911775,-1.32923583984375,-0.29158188763786713,1.380158830790783
419,1789529303.1249042,-0.30675034466911777,-1.28612548828125,-0.26763169232536715,1.3490149251577042
420,1789529303.1503012,-0.43129136029411774,-1.17595458984375,-0.14788071576286713,1.261249436445254
421,1789529303.1703012,-0.46003159466911775,-1.13284423828125,-0.22931137982536712,1.2440051628583584
422,1789529303.179852,-0.46961167279411775,-0.9220825195312501,-0.14309067670036713,1.0446273200563714
423,1789529303.199852,-0.4935618681066178,-0.87418212890625,-0.028129739200367116,1.0042853152244329
424,1789529303.2249465,-0.5941526884191177,-0.9460327148437501,-0.08561020795036711,1.120412612574317
425,1789529303.2449465,-0.5941526884191177,-0.97477294921875,-0.2005711454503671,1.1590636324514532
426,1789529303.269753,-0.6228929227941178,-1.06099365234375,-0.09998032513786712,1.234382108180203
427,1789529303.289753,-0.6516331571691177,-1.13284423828125,-0.05686997357536712,1.308126918010512
428,1789529303.3147883,-0.6228929227941178,-1.16158447265625,-0.12393052045036712,1.3238704069062788
429,1789529303.3347883,-0.5749925321691178,-1.14242431640625,-0.17662095013786713,1.2911021225271626
430,1789529303.3452325,-0.49835190716911776,-1.09931396484375,-0.3251121610753671,1.2500174934610628
431,1789529303.3652325,-0.37860093060661776,-1.08494384765625,-0.4448631376378671,1.2322114382087
432,1789529303.390245,-0.23968979779411775,-0.95082275390625,-0.3921727079503671,1.0560845332517537
433,1789529303.410245,-0.21094956341911775,-0.9268725585937501,-0.15267075482536713,0.9627568839326928
434,1789529303.4354382,-0.24447983685661775,-1.00830322265625,-0.14309067670036713,1.0473398308128012
435,1789529303.4554381,-0.2540599149816178,-1.1567944335937501,-0.3730125517003671,1.241715815200874
436,1789529303.4649827,-0.22052964154411775,-1.02267333984375,-0.32032212201286714,1.0941208089957768
437,1789529303.4849827,-0.24447983685661775,-1.01309326171875,-0.2724217313878671,1.0771916947794098
438,1789529303.510217,-0.26843003216911776,-1.04662353515625,-0.2628416532628671,1.1120077523125622
439,1789529303.530217,-0.2540599149816178,-1.02746337890625,-0.18620102826286714,1.074661927454427
440,1789529303.5548086,-0.21573960248161775,-1.00830322265625,-0.11914048138786712,1.0379852692611964
441,1789529303.5748086,-0.20136948529411774,-1.06578369140625,-0.13830063763786712,1.0934219738262951
442,1789529303.6004632,-0.19657944623161777,-1.0705737304687502,-0.05686997357536712,1.0899567812280304
443,1789529303.6204631,-0.23968979779411775,-1.08015380859375,-0.12393052045036712,1.1133473057789594
444,1789529303.6300206,-0.3546507352941178,-1.14242431640625,-0.22452134076286712,1.2170950230852566
445,1789529303.6500206,-0.4217112821691178,-1.0705737304687502,-0.06166001263786711,1.1522892323705014
446,1789529303.675054,-0.45045151654411775,-0.9604028320312501,0.005400534237132887,1.0608059833450165
447,1789529303.695054,-0.4839817899816178,-1.06578369140625,-0.16704087201286713,1.1823856827719803
448,1789529303.705176,-0.45045151654411775,-1.09931396484375,-0.24368149701286712,1.212756543599668
449,1789529303.725176,-0.4121312040441178,-1.04662353515625,-0.30116196576286713,1.1644618857274698
450,1789529303.7501557,-0.39776108685661776,-0.96998291015625,-0.25805161420036715,1.079662615729544
451,1789529303.7701557,-0.4121312040441178,-0.9604028320312501,-0.2005711454503671,1.064168461056694
452,1789529303.7947292,-0.4121312040441178,-1.04183349609375,-0.28200180951286713,1.1553329318851393
453,1789529303.8147292,-0.36902085248161776,-1.08015380859375,-0.37780259076286715,1.202349132894842
454,1789529303.825078,-0.36902085248161776,-1.06578369140625,-0.3251121610753671,1.1737841299459146
455,1789529303.845078,-0.4025511259191178,-0.96998291015625,-0.24847153607536712,1.0791906037459693
456,1789529303.87057,-0.38818100873161776,-0.9268725585937501,-0.1957811063878671,1.0237712034592876
457,1789529303.89057,-0.4121312040441178,-0.9412426757812501,-0.17662095013786713,1.0425856627089711
458,1789529303.9152431,-0.44087143841911774,-1.10410400390625,-0.21494126263786711,1.208144454541722
459,1789529303.9352431,-0.4217112821691178,-1.0753637695312501,-0.30116196576286713,1.1937110923298548
460,1789529303.9603453,-0.38818100873161776,-0.95561279296875,-0.24368149701286712,1.0598400717145315
461,1789529303.9803452,-0.40734116498161776,-0.83107177734375,-0.18620102826286714,0.9440751806461338
462,1789529303.9898026,-0.3929710477941178,-0.9029223632812501,-0.1957811063878671,1.0040046215711669
463,1789529304.0098026,-0.3259105009191178,-0.9220825195312501,-0.15746079388786713,0.9905794915332368
464,1789529304.0501013,-0.32112046185661774,-0.8646020507812501,-0.13830063763786712,0.9326211039908927
465,1789529304.0701013,-0.4121312040441178,-0.99393310546875,-0.23410141888786712,1.101162395752289
466,1789529304.0958574,-0.48877182904411776,-1.06099365234375,-0.2628416532628671,1.1973684336372075
467,1789529304.1158574,-0.4456614774816178,-0.99872314453125,-0.26763169232536715,1.1259168684545173
468,1789529304.109872,-0.43129136029411774,-0.91729248046875,-0.18620102826286714,1.030586510252784
469,1789529304.129872,-0.43129136029411774,-0.9651928710937501,-0.13830063763786712,1.0661784945521962
470,1789529304.154876,-0.4648216337316178,-1.02267333984375,-0.2532615751378671,1.1515473662222557
471,1789529304.174876,-0.4648216337316178,-0.95082275390625,-0.21973130170036712,1.0809277984572945
472,1789529304.200138,-0.44087143841911774,-0.91729248046875,-0.2053611845128671,1.0382515764701645
473,1789529304.220138,-0.4744017118566178,-0.85981201171875,-0.21494126263786711,1.005252916480571
474,1789529304.229727,-0.5318821806066177,-0.8023315429687501,-0.21973130170036712,0.9873785514362785
475,1789529304.249727,-0.5510423368566177,-0.7448510742187501,-0.13351059857536712,0.9360960739716736
476,1789529304.2755816,-0.5462522977941178,-0.7640112304687501,-0.12393052045036712,0.94734550562444
477,1789529304.2955816,-0.5318821806066177,-0.85023193359375,-0.18141098920036713,1.0191677692863297
478,1789529304.3200722,-0.5366722196691178,-0.8837622070312501,-0.25805161420036715,1.065665681878111
479,1789529304.3400722,-0.48877182904411776,-0.85023193359375,-0.13830063763786712,0.9904137055497263
480,1789529304.3507338,-0.46961167279411775,-0.91729248046875,-0.19099106732536714,1.0480640275036084
481,1789529304.3707337,-0.4744017118566178,-1.01309326171875,-0.2963719267003671,1.1572602387054145
482,1789529304.3955688,-0.43608139935661777,-0.83586181640625,-0.2005711454503671,0.9638779732819159
483,1789529304.4155688,-0.42650132123161777,-0.75443115234375,-0.2101512235753671,0.8917585308867295
484,1789529304.4396389,-0.46003159466911775,-0.86939208984375,-0.2724217313878671,1.0206298416708468
485,1789529304.4596388,-0.5079319852941178,-0.89813232421875,-0.17662095013786713,1.0468197235049599
486,1789529304.4701293,-0.4744017118566178,-0.87897216796875,-0.13830063763786712,1.0083531735692681
487,1789529304.4901292,-0.43608139935661777,-0.87418212890625,-0.2053611845128671,0.9982657950007189
488,1789529304.5148754,-0.41692124310661777,-0.87418212890625,-0.09998032513786712,0.9736599934614263
489,1789529304.5348754,-0.4217112821691178,-0.89813232421875,-0.09998032513786712,0.9972352494421608
490,1789529304.5598962,-0.4217112821691178,-0.87418212890625,-0.18141098920036713,0.9873929040713431
491,1789529304.5798962,-0.3450706571691178,-0.8406518554687501,-0.23889145795036712,0.9395948218374935
492,1789529304.5899382,-0.24926987591911776,-0.87897216796875,-0.13351059857536712,0.9233377621631044
493,1789529304.6099381,-0.28759018841911776,-0.98914306640625,-0.08561020795036711,1.0336543087511452
494,1789529304.6347144,-0.3450706571691178,-1.00351318359375,-0.2101512235753671,1.081792958405542
495,1789529304.6547143,-0.3642308134191178,-1.00830322265625,-0.31074204388786714,1.116198948262603
496,1789529304.6793702,-0.39776108685661776,-1.02267333984375,-0.26763169232536715,1.1294695059989304
497,1789529304.6993701,-0.5079319852941178,-0.99393310546875,-0.23889145795036712,1.1414758203804536
498,1789529304.7255707,-0.5079319852941178,-0.83107177734375,-0.23410141888786712,1.0017378275314535
499,1789529304.7455707,-0.5270921415441178,-0.6634204101562501,-0.14788071576286713,0.8601287533759056
500,1789529304.7552862,-0.49835190716911776,-0.69695068359375,-0.07603012982536712,0.8601601358945639
501,1789529304.7752862,-0.5031419462316178,-0.65384033203125,-0.23410141888786712,0.8575910868087354
502,1789529304.8154387,-0.4935618681066178,-0.70174072265625,-0.11914048138786712,0.8661626947567893
503,1789529304.8354387,-0.4935618681066178,-0.65863037109375,0.04851088579963289,0.8244698838751178
504,1789529304.8451657,-0.45045151654411775,-0.7640112304687501,0.0724610811121329,0.8898709666660714
505,1789529304.8651657,-0.41692124310661777,-0.8214916992187501,-0.032919778262867114,0.9218219169881747
506,1789529304.875205,-0.29717026654411777,-0.8071215820312501,-0.26763169232536715,0.9007675272985088
507,1789529304.895205,-0.11993882123161775,-0.76880126953125,-0.4257029813878671,0.8869406638743149
508,1789529304.920064,-0.10556870404411775,-0.83107177734375,-0.2532615751378671,0.8751951072830376
509,1789529304.940064,-0.17741928998161777,-1.02746337890625,-0.07603012982536712,1.0454373152381216
510,1789529304.9650416,-0.28280014935661774,-1.1472143554687502,-0.08561020795036711,1.1846542996060117
511,1789529304.9850416,-0.3259105009191178,-1.11847412109375,-0.47839341107536715,1.259389641821034
512,1789529304.9950933,-0.35944077435661775,-0.99393310546875,-0.5215037626378671,1.1785868075208934
513,1789529305.0150933,-0.3738108915441178,-0.75443115234375,-0.49755356732536715,0.9779879849067296
514,1789529305.0399508,-0.42650132123161777,-0.46223876953125004,-0.5215037626378671,0.8170276809971205
515,1789529305.0599508,-0.4217112821691178,-0.53408935546875,-0.3634324735753671,0.771475863512823
516,1789529305.085193,-0.34986069623161775,-0.88855224609375,-0.22931137982536712,0.9820953669187805
517,1789529305.105193,-0.29717026654411777,-1.1088940429687502,-0.3251121610753671,1.193169762912461
518,1789529305.1152384,-0.2540599149816178,-1.08494384765625,-0.3921727079503671,1.181291253598679
519,1789529305.1352384,-0.12472886029411775,-0.8454418945312501,-0.43049302045036714,0.9568978661671992
520,1789529305.1599233,0.11956313189338226,-0.58198974609375,-0.5837742704503671,0.8329464604080385
521,1789529305.1799233,0.42612563189338226,-0.6825805664062501,-0.7466355985753671,1.0977085227199468
522,1789529305.2055147,0.5794068818933823,-0.83107177734375,-0.7370555204503672,1.2528541312176262
523,1789529305.2255147,0.7231080537683823,-0.93166259765625,-0.5358738798253672,1.2953923221848203
524,1789529305.2500088,0.8284889131433822,-0.79754150390625,-0.7466355985753671,1.3711057751736524
525,1789529305.2700088,0.8428590303308823,-0.69216064453125,-1.287910012637867,1.6876640375089769
526,1789529305.2804132,0.8284889131433822,-0.71132080078125,-1.4938816923253673,1.8504198635689375
527,1789529305.3004131,0.7278980928308822,-1.06099365234375,-1.1729490751378673,1.7410780271795243
528,1789529305.3255095,0.6416773897058823,-1.43940673828125,-0.6220945829503671,1.6942972882010443
529,1789529305.3455095,0.4836061006433823,-1.43940673828125,-0.8568064970128672,1.7435263095555584
530,1789529305.3556201,0.44528578814338227,-1.32444580078125,-1.4795115751378671,2.0350406908208227
531,1789529305.3756201,0.39738539751838226,-1.49209716796875,-1.5130418485753672,2.161842905569591
532,1789529305.400734,0.4692359834558823,-1.6693286132812502,-1.0723582548253672,2.038821388445152
533,1789529305.420734,0.38780531939338225,-1.65495849609375,-1.1154686063878672,2.03311357316299
534,1789529305.4457324,0.33990492876838224,-1.69806884765625,-1.1442088407628672,2.0756172680100655
535,1789529305.4657323,0.10040297564338226,-1.9088305664062502,-0.6029344267003671,2.0043065662880397
536,1789529305.490822,-0.04808823529411775,-1.7411791992187502,-0.3538523954503671,1.777422009521575
537,1789529305.510822,-0.36902085248161776,-1.79865966796875,-0.9286570829503672,2.0576095276941153
538,1789529305.519876,-0.8097044462316177,-2.19623291015625,-1.005297707950367,2.5474857737602585
539,1789529305.539876,-1.3940892118566177,-2.54590576171875,-0.32032212201286714,2.920227241160962
540,1789529305.565407,-0.8959251493566178,-1.1903247070312502,-0.5598240751378671,1.591526869557243
541,1789529305.585407,-2.9412718290441178,-4.0020776367187505,1.212490377987133,5.1125178043078
542,1789529305.610583,-2.0024241727941177,-1.9136206054687501,-0.5454539579503671,2.822971202422815
543,1789529305.630583,-3.3915355009191175,-2.25850341796875,0.6951661592371329,4.133594892090869
544,1789529305.6398559,-2.5868089384191175,-0.9268725585937501,0.029350729549632887,2.748005583888843
545,1789529305.6598558,-2.4622679227941178,-0.8071215820312501,0.09641127642463289,2.59297198327003
546,1789529305.685355,-2.5005882352941176,-1.02746337890625,0.881977682674633,2.843678454083885
547,1789529305.705355,-3.377165383731618,-0.5484594726562501,-0.7610057157628671,3.5050226135711666
548,1789529305.7303858,-1.911413430606618,-3.48954345703125,-1.1968992704503671,4.1548745714904065
549,1789529305.7503858,-3.0993431181066176,-3.01053955078125,-1.6998533720128672,4.643143077368663
550,1789529305.7600713,-3.008332375919118,-1.25259521484375,-0.5741941923253672,3.3088906640674614
551,1789529305.7800713,0.40696547564338226,-0.64905029296875,0.2640626436121329,0.8103186169155272
552,1789529305.8055716,-0.6085228056066178,-1.2765454101562501,0.9490382295496329,1.703097692524137
553,1789529305.8255715,-1.3509788602941177,-3.06802001953125,0.9921485811121329,3.496033399183844
554,1789529305.8501773,-2.194025735294118,-2.25850341796875,1.605273581112133,3.5343301892050203
555,1789529305.8701773,-0.19178940716911777,0.02155517578125,0.580205221737133,0.6114621015535451
556,1789529305.8799772,0.33990492876838224,0.07424560546875,-0.09998032513786712,0.3619997734075726
557,1789529305.8999772,1.3506031709558823,-2.24892333984375,0.48440444048713294,2.6676642921952722
558,1789529305.9246018,1.2069019990808822,-1.41545654296875,-0.32990220013786714,1.8891704851797468
559,1789529305.9446018,0.4596559053308823,-1.61663818359375,-0.45923325482536714,1.7423253858841503
560,1789529305.9852707,0.2920045381433823,-1.4346166992187501,-0.8136961454503672,1.6749606386701796
561,1789529306.0052707,-0.17262925091911777,-1.08494384765625,-1.0196678251378672,1.4988750730002256
562,1789529305.9992926,-0.5462522977941178,-1.1136840820312501,-1.0627781767003672,1.6334568437169372
563,1789529306.0192926,-1.1976976102941177,-1.7076489257812502,-1.2639598173253672,2.4388806529306173
564,1789529306.0447836,-0.8671849149816178,-1.6741186523437501,-1.8818748563878671,2.6638573373966152
565,1789529306.0647836,-0.5702024931066177,-1.8226098632812502,-2.035156106387867,2.790859719556489
566,1789529306.0895767,-0.7043235868566178,-2.34472412109375,-1.4603514188878672,2.8506892474784475
567,1789529306.1095767,-0.6276829618566178,-2.72792724609375,-0.9142869657628672,2.944739991297975
568,1789529306.134423,-0.11035874310661775,-2.75187744140625,-0.9382371610753671,2.909518426668483
569,1789529306.154423,0.12435317095588226,-3.00095947265625,-0.8759666532628672,3.1286640991452903
570,1789529306.1645985,0.5650367647058823,-3.47996337890625,-1.0148777860753673,3.668703937995969
571,1789529306.1845984,0.9194996553308823,-3.1925610351562503,-1.2352195829503672,3.544530010799124
572,1789529306.2094517,1.0488307100183822,-3.13987060546875,-1.2352195829503672,3.5333554442581114
573,1789529306.2294517,1.2404322725183823,-3.04406982421875,-1.1442088407628672,3.4805527131052325
574,1789529306.255537,1.3458131318933824,-2.99137939453125,-0.9909275907628672,3.426587392455929
575,1789529306.275537,1.4655641084558824,-2.53632568359375,-1.7525438017003672,3.413537154643225
576,1789529306.284699,1.5230445772058823,-2.96742919921875,-1.8722947782628672,3.8250213820634618
577,1789529306.304699,1.6044752412683823,-2.71834716796875,-2.044736184512867,3.7609437897558635
578,1789529306.3452225,1.4416139131433823,-2.55548583984375,-1.9106150907628672,3.501315263906021
579,1789529306.3652225,1.3074928193933824,-5.26185791015625,1.260390768612133,5.566441505040886
580,1789529306.37478,1.5565748506433823,-2.74708740234375,-2.2459178251378673,3.87473371201728
581,1789529306.39478,1.0679908662683824,-4.04997802734375,-1.9345652860753673,4.613617816690902
582,1789529306.4048467,0.9147096162683823,-4.16493896484375,-1.7573338407628671,4.612118004871292
583,1789529306.4248466,0.8428590303308823,-4.04039794921875,-1.8339744657628672,4.516490814131209
584,1789529306.464458,0.6704176240808822,-3.76257568359375,-2.102216653262867,4.361851719477057
585,1789529306.484458,0.7949586397058823,-3.43685302734375,-1.8675047392003672,3.991427303777529
586,1789529306.49505,1.1254713350183823,-3.17819091796875,-1.8770848173253671,3.858889820717937
587,1789529306.51505,1.2691725068933823,-3.17340087890625,-1.8675047392003672,3.8947202648499446
588,1789529306.52516,1.1781617647058824,-3.45601318359375,-1.8627147001378672,4.09899967346893
589,1789529306.54516,1.1015211397058824,-3.5518139648437503,-1.8531346220128673,4.154857300724154
590,1789529306.5695841,1.0392506318933823,-3.61887451171875,-1.8675047392003672,4.202840534495003
591,1789529306.589584,1.0536207490808822,-3.5278637695312502,-2.4087791532628673,4.399790502792011
592,1789529306.615167,1.0200904756433824,-3.7577856445312503,-2.198017434512867,4.4713329300294795
593,1789529306.635167,0.9626100068933823,-3.8871166992187502,-1.9249852079503673,4.443181552620179
594,1789529306.6447182,0.9482398897058824,-3.9206469726562503,-2.274658059512867,4.630842348896676
595,1789529306.6647182,1.0392506318933823,-3.93980712890625,-2.471049661075367,4.765313055442632
596,1789529306.6899767,1.1542115693933823,-4.00686767578125,-2.7057615751378674,4.97074829574328
597,1789529306.7099767,0.9961402803308823,-4.18409912109375,-2.643491067325367,5.04846768200651
598,1789529306.7347565,0.8141187959558823,-4.1553588867187505,-2.3465086454503674,4.8410639031657565
599,1789529306.7547565,0.39738539751838226,-4.47150146484375,-2.6291209501378674,5.202356915352357
600,1789529306.7647028,0.33511488970588227,-4.48587158203125,-2.7153416532628674,5.2543720969990755
601,1789529306.7847028,0.4883961397058823,-4.57688232421875,-2.763242043887867,5.368602163704741
