imu_index,t_imu,ax,ay,az,mag
0,1787760899.9935465,-0.014418017578125008,-0.012981005859375176,-0.011256591796874564,0.02242981504350221
1,1787760900.0135465,-0.03357817382812501,-0.022561083984375174,-0.011256591796874564,0.04199055997558586
2,1787760900.0486698,-0.03357817382812501,-0.0034009277343751746,0.022273681640625438,0.04043732138648845
3,1787760900.0686698,-0.0048379394531250074,-0.017771044921875177,0.012693603515625436,0.022368354118694284
4,1787760900.0822773,0.019112255859374993,-0.017771044921875177,-0.006466552734374565,0.026886886504687863
5,1787760900.1022773,-4.790039062500749e-05,-0.012981005859375176,-0.016046630859374564,0.0206398442219312
6,1787760900.1122773,-0.02399809570312501,-0.008190966796875174,0.012693603515625436,0.028357152618973525
7,1787760900.1322773,-0.014418017578125008,-0.012981005859375176,0.017483642578125437,0.02611634549097356
8,1787760900.130091,-4.790039062500749e-05,-0.008190966796875174,-0.016046630859374564,0.01801634239938744
9,1787760900.150091,-0.01920805664062501,-0.008190966796875174,-0.011256591796874564,0.023722399454069436
10,1787760900.193072,-0.03836821289062501,-0.017771044921875177,0.003113525390625436,0.04239839429027587
11,1787760900.213072,0.004742138671874993,-0.027351123046875175,0.007903564453125437,0.028862400145748562
12,1787760900.2248118,0.019112255859374993,-0.022561083984375174,-0.006466552734374565,0.030267096637284042
13,1787760900.2448118,-0.009627978515625009,0.015759228515624828,0.012693603515625436,0.02240934679808668
14,1787760900.2564738,-0.02399809570312501,0.0013891113281248259,-0.0016765136718745644,0.02409665797886201
15,1787760900.2764738,-0.01920805664062501,-0.027351123046875175,-0.006466552734374565,0.034041881206848895
16,1787760900.3197143,-0.014418017578125008,-0.027351123046875175,-0.0016765136718745644,0.030964073712940462
17,1787760900.3397143,-0.0048379394531250074,-0.022561083984375174,0.003113525390625436,0.023283088477695627
18,1787760900.3514924,-0.0048379394531250074,0.0013891113281248259,-0.0016765136718745644,0.005305279118577131
19,1787760900.3714924,-0.0048379394531250074,0.0013891113281248259,0.012693603515625436,0.013655140374449712
20,1787760900.3987143,-0.0048379394531250074,-0.012981005859375176,0.007903564453125437,0.01594924770445127
21,1787760900.4187143,-0.009627978515625009,-0.04651127929687518,-0.025626708984374566,0.05396967005179011
22,1787760900.4303901,-0.014418017578125008,-0.032141162109375176,-0.020836669921874565,0.04092798976320983
23,1787760900.45039,-0.014418017578125008,-0.008190966796875174,0.017483642578125437,0.024096657978862422
24,1787760900.4618971,-0.0048379394531250074,0.010969189453124827,0.017483642578125437,0.021199210674227687
25,1787760900.481897,-0.0048379394531250074,-0.017771044921875177,-0.0016765136718745644,0.018493955603369208
26,1787760900.5306015,-0.01920805664062501,-0.022561083984375174,0.007903564453125437,0.030666240094347996
27,1787760900.5506015,-0.01920805664062501,-0.008190966796875174,-0.0016765136718745644,0.020948796506457177
28,1787760900.5624297,-0.009627978515625009,-0.012981005859375176,-0.011256591796874564,0.01969556656458334
29,1787760900.5824296,-0.02399809570312501,0.0013891113281248259,-0.006466552734374565,0.02489286106345992
30,1787760900.5921867,-0.028788134765625008,0.0013891113281248259,0.007903564453125437,0.029885659849339448
31,1787760900.6121867,-0.014418017578125008,-0.032141162109375176,-0.006466552734374565,0.03581549716101542
32,1787760900.6523187,-4.790039062500749e-05,-0.0034009277343751746,0.003113525390625436,0.0046111434872419185
33,1787760900.6723187,-4.790039062500749e-05,-0.012981005859375176,0.007903564453125437,0.01519786625264424
34,1787760900.680159,-0.014418017578125008,-0.008190966796875174,0.003113525390625436,0.016872024428286683
35,1787760900.700159,-0.02399809570312501,-0.012981005859375176,-0.011256591796874564,0.029514843204376733
36,1787760900.7145061,-0.02399809570312501,0.006179150390624826,0.003113525390625436,0.024975678915384367
37,1787760900.7345061,-0.009627978515625009,0.010969189453124827,0.007903564453125437,0.016597813669896096
38,1787760900.7705085,-0.009627978515625009,-0.008190966796875174,-0.006466552734374565,0.01419881021886325
39,1787760900.7905085,-0.014418017578125008,-0.017771044921875177,0.012693603515625436,0.02616900530609304
40,1787760900.7983449,0.004742138671874993,-0.0034009277343751746,-0.0016765136718745644,0.006071646130146002
41,1787760900.8183448,-0.0048379394531250074,-0.008190966796875174,0.003113525390625436,0.010009577192753165
42,1787760900.8329086,-0.009627978515625009,-0.017771044921875177,0.022273681640625438,0.030076982922836143
43,1787760900.8529086,-0.02399809570312501,0.0013891113281248259,0.022273681640625438,0.032771254499732026
44,1787760900.8881783,-4.790039062500749e-05,0.0013891113281248259,0.003113525390625436,0.003409686948594551
45,1787760900.9081783,0.028692333984374995,-0.022561083984375174,-0.020836669921874565,0.04202879195806254
46,1787760900.9227502,-4.790039062500749e-05,0.015759228515624828,-0.0016765136718745644,0.01584822627132409
47,1787760900.9427502,-0.03357817382812501,0.015759228515624828,0.007903564453125437,0.03792510213703017
48,1787760900.9508293,-0.03836821289062501,0.006179150390624826,0.012693603515625436,0.04088311668870392
49,1787760900.9708292,-4.790039062500749e-05,-0.012981005859375176,0.007903564453125437,0.01519786625264424
50,1787760901.0133748,0.028692333984374995,0.0013891113281248259,0.007903564453125437,0.029793388374227476
51,1787760901.0333748,0.014322216796874994,0.0013891113281248259,0.012693603515625436,0.01918809772933501
52,1787760901.0419672,-0.0048379394531250074,-0.0034009277343751746,0.022273681640625438,0.023045365291842968
53,1787760901.0619671,-0.0048379394531250074,0.0013891113281248259,-0.0016765136718745644,0.005305279118577131
54,1787760901.0689206,0.004742138671874993,0.030129345703124828,0.007903564453125437,0.031507644830206
55,1787760901.0889206,0.004742138671874993,0.015759228515624828,0.007903564453125437,0.01825671092107456
56,1787760901.1327903,-0.014418017578125008,0.006179150390624826,0.036643798828125435,0.03986011945528021
57,1787760901.1527903,0.009532177734374992,0.0013891113281248259,0.003113525390625436,0.010123541030672437
58,1787760901.1627986,0.019112255859374993,-0.012981005859375176,0.007903564453125437,0.024418254815200335
59,1787760901.1827986,-0.0048379394531250074,0.030129345703124828,0.012693603515625436,0.033050124067277094
60,1787760901.186773,-0.014418017578125008,0.039709423828124826,0.012693603515625436,0.0441117347409583
61,1787760901.206773,0.004742138671874993,0.0013891113281248259,-0.011256591796874564,0.012293427851770261
62,1787760901.2495909,0.014322216796874994,-0.0034009277343751746,0.003113525390625436,0.015046137171686284
63,1787760901.2695909,0.009532177734374992,0.010969189453124827,0.036643798828125435,0.039420217175637
64,1787760901.2773347,-4.790039062500749e-05,0.025339306640624826,0.06059399414062544,0.06567887698026806
65,1787760901.2973347,0.004742138671874993,0.034919384765624825,0.017483642578125437,0.03933864600355081
66,1787760901.3127587,0.004742138671874993,0.04449946289062483,-0.020836669921874565,0.04936453068925644
67,1787760901.3327587,0.009532177734374992,0.006179150390624826,-0.0016765136718745644,0.011482813679654287
68,1787760901.3683956,0.019112255859374993,-0.012981005859375176,0.022273681640625438,0.032092082060584365
69,1787760901.3883955,-4.790039062500749e-05,0.020549267578124825,0.036643798828125435,0.04201241108292788
70,1787760901.4004529,-0.0048379394531250074,0.034919384765624825,0.007903564453125437,0.03612804203975857
71,1787760901.4204528,0.004742138671874993,0.030129345703124828,0.003113525390625436,0.030658757183548196
72,1787760901.4325404,0.009532177734374992,0.020549267578124825,0.017483642578125437,0.028614901155809138
73,1787760901.4525404,0.009532177734374992,0.020549267578124825,0.036643798828125435,0.04308019037693791
74,1787760901.4800196,0.004742138671874993,0.034919384765624825,0.027063720703125436,0.044433054023888835
75,1787760901.5000196,-4.790039062500749e-05,0.04928950195312483,0.003113525390625436,0.049387765059704686
76,1787760901.5114355,0.009532177734374992,0.034919384765624825,-0.0016765136718745644,0.03623584610384375
77,1787760901.5314355,0.004742138671874993,0.010969189453124827,0.017483642578125437,0.02117755307493002
78,1787760901.5521827,0.009532177734374992,0.006179150390624826,0.041433837890625436,0.04296285877657935
79,1787760901.5721827,0.028692333984374995,0.020549267578124825,0.027063720703125436,0.04447434547877094
80,1787760901.599088,0.023902294921874994,0.030129345703124828,0.012693603515625436,0.04049968821167141
81,1787760901.619088,0.004742138671874993,0.030129345703124828,0.003113525390625436,0.030658757183548196
82,1787760901.6308622,-0.0048379394531250074,0.006179150390624826,0.03185375976562544,0.032806242834378954
83,1787760901.6508622,-0.0048379394531250074,0.015759228515624828,0.022273681640625438,0.027710572628289746
84,1787760901.672449,-0.0048379394531250074,0.039709423828124826,0.003113525390625436,0.04012403318800119
85,1787760901.692449,-4.790039062500749e-05,0.030129345703124828,-0.006466552734374565,0.030815516727977735
86,1787760901.7308304,-0.009627978515625009,0.020549267578124825,0.027063720703125436,0.035318767625605076
87,1787760901.7508304,0.004742138671874993,-0.0034009277343751746,0.03185375976562544,0.03238388796676385
88,1787760901.7623336,-0.0048379394531250074,-0.012981005859375176,0.022273681640625438,0.026230308139653467
89,1787760901.7823336,-0.014418017578125008,0.025339306640624826,0.007903564453125437,0.03020639043274524
90,1787760901.8095157,-4.790039062500749e-05,0.015759228515624828,-0.020836669921874565,0.026125129498018894
91,1787760901.8295157,0.004742138671874993,0.0013891113281248259,-0.0016765136718745644,0.005218065499512188
92,1787760901.8412454,-0.009627978515625009,0.030129345703124828,0.027063720703125436,0.04162836077835066
93,1787760901.8612454,-0.0048379394531250074,0.010969189453124827,0.007903564453125437,0.014359495341945566
94,1787760901.8763921,-0.014418017578125008,-0.008190966796875174,-0.0016765136718745644,0.01666678931416053
95,1787760901.896392,-0.009627978515625009,-0.027351123046875175,0.017483642578125437,0.033859410213739456
96,1787760901.9368443,0.014322216796874994,-0.017771044921875177,0.003113525390625436,0.023035406919567604
97,1787760901.9568443,0.023902294921874994,-0.012981005859375176,-0.006466552734374565,0.027957870446796748
98,1787760901.9682953,-4.790039062500749e-05,0.010969189453124827,-0.0016765136718745644,0.01109667111335419
99,1787760901.9882953,-0.03836821289062501,0.015759228515624828,0.017483642578125437,0.04501278486860868
100,1787760902.0000284,-0.02399809570312501,0.006179150390624826,-0.006466552734374565,0.025610677484064204
101,1787760902.0200284,-0.009627978515625009,-0.0034009277343751746,0.003113525390625436,0.010675126233906944
102,1787760902.054867,-4.790039062500749e-05,-0.008190966796875174,0.017483642578125437,0.0193073040405587
103,1787760902.074867,-4.790039062500749e-05,-0.008190966796875174,0.003113525390625436,0.008762891752897718
104,1787760902.0864232,-0.014418017578125008,-0.017771044921875177,-0.020836669921874565,0.030949250102895537
105,1787760902.1064231,-0.01920805664062501,-0.017771044921875177,0.003113525390625436,0.026352485990563265
106,1787760902.1246102,-0.014418017578125008,-0.017771044921875177,0.022273681640625438,0.0319344040546612
107,1787760902.1446102,0.004742138671874993,-0.017771044921875177,-0.025626708984374566,0.03154403477947014
108,1787760902.183938,-0.0048379394531250074,-0.032141162109375176,-0.011256591796874564,0.03439725016298108
109,1787760902.203938,-0.0048379394531250074,-0.0034009277343751746,0.022273681640625438,0.023045365291842968
110,1787760902.2149377,-0.014418017578125008,0.010969189453124827,0.027063720703125436,0.03256758091167422
111,1787760902.2349377,-0.009627978515625009,-0.0034009277343751746,0.003113525390625436,0.010675126233906944
112,1787760902.2416947,-4.790039062500749e-05,-0.04172124023437518,-0.030416748046874567,0.051631799725449394
113,1787760902.2616947,-4.790039062500749e-05,-0.04651127929687518,-0.006466552734374565,0.0469586807794448
114,1787760902.2891102,-4.790039062500749e-05,-0.022561083984375174,0.012693603515625436,0.02588691513505135
115,1787760902.3091102,-0.009627978515625009,-0.012981005859375176,-0.0016765136718745644,0.016248543981244958
116,1787760902.3207486,-0.028788134765625008,-0.022561083984375174,-0.006466552734374565,0.03714263746828252
117,1787760902.3407485,-0.03357817382812501,-0.017771044921875177,0.012693603515625436,0.040055353767742254
118,1787760902.3527195,-0.009627978515625009,-0.017771044921875177,0.007903564453125437,0.021701943207403117
119,1787760902.3727195,-4.790039062500749e-05,-0.03693120117187518,-0.016046630859374564,0.04026673908304432
120,1787760902.4157922,-4.790039062500749e-05,-0.027351123046875175,-0.016046630859374564,0.03171089068931619
121,1787760902.4357922,-0.028788134765625008,-0.012981005859375176,0.003113525390625436,0.03173258982123882
122,1787760902.447783,-0.03357817382812501,-0.012981005859375176,0.007903564453125437,0.036857381917570056
123,1787760902.467783,-0.009627978515625009,-0.032141162109375176,-0.006466552734374565,0.03416970260779158
124,1787760902.4792068,-4.790039062500749e-05,-0.032141162109375176,-0.011256591796874564,0.03405535868362012
125,1787760902.4992068,-0.0048379394531250074,-0.027351123046875175,-0.006466552734374565,0.0285185184458074
126,1787760902.543846,-0.02399809570312501,-0.012981005859375176,-0.0016765136718745644,0.027335431377416782
127,1787760902.5638459,-0.01920805664062501,-0.022561083984375174,0.003113525390625436,0.02979338837422756
128,1787760902.5618272,-0.01920805664062501,-0.032141162109375176,-0.011256591796874564,0.039098780038922656
129,1787760902.5818272,-0.02399809570312501,-0.032141162109375176,-0.011256591796874564,0.041661418098751096
130,1787760902.5937843,-0.01920805664062501,-0.017771044921875177,0.007903564453125437,0.027335431377416963
131,1787760902.6137843,-4.790039062500749e-05,-0.027351123046875175,-0.016046630859374564,0.03171089068931619
132,1787760902.661293,-0.014418017578125008,-0.04172124023437518,-0.011256591796874564,0.045554933612716765
133,1787760902.681293,-0.03357817382812501,-0.022561083984375174,-0.0016765136718745644,0.04048835593443863
134,1787760902.68726,-0.009627978515625009,-0.04172124023437518,-0.011256591796874564,0.04427268588953292
135,1787760902.70726,-0.0048379394531250074,-0.051301318359375174,0.022273681640625438,0.05613686682911687
136,1787760902.7230105,-0.014418017578125008,-0.017771044921875177,0.017483642578125437,0.028798733067585937
137,1787760902.7430105,-0.02399809570312501,-0.0034009277343751746,0.003113525390625436,0.02443704047524697
138,1787760902.7802017,-0.0048379394531250074,-0.027351123046875175,-0.03999682617187457,0.04869533544294115
139,1787760902.8002017,-0.02399809570312501,-0.022561083984375174,-0.006466552734374565,0.03356676052574666
140,1787760902.8000398,-0.028788134765625008,-0.027351123046875175,0.003113525390625436,0.03983132781576786
141,1787760902.8200397,-0.02399809570312501,-0.03693120117187518,-0.020836669921874565,0.048723598294943424
142,1787760902.8314471,-0.01920805664062501,-0.04172124023437518,-0.011256591796874564,0.047289768295957726
143,1787760902.851447,-0.009627978515625009,-0.027351123046875175,0.007903564453125437,0.030054088462093658
144,1787760902.8941846,-0.009627978515625009,-0.027351123046875175,0.012693603515625436,0.0316529536131234
145,1787760902.9141846,0.004742138671874993,-0.03693120117187518,-0.011256591796874564,0.03889874494199357
146,1787760902.925969,-0.0048379394531250074,-0.022561083984375174,-0.025626708984374566,0.034483856832900193
147,1787760902.9459689,-0.03357817382812501,-0.022561083984375174,0.007903564453125437,0.04121847400434079
148,1787760902.9573574,-0.04794829101562501,-0.0034009277343751746,0.007903564453125437,0.04871417916621624
149,1787760902.9773574,-0.01920805664062501,-0.032141162109375176,-0.016046630859374564,0.040736937827819425
150,1787760903.0203717,0.004742138671874993,-0.04172124023437518,-0.011256591796874564,0.04347252724145679
151,1787760903.0403717,0.004742138671874993,-0.04172124023437518,0.017483642578125437,0.04548436570600253
152,1787760903.0519512,-0.01920805664062501,-0.022561083984375174,0.003113525390625436,0.02979338837422756
153,1787760903.0719512,-0.03357817382812501,-0.012981005859375176,-0.011256591796874564,0.037718843164052315
154,1787760903.0786614,-0.01920805664062501,-0.03693120117187518,-0.030416748046874567,0.0515561986734284
155,1787760903.0986614,-0.014418017578125008,-0.04172124023437518,-0.016046630859374564,0.04696845195995499
156,1787760903.1410847,-0.02399809570312501,-0.032141162109375176,0.022273681640625438,0.04588114855739137
157,1787760903.1610847,-0.009627978515625009,-0.032141162109375176,0.012693603515625436,0.03587310750757968
158,1787760903.1725905,-4.790039062500749e-05,-0.027351123046875175,-0.016046630859374564,0.03171089068931619
159,1787760903.1925905,-0.02399809570312501,-0.012981005859375176,-0.006466552734374565,0.02803981837965301
160,1787760903.2197633,-0.03357817382812501,-0.017771044921875177,0.007903564453125437,0.03880425397184944
161,1787760903.2397633,-0.01920805664062501,-0.04651127929687518,-0.020836669921874565,0.05446480841033539
162,1787760903.2633188,-0.0048379394531250074,-0.06567143554687518,-0.025626708984374566,0.07066025274727872
163,1787760903.2833188,-0.01920805664062501,-0.022561083984375174,-0.0016765136718745644,0.029677645603239333
164,1787760903.2919457,-0.02399809570312501,-0.012981005859375176,0.027063720703125436,0.038429937402944855
165,1787760903.3119457,-0.028788134765625008,-0.04172124023437518,-0.0016765136718745644,0.05071714984174698
166,1787760903.3393517,-0.01920805664062501,-0.051301318359375174,-0.03520678710937457,0.06511752885271559
167,1787760903.3593516,-0.02399809570312501,-0.027351123046875175,-0.011256591796874564,0.03808810034883753
168,1787760903.3792405,-0.01920805664062501,-0.0034009277343751746,0.007903564453125437,0.021047139483279163
169,1787760903.3992405,-0.02399809570312501,-0.032141162109375176,-0.0016765136718745644,0.040146900219188326
170,1787760903.402436,-0.009627978515625009,-0.04172124023437518,-0.016046630859374564,0.04572585941159351
171,1787760903.422436,-0.0048379394531250074,-0.04172124023437518,-0.0016765136718745644,0.04203425083117971
172,1787760903.465686,-0.0048379394531250074,-0.017771044921875177,0.012693603515625436,0.022368354118694284
173,1787760903.485686,-0.028788134765625008,-0.017771044921875177,-0.0016765136718745644,0.033872960292703605
174,1787760903.497333,-0.03836821289062501,-0.04172124023437518,-0.016046630859374564,0.05890904861777859
175,1787760903.517333,-0.03836821289062501,-0.032141162109375176,-0.011256591796874564,0.051301899780056115
176,1787760903.5290418,-0.01920805664062501,-0.022561083984375174,-0.0016765136718745644,0.029677645603239333
177,1787760903.5490417,-0.009627978515625009,-0.032141162109375176,0.003113525390625436,0.033696384262952316
178,1787760903.5846007,-0.014418017578125008,-0.032141162109375176,-0.0016765136718745644,0.03526675815433336
179,1787760903.6046007,-0.028788134765625008,-0.017771044921875177,0.007903564453125437,0.03474238149528326
180,1787760903.6159284,-0.028788134765625008,-0.022561083984375174,-0.011256591796874564,0.03826839522001518
181,1787760903.6359284,-0.01920805664062501,-0.027351123046875175,-0.016046630859374564,0.03707462385206082
182,1787760903.6476598,-0.009627978515625009,-0.04172124023437518,-0.011256591796874564,0.04427268588953292
183,1787760903.6676598,-0.009627978515625009,-0.04172124023437518,-0.006466552734374565,0.04330330427644327
184,1787760903.7007077,-0.014418017578125008,-0.0034009277343751746,0.003113525390625436,0.01513735712387183
185,1787760903.7207077,-0.028788134765625008,-0.008190966796875174,0.022273681640625438,0.037309054319015295
186,1787760903.7327282,-0.028788134765625008,-0.027351123046875175,-0.006466552734374565,0.040232535832029535
187,1787760903.7527282,-0.02399809570312501,-0.051301318359375174,-0.0016765136718745644,0.056661667473507114
188,1787760903.7730143,-0.009627978515625009,-0.032141162109375176,-0.025626708984374566,0.04221943255668289
189,1787760903.7930143,-0.03357817382812501,-0.012981005859375176,-0.020836669921874565,0.041595277186070825
190,1787760903.8265264,-0.04794829101562501,-0.017771044921875177,-0.011256591796874564,0.05235990362687689
191,1787760903.8465264,-0.03357817382812501,-0.027351123046875175,0.022273681640625438,0.04870004705731834
192,1787760903.858256,-0.009627978515625009,-0.022561083984375174,0.007903564453125437,0.025771434029018925
193,1787760903.878256,0.019112255859374993,-0.027351123046875175,-0.006466552734374565,0.03398791785658497
194,1787760903.889995,-0.0048379394531250074,-0.022561083984375174,0.003113525390625436,0.023283088477695627
195,1787760903.909995,-0.03357817382812501,-0.022561083984375174,-0.0016765136718745644,0.04048835593443863
196,1787760903.937519,-0.03357817382812501,-0.04172124023437518,-0.016046630859374564,0.05590751296796574
197,1787760903.957519,-0.009627978515625009,-0.0034009277343751746,-0.0016765136718745644,0.010347703988990086
198,1787760903.9804823,-4.790039062500749e-05,0.006179150390624826,0.007903564453125437,0.01003247352660793
199,1787760904.0004823,-0.02399809570312501,-0.017771044921875177,0.017483642578125437,0.034603415912179726
200,1787760904.0010822,-0.01920805664062501,-0.032141162109375176,-0.006466552734374565,0.03799763210934387
201,1787760904.0210822,-0.009627978515625009,-0.032141162109375176,-0.011256591796874564,0.03539015584763558
202,1787760904.061755,-0.009627978515625009,0.0013891113281248259,0.003113525390625436,0.010213796597609076
203,1787760904.081755,-0.0048379394531250074,-0.012981005859375176,-0.006466552734374565,0.015288180910091407
204,1787760904.0934403,-0.009627978515625009,-0.022561083984375174,-0.011256591796874564,0.026989096682342492
205,1787760904.1134403,-0.03357817382812501,-0.0034009277343751746,0.027063720703125436,0.04326089510612329
206,1787760904.1251187,-0.02399809570312501,0.010969189453124827,0.036643798828125435,0.045155284377257764
207,1787760904.1451187,-0.0048379394531250074,-0.012981005859375176,-0.006466552734374565,0.015288180910091407
208,1787760904.192256,0.019112255859374993,-0.027351123046875175,-0.011256591796874564,0.03521467186899494
209,1787760904.212256,-4.790039062500749e-05,-0.0034009277343751746,0.012693603515625436,0.013141391635354405
210,1787760904.223364,-0.014418017578125008,-0.008190966796875174,-0.0016765136718745644,0.01666678931416053
211,1787760904.243364,-0.0048379394531250074,-0.008190966796875174,-0.016046630859374564,0.01865454253410271
212,1787760904.2478938,-0.009627978515625009,-0.0034009277343751746,-0.0016765136718745644,0.010347703988990086
213,1787760904.2678938,-0.009627978515625009,0.0013891113281248259,0.036643798828125435,0.03791300031829964
214,1787760904.313575,-0.01920805664062501,-0.017771044921875177,0.007903564453125437,0.027335431377416963
215,1787760904.333575,-0.014418017578125008,-0.0034009277343751746,-0.0016765136718745644,0.014908260744618948
216,1787760904.3425786,-4.790039062500749e-05,0.006179150390624826,-0.006466552734374565,0.00894429976375055
217,1787760904.3625786,0.004742138671874993,0.025339306640624826,0.03185375976562544,0.04097841323693591
218,1787760904.3687234,-0.009627978515625009,0.006179150390624826,0.017483642578125437,0.02089396151156923
219,1787760904.3887234,-0.01920805664062501,0.015759228515624828,-0.006466552734374565,0.025673313529491832
220,1787760904.4298117,-0.009627978515625009,-0.008190966796875174,-0.0016765136718745644,0.01275149424408099
221,1787760904.4498117,0.009532177734374992,-0.008190966796875174,-0.006466552734374565,0.014134024681373423
222,1787760904.460171,0.009532177734374992,-0.012981005859375176,0.017483642578125437,0.02377071061791144
223,1787760904.480171,0.004742138671874993,-0.0034009277343751746,0.012693603515625436,0.01397074653873704
224,1787760904.4907496,-0.014418017578125008,0.006179150390624826,0.017483642578125437,0.02348912276422262
225,1787760904.5107496,-0.014418017578125008,0.010969189453124827,0.012693603515625436,0.022120802841523745
226,1787760904.5521119,-0.009627978515625009,0.020549267578124825,0.003113525390625436,0.022905554100540293
227,1787760904.5721118,-0.0048379394531250074,-0.017771044921875177,0.007903564453125437,0.02004200655703208
228,1787760904.5808694,-0.04315825195312501,-0.06567143554687518,0.14681469726562543,0.16652305393438485
229,1787760904.6008694,-0.05752836914062501,0.039709423828124826,-0.03520678710937457,0.07826793376157624
230,1787760904.644154,-0.04315825195312501,0.13072016601562483,-0.19327807617187456,0.23729056290443343
231,1787760904.664154,-0.03836821289062501,0.04928950195312483,0.036643798828125435,0.07241783451445884
232,1787760904.659868,0.03348237304687499,0.015759228515624828,0.12286450195312544,0.1283164386524476
233,1787760904.679868,0.086172802734375,-0.032141162109375176,0.15639477539062543,0.18143354706978204
234,1787760904.6919882,0.081382763671875,-0.0034009277343751746,0.05101391601562544,0.09611004192890557
235,1787760904.7119882,0.057432568359375,-0.06567143554687518,0.03185375976562544,0.09287572000446534
236,1787760904.7564223,-4.790039062500749e-05,-0.06567143554687518,0.05101391601562544,0.08315743724095932
237,1787760904.7764223,-0.02399809570312501,0.034919384765624825,-0.054366943359374566,0.06892776334705443
238,1787760904.788279,-0.04794829101562501,0.09239985351562482,-0.07831713867187456,0.13027027961426052
239,1787760904.808279,-0.03836821289062501,0.08760981445312482,-0.0016765136718745644,0.09565777567465839
240,1787760904.8196628,-0.02399809570312501,0.13072016601562483,0.10849438476562544,0.1715654450237589
241,1787760904.8396628,-0.01920805664062501,0.15467036132812484,0.09891430664062544,0.18459661473460945
242,1787760904.907846,-0.009627978515625009,0.09718989257812483,0.03185375976562544,0.10272894042503776
243,1787760904.927846,-0.03357817382812501,0.11635004882812483,-0.025626708984374566,0.12378027239147858
244,1787760904.907846,-0.03836821289062501,0.08760981445312482,-0.0016765136718745644,0.09565777567465839
245,1787760904.927846,-0.014418017578125008,0.06365961914062483,0.012693603515625436,0.06649476603631618
246,1787760904.9396093,0.004742138671874993,0.04928950195312483,0.022273681640625438,0.054296038306660306
247,1787760904.9596093,-4.790039062500749e-05,0.039709423828124826,-0.011256591796874564,0.0412741019780023
248,1787760905.002757,0.014322216796874994,0.010969189453124827,0.007903564453125437,0.01969556656458354
249,1787760905.022757,0.014322216796874994,0.0013891113281248259,0.003113525390625436,0.014722417077935342
250,1787760905.018447,0.004742138671874993,0.030129345703124828,-0.020836669921874565,0.03693822092514542
251,1787760905.038447,-0.014418017578125008,0.08760981445312482,-0.054366943359374566,0.10411111059649457
252,1787760905.0548923,-0.009627978515625009,0.09718989257812483,-0.10226733398437457,0.14141138847319332
253,1787760905.0748923,0.014322216796874994,0.11635004882812483,-0.08789721679687457,0.1465209216355142
254,1787760905.1180031,0.014322216796874994,0.23131098632812483,-0.11663745117187457,0.25944978956618575
255,1787760905.138003,-0.07668852539062501,0.33190180664062485,-0.24117846679687457,0.41738111124533467
256,1787760905.1497805,-0.12937895507812502,0.37980219726562486,-0.3705095214843746,0.5461372799722469
257,1787760905.1697805,-0.04315825195312501,0.37022211914062486,-0.3561394042968746,0.515521413236693
258,1787760905.1816237,0.110122998046875,0.3079516113281248,-0.1741179199218746,0.3705108900644363
259,1787760905.2016237,0.153233349609375,0.40375239257812484,0.07496411132812544,0.43831047435839904
260,1787760905.228895,0.167603466796875,0.5522436035156248,-0.07352709960937456,0.5817818784417582
261,1787760905.248895,0.148443310546875,0.5953539550781248,-0.006466552734374565,0.6136151599965147
262,1787760905.2602952,0.100542919921875,0.6193041503906248,-0.08789721679687457,0.6335396042538358
263,1787760905.2802951,0.043062451171874995,0.7055248535156249,-0.1741179199218746,0.7279675430038721
264,1787760905.298254,-0.15811918945312503,1.2276391113281249,0.027063720703125436,1.2380758905309959
265,1787760905.318254,-0.21559965820312504,1.0025072753906248,0.16597485351562544,1.0387741341735321
266,1787760905.363008,-0.13895903320312503,0.9785570800781249,0.20908520507812545,1.0102475908718291
267,1787760905.383008,-0.12937895507812502,1.3042797363281249,0.43900708007812544,1.3822488057408449
268,1787760905.392519,-0.15811918945312503,1.256379345703125,0.39589672851562546,1.32673469768153
269,1787760905.412519,-0.20601958007812504,1.179738720703125,-0.049576904296874565,1.1986181151398783
270,1787760905.41861,-0.41678129882812504,1.3905004394531248,-0.03999682617187457,1.4521700552194343
271,1787760905.43861,-0.526952197265625,1.601262158203125,0.16118481445312544,1.6934283751923753
272,1787760905.4819164,-0.5413223144531251,1.687482861328125,0.40068676757812544,1.8169144561902881
273,1787760905.5019164,-0.507792041015625,1.615632275390625,0.5683381347656254,1.7863730410055938
274,1787760905.4976733,-0.46468168945312505,1.4671410644531249,0.7359895019531255,1.705905191534063
275,1787760905.5176733,-0.368880908203125,1.213268994140625,0.7024592285156255,1.4496702191555617
276,1787760905.542856,-0.35451079101562505,0.8875463378906249,0.6210285644531255,1.1397775575594973
277,1787760905.562856,-0.32577055664062504,0.6336742675781248,0.5922883300781254,0.9265392592391054
278,1787760905.5947676,-0.24433989257812502,0.2792113769531248,0.5012775878906255,0.6236507005099837
279,1787760905.6147676,-0.21559965820312504,0.006179150390624826,0.5491779785156254,0.5900151240462935
280,1787760905.6264453,-0.23954985351562505,-0.11357182617187518,0.7599396972656255,0.804854667315499
281,1787760905.6464453,-0.20601958007812504,-0.3099634277343752,0.7982600097656255,0.8807612826977732
282,1787760905.6578927,-0.11021879882812502,-0.8224976074218752,0.6545588378906255,1.0569284602519462
283,1787760905.6778927,-0.10542875976562502,-1.2296509277343752,0.6545588378906255,1.3969981745601723
284,1787760905.7208524,-0.0048379394531250074,-1.6176440917968753,0.5060676269531255,1.69496320208831
285,1787760905.7408524,0.167603466796875,-1.8667261230468752,0.31925610351562544,1.901231653476222
286,1787760905.7523174,0.306514599609375,-1.7230249511718752,0.11328442382812544,1.7537387327696816
287,1787760905.7723174,0.445425732421875,-1.9385767089843753,0.15639477539062543,1.9952300783342605
288,1787760905.7824273,0.445425732421875,-2.158918505859375,0.022273681640625438,2.204502056007086
289,1787760905.8024273,0.464585888671875,-2.091857958984375,0.022273681640625438,2.142943276293878
290,1787760905.834887,0.526856396484375,-2.125388232421875,-0.1741179199218746,2.1966269257823017
291,1787760905.854887,0.7280380371093751,-2.374470263671875,-0.5381608886718746,2.541213402812947
292,1787760905.8663058,0.8908993652343751,-2.4606909667968755,-0.5381608886718746,2.6717632483337397
293,1787760905.8863058,0.857369091796875,-2.4559009277343753,-0.4711003417968746,2.643570815858031
294,1787760905.9023697,0.9196395996093751,-2.331359912109375,-0.4758903808593746,2.5509699503433603
295,1787760905.9223697,1.221412060546875,-2.5373315917968755,-1.1129655761718746,3.027968197013209
296,1787760905.9531994,1.5615048339843751,-2.791203662109375,-2.391906005859375,3.9937863702000267
297,1787760905.9731994,1.379483349609375,-2.0295874511718752,-1.5728093261718747,2.9147776433712878
298,1787760905.984971,0.9196395996093751,-1.9050464355468752,-1.0267448730468747,2.3514131812779286
299,1787760906.004971,1.0393905761718751,-2.0870679199218753,-0.7776628417968746,2.457833348238549
300,1787760906.0526984,1.020230419921875,-2.082277880859375,-0.7201823730468746,2.4280473498878896
301,1787760906.0726984,1.168721630859375,-2.2834595214843754,-0.5764812011718746,2.6291497127399985
302,1787760906.112614,1.298052685546875,-2.2211890136718755,-0.4136198730468746,2.605705817680002
303,1787760906.132614,1.5088144042968752,-2.235559130859375,-0.17890795898437456,2.703008248594594
304,1787760906.112614,1.5854550292968752,-2.058327685546875,-0.40882983398437456,2.6301183137203545
305,1787760906.132614,1.724366162109375,-1.4883130371093753,-0.9022038574218746,2.449997175060506
306,1787760906.172558,1.571084912109375,-1.4260425292968752,-0.5525310058593746,2.192531780580871
307,1787760906.192558,1.446543896484375,-1.8379858886718752,-0.21722827148437457,2.349014579210872
308,1787760906.2016804,1.5902450683593752,-2.1637085449218754,-0.2651286621093746,2.698297102300108
309,1787760906.2216804,1.7052060058593752,-2.1541284667968754,-0.3992497558593746,2.7762199735318727
310,1787760906.2291374,1.499234326171875,-1.9721069824218753,-0.3513493652343746,2.502070321022123
311,1787760906.2491374,1.336372998046875,-2.082277880859375,-0.44715014648437457,2.5143025308275853
312,1787760906.2926369,1.2405722167968751,-2.2259790527343752,-0.5094206542968746,2.5987519256991027
313,1787760906.3126369,1.139981396484375,-2.1972388183593754,-0.5477409667968746,2.5352388794635003
314,1787760906.3193784,1.0825009277343751,-2.082277880859375,-0.6722819824218746,2.4412399504250044
315,1787760906.3393784,0.996280224609375,-1.9577368652343752,-0.7489226074218746,2.320817311068022
316,1787760906.3473032,1.0393905761718751,-1.9721069824218753,-0.6914421386718747,2.3340160563036307
317,1787760906.3673031,1.053760693359375,-2.0343774902343754,-0.4998405761718746,2.3449827234394243
318,1787760906.4103823,1.058550732421875,-2.048747607421875,-0.41840991210937456,2.3437071631454134
319,1787760906.4303823,1.0393905761718751,-1.9577368652343752,-0.5573210449218746,2.285535637535637
320,1787760906.4426284,1.0346005371093752,-1.9289966308593753,-0.5812712402343746,2.264796354637087
321,1787760906.4626284,1.010650341796875,-1.9002563964843753,-0.43757006835937456,2.1963278558716937
322,1787760906.4721184,0.9867001464843751,-1.8140356933593753,-0.3992497558593746,2.103260098848425
323,1787760906.4921184,1.0346005371093752,-1.7661353027343754,-0.5142106933593746,2.1104608065815342
324,1787760906.5277507,1.048970654296875,-1.6751245605468752,-0.5477409667968746,2.0509514605740797
325,1787760906.5477507,0.977120068359375,-1.7421851074218753,-0.4711003417968746,2.052293377798197
326,1787760906.562466,0.9244296386718751,-1.8092456542968753,-0.43757006835937456,2.0783184450827474
327,1787760906.582466,0.9100595214843751,-1.6942847167968753,-0.4519401855468746,1.9756160977092643
328,1787760906.590795,0.9340097167968751,-1.6607544433593753,-0.5333708496093746,1.9786267802245863
329,1787760906.610795,0.8621591308593751,-1.6463843261718754,-0.5142106933593746,1.9282926006064904
330,1787760906.6595526,0.8334188964843751,-1.7086548339843752,-0.4136198730468746,1.9455512838511142
331,1787760906.6795526,0.8046786621093751,-1.6894946777343753,-0.42798999023437456,1.919655033355664
332,1787760906.679816,0.7998886230468751,-1.7469751464843752,-0.4998405761718746,1.9853424322523712
333,1787760906.699816,0.8046786621093751,-1.7326050292968753,-0.5190007324218746,1.9795933160761587
334,1787760906.7077308,0.7663583496093751,-1.7086548339843752,-0.5621110839843746,1.9551918914654558
335,1787760906.7277308,0.7136679199218751,-1.7182349121093752,-0.5716911621093745,1.9464028097881216
336,1787760906.770094,0.7807284667968751,-1.7852954589843752,-0.6148015136718746,2.0432321737752805
337,1787760906.790094,0.8621591308593751,-1.8667261230468752,-0.5285808105468746,2.1230596926766334
338,1787760906.7980225,0.8525790527343751,-1.8763062011718752,-0.4327800292968746,2.10587619661643
339,1787760906.8180225,0.8717392089843751,-1.8044556152343754,-0.46631030273437457,2.0575311939962893
340,1787760906.8327327,0.895689404296875,-1.7565552246093752,-0.4950505371093746,2.0329340373864726
341,1787760906.8527327,0.857369091796875,-1.7661353027343754,-0.4615202636718746,2.0167589397131724
342,1787760906.89325,0.8286288574218751,-1.7134448730468752,-0.44715014648437457,1.9551118560900556
343,1787760906.91325,0.8334188964843751,-1.6655444824218752,-0.5094206542968746,1.9308378707098743
344,1787760906.9229147,0.838208935546875,-1.6559644042968753,-0.5525310058593746,1.9365182261897
345,1787760906.9429147,0.8142587402343751,-1.6368042480468752,-0.5094206542968746,1.897802636075897
346,1787760906.9521146,0.775938427734375,-1.6128540527343753,-0.4519401855468746,1.845976319016237
347,1787760906.9721146,0.7903085449218751,-1.6320142089843752,-0.4519401855468746,1.868771763971077
348,1787760907.0128562,0.8190487792968751,-1.6415942871093752,-0.5860612792968746,1.9259129080591697
349,1787760907.0328562,0.7424081542968751,-1.6320142089843752,-0.44715014648437457,1.8478591665477069
350,1787760907.0426126,0.7711483886718751,-1.7182349121093752,-0.5237907714843746,1.9548293590068004
351,1787760907.0626125,0.7807284667968751,-1.7709253417968753,-0.5046306152343746,2.0000913886413296
352,1787760907.0692818,0.7663583496093751,-1.7421851074218753,-0.4711003417968746,1.9607268041671968
353,1787760907.0892818,0.775938427734375,-1.7757153808593753,-0.5046306152343746,2.0024728750440723
354,1787760907.1239746,0.7855185058593751,-1.8284058105468752,-0.4902604980468746,2.0495029853684748
355,1787760907.1439745,0.775938427734375,-1.7421851074218753,-0.5237907714843746,1.9777882000987015
356,1787760907.1548483,0.7855185058593751,-1.7326050292968753,-0.5956413574218746,1.993426230705251
357,1787760907.1748483,0.7807284667968751,-1.7038647949218753,-0.6866520996093746,1.9960419044045958
358,1787760907.1864636,0.7136679199218751,-1.6894946777343753,-0.5381608886718746,1.9113689617953145
359,1787760907.2064636,0.7088778808593751,-1.7565552246093752,-0.46631030273437457,1.9507535481219545
360,1787760907.2495391,0.775938427734375,-1.9098364746093752,-0.4136198730468746,2.102531141924555
361,1787760907.269539,0.8046786621093751,-1.9385767089843753,-0.3992497558593746,2.136583200679205
362,1787760907.281191,0.8142587402343751,-1.9146265136718752,-0.3657194824218746,2.1124778632511902
363,1787760907.301191,0.7855185058593751,-1.8763062011718752,-0.4854704589843746,2.091230702277986
364,1787760907.3122482,0.756778271484375,-1.8427759277343754,-0.5333708496093746,2.06228536707246
365,1787760907.3322482,0.7232479980468751,-1.7278149902343753,-0.5237907714843746,1.9449393510980295
366,1787760907.3722634,0.7280380371093751,-1.7278149902343753,-0.5716911621093745,1.9601568327025911
367,1787760907.3922634,0.7232479980468751,-1.6942847167968753,-0.6148015136718746,1.942078595078868
368,1787760907.402781,0.718457958984375,-1.7134448730468752,-0.6483317871093746,1.967843814426097
369,1787760907.422781,0.699297802734375,-1.8044556152343754,-0.5860612792968746,2.022015160020093
370,1787760907.4628031,0.675347607421875,-1.8475659667968753,-0.4998405761718746,2.029639129033621
371,1787760907.482803,0.6945077636718751,-1.8954663574218753,-0.5046306152343746,2.0808137359577583
372,1787760907.4923868,0.7136679199218751,-1.9481567871093752,-0.5669011230468746,2.1508169727798196
373,1787760907.5123868,0.718457958984375,-1.9481567871093752,-0.5669011230468746,2.1524111106617445
374,1787760907.5223832,0.6897177246093751,-1.9577368652343752,-0.5477409667968746,2.146733411452299
375,1787760907.5423832,0.718457958984375,-1.9242065917968754,-0.5429509277343746,2.124511368919959
376,1787760907.5823948,0.7328280761718751,-1.9050464355468752,-0.5429509277343746,2.1121161475504238
377,1787760907.6023948,0.680137646484375,-1.8667261230468752,-0.5046306152343746,2.049855042304881
378,1787760907.6119702,0.656187451171875,-1.8523560058593753,-0.5285808105468746,2.0349944512939415
379,1787760907.6319702,0.6849276855468751,-1.8715161621093752,-0.5477409667968746,2.0668136941129402
380,1787760907.6419232,0.6657675292968751,-1.8236157714843753,-0.5381608886718746,2.0145565336243907
381,1787760907.6619232,0.6705575683593751,-1.8188257324218753,-0.5190007324218746,2.0067725973957415
382,1787760907.702406,0.675347607421875,-1.8236157714843753,-0.5860612792968746,2.031043253096323
383,1787760907.722406,0.656187451171875,-1.8667261230468752,-0.5525310058593746,2.0543950209190616
384,1787760907.7324054,0.656187451171875,-1.9242065917968754,-0.5190007324218746,2.0982170381646488
385,1787760907.7524054,0.699297802734375,-1.9242065917968754,-0.5477409667968746,2.1193415466911523
386,1787760907.7624037,0.737618115234375,-1.9146265136718752,-0.5669011230468746,2.128673778221792
387,1787760907.7824037,0.7232479980468751,-1.9673169433593753,-0.5237907714843746,2.1605046620176234
388,1787760907.8219473,0.7471981933593751,-1.9289966308593753,-0.5621110839843746,2.1436655552497976
389,1787760907.8419473,0.7615683105468751,-2.0439575683593754,-0.5956413574218746,2.261092094443339
390,1787760907.852049,0.756778271484375,-2.0870679199218753,-0.5860612792968746,2.296090955874569
391,1787760907.872049,0.8334188964843751,-2.0247974121093755,-0.6866520996093746,2.294751124414153
392,1787760907.8819535,0.8813192871093751,-1.9912671386718752,-0.7441325683593746,2.301217456625639
393,1787760907.9019535,0.8334188964843751,-1.9337866699218753,-0.8207731933593746,2.2600412776589094
394,1787760907.9425042,0.7711483886718751,-2.134968310546875,-0.9213640136718746,2.449830845197307
395,1787760907.9625041,0.718457958984375,-2.1493384277343752,-0.9309440917968747,2.449998860778343
396,1787760907.9725225,0.7232479980468751,-2.1205981933593754,-0.9740544433593746,2.4431140830886307
397,1787760907.9925225,0.7471981933593751,-2.202028857421875,-0.9022038574218746,2.494234958744888
398,1787760908.0020235,0.7088778808593751,-2.2499292480468753,-0.9357341308593746,2.537772218865122
399,1787760908.0220234,0.584336865234375,-2.1445483886718755,-0.9884245605468747,2.432595419571318
400,1787760908.0640264,0.431055615234375,-2.0247974121093755,-0.8303532714843747,2.230493232218989
401,1787760908.0840263,0.402315380859375,-2.168498583984375,-0.8447233886718746,2.3617369408525493
402,1787760908.0925915,0.474165966796875,-2.1637085449218754,-0.6052214355468746,2.2962493369583745
403,1787760908.1125915,0.469375927734375,-1.5793237792968753,-0.4854704589843746,1.7176317789140867
404,1787760908.12259,0.215503857421875,-1.3781421386718753,-0.22680834960937457,1.4132090059150226
405,1787760908.14259,0.043062451171874995,-1.9289966308593753,-0.3417692871093746,1.9595123429514296
406,1787760908.1826015,-0.03357817382812501,-1.9768970214843753,-0.4231999511718746,2.021966252434324
407,1787760908.2026014,-0.15332915039062503,-1.8140356933593753,-0.4615202636718746,1.8780937886381226
408,1787760908.2121797,-0.18685942382812504,-1.7661353027343754,-0.5573210449218746,1.861385800674012
409,1787760908.2321796,-0.340140673828125,-1.1625903808593752,-0.20764819335937457,1.228995461287148
410,1787760908.242169,-0.4598916503906251,-0.9614087402343752,0.007903564453125437,1.0657718152724465
411,1787760908.262169,-0.627543017578125,-0.8416577636718752,0.06538403320312544,1.0518902518124733
412,1787760908.3026793,-0.632333056640625,-0.6500562011718752,0.03185375976562544,0.9074319926108465
413,1787760908.3226793,-0.814354541015625,-0.5303052246093752,0.08454418945312545,0.975471511470763
414,1787760908.3326795,-1.092176806640625,-0.3243335449218752,0.26177563476562543,1.1690033824939299
415,1787760908.3526795,-1.164027392578125,-0.2045825683593752,0.23303540039062545,1.2046241305004504
416,1787760908.36268,-1.116127001953125,-0.1950024902343752,0.15639477539062543,1.1437765434978824
417,1787760908.38268,-1.020326220703125,-0.06567143554687518,0.21866528320312545,1.0455586258930738
418,1787760908.422195,-0.924525439453125,0.039709423828124826,0.39589672851562546,1.006507996086534
419,1787760908.442195,-0.986795947265625,0.3079516113281248,0.7455695800781255,1.2745487182518067
420,1787760908.4521961,-1.125707080078125,0.6240941894531249,0.9371711425781255,1.5921682505088337
421,1787760908.472196,-1.211927783203125,0.8540160644531248,0.8988508300781255,1.7337950296317555
422,1787760908.4831984,-1.326888720703125,1.1557885253906248,1.1287727050781255,2.09060006033751
423,1787760908.5031984,-1.2310879394531251,1.3617602050781248,1.3299543457031255,2.266880440706123
424,1787760908.5417418,-1.259828173828125,1.5437816894531249,1.4688654785156254,2.4754786862820675
425,1787760908.5617418,-1.264618212890625,1.725803173828125,1.8760187988281256,2.845540783880356
426,1787760908.572809,-1.226297900390625,2.089846142578125,2.0149299316406255,3.151381612812453
427,1787760908.592809,-1.1496572753906251,2.377248486328125,2.0580402832031255,3.3479175652776694
428,1787760908.6023955,-1.1113369628906251,2.631120556640625,2.0676203613281254,3.526034484692752
429,1787760908.6223955,-1.010746142578125,2.793981884765625,1.8712287597656256,3.511330176515594
430,1787760908.6623938,-0.7425039550781249,2.841882275390625,1.2581037597656255,3.195376669631056
431,1787760908.6823938,-0.503002001953125,2.861042431640625,1.0856623535156256,3.101167127946838
432,1787760908.6919084,-0.526952197265625,2.774821728515625,1.0617121582031255,3.0173741813241937
433,1787760908.7119083,-0.5796426269531251,2.741291455078125,0.9659113769531255,2.963722187519091
434,1787760908.7219074,-0.49342192382812505,2.391618603515625,0.8174201660156255,2.5751661048183454
435,1787760908.7419074,-0.479051806640625,2.080266064453125,0.8078400878906254,2.282455506677857
436,1787760908.7819111,-0.40720122070312503,1.606052197265625,0.8222102050781255,1.8496610813385437
437,1787760908.801911,-0.33535063476562504,1.1845287597656249,0.7647297363281255,1.4492687813425367
438,1787760908.8124235,-0.23475981445312505,0.8204857910156249,0.7982600097656255,1.1685581487164505
439,1787760908.8324234,-0.21559965820312504,0.38459223632812484,1.2916340332031255,1.3648123961152117
440,1787760908.8724508,-0.12937895507812502,0.17383051757812484,1.8855988769531256,1.8980092432929496
441,1787760908.8924508,0.081382763671875,0.19778071289062485,1.6652570800781255,1.6789346346313547
442,1787760908.9030669,0.387945263671875,0.26963129882812487,-0.07831713867187456,0.47889052937276994
443,1787760908.9230669,0.368785107421875,1.955725048828125,-3.8145476074218747,4.3025151215722515
444,1787760908.9320686,0.795098583984375,-0.3818140136718752,-4.940206787109375,5.018327091640373
445,1787760908.9520686,-0.258710009765625,-0.2189526855468752,0.38152661132812543,0.5103270547527743
446,1787760908.9926195,-0.09584868164062502,0.5570336425781248,0.7743098144531255,0.9586600740067011
447,1787760909.0126195,0.498116162109375,0.20257075195312482,-0.011256591796874564,0.5378487997200598
448,1787760909.0226238,0.474165966796875,0.6767846191406248,-0.17890795898437456,0.8455050813340452
449,1787760909.0426238,0.392735302734375,1.0264574707031249,0.05580395507812544,1.1004408382909456
450,1787760909.052623,0.359205029296875,1.1509984863281248,-0.016046630859374564,1.2058537485797107
451,1787760909.072623,0.014322216796874994,1.127048291015625,0.24261547851562545,1.1529550063166312
452,1787760909.112228,-0.35451079101562505,1.127048291015625,0.6785090332031255,1.3624574339648212
453,1787760909.132228,-0.38804106445312503,1.222849072265625,0.7455695800781255,1.483849628493631
454,1787760909.1422262,-0.258710009765625,1.2324291503906248,0.5539680175781254,1.3757518106057232
455,1787760909.1622262,-0.04315825195312501,1.127048291015625,0.5874982910156255,1.271713303751742
456,1787760909.1732628,0.038272412109374994,1.0695678222656249,0.6210285644531255,1.2373829568170926
457,1787760909.1932628,0.129283154296875,0.9977172363281249,0.5587580566406255,1.1508103160434344
458,1787760909.2318842,0.067012646484375,1.016877392578125,0.42942700195312544,1.1058652161686684
459,1787760909.2518842,0.014322216796874994,1.059987744140625,0.5060676269531255,1.1746844625993293
460,1787760909.2628496,-0.07189848632812501,1.012087353515625,0.4725373535156255,1.119277335583138
461,1787760909.2828496,-0.07668852539062501,0.8683861816406249,0.42942700195312544,0.9717938260749666
462,1787760909.2923713,-0.12937895507812502,0.8540160644531248,0.41984692382812544,0.960392519654881
463,1787760909.3123713,-0.08626860351562501,0.8492260253906249,0.28093579101562544,0.8986389891535251
464,1787760909.356385,-0.08626860351562501,0.7438451660156249,0.06538403320312544,0.7516801013431552
465,1787760909.376385,-0.12937895507812502,0.6001439941406248,-0.09747729492187457,0.6216217103234538
466,1787760909.3823686,-0.13895903320312503,0.41333247070312484,0.003113525390625436,0.4360768719923757
467,1787760909.4023685,-0.20122954101562504,0.5139232910156248,0.15639477539062543,0.5736460607335973
468,1787760909.411931,-0.12937895507812502,0.45165278320312485,0.10370434570312544,0.48112757342512574
469,1787760909.431931,0.057432568359375,0.20257075195312482,0.16597485351562544,0.268106436802144
470,1787760909.4739666,0.373575146484375,0.19778071289062485,0.17076489257812544,0.45589061078241644
471,1787760909.4939666,0.589126904296875,0.37022211914062486,0.15160473632812543,0.7121228285517287
472,1787760909.5025575,0.7615683105468751,0.46123286132812485,0.42942700195312544,0.9884986565517428
473,1787760909.5225575,0.7615683105468751,0.6240941894531249,0.7216193847656255,1.2207433740995257
474,1787760909.5325587,0.699297802734375,0.7677953613281249,0.8413703613281255,1.3365744344059298
475,1787760909.5525587,0.498116162109375,1.059987744140625,0.6162385253906255,1.3234211910266953
476,1787760909.5931807,0.33046479492187497,1.016877392578125,0.5683381347656254,1.2108901055207748
477,1787760909.6131806,0.191553662109375,1.2659594238281249,0.7072492675781255,1.462719246723904
478,1787760909.624185,0.158023388671875,1.323439892578125,0.6497687988281254,1.482789274497589
479,1787760909.644185,0.258614208984375,1.2372191894531248,0.7216193847656255,1.455447411729184
480,1787760909.6521509,0.253824169921875,1.136628369140625,0.5635480957031255,1.293807255715636
481,1787760909.6721509,0.22987397460937498,1.0647777832031249,0.38631665039062546,1.155782992682755
482,1787760909.7126987,-0.028788134765625008,1.0025072753906248,0.3336262207031255,1.056956029858891
483,1787760909.7326987,-0.26829008789062503,1.0025072753906248,0.3240461425781255,1.08720113640083
484,1787760909.7426987,-0.43594145507812504,0.8540160644531248,0.41984692382812544,1.0467377083336475
485,1787760909.7626987,-0.512582080078125,0.7390551269531248,0.4916975097656255,1.0250411262981765
486,1787760909.7727027,-0.43115141601562507,0.6576244628906248,0.4629572753906255,0.9125189951784964
487,1787760909.7927027,-0.41199125976562506,0.6863646972656249,0.30488598632812547,0.8566147094435593
488,1787760909.832217,-0.613172900390625,0.6959447753906248,0.017483642578125437,0.9276992044433143
489,1787760909.852217,-0.890995166015625,1.021667431640625,0.07496411132812544,1.3576805017107587
490,1787760909.8622189,-0.953265673828125,1.3138598144531248,-0.22201831054687457,1.6383635698927994
491,1787760909.8822188,-0.852674853515625,1.3952904785156248,-0.7728728027343746,1.808652065617028
492,1787760909.8927805,-0.814354541015625,1.256379345703125,-0.7537126464843746,1.6762294390245809
493,1787760909.9127805,-0.948475634765625,1.294699658203125,-0.29865893554687456,1.6324982065770657
494,1787760909.951776,-1.029906298828125,1.457560986328125,0.022273681640625438,1.7848493298106403
495,1787760909.971776,-1.053856494140625,1.4719311035156248,0.24261547851562545,1.8264876003286912
496,1787760909.9818015,-1.1496572753906251,1.452770947265625,0.4725373535156255,1.9119484372088094
497,1787760910.0018015,-1.3077285644531251,1.4288207519531249,0.8365803222656255,2.109869516131408
498,1787760910.013359,-1.326888720703125,1.2707494628906248,0.7024592285156255,1.966948612011192
499,1787760910.033359,-1.3891592285156251,0.9354467285156248,0.6066584472656255,1.7812519237040705
500,1787760910.0723717,-1.432269580078125,0.8971264160156248,0.6401887207031255,1.8072281412278068
501,1787760910.0923717,-1.192767626953125,0.8300658691406249,0.9563312988281255,1.7396187835666352
502,1787760910.101904,-0.910155322265625,0.6193041503906248,1.0521320800781255,1.522794226174049
503,1787760910.121904,-0.670653369140625,0.4277025878906249,0.8317902832031254,1.1509042186294847
504,1787760910.1318882,-0.40720122070312503,0.3175316894531248,0.8317902832031254,0.9790374268536451
505,1787760910.1518881,-0.13416899414062503,-0.0034009277343751746,1.0521320800781255,1.0606577201094067
506,1787760910.1924057,0.047852490234374996,-0.2237427246093752,1.0617121582031255,1.0860862647661078
507,1787760910.2124057,0.215503857421875,-0.3482837402343752,0.7455695800781255,0.8506570842667602
508,1787760910.2224052,0.445425732421875,-0.5494653808593752,0.8749006347656255,1.1250632909218026
509,1787760910.2424052,0.598706982421875,-0.6596362792968752,1.1527229003906254,1.4568253693735251
510,1787760910.2824228,0.7855185058593751,-0.7793872558593752,1.2197834472656255,1.6469230327695235
511,1787760910.3024228,1.0346005371093752,-0.9518286621093752,1.0186018066406255,1.7360661605743823
512,1787760910.3119524,1.302842724609375,-1.0380493652343752,1.0712922363281254,1.980558685156283
513,1787760910.3319523,1.3076327636718752,-0.8224976074218752,1.4688654785156254,2.131659342582157
514,1787760910.3419368,2.984146435546875,-1.2344409667968752,-0.9692644042968747,3.3717129081122104
515,1787760910.3619368,1.9111776855468752,-1.3685620605468753,0.19950512695312544,2.3591024892914683
516,1787760910.4024599,0.8286288574218751,0.5187133300781248,2.7717561035156257,2.9391021077072406
517,1787760910.4224598,0.536436474609375,1.342600048828125,1.0473420410156256,1.7852911060338015
518,1787760910.4334779,0.569966748046875,3.704089306640625,-1.9176921386718746,4.209831685967084
519,1787760910.4534779,1.130401318359375,3.220295361328125,-6.650250732421875,7.474887568306144
520,1787760910.4624593,1.408223583984375,0.5953539550781248,-1.2422966308593746,1.9699850033341668
521,1787760910.4824593,0.526856396484375,0.7342650878906248,0.30967602539062544,0.9553125784335006
522,1787760910.5219743,0.718457958984375,0.7055248535156249,0.10370434570312544,1.0122755302159345
523,1787760910.5419743,0.8621591308593751,0.7869555175781249,-0.020836669921874565,1.1674979744668856
524,1787760910.5519884,0.9579599121093751,0.4277025878906249,-0.025626708984374566,1.0494157541748215
525,1787760910.5719883,0.6657675292968751,0.09239985351562482,0.5060676269531255,0.8413611466223896
526,1787760910.5820317,0.292144482421875,0.39417231445312484,0.6162385253906255,0.7876992651173993
527,1787760910.6020317,0.162813427734375,0.27442133789062484,0.5012775878906255,0.5942175553294776
528,1787760910.6425502,0.028692333984374995,0.06844965820312483,0.7216193847656255,0.7254261797089455
529,1787760910.6625502,-0.12937895507812502,0.19778071289062485,1.0904523925781255,1.1157699336727038
530,1787760910.6725516,-0.11021879882812502,0.29358149414062484,1.4305451660156254,1.4645128027189211
531,1787760910.6925516,-4.790039062500749e-05,0.37501215820312483,1.8041682128906256,1.8427308706101297
532,1787760910.7041378,0.004742138671874993,0.48039301757812486,2.0197199707031257,2.076070494774692
533,1787760910.7241378,-0.07189848632812501,1.414450634765625,1.3682746582031255,1.9692677651365835
534,1787760910.7620654,-0.15332915039062503,2.611960400390625,-0.22680834960937457,2.6262690244947855
535,1787760910.7820654,0.067012646484375,3.220295361328125,-1.8745817871093746,3.7267747162315104
536,1787760910.7926319,0.114913037109375,1.4288207519531249,-0.4758903808593746,1.5103659827684397
537,1787760910.8126318,0.023902294921874994,0.7869555175781249,0.9802814941406255,1.2573074859014257
538,1787760910.8216288,0.316094677734375,1.0456176269531248,0.9036408691406255,1.4176737591802662
539,1787760910.8416288,0.488536083984375,1.1509984863281248,0.7790998535156255,1.473248656076934
540,1787760910.8826318,0.617867138671875,0.9306566894531249,0.6641389160156255,1.2996007750231724
541,1787760910.9026318,0.6849276855468751,0.5666137207031249,0.41505688476562547,0.9810449839375275
542,1787760910.9121633,0.656187451171875,0.38938227539062487,0.012693603515625436,0.7631262379410331
543,1787760910.9321632,0.455005810546875,0.39417231445312484,0.05101391601562544,0.6041560400591897
544,1787760910.9431636,0.292144482421875,0.35106196289062486,0.27135571289062543,0.531250245474337
545,1787760910.9631636,0.23466401367187498,0.38938227539062487,0.31446606445312547,0.5527880800031886
546,1787760911.0026867,0.22029389648437497,0.39896235351562487,0.29051586914062544,0.5404626079328041
547,1787760911.0226867,0.23466401367187498,0.3366918457031248,0.29530590820312547,0.5056027864789152
548,1787760911.0356855,0.148443310546875,0.5378734863281248,0.23782543945312545,0.6065511053422948
549,1787760911.0556855,0.047852490234374996,0.7917455566406248,0.16118481445312544,0.80940189750957
550,1787760911.0616887,-0.10063872070312502,0.9546068847656248,0.15639477539062543,0.972554256746726
551,1787760911.0816886,-0.20122954101562504,0.7725854003906248,0.22345532226562545,0.8290439132657182
552,1787760911.1222363,-0.15332915039062503,0.5905639160156249,0.18034497070312544,0.6362388511535052
553,1787760911.1422362,-0.08147856445312501,0.6480443847656249,0.11807446289062544,0.6637332746506754
554,1787760911.1532447,-0.08147856445312501,0.6145141113281248,0.25219555664062543,0.6692301160856495
555,1787760911.1732447,-0.028788134765625008,0.5761937988281248,0.26656567382812546,0.6355197156459522
556,1787760911.1823366,-0.014418017578125008,0.4564428222656248,0.20429516601562545,0.5002843632236009
557,1787760911.2023365,0.014322216796874994,0.5235033691406249,0.17555493164062544,0.5523408706758054
558,1787760911.2418442,0.095752880859375,0.47560297851562483,0.26656567382812546,0.553555838040975
559,1787760911.2618442,0.071802685546875,0.4372826660156248,0.22345532226562545,0.49629027463603437
560,1787760911.2738824,0.019112255859374993,0.4277025878906249,0.25219555664062543,0.4968876943552203
561,1787760911.2938824,0.019112255859374993,0.40375239257812484,0.24261547851562545,0.4714271346156905
562,1787760911.3023863,0.004742138671874993,0.44207270507812485,0.25219555664062543,0.508972851185158
563,1787760911.3223863,-0.0048379394531250074,0.48039301757812486,0.22824536132812545,0.5318804395386009
564,1787760911.362389,-0.028788134765625008,0.5426635253906249,0.20429516601562545,0.5805591902209603
565,1787760911.382389,-0.028788134765625008,0.5761937988281248,0.26177563476562543,0.6335254797308594
566,1787760911.3929448,-4.790039062500749e-05,0.5091332519531249,0.24740551757812546,0.5660619759946005
567,1787760911.4129448,0.023902294921874994,0.49955317382812486,0.23303540039062545,0.5517519288770127
568,1787760911.4220002,0.06222260742187499,0.5091332519531249,0.24261547851562545,0.5674069012041595
569,1787760911.4420002,0.047852490234374996,0.5474535644531249,0.25219555664062543,0.604646892693031
570,1787760911.4819639,0.03348237304687499,0.49476313476562483,0.21387524414062545,0.5400502281123212
571,1787760911.5019639,0.009532177734374992,0.5139232910156248,0.23782543945312545,0.5663646803180461
572,1787760911.5124907,0.03348237304687499,0.47560297851562483,0.23782543945312545,0.5328040935736663
573,1787760911.5324907,0.03348237304687499,0.45165278320312485,0.26656567382812546,0.5255174253470779
574,1787760911.5424933,0.043062451171874995,0.48039301757812486,0.22824536132812545,0.5335988858745426
575,1787760911.5624933,0.023902294921874994,0.5282934082031249,0.21866528320312545,0.5722584651463959
576,1787760911.6020567,0.019112255859374993,0.5282934082031249,0.24740551757812546,0.5836683078624433
577,1787760911.6220567,0.014322216796874994,0.5235033691406249,0.25219555664062543,0.5812602706058939
578,1787760911.6320577,0.038272412109374994,0.5474535644531249,0.24740551757812546,0.6019797944193823
579,1787760911.6520576,0.081382763671875,0.5139232910156248,0.18992504882812544,0.5539059734680325
580,1787760911.6927147,0.067012646484375,0.5187133300781248,0.23782543945312545,0.5745564839427448
581,1787760911.7127147,0.038272412109374994,0.5330834472656248,0.26177563476562543,0.5951211828142384
582,1787760911.7217798,0.019112255859374993,0.48997309570312486,0.28093579101562544,0.5651228463887413
583,1787760911.7417798,0.028692333984374995,0.5043432128906249,0.28093579101562544,0.5780227029208146
584,1787760911.7527092,0.081382763671875,0.5043432128906249,0.22824536132812545,0.559536572155491
585,1787760911.7727091,0.057432568359375,0.5139232910156248,0.25698559570312546,0.5774575701777362
586,1787760911.8122919,0.047852490234374996,0.48518305664062483,0.24261547851562545,0.5445683884399981
587,1787760911.8322918,0.028692333984374995,0.5091332519531249,0.22345532226562545,0.5567514699780052
588,1787760911.8422842,0.028692333984374995,0.5426635253906249,0.24261547851562545,0.5951211828142384
589,1787760911.8622842,0.043062451171874995,0.5139232910156248,0.27135571289062543,0.5827567645833382
590,1787760911.8722937,0.043062451171874995,0.5282934082031249,0.26177563476562543,0.5911639221136129
591,1787760911.8922937,0.06222260742187499,0.5378734863281248,0.24261547851562545,0.5933311137842968
592,1787760911.9328232,0.076592724609375,0.5091332519531249,0.23782543945312545,0.5671367148743978
593,1787760911.9528232,0.105332958984375,0.46602290039062483,0.25698559570312546,0.5425071173134823
594,1787760911.9618518,0.114913037109375,0.46602290039062483,0.25698559570312546,0.5444482952357194
595,1787760911.9818518,0.100542919921875,0.49955317382812486,0.22345532226562545,0.5564121972755485
596,1787760911.9924047,0.057432568359375,0.5043432128906249,0.21866528320312545,0.5526980028691035
597,1787760912.0124047,0.023902294921874994,0.5187133300781248,0.22824536132812545,0.5672131728645559
598,1787760912.0534024,0.043062451171874995,0.5474535644531249,0.25219555664062543,0.6042866693239533
599,1787760912.0734024,0.076592724609375,0.5091332519531249,0.22824536132812545,0.563186522100146
600,1787760912.0824218,0.076592724609375,0.5043432128906249,0.23303540039062545,0.5608333261202876
601,1787760912.1024218,0.090962841796875,0.5330834472656248,0.24261547851562545,0.5927178677513708
602,1787760912.111973,0.090962841796875,0.5282934082031249,0.20908520507812545,0.5753996756352915
603,1787760912.131973,0.057432568359375,0.48518305664062483,0.30009594726562544,0.5733748127749833
604,1787760912.1719723,0.028692333984374995,0.5330834472656248,0.23303540039062545,0.5825003945177138
605,1787760912.1919723,0.090962841796875,0.5235033691406249,0.28093579101562544,0.6010448691761072
606,1787760912.2025526,0.114913037109375,0.5761937988281248,0.29051586914062544,0.655441660354466
607,1787760912.2225525,0.172393505859375,0.5139232910156248,0.25219555664062543,0.5978622489337254
608,1787760912.2325473,0.134073193359375,0.6288842285156249,0.21387524414062545,0.6776530189628651
609,1787760912.2525473,0.158023388671875,0.6193041503906248,0.22345532226562545,0.6770829366534284
610,1787760912.2920623,0.143653271484375,0.6240941894531249,0.3623664550781254,0.7358255686527913
611,1787760912.3120623,0.158023388671875,0.6240941894531249,0.38152661132812543,0.7483498538972383
612,1787760912.3230596,0.196343701171875,0.5282934082031249,0.32883618164062545,0.6525166729645538
613,1787760912.3430595,0.177183544921875,0.6145141113281248,0.25698559570312546,0.6892482847358906
614,1787760912.3520877,0.210713818359375,0.6049340332031249,0.27614575195312546,0.6975686160491626
615,1787760912.3720877,0.215503857421875,0.5714037597656249,0.3527863769531255,0.7052676066584318
616,1787760912.4126668,0.172393505859375,0.6240941894531249,0.33841625976562545,0.7305741872290552
617,1787760912.4326668,0.162813427734375,0.6959447753906248,0.32883618164062545,0.7867531868382296
618,1787760912.4427204,0.167603466796875,0.7294750488281249,0.3240461425781255,0.8156167430018153
619,1787760912.4627204,0.148443310546875,0.6767846191406248,0.36715649414062546,0.7841407579899616
620,1787760912.4726477,0.148443310546875,0.6576244628906248,0.32883618164062545,0.7500923843062833
621,1787760912.4926476,0.172393505859375,0.6480443847656249,0.27135571289062543,0.7234051205286862
622,1787760912.532256,0.191553662109375,0.6911547363281249,0.31446606445312547,0.7831197741782222
623,1787760912.5522559,0.181973583984375,0.6815746582031249,0.38152661132812543,0.8020105704567412
624,1787760912.5622537,0.153233349609375,0.6193041503906248,0.3623664550781254,0.7337080740249828
625,1787760912.5822537,0.12449311523437499,0.6576244628906248,0.30967602539062544,0.7374738711538718
626,1787760912.5928333,0.153233349609375,0.7151049316406248,0.29051586914062544,0.7869275652255325
627,1787760912.6128333,0.138863232421875,0.7198949707031249,0.30967602539062544,0.7958837897985108
628,1787760912.651836,0.148443310546875,0.6432543457031249,0.35757641601562545,0.7507812351162293
629,1787760912.671836,0.162813427734375,0.6049340332031249,0.31925610351562544,0.7031200867632752
630,1787760912.6819046,0.162813427734375,0.6145141113281248,0.29051586914062544,0.6989529851817965
631,1787760912.7019045,0.167603466796875,0.6288842285156249,0.28093579101562544,0.7088802533796515
632,1787760912.7125058,0.129283154296875,0.6097240722656249,0.29530590820312547,0.6896978742208789
633,1787760912.7325058,0.114913037109375,0.6528344238281248,0.32883618164062545,0.7399533940652524
634,1787760912.772507,0.129283154296875,0.6719945800781248,0.3527863769531255,0.7699019920762887
635,1787760912.792507,0.12449311523437499,0.6624145019531249,0.37194653320312543,0.7698283780820174
636,1787760912.802046,0.134073193359375,0.6336742675781248,0.30488598632812547,0.7158730077517431
637,1787760912.822046,0.167603466796875,0.6288842285156249,0.22824536132812545,0.6896972088720024
638,1787760912.83205,0.167603466796875,0.6240941894531249,0.30488598632812547,0.7145207792994953
639,1787760912.85205,0.138863232421875,0.6384643066406248,0.37194653320312543,0.7518403365971855
640,1787760912.892615,0.100542919921875,0.6624145019531249,0.3240461425781255,0.7442497925186046
641,1787760912.912615,0.110122998046875,0.6767846191406248,0.29530590820312547,0.7465722167505467
642,1787760912.9226165,0.153233349609375,0.6384643066406248,0.28093579101562544,0.714172282408228
643,1787760912.9426165,0.172393505859375,0.6145141113281248,0.3432062988281255,0.7246638375406779
644,1787760912.9526122,0.148443310546875,0.5953539550781248,0.3527863769531255,0.7077711325258996
645,1787760912.9726121,0.129283154296875,0.6145141113281248,0.30488598632812547,0.698066753015511
646,1787760913.0141773,0.11970307617187499,0.6145141113281248,0.25219555664062543,0.6749511228642261
647,1787760913.0341773,0.100542919921875,0.6528344238281248,0.29051586914062544,0.721596240222986
648,1787760913.0421736,0.100542919921875,0.6480443847656249,0.34799633789062545,0.7424094925025947
649,1787760913.0621736,0.129283154296875,0.6288842285156249,0.31446606445312547,0.7149114718294004
650,1787760913.1026902,0.181973583984375,0.6145141113281248,0.27614575195312546,0.6978527456500192
651,1787760913.1226902,0.172393505859375,0.6240941894531249,0.27614575195312546,0.7038959827228711
652,1787760913.1326952,0.100542919921875,0.6384643066406248,0.37194653320312543,0.7457142704564088
653,1787760913.1526952,0.090962841796875,0.6576244628906248,0.30488598632812547,0.7305474915700005
654,1787760913.1626918,0.158023388671875,0.6240941894531249,0.24261547851562545,0.6879878044644842
655,1787760913.1826918,0.196343701171875,0.6049340332031249,0.30009594726562544,0.7032450576310671
656,1787760913.2232172,0.153233349609375,0.6049340332031249,0.34799633789062545,0.7145117879679765
657,1787760913.2432172,0.110122998046875,0.6145141113281248,0.28572583007812546,0.6865813263511183
658,1787760913.2522151,0.11970307617187499,0.6384643066406248,0.28572583007812546,0.7096511447696942
659,1787760913.2722151,0.143653271484375,0.6384643066406248,0.30009594726562544,0.7199517420129702
660,1787760913.2822187,0.172393505859375,0.5857738769531249,0.30488598632812547,0.6824998318259536
661,1787760913.3022187,0.196343701171875,0.5714037597656249,0.28093579101562544,0.6663167597605043
662,1787760913.3417437,0.196343701171875,0.6097240722656249,0.31925610351562544,0.7157085670313212
663,1787760913.3617437,0.153233349609375,0.6528344238281248,0.3240461425781255,0.7447678476460108
664,1787760913.3727775,0.11970307617187499,0.6193041503906248,0.27614575195312546,0.6885658526661197
665,1787760913.3927774,0.12449311523437499,0.6336742675781248,0.27614575195312546,0.7023518274007617
666,1787760913.40233,0.158023388671875,0.6336742675781248,0.31446606445312547,0.7248471386786683
667,1787760913.42233,0.162813427734375,0.5953539550781248,0.36715649414062546,0.718163237201277
668,1787760913.462333,0.138863232421875,0.5953539550781248,0.31446606445312547,0.6874723520538516
669,1787760913.482333,0.138863232421875,0.6049340332031249,0.26177563476562543,0.6736131417980183
670,1787760913.4920301,0.158023388671875,0.5953539550781248,0.24261547851562545,0.662027184947774
671,1787760913.5120301,0.148443310546875,0.6240941894531249,0.30009594726562544,0.7082277538479568
672,1787760913.5220444,0.143653271484375,0.6384643066406248,0.30488598632812547,0.7219614933786506
673,1787760913.5420444,0.138863232421875,0.6288842285156249,0.31446606445312547,0.7167058503228376
674,1787760913.5830731,0.167603466796875,0.6193041503906248,0.30967602539062544,0.7124098493670059
675,1787760913.6030731,0.172393505859375,0.6193041503906248,0.26656567382812546,0.6959270148636153
676,1787760913.6125538,0.177183544921875,0.6145141113281248,0.25698559570312546,0.6892482847358906
677,1787760913.6325538,0.22029389648437497,0.6193041503906248,0.10849438476562544,0.6662117253884037
678,1787760913.6435645,0.201133740234375,0.5330834472656248,0.29051586914062544,0.6395562629134393
679,1787760913.6635644,0.158023388671875,0.48997309570312486,0.31446606445312547,0.6032693689993578
680,1787760913.7021134,0.129283154296875,0.6288842285156249,0.3623664550781254,0.7372373801066583
681,1787760913.7221134,0.134073193359375,0.7055248535156249,0.27614575195312546,0.7694136835458422
682,1787760913.7321262,0.196343701171875,0.6911547363281249,0.12286450195312544,0.7289316870454048
683,1787760913.7521262,0.205923779296875,0.6576244628906248,0.18034497070312544,0.712319342380931
684,1787760913.7621129,0.191553662109375,0.6193041503906248,0.19950512695312544,0.6782571281152517
685,1787760913.7821128,0.158023388671875,0.6672045410156249,0.22824536132812545,0.7226542990164935
686,1787760913.8227232,0.148443310546875,0.7390551269531248,0.07017407226562544,0.7570748295513176
687,1787760913.8427231,0.134073193359375,0.7007348144531249,0.16118481445312544,0.7314269927850108
688,1787760913.8517318,0.12449311523437499,0.6911547363281249,0.30009594726562544,0.7637087028801048
689,1787760913.8717318,0.181973583984375,0.7294750488281249,0.31446606445312547,0.814946095041599
690,1787760913.88175,0.22987397460937498,0.7342650878906248,0.08933422851562545,0.7745759277709452
691,1787760913.90175,0.181973583984375,0.7390551269531248,-0.054366943359374566,0.7630679068563029
692,1787760913.9422941,0.11970307617187499,0.7917455566406248,0.06059399414062544,0.8030326799272224
693,1787760913.962294,0.143653271484375,0.8156957519531248,0.19950512695312544,0.8519378603179459
694,1787760913.972294,0.143653271484375,0.8156957519531248,0.27614575195312546,0.8730706148326689
695,1787760913.992294,0.105332958984375,0.7917455566406248,0.27135571289062543,0.843557930214017
696,1787760914.0018413,0.052642529296875,0.8348559082031248,0.23782543945312545,0.869664626740394
697,1787760914.0218413,-0.03357817382812501,0.8827562988281249,0.28572583007812546,0.9284532443005384
698,1787760914.0628424,-0.04794829101562501,0.8923363769531248,0.10849438476562544,0.9001856918274251
699,1787760914.0828424,-0.04315825195312501,0.8492260253906249,-0.09268725585937457,0.8553586407531923
700,1787760914.0924668,-0.03836821289062501,0.9402367675781249,-0.13100756835937458,0.9500948804375368
701,1787760914.1124668,-0.11021879882812502,0.9546068847656248,-0.054366943359374566,0.9624854557796119
702,1787760914.1224654,-0.19643950195312504,0.9306566894531249,0.017483642578125437,0.9513233043026127
703,1787760914.1424654,-0.26350004882812506,0.8540160644531248,0.041433837890625436,0.8947024516557305
704,1787760914.1824787,-0.378460986328125,0.9402367675781249,0.07496411132812544,1.016315657296213
705,1787760914.2024786,-0.44073149414062507,0.9354467285156248,0.17555493164062544,1.0488681355829996
706,1787760914.2119923,-0.550902392578125,0.9114965332031248,0.26656567382812546,1.0978964589855733
707,1787760914.2319922,-0.5748525878906251,0.8875463378906249,0.22345532226562545,1.0807989085655307
708,1787760914.2419925,-0.670653369140625,0.7486352050781249,0.20429516601562545,1.0256544869883764
709,1787760914.2619925,-0.780824267578125,0.8109057128906249,0.37673657226562546,1.1870910061659217
710,1787760914.3025827,-0.809564501953125,0.8827562988281249,0.45816723632812545,1.2824081184973424
711,1787760914.3225827,-0.752084033203125,0.7821654785156249,0.30009594726562544,1.1258200594881531
712,1787760914.3325856,-0.689813525390625,0.6001439941406248,0.41026684570312544,1.002164855798734
713,1787760914.3525856,-0.589222705078125,0.6480443847656249,0.40068676757812544,0.9631691474076851
714,1787760914.3635817,-0.40720122070312503,0.5522436035156248,0.40547680664062546,0.796992642682175
715,1787760914.3835816,-0.25391997070312505,0.2792113769531248,0.42463696289062547,0.568111692182893
716,1787760914.4221826,-0.27787016601562503,0.11156000976562483,0.4533771972656255,0.5433307905327023
717,1787760914.4421825,-0.27787016601562503,0.010969189453124827,0.38152661132812543,0.4721172602546237
718,1787760914.4521792,-0.18685942382812504,-0.09441166992187518,0.42463696289062547,0.473441187418026
719,1787760914.4721792,-0.12458891601562501,-0.2189526855468752,0.5635480957031255,0.6172917727240145
720,1787760914.5117521,-0.08147856445312501,-0.37223393554687517,0.45816723632812545,0.5959144868876822
721,1787760914.531752,0.038272412109374994,-0.5111450683593752,0.41505688476562547,0.6595500557411287
722,1787760914.5427465,0.177183544921875,-0.5542554199218752,0.3336262207031255,0.6707455063170434
723,1787760914.5627465,0.153233349609375,-0.5398853027343752,0.25219555664062543,0.615271645966537
724,1787760914.5727396,0.114913037109375,-0.4871948730468752,0.29051586914062544,0.5787601581340879
725,1787760914.5927396,0.11970307617187499,-0.5925757324218752,0.20908520507812545,0.6396807391839255
726,1787760914.6322584,0.028692333984374995,-0.5542554199218752,0.07017407226562544,0.5594164110576185
727,1787760914.6522584,0.014322216796874994,-0.4584546386718752,0.15639477539062543,0.4846081998720415
728,1787760914.6622648,0.090962841796875,-0.4967749511718752,0.20429516601562545,0.5447899646257577
729,1787760914.6822648,0.162813427734375,-0.5590454589843752,0.10370434570312544,0.5914343824799
730,1787760914.6918058,0.215503857421875,-0.5063550292968751,0.15639477539062543,0.5720984653251845
731,1787760914.7118058,0.31130463867187497,-0.5015649902343752,0.05101391601562544,0.5925204107156856
732,1787760914.7528117,0.383155224609375,-0.5925757324218752,-0.19806811523437456,0.732928989106912
733,1787760914.7728117,0.464585888671875,-0.5255151855468752,-0.22680834960937457,0.7371894503083524
734,1787760914.7819345,0.517276318359375,-0.5925757324218752,-0.16932788085937459,0.8046071833056662
735,1787760914.8019345,0.546016552734375,-0.5590454589843752,-0.13579760742187458,0.7931625881573631
736,1787760914.8124614,0.699297802734375,-0.4632446777343752,-0.23638842773437457,0.8714886901877039
737,1787760914.8324614,0.876529248046875,-0.4297144042968752,-0.16453784179687458,0.9899649960099659
738,1787760914.8735018,1.207041943359375,-0.5782056152343752,0.13723461914062543,1.345401548686492
739,1787760914.8935018,1.4657040527343752,-0.7075366699218752,0.041433837890625436,1.6280704138361017
740,1787760914.9020298,1.5615048339843751,-0.7793872558593752,-0.054366943359374566,1.7460520054347808
741,1787760914.9220297,1.614195263671875,-0.8751880371093752,-0.14058764648437458,1.8415605707942626
742,1787760914.932029,1.7578964355468751,-0.7841772949218753,-0.07352709960937456,1.92627623729214
743,1787760914.952029,1.896807568359375,-0.8656079589843753,-0.049576904296874565,2.085572813277485
744,1787760914.9926054,2.0788290527343753,-1.0907397949218753,-0.05915698242187457,2.348349011388209
745,1787760915.0126054,2.150679638671875,-1.1003198730468753,-0.08310717773437457,2.4172367559282755
746,1787760915.0226195,2.0979892089843752,-1.1865405761718752,-0.10705737304687457,2.412653837797886
747,1787760915.0426195,2.2081601074218753,-1.2727612792968752,-0.15495776367187458,2.5534103161476014
748,1787760915.0526087,2.246480419921875,-1.1769604980468753,-0.19806811523437456,2.5438437981384805
749,1787760915.0726087,2.1985800292968753,-1.0715796386718752,0.027063720703125436,2.445970055462146
750,1787760915.1122022,2.150679638671875,-1.0907397949218753,0.12765454101562546,2.4148357895032766
751,1787760915.1322021,2.2416903808593753,-1.0763696777343752,0.16597485351562544,2.492246997948435
752,1787760915.1422026,2.303960888671875,-1.2536011230468753,0.05580395507812544,2.6235216091422697
753,1787760915.1622026,2.3183310058593753,-1.1721704589843753,0.012693603515625436,2.597845908674107
754,1787760915.1722047,2.4045517089843753,-1.1194800292968752,0.15160473632812543,2.6567063167108502
755,1787760915.1922047,2.529092724609375,-1.1578003417968752,0.23303540039062545,2.791257268503255
756,1787760915.231786,2.543462841796875,-1.2344409667968752,0.13244458007812543,2.830298446259672
757,1787760915.251786,2.442872021484375,-1.1194800292968752,-0.1741179199218746,2.6928008280197053
758,1787760915.2637713,2.5147226074218754,-1.2104907714843753,-0.42798999023437456,2.8235249479805087
759,1787760915.2837713,2.615313427734375,-1.2967114746093753,-0.5716911621093745,2.9745849724802476
760,1787760915.292284,2.529092724609375,-1.3398218261718753,-0.4231999511718746,2.8931869511371864
761,1787760915.312284,2.418921826171875,-1.2440210449218752,-0.23159838867187457,2.729910067195365
762,1787760915.3522844,2.4476620605468753,-1.3398218261718753,-0.1741179199218746,2.795798479605609
763,1787760915.3722844,2.423711865234375,-1.5026831542968753,-0.15974780273437458,2.8562134423680527
764,1787760915.3843236,2.347071240234375,-1.5984839355468752,-0.08789721679687457,2.8410597001220146
765,1787760915.4043236,2.270430615234375,-1.4835229980468752,-0.016046630859374564,2.712186047949047
766,1787760915.4148815,2.2177401855468752,-1.5122632324218752,-0.12142749023437457,2.6870162355499763
767,1787760915.4348814,2.236900341796875,-1.5362134277343753,-0.32739916992187457,2.7332883219938413
768,1787760915.4718816,2.308750927734375,-1.5984839355468752,-0.4854704589843746,2.8497654824673315
769,1787760915.4918816,2.303960888671875,-1.7326050292968753,-0.5525310058593746,2.9352080806154945
770,1787760915.5024846,2.418921826171875,-1.6847046386718754,-0.5094206542968746,2.991474874324949
771,1787760915.5224845,2.356651318359375,-1.4787329589843752,-0.3130290527343746,2.799722091238244
772,1787760915.532639,2.3374911621093752,-1.4978931152343753,-0.3609294433593746,2.799610469456365
773,1787760915.552639,2.342281201171875,-1.5697437011718753,-0.16932788085937459,2.8247209497520753
774,1787760915.59317,2.390181591796875,-1.5841138183593753,-0.08789721679687457,2.868816925494271
775,1787760915.61317,2.495562451171875,-1.5026831542968753,-0.20764819335937457,2.9204462642055233
776,1787760915.6221683,2.4716122558593754,-1.5170532714843752,0.022273681640625438,2.9001403222481397
777,1787760915.6421683,2.538672802734375,-1.6655444824218752,-0.049576904296874565,3.036668551506539
778,1787760915.6521688,2.5578329589843753,-1.5505835449218752,-0.044786865234374564,2.9914586139786015
779,1787760915.6721687,2.5338827636718753,-1.3398218261718753,-0.15974780273437458,2.870749683688639
780,1787760915.7118368,2.581783154296875,-1.4212524902343753,-0.27949877929687456,2.960351746741758
781,1787760915.7318368,2.509932568359375,-1.7086548339843752,-0.11663745117187457,3.0385633339499662
782,1787760915.7428432,2.4380819824218753,-1.8475659667968753,-0.05915698242187457,3.059614894597932
783,1787760915.7628431,2.4045517089843753,-1.8667261230468752,-0.10226733398437457,3.045815809802945
784,1787760915.772837,2.418921826171875,-1.7086548339843752,-0.2507585449218746,2.972131220299701
785,1787760915.792837,2.428501904296875,-1.6751245605468752,-0.4136198730468746,2.9790510556048253
786,1787760915.8323898,2.399761669921875,-1.7709253417968753,-0.3226091308593746,2.999851544653243
787,1787760915.8523898,2.3518612792968754,-1.8475659667968753,-0.3034489746093746,3.006132525174745
788,1787760915.8623965,2.2416903808593753,-1.8379858886718752,-0.28907885742187456,2.913234366885495
789,1787760915.8823965,2.2512704589843753,-1.9337866699218753,-0.2555485839843746,2.9787673026001333
790,1787760915.9220214,2.299170849609375,-2.039167529296875,-0.3417692871093746,3.0921185381293954
791,1787760915.9420214,2.2848007324218753,-2.0295874511718752,-0.32739916992187457,3.07355328980895
792,1787760915.9519646,2.299170849609375,-1.9864770996093752,-0.2651286621093746,3.0500116508692026
793,1787760915.9719646,2.3710214355468753,-2.0439575683593754,-0.2842888183593746,3.1432984779241857
794,1787760915.981945,2.399761669921875,-2.048747607421875,-0.3417692871093746,3.1738035662205584
795,1787760916.001945,2.3710214355468753,-2.015217333984375,-0.26991870117187455,3.1234115412888146
796,1787760916.0424914,2.3518612792968754,-1.9768970214843753,-0.20764819335937457,3.079365370139624
797,1787760916.0624914,2.366231396484375,-1.9768970214843753,-0.2651286621093746,3.0947481420519662
798,1787760916.0724924,2.356651318359375,-1.8523560058593753,-0.30823901367187456,3.0133103886453
799,1787760916.0924923,2.342281201171875,-1.8906763183593753,-0.2747087402343746,3.0226483517156413
800,1787760916.1030731,2.366231396484375,-1.9960571777343752,-0.2507585449218746,3.1058292171889703
801,1787760916.123073,2.385391552734375,-2.005637255859375,-0.24596850585937458,3.1262076335109814
802,1787760916.1620655,2.423711865234375,-2.005637255859375,-0.26033862304687455,3.1566970406453265
803,1787760916.1820655,2.385391552734375,-2.005637255859375,-0.22680834960937457,3.1247585009725416
804,1787760916.1925986,2.356651318359375,-2.0535376464843753,-0.2555485839843746,3.1362600945441352
805,1787760916.2125986,2.390181591796875,-2.125388232421875,-0.2938688964843746,3.211946778606858
806,1787760916.2225971,2.356651318359375,-2.1014380371093755,-0.3130290527343746,3.1729851004993495
807,1787760916.242597,2.299170849609375,-1.9864770996093752,-0.3226091308593746,3.0555448800958254
808,1787760916.2826385,2.299170849609375,-1.9577368652343752,-0.2555485839843746,3.03054868100937
809,1787760916.3026385,2.366231396484375,-2.0008472167968754,-0.2507585449218746,3.108909849854694
810,1787760916.3121908,2.409341748046875,-2.0679077636718755,-0.27949877929687456,3.187364074837456
811,1787760916.3321908,2.3614413574218753,-2.0631177246093753,-0.26991870117187455,3.147334766970642
812,1787760916.343193,2.3279110839843753,-2.048747607421875,-0.3034489746093746,3.1158655385054166
813,1787760916.363193,2.332701123046875,-2.048747607421875,-0.29865893554687456,3.1189835600982256
814,1787760916.4037359,2.3518612792968754,-2.0295874511718752,-0.28907885742187456,3.11994283358183
815,1787760916.4237359,2.4141317871093753,-2.0631177246093753,-0.2842888183593746,3.1883078840308756
816,1787760916.4327269,2.385391552734375,-2.1014380371093755,-0.2651286621093746,3.1900513931813896
817,1787760916.4527268,2.347071240234375,-2.1110181152343754,-0.30823901367187456,3.171774295111875
818,1787760916.461724,2.323121044921875,-2.0774878417968754,-0.3130290527343746,3.1322251371873837
819,1787760916.481724,2.3183310058593753,-2.0247974121093755,-0.2651286621093746,3.089458920310428
820,1787760916.5222974,2.289590771484375,-2.0104272949218753,-0.2555485839843746,3.0576705002026827
821,1787760916.5422974,2.3518612792968754,-2.005637255859375,-0.24117846679687457,3.1003224561315474
822,1787760916.5522983,2.409341748046875,-1.9577368652343752,-0.3513493652343746,3.124277143409318
823,1787760916.5722983,2.347071240234375,-2.0247974121093755,-0.2651286621093746,3.1110836013022953
824,1787760916.5823283,2.3518612792968754,-2.048747607421875,-0.3417692871093746,3.1377419399281457
825,1787760916.6023283,2.3183310058593753,-2.1014380371093755,-0.3752995605468746,3.1514362180894167
826,1787760916.6418653,2.3518612792968754,-2.1637085449218754,-0.2842888183593746,3.2083806315130445
827,1787760916.6618652,2.332701123046875,-2.178078662109375,-0.2651286621093746,3.2024700459601845
828,1787760916.6718652,2.332701123046875,-2.1062280761718752,-0.32739916992187457,3.159886304091393
829,1787760916.6918652,2.3374911621093752,-1.9960571777343752,-0.3848796386718746,3.097780096454322
830,1787760916.7024007,2.3614413574218753,-1.9768970214843753,-0.30823901367187456,3.0950829403500117
831,1787760916.7224007,2.4141317871093753,-1.9433667480468753,-0.27949877929687456,3.111723986888078
832,1787760916.7623968,2.418921826171875,-1.8379858886718752,-0.26033862304687455,3.049123009446743
833,1787760916.7823968,2.385391552734375,-1.7852954589843752,-0.28907885742187456,2.993482807957159
834,1787760916.7919848,2.2943808105468753,-1.6990747558593753,-0.2651286621093746,2.8672864414418453
835,1787760916.8119848,2.256060498046875,-1.6224341308593753,-0.3034489746093746,2.7953859769299143
836,1787760916.8219845,2.313540966796875,-1.5793237792968753,-0.29865893554687456,2.8170787288753534
837,1787760916.8419845,2.409341748046875,-1.6368042480468752,-0.2555485839843746,2.9239290148843025
838,1787760916.8819585,2.5147226074218754,-1.6751245605468752,-0.16453784179687458,3.0260444125969483
839,1787760916.9019585,2.6009433105468753,-1.6320142089843752,-0.3705095214843746,3.0928391145541365
840,1787760916.912509,2.505142529296875,-1.5984839355468752,-0.4902604980468746,3.0118508163982063
841,1787760916.932509,2.356651318359375,-1.4691528808593752,-0.3848796386718746,2.8036312096862126
842,1787760916.9445107,2.289590771484375,-1.4931030761718753,-0.40882983398437456,2.763824258178516
843,1787760916.9645107,2.323121044921875,-1.5170532714843752,-0.6195915527343746,2.8429273135449917
844,1787760917.002081,2.3279110839843753,-1.4547827636718753,-0.5812712402343746,2.805964924787496
845,1787760917.022081,2.2512704589843753,-1.3877222167968752,-0.4615202636718746,2.6845842479361886
846,1787760917.0331037,2.256060498046875,-1.3973022949218752,-0.6387517089843746,2.729517616717634
847,1787760917.0531037,2.303960888671875,-1.3206616699218752,-0.7489226074218746,2.759215122972131
848,1787760917.0620847,2.280010693359375,-1.3110815917968752,-0.6435417480468746,2.7076797601749276
849,1787760917.0820847,2.1554696777343754,-1.2871313964843751,-0.6387517089843746,2.5905135608945593
850,1787760917.1226933,2.1746298339843753,-1.1290601074218751,-0.5812712402343746,2.518266843634728
851,1787760917.1426933,2.2081601074218753,-1.0907397949218753,-0.4998405761718746,2.5130708230814816
852,1787760917.1526616,2.150679638671875,-1.1290601074218751,-0.40882983398437456,2.463197407339691
853,1787760917.1726615,2.0548788574218753,-1.0524194824218753,-0.2555485839843746,2.322804116673849
854,1787760917.182665,1.9926083496093752,-1.0476294433593751,-0.22680834960937457,2.262621822792974
855,1787760917.202665,1.9015976074218752,-1.0428394042968752,-0.13579760742187458,2.173022888486996
856,1787760917.2421753,1.7866366699218752,-0.9661987792968753,-0.025626708984374566,2.031321589418492
857,1787760917.2621753,1.805796826171875,-0.9422485839843753,-0.006466552734374565,2.036854532787564
858,1787760917.2721927,1.777056591796875,-0.8608179199218752,-0.15495776367187458,1.980643716126032
859,1787760917.2921927,1.733946240234375,-0.6740063964843752,-0.07831713867187456,1.8619848980951825
860,1787760917.3327734,1.7435263183593752,-0.6404761230468752,-0.13100756835937458,1.862057107065299
861,1787760917.3527734,1.7004159667968752,-0.7123267089843752,-0.20764819335937457,1.8552470381800032
862,1787760917.3627334,1.456123974609375,-0.6308960449218752,-0.03999682617187457,1.5874276660793372
863,1787760917.3827333,1.1495614746093752,-0.4201343261718752,0.12286450195312544,1.2300813476246872
864,1787760917.3922517,1.0346005371093752,-0.18063237304687518,0.09412426757812543,1.0544599107252355
865,1787760917.4122517,1.139981396484375,-0.08962163085937518,0.13723461914062543,1.1517043725448959
866,1787760917.4522521,1.0729208496093752,-0.11357182617187518,0.06059399414062544,1.0806152605587394
867,1787760917.4722521,0.9052694824218751,-0.3051733886718752,-0.0016765136718745644,0.9553253077648142
868,1787760917.4852812,0.6849276855468751,-0.18542241210937518,0.11807446289062544,0.7193392691407634
869,1787760917.5052812,0.488536083984375,0.26484125976562484,0.41026684570312544,0.6907440067870467
870,1787760917.515825,0.349624951171875,0.32232172851562485,0.6449787597656255,0.801327962637047
871,1787760917.535825,0.32088471679687497,0.24089106445312483,0.36715649414062546,0.543874431828529
872,1787760917.5718307,0.148443310546875,0.27442133789062484,0.17555493164062544,0.35799723624511565
873,1787760917.5918307,-0.21080961914062504,0.6240941894531249,0.38631665039062546,0.7636588290594177
874,1787760917.602341,-0.488631884765625,0.7151049316406248,0.6928791503906254,1.1091517926381333
875,1787760917.622341,-0.5365322753906251,0.6719945800781248,0.8126301269531255,1.183136222681932
876,1787760917.6323404,-0.526952197265625,0.5091332519531249,0.5779182128906255,0.9332120590938207
877,1787760917.6523404,-0.790404345703125,0.6049340332031249,0.48690747070312546,1.1080447189803755
878,1787760917.6929007,-1.010746142578125,0.5953539550781248,0.3527863769531255,1.2249540090662334
879,1787760917.7129006,-1.116127001953125,0.38938227539062487,0.39110668945312543,1.2451194655181628
880,1787760917.7218928,-1.101756884765625,0.39896235351562487,0.5683381347656254,1.3023238568344093
881,1787760917.7418928,-0.910155322265625,0.46602290039062483,0.5779182128906255,1.1745422577019646
882,1787760917.7558975,-0.747293994140625,0.20257075195312482,0.30488598632812547,0.8321290091595034
883,1787760917.7758975,-1.140077197265625,0.08281977539062484,0.30488598632812547,1.1830429390263355
884,1787760917.8124251,-1.341258837890625,0.13551020507812483,0.7120393066406254,1.5245780596943168
885,1787760917.832425,-1.298148486328125,0.20257075195312482,0.7311994628906254,1.5036213142391923
886,1787760917.8424246,-1.187977587890625,0.26005122070312486,0.4821174316406255,1.3081875265463152
887,1787760917.8624246,-1.192767626953125,0.07323969726562483,0.17555493164062544,1.2078403036768952
888,1787760917.8724241,-1.240668017578125,-0.11836186523437518,0.3336262207031255,1.290183365310391
889,1787760917.892424,-1.216717822265625,-0.022561083984375174,0.5348078613281254,1.3292594592733649
890,1787760917.9330013,-1.164027392578125,0.05886958007812483,0.48690747070312546,1.2631327258674434
891,1787760917.9530013,-0.938895556640625,-0.0034009277343751746,0.20908520507812545,0.9619007514143677
892,1787760917.9620001,-0.867044970703125,-0.16147221679687518,-0.09747729492187457,0.8873229857521815
893,1787760917.982,-0.895785205078125,-0.051301318359375174,-0.016046630859374564,0.8973964860997649
894,1787760917.9925268,-0.881415087890625,0.08760981445312482,0.20908520507812545,0.9101014557357388
895,1787760918.0125268,-0.828724658203125,0.04928950195312483,0.23782543945312545,0.8635826270645709
896,1787760918.0525212,-0.814354541015625,-0.07525151367187517,0.11328442382812544,0.8256327691321051
897,1787760918.0725212,-0.809564501953125,0.025339306640624826,0.15160473632812543,0.8240271593586946
898,1787760918.082531,-0.685023486328125,0.13072016601562483,0.28572583007812546,0.7536472574076849
899,1787760918.102531,-0.41678129882812504,0.025339306640624826,0.23303540039062545,0.4781780310188932
900,1787760918.1130874,-0.28745024414062503,-0.060881396484375176,0.15639477539062543,0.3328565953438159
901,1787760918.1330874,-0.39762114257812503,-0.008190966796875174,0.18034497070312544,0.4366852109015284
902,1787760918.1720846,-0.45510161132812504,0.039709423828124826,0.3527863769531255,0.5771936787057964
903,1787760918.1920846,-0.44552153320312504,0.13072016601562483,0.37194653320312543,0.5949129532231076
904,1787760918.2025857,-0.512582080078125,0.10197993164062483,0.3623664550781254,0.6359636334261032
905,1787760918.2225857,-0.45510161132812504,-0.012981005859375176,0.3240461425781255,0.5588308202545201
906,1787760918.2325847,-0.39762114257812503,-0.11836186523437518,0.21387524414062545,0.4667491020056773
907,1787760918.2525847,-0.34493071289062505,-0.027351123046875175,0.07496411132812544,0.35404081489903916
908,1787760918.2951996,-0.36409086914062505,0.07323969726562483,0.022273681640625438,0.3720515167835821
909,1787760918.3151996,-0.33535063476562504,-0.18063237304687518,0.017483642578125437,0.38130536343992427
910,1787760918.322203,-0.17248930664062503,-0.18063237304687518,-0.016046630859374564,0.25027606649427364
911,1787760918.342203,0.03348237304687499,-0.14710209960937518,-0.16453784179687458,0.2232326105153769
912,1787760918.3531988,0.071802685546875,-0.2476929199218752,-0.26991870117187455,0.37331422886554916
913,1787760918.3731987,0.067012646484375,-0.34349370117187517,-0.17890795898437456,0.39304793005630745
914,1787760918.412772,0.181973583984375,-0.3674438964843752,-0.2555485839843746,0.4831505780894374
915,1787760918.432772,0.23466401367187498,-0.4440845214843752,-0.34655932617187457,0.6102307990353356
916,1787760918.441814,0.23945405273437498,-0.4680347167968752,-0.2747087402343746,0.5931775716083718
917,1787760918.461814,0.23945405273437498,-0.3818140136718752,-0.1741179199218746,0.4831534274379765
918,1787760918.4717762,0.282564404296875,-0.4057642089843752,-0.22201831054687457,0.5420141751711407
919,1787760918.4917762,0.306514599609375,-0.4824048339843752,-0.19806811523437456,0.604893876558265
920,1787760918.532365,0.277774365234375,-0.4871948730468752,-0.18369799804687456,0.5901376083516032
921,1787760918.552365,0.23466401367187498,-0.4153442871093752,-0.14537768554687458,0.4987110863034378
922,1787760918.5623634,0.325674755859375,-0.4153442871093752,-0.21243823242187457,0.5689507237300864
923,1787760918.5823634,0.378365185546875,-0.18542241210937518,-0.27949877929687456,0.5056295602264795
924,1787760918.592877,0.584336865234375,-0.056091357421875175,-0.17890795898437456,0.6136805930101744
925,1787760918.612877,0.7424081542968751,-0.2189526855468752,-0.2555485839843746,0.8151166940083491
926,1787760918.6518767,0.680137646484375,-0.2141626464843752,-0.42798999023437456,0.8316419235796836
927,1787760918.6718767,0.517276318359375,-0.051301318359375174,-0.3896696777343746,0.6496530401271519
928,1787760918.681895,0.397525341796875,0.07323969726562483,-0.18848803710937456,0.4460024560017889
929,1787760918.701895,0.507696240234375,0.06365961914062483,-0.16453784179687458,0.5374762514199328
930,1787760918.7424083,0.7998886230468751,-0.2237427246093752,-0.3034489746093746,0.8842872249936293
931,1787760918.7624083,0.7232479980468751,-0.2572729980468752,-0.4519401855468746,0.8908013210110229
932,1787760918.772403,0.603497021484375,-0.14710209960937518,-0.5285808105468746,0.8156257450132319
933,1787760918.792403,0.565176708984375,-0.16147221679687518,-0.4998405761718746,0.7715818756059123
934,1787760918.8019326,0.493326123046875,-0.3482837402343752,-0.32739916992187457,0.6869224438447463
935,1787760918.8219326,0.6609774902343751,-0.6979565917968752,-0.3321892089843746,1.0170468608647822
936,1787760918.8924446,0.838208935546875,-0.8560278808593752,-0.28907885742187456,1.2324546799974248
937,1787760918.9124446,0.8238388183593751,-0.7841772949218753,-0.12621752929687458,1.1443667651625369
938,1787760918.8964531,0.7807284667968751,-0.6165259277343752,0.022273681640625438,0.9950564181640955
939,1787760918.9164531,0.857369091796875,-0.7554370605468752,0.07975415039062544,1.1454813994652344
940,1787760918.9224386,1.048970654296875,-1.1146899902343752,0.15160473632812543,1.538134325727713
941,1787760918.9424386,1.1543515136718752,-1.1003198730468753,0.012693603515625436,1.5948016703366765
942,1787760918.9824507,1.1543515136718752,-1.1290601074218751,-0.22201831054687457,1.629906829701052
943,1787760919.0024507,1.168721630859375,-1.2583911621093753,-0.26033862304687455,1.7370189308017123
944,1787760919.012005,1.2645224121093752,-1.4595728027343753,-0.22201831054687457,1.9438780382078709
945,1787760919.032005,1.298052685546875,-1.6942847167968753,-0.4711003417968746,2.1857440399250905
946,1787760919.042002,1.3890634277343752,-1.7373950683593753,-0.4854704589843746,2.2767785128060103
947,1787760919.062002,1.403433544921875,-1.5505835449218752,-0.6004313964843746,2.1758798006044926
948,1787760919.102558,1.460914013671875,-1.7134448730468752,-0.5381608886718746,2.315119917069004
949,1787760919.1225579,1.5471347167968752,-2.0104272949218753,-0.5285808105468746,2.591301104341876
950,1787760919.1325386,1.456123974609375,-1.9337866699218753,-0.4040397949218746,2.45419560550504
951,1787760919.1525385,1.2405722167968751,-1.9960571777343752,-0.3657194824218746,2.378447901825086
952,1787760919.1625357,1.2693124511718752,-2.0104272949218753,-0.8064030761718746,2.5106289905372927
953,1787760919.1825356,1.130401318359375,-2.0247974121093755,-0.5908513183593745,2.393055992040397
954,1787760919.2220483,1.144771435546875,-2.1445483886718755,-0.5669011230468746,2.496190360191105
955,1787760919.2420483,1.2309921386718752,-2.6235522949218755,-0.8064030761718746,3.008098105268719
956,1787760919.2520494,1.3842733886718752,-2.8917944824218753,-0.8159831542968746,3.3082497867070124
957,1787760919.2720494,1.374693310546875,-2.494221240234375,-0.6195915527343746,2.914586589126908
958,1787760919.2820985,1.6764657714843751,-2.7528833496093754,-0.5237907714843746,3.2654648967348328
959,1787760919.3020985,2.1410995605468752,-3.2989478027343755,-0.9261540527343746,4.0404362713370805
960,1787760919.342586,2.280010693359375,-3.5480298339843754,-1.6446599121093746,4.526794748072406
961,1787760919.362586,2.0117685058593753,-3.2318872558593754,-0.8782536621093746,3.906870518812011
962,1787760919.3725965,1.5567147949218751,-2.8726343261718754,0.18034497070312544,3.272294796177067
963,1787760919.3925965,1.3220028808593751,-2.834314013671875,0.38152661132812543,3.150649155372395
964,1787760919.4021533,1.326792919921875,-3.4378589355468754,-0.020836669921874565,3.685062778283125
965,1787760919.4221532,1.417803662109375,-3.8498022949218753,-0.46631030273437457,4.1289938523462
966,1787760919.4621542,1.3172128417968751,-3.322897998046875,-0.5860612792968746,3.622177328501411
967,1787760919.4821541,1.1591415527343751,-2.647502490234375,-0.5573210449218746,2.9433799146874478
968,1787760919.4927213,1.0729208496093752,-2.4271606933593755,-0.4423601074218746,2.690343964171414
969,1787760919.5127213,1.1495614746093752,-2.484641162109375,-0.23159838867187457,2.747466305887975
970,1787760919.5217311,1.2309921386718752,-2.3457300292968752,-0.3034489746093746,2.6664343787178706
971,1787760919.541731,1.259732373046875,-2.1445483886718755,-0.7920329589843746,2.6102355547296865
972,1787760919.5827253,1.1591415527343751,-2.0104272949218753,-1.0171647949218747,2.533782008672176
973,1787760919.6027253,1.044180615234375,-2.0966479980468753,-0.9644743652343746,2.5330725978817616
974,1787760919.6122756,1.063340771484375,-2.278669482421875,-0.8543034667968746,2.6557226172555977
975,1787760919.6322756,1.139981396484375,-2.278669482421875,-0.7345524902343746,2.6516899432929115
976,1787760919.6422787,1.2693124511718752,-2.288249560546875,-0.6387517089843746,2.6935559945494694
977,1787760919.6622787,1.341163037109375,-2.2595093261718753,-0.7393425292968746,2.729602180317349
978,1787760919.7028701,1.374693310546875,-2.2642993652343755,-0.6195915527343746,2.7204277247673603
979,1787760919.72287,1.3603231933593751,-2.3457300292968752,-0.4950505371093746,2.756447640538243
980,1787760919.7328603,1.4273837402343752,-2.4654810058593752,-0.8399333496093746,2.9701025174099387
981,1787760919.7528603,1.417803662109375,-2.5325415527343753,-1.0554851074218745,3.0883624710526387
982,1787760919.7638657,1.2741024902343752,-2.6427124511718754,-0.8207731933593746,3.0464626848424783
983,1787760919.7838657,1.173511669921875,-2.484641162109375,-0.45673022460937457,2.785529364764045
984,1787760919.8225083,1.125611279296875,-2.3792603027343753,-0.2842888183593746,2.6473950352171074
985,1787760919.8425083,1.1543515136718752,-2.5804419433593755,-0.3848796386718746,2.8529529222244543
986,1787760919.852502,1.2788925292968751,-2.6331323730468754,-0.3321892089843746,2.946065489096346
987,1787760919.872502,1.302842724609375,-2.4367407714843754,-0.42798999023437456,2.7961187714799722
988,1787760919.8825107,1.2741024902343752,-2.5660718261718753,-0.6243815917968746,2.9322200028083327
989,1787760919.9025106,1.183091748046875,-2.4271606933593755,-0.6148015136718746,2.769259109743724
990,1787760919.9420207,1.1160312011718752,-2.1493384277343752,-0.7153923339843746,2.5252658296600035
991,1787760919.9620206,1.2022519042968751,-2.178078662109375,-0.7393425292968746,2.595392778626913
992,1787760919.972021,1.254942333984375,-2.2595093261718753,-0.5621110839843746,2.6450390408124265
993,1787760919.992021,1.1926718261718752,-2.355310107421875,-0.6195915527343746,2.711797462807205
994,1787760920.0025358,1.1543515136718752,-2.3840503417968755,-0.8447233886718746,2.780248379678989
995,1787760920.0225358,1.125611279296875,-2.1828687011718753,-0.9405241699218746,2.6299243777803514
996,1787760920.062545,1.163931591796875,-2.5085913574218752,-0.8782536621093746,2.9015679974667252
997,1787760920.082545,1.1160312011718752,-2.494221240234375,-0.9932145996093746,2.9074284992244697
998,1787760920.0920475,0.9675399902343751,-2.4127905761718753,-0.7872429199218746,2.71614495418298
999,1787760920.1120474,0.876529248046875,-2.5373315917968755,0.07975415039062544,2.6856499872315114
1000,1787760920.152378,1.0393905761718751,-2.714563037109375,0.036643798828125435,2.9069791915780776
1001,1787760920.172378,1.259732373046875,-2.9780151855468753,-0.3561394042968746,3.253050164436914
