imu_index,t_imu,ax,ay,az,mag,vx,vy,vz,velocity
0,1791341557.2812395,0.16017890625,-0.0925435546875,0.010011181640625698,0.18526147813154842,0.0,0.0,0.0,0.0
1,1791341557.3012395,0.064378125,-0.030273046875000004,0.019591259765625698,0.07378900869923512,0.0005410631363452411,-0.00030221764635283033,5.7167864181599066e-05,0.0006223768857966041
2,1791341557.3260124,0.0691681640625,-0.0159029296875,-0.013939013671874303,0.07232865403536266,0.0013588451417127507,-0.0007062004476100701,0.00012785864683952748,0.0015367260734863075
3,1791341557.3460124,0.1841291015625,-0.106913671875,-0.023519091796874305,0.2142129943653242,0.002299980149986156,-0.001167651737723395,0.00012018193098863016,0.0025822011864831446
4,1791341557.3556144,0.1458087890625,-0.1404439453125,-0.004358935546874303,0.20249371610475947,0.0029216528906907966,-0.0015341005209573528,9.697264517461132e-05,0.003301351801307408
5,1791341557.3756144,0.011687695312499989,-0.039853125,-0.009148974609374303,0.042527373894780236,0.004258537844794231,-0.0024533250867592917,3.5619921095768396e-05,0.004914795757266628
6,1791341557.4013786,0.04042792968749999,-0.0159029296875,-0.05225932617187431,0.06795850089136281,0.005823104960835493,-0.0035675966076756513,-0.0001502204316087822,0.00683072932548776
7,1791341557.4213786,0.188919140625,-0.07338339843750001,-0.018729052734374304,0.20353462181420728,0.007199471976066158,-0.004436754622860773,-0.00037932575039303343,0.008465286548165375
8,1791341557.445685,0.150598828125,-0.07817343750000001,0.019591259765625698,0.17080664747718083,0.009240216583045451,-0.005610894950147808,-0.00061442403122194,0.010827800401435434
9,1791341557.465685,-0.036212695312500015,0.01762734375,0.0387514160156257,0.05589056085505598,0.010839105784462235,-0.006522915451669265,-0.0006913393809150935,0.012669356350501489
10,1791341557.4762204,-0.02184257812500001,0.05594765625,-0.013939013671874303,0.06165658570793222,0.01150914863590516,-0.006873144083250923,-0.0007061730745846368,0.013423832996717186
11,1791341557.4962204,0.16017890625,-0.0159029296875,-0.0666294433593743,0.1742115607601055,0.012797829975183193,-0.007378203827503266,-0.0008509612022126902,0.014796840161384205
12,1791341557.5207765,0.150598828125,-0.07338339843750001,-0.004358935546874303,0.16758320476098426,0.014715109607573853,-0.008069742966672256,-0.001132807713498628,0.016820774525176618
13,1791341557.5407765,0.02605781249999999,0.012837304687499999,0.0243812988281257,0.03792431563616183,0.016307407816873058,-0.008639307645700717,-0.0012978937162184698,0.01850010038895667
14,1791341557.5661578,0.03563789062499999,-0.0159029296875,-0.004358935546874303,0.039267833400212386,0.01814247560772153,-0.009259537009052323,-0.0014378586502984219,0.02041949765045699
15,1791341557.5861578,0.1649689453125,-0.126073828125,-0.042679248046874306,0.211969057339644,0.0196724829773425,-0.009887921091417156,-0.0016021620065277608,0.022075880347091115
16,1791341557.595742,0.1745490234375,-0.145233984375,-0.018729052734374304,0.2278399640465861,0.020539748743123813,-0.010338899663507569,-0.001713228584000396,0.0230588221048641
17,1791341557.615742,0.09311835937499999,-0.030273046875000004,-0.018729052734374304,0.09969084028191641,0.022479564756317003,-0.01140208458987124,-0.0019664203723225716,0.025282507267055495
18,1791341557.6412604,0.0691681640625,0.0032572265624999986,-0.04746928710937431,0.08395342556041761,0.02489395787689197,-0.012606849621770465,-0.0023677111823995475,0.028004425586068814
19,1791341557.6612604,0.05479804687499999,-0.05901328125000001,-0.033099169921874304,0.08706864162672694,0.026688339205548202,-0.013493079871388754,-0.0027558976225630074,0.030032076612717375
20,1791341557.6863441,0.0883283203125,-0.12128378906250001,-0.013939013671874303,0.15068492214129886,0.028870521653547233,-0.014777045886609962,-0.0032582204703908105,0.03259576822712712
21,1791341557.7063441,0.0883283203125,-0.09733359375,-0.028309130859374303,0.13445120873956776,0.030614432815861247,-0.015975151548862216,-0.003662030956655995,0.03472548681262084
22,1791341557.715759,0.11706855468749999,-0.030273046875000004,-0.042679248046874306,0.1282303477245646,0.031457265659218636,-0.016544659882329147,-0.0038737355030660577,0.03575319790066788
23,1791341557.735759,0.0691681640625,-0.049433203125000005,-0.023519091796874305,0.08821011376210909,0.03325847705157755,-0.01769254879592122,-0.004355296091249021,0.037922568250697536
24,1791341557.7611423,0.04042792968749999,-0.030273046875000004,0.005221142578125697,0.05077534042952846,0.03541024588957899,-0.019082618306064794,-0.004909632688253989,0.040523281314683496
25,1791341557.7811422,0.064378125,0.008047265625,0.00043110351562569704,0.06488056190259234,0.037008564938932835,-0.020046932058048233,-0.0052724117151659484,0.0424182942735022
26,1791341557.8058083,0.02605781249999999,0.01762734375,0.014801220703125699,0.03476793025574655,0.038851399650331186,-0.021010333976958354,-0.005624537120161139,0.044525282777643935
27,1791341557.8258083,0.00689765624999999,-0.020692968750000002,0.010011181640625698,0.02400000781819126,0.04017092402981947,-0.0216789140001465,-0.005830005204226433,0.04601812045614839
28,1791341557.8363593,0.169758984375,-0.07817343750000001,-0.023519091796874305,0.18836758422177555,0.040902413555894405,-0.02205695186044145,-0.005932829687839238,0.04684778573397202
29,1791341557.8563592,0.20807929687499999,-0.07817343750000001,-0.018729052734374304,0.2230669350999555,0.04264776380344162,-0.022900575563792536,-0.006161875103961311,0.048797918227972956
30,1791341557.8813405,0.10748847656249999,-0.030273046875000004,0.0243812988281257,0.1143008210529103,0.04509205619847076,-0.023999439448542353,-0.006394463652878794,0.051479663863105055
31,1791341557.9013405,0.064378125,0.0367875,0.0339613769531257,0.08155512405310852,0.04701321993623321,-0.024737455039559292,-0.006465228428918211,0.053516200437296976
32,1791341557.9258444,0.150598828125,-0.006322851562500001,0.005221142578125697,0.15082190097703257,0.0494090395785442,-0.02545005047692177,-0.006466914714173386,0.055953366719728365
33,1791341557.9458444,0.20807929687499999,-0.087753515625,-0.013939013671874303,0.22625642398545548,0.05160919240732083,-0.02608553876792065,-0.006481161394272514,0.05818908425784996
34,1791341557.9704676,0.14101875,-0.1117037109375,-0.033099169921874304,0.18291955045398556,0.05455631174842924,-0.027118912776801896,-0.006582937471384956,0.06127937375283588
35,1791341557.9904675,0.064378125,-0.06859335937500001,-0.028309130859374303,0.0982394972446251,0.056899116771182943,-0.02810280613594052,-0.006745316687969838,0.0638183084958852
36,1791341558.0010633,0.11227851562499999,-0.09733359375,-0.028309130859374303,0.1512669839497588,0.05809451946175244,-0.028677734470754595,-0.006863433276594976,0.06514976870418888
37,1791341558.0210633,0.10748847656249999,-0.1117037109375,-0.018729052734374304,0.15614822780698678,0.060342083266587965,-0.029913709744211266,-0.007123497683526807,0.06772548458933289
38,1791341558.045947,0.04042792968749999,-0.054223242187500006,0.010011181640625698,0.0683725182363742,0.0629950710125797,-0.03153049440160642,-0.007414801462896856,0.07083452780829326
39,1791341558.065947,0.09311835937499999,-0.020692968750000002,-0.004358935546874303,0.09548941369325674,0.06500784834223967,-0.032747417409394644,-0.007605334910894246,0.07318643871769977
40,1791341558.1353893,0.16017890625,-0.054223242187500006,-0.009148974609374303,0.16935508772154897,0.07226737215713352,-0.036729097924155824,-0.008238007656343995,0.08148290914643296
41,1791341558.1553893,0.08353828125,-0.039853125,0.0243812988281257,0.09571501313282096,0.07441013291610155,-0.03784495729133883,-0.008370042177008477,0.08389973944548373
42,1791341558.136391,0.02605781249999999,0.01762734375,0.010011181640625698,0.033014490724641216,0.07441013291610155,-0.03784495729133883,-0.008370042177008477,0.08389973944548373
43,1791341558.156391,0.131438671875,-0.054223242187500006,-0.028309130859374303,0.14497479555978474,0.07633425695198746,-0.038734397323502597,-0.008449033645062616,0.08601545494829642
44,1791341558.1665745,0.1649689453125,-0.13565390625,-0.018729052734374304,0.21440035591092052,0.07739340881489115,-0.03926437105737701,-0.008519147588013837,0.08720095434194869
45,1791341558.1865745,0.064378125,-0.06859335937500001,0.019591259765625698,0.09609063111494144,0.0795055280597056,-0.040455455220254365,-0.00863489924125614,0.08962329124751715
46,1791341558.2110746,0.05958808593749999,-0.0015328125000000014,0.010011181640625698,0.06044264436386484,0.08193257527067063,-0.04182453698271403,-0.008701031634296313,0.09240101046960227
47,1791341558.2310746,0.10269843749999999,-0.0159029296875,-0.028309130859374303,0.10770923417980537,0.08386006774626308,-0.042800659662603914,-0.00877436602461824,0.09455896006775803
48,1791341558.2410636,0.10269843749999999,-0.049433203125000005,-0.018729052734374304,0.11550492652898356,0.08483223218860077,-0.04326400513324559,-0.008840738871773522,0.095637024326717
49,1791341558.2610636,0.0691681640625,-0.07338339843750001,-0.013939013671874303,0.10180203430265278,0.08674452592457871,-0.044236781986010686,-0.00900269864854511,0.09778831341890637
50,1791341558.2859566,0.14101875,-0.0925435546875,-0.009148974609374303,0.168920990709159,0.08916006191449521,-0.0455757185874457,-0.009217149650944872,0.10055654435712563
51,1791341558.3059566,0.14101875,-0.087753515625,-0.023519091796874305,0.1677501565872873,0.09123273804513751,-0.046760551874598225,-0.009412604799524778,0.10294930224116
52,1791341558.33099,0.0691681640625,-0.07338339843750001,-0.018729052734374304,0.10256771179245819,0.09383253536464557,-0.04832366029570516,-0.009699875493210676,0.10598966186339101
53,1791341558.35099,0.0883283203125,-0.1117037109375,-0.037889208984374305,0.14736079317069975,0.09583427643015272,-0.049662782114463844,-0.009979885482551062,0.10839833292299503
54,1791341558.3604996,0.150598828125,-0.0925435546875,-0.042679248046874306,0.18184013517556627,0.09681370072323267,-0.050349670021084994,-0.010150516246782324,0.10959477587474688
55,1791341558.3804996,0.131438671875,-0.044643164062500004,0.010011181640625698,0.13917384926636472,0.0989876463133417,-0.0517833804323365,-0.010504550201706937,0.11220703269668753
56,1791341558.4058065,0.0787482421875,-0.07338339843750001,0.00043110351562569704,0.10764104544317292,0.10172476382445707,-0.05354941873617079,-0.010865510327024158,0.11547089302845977
57,1791341558.4258065,0.0691681640625,-0.0925435546875,-0.018729052734374304,0.1170441021594091,0.10378530197094583,-0.05498464842430199,-0.011135432856232804,0.11797753316814256
58,1791341558.4506662,0.11706855468749999,-0.011112890625000002,-0.009148974609374303,0.1179501868208201,0.10630957015704508,-0.056694286326719974,-0.0114725938397077,0.12102721685010646
59,1791341558.4706662,0.073958203125,0.0224173828125,-0.004358935546874303,0.07740384474134818,0.10832230042129054,-0.05784644489601869,-0.011723419163937517,0.1233587066751343
60,1791341558.4807363,0.03563789062499999,-0.020692968750000002,-0.023519091796874305,0.04744898189463857,0.10926647994637245,-0.05833824224309451,-0.011851822205130836,0.1244306225873158
61,1791341558.5007362,0.05958808593749999,-0.049433203125000005,-0.042679248046874306,0.08840757756402456,0.11100325127718125,-0.05927366734107612,-0.012167885367920434,0.12642447100341153
62,1791341558.5254064,0.09311835937499999,-0.006322851562500001,-0.033099169921874304,0.09902808871269891,0.11310677001286026,-0.060357606196800744,-0.012639481397831108,0.12882522477588101
63,1791341558.5454063,0.05479804687499999,0.0319974609375,0.019591259765625698,0.06641145162519609,0.11477816222924087,-0.06106602785468862,-0.012984716269626287,0.13065867418305696
64,1791341558.5701478,0.01647773437499999,0.06552773437500001,0.014801220703125699,0.06916990557139897,0.1166679092512779,-0.06162997268381527,-0.013283915640083412,0.1326126577548504
65,1791341558.5901477,0.10269843749999999,0.0032572265624999986,-0.018729052734374304,0.10444307543417052,0.11814513074936955,-0.06191428548319153,-0.013495389206604848,0.13406631268337887
66,1791341558.6151593,0.1745490234375,-0.039853125,-0.033099169921874304,0.1820746775495364,0.1202354834936455,-0.06228515653726454,-0.013817406570470283,0.13611367653603337
67,1791341558.6351593,0.10748847656249999,0.0224173828125,0.010011181640625698,0.11025667963316726,0.12207932204813933,-0.0625633858491627,-0.01407090909254324,0.13789680418100755
68,1791341558.6459503,0.04521796874999999,0.051157617187500004,0.019591259765625698,0.07103227402655075,0.12304853431284915,-0.06263144111469167,-0.014163212441966635,0.13879566203350802
69,1791341558.6659503,0.11227851562499999,-0.011112890625000002,-0.018729052734374304,0.11437105763838835,0.12481165270182527,-0.06267858672444117,-0.014307331628052533,0.14039677212190246
70,1791341558.690553,0.11706855468749999,-0.07338339843750001,-0.028309130859374303,0.14103750051979166,0.12707838438135416,-0.06288379527649143,-0.01454481942521691,0.14253013455919786
71,1791341558.710553,0.0787482421875,-0.054223242187500006,-0.004358935546874303,0.09571021868143045,0.1289383795683611,-0.0632170004237429,-0.014757921216927969,0.14435820415527248
72,1791341558.7360399,0.08353828125,-0.039853125,-0.004358935546874303,0.09266021975784178,0.13126333345677468,-0.06375775593476028,-0.015005416670287963,0.14669790960156806
73,1791341558.7560399,0.1266486328125,-0.05901328125000001,-0.028309130859374303,0.14256174257906723,0.13312937516985915,-0.06426674337536828,-0.015219500042720699,0.14861116384290557
74,1791341558.7658722,0.11706855468749999,-0.07338339843750001,-0.009148974609374303,0.13846975626200844,0.13408887445521414,-0.0645770704446992,-0.01533658316423966,0.14961696114759002
75,1791341558.7858722,0.11227851562499999,-0.006322851562500001,0.019591259765625698,0.11415016855896008,0.1360918489880211,-0.0652331787371336,-0.015523354026951784,0.15171464494034595
76,1791341558.8109684,0.10748847656249999,0.0032572265624999986,0.0243812988281257,0.11026708416908887,0.13864184712726038,-0.06593874651235858,-0.015639795960039587,0.15431812364123468
77,1791341558.8309684,0.08353828125,0.008047265625,0.019591259765625698,0.08618132267172297,0.14065573873848292,-0.0663997366996798,-0.01565271417462245,0.15632648315268782
78,1791341558.8556511,0.09790839843749999,-0.020692968750000002,-0.004358935546874303,0.10016613079971959,0.14310424328095916,-0.0669067336615415,-0.015638067432767012,0.15874471521063047
79,1791341558.8756511,0.10748847656249999,0.008047265625,0.010011181640625698,0.10825319780776925,0.1450987192847191,-0.06727489086458678,-0.01561950128689071,0.16069697601186825
80,1791341558.8848982,0.064378125,-0.006322851562500001,0.014801220703125699,0.06635960793057528,0.14600174420796955,-0.06741838094098389,-0.0155949966385186,0.16157026743998537
81,1791341558.9048982,0.064378125,-0.006322851562500001,0.005221142578125697,0.06489824158032442,0.14785501701951242,-0.06770114443094886,-0.015519913299025296,0.16335672231013257
82,1791341558.930831,0.0883283203125,-0.0159029296875,0.019591259765625698,0.091861922476494,0.1501945993989217,-0.06805601891494562,-0.015388901494256325,0.1656105603165267
83,1791341558.950831,0.08353828125,0.012837304687499999,0.0579115722656257,0.10245580036347673,0.1519860891938404,-0.06829325181362855,-0.015186763861476205,0.16731520357786356
84,1791341558.9760044,0.09790839843749999,0.01762734375,0.0387514160156257,0.10676352361875757,0.15424532585554102,-0.06848954309000135,-0.014788002155231919,0.16941405806101903
85,1791341558.9960043,0.064378125,-0.049433203125000005,0.0339613769531257,0.08798613342036023,0.15601445108134754,-0.06866981021314884,-0.01440964343758893,0.17106633100912205
86,1791341559.005559,0.02605781249999999,-0.030273046875000004,-0.013939013671874303,0.04230559137425929,0.15679764928508888,-0.06880012887895554,-0.014241654620229435,0.1718190480750389
87,1791341559.025559,0.04521796874999999,-0.006322851562500001,-0.018729052734374304,0.04934998040611929,0.15829806154099657,-0.06908689104256739,-0.013991764010771996,0.17328313322911104
88,1791341559.0504413,0.05479804687499999,-0.0350630859375,-0.009148974609374303,0.0656958877950377,0.16007139395909337,-0.06946737522669724,-0.013779530067991692,0.1750384038826586
89,1791341559.0704412,0.05479804687499999,-0.0350630859375,0.0770717285156257,0.10085780719984705,0.16144735609614214,-0.06983251706739292,-0.013532644519929011,0.17642267909230097
90,1791341559.0950282,0.0883283203125,0.0224173828125,0.1489223144531257,0.17459177232465858,0.1631490884458284,-0.07023738909383495,-0.012857925478550011,0.17809054476595731
91,1791341559.1150281,0.0691681640625,0.13258828125,0.20161274414062572,0.251021086453946,0.16456195153523984,-0.07028481905548924,-0.011865606453637375,0.17933595372724925
92,1791341559.125231,-0.02184257812500001,0.161328515625,0.20640278320312572,0.2628803855119456,0.1652108157960319,-0.07008047583965787,-0.01112309393620413,0.17980436582190343
93,1791341559.145231,-0.08890312500000001,0.2044388671875,0.1680824707031257,0.27919658488122845,0.16612583104639264,-0.0691913498773368,-0.009324196794307802,0.18020037537297642
94,1791341559.1703026,-0.031422656250000014,0.161328515625,0.1249721191406257,0.20647591588868247,0.16687456370722237,-0.06755616764914255,-0.006856339588642181,0.18016094247219525
95,1791341559.1903026,0.03084785156249999,0.17090859375,0.0818617675781257,0.19199657901806388,0.16738138479461356,-0.0659490659842354,-0.004872741623706683,0.1799709723563412
96,1791341559.2151775,0.03084785156249999,0.24754921875000002,0.0866518066406257,0.2640847236093784,0.1680322893235853,-0.06346937863143821,-0.0024613287245084286,0.17963649522932704
97,1791341559.2351775,0.05958808593749999,0.2619193359375,0.0914418457031257,0.2837500478752913,0.16861278328257223,-0.06101051237319206,-0.0005461843688645204,0.17931216250912785
98,1791341559.2602706,0.011687695312499989,0.23796914062500002,0.0866518066406257,0.2535240613937921,0.169365994704889,-0.05744745702587383,0.001831403314905038,0.1788530249093315
99,1791341559.2802706,-0.06974296875000001,0.2523392578125,0.1345521972656257,0.29435263972391124,0.16978919529757658,-0.05429810705824111,0.003773969991470294,0.17830002276893667
100,1791341559.2908792,-0.11764335937500002,0.30981972656250006,0.19682270507812571,0.38544441908862626,0.16983090931874267,-0.05243088060559851,0.004913471758198042,0.17780797846505125
101,1791341559.3108792,-0.036212695312500015,0.29544960937500003,0.22077290039062572,0.37059749665712155,0.16966697054451124,-0.04853082009439287,0.007365871590402284,0.17662496272348557
102,1791341559.3359625,0.011687695312499989,0.2906595703125,0.26388325195312573,0.39275177745915013,0.16944606742064106,-0.0432705774941521,0.010891989674033455,0.17522256726819496
103,1791341559.3559625,0.00689765624999999,0.41999062500000006,0.25430317382812573,0.4910293341224043,0.16932423031183683,-0.038639521006999494,0.014059063455129294,0.17424512853902593
104,1791341559.3809602,0.02605781249999999,0.49184121093750005,0.25430317382812573,0.5543075776027326,0.16925657595869165,-0.0320099411162008,0.018377324073765446,0.17323438133244565
105,1791341559.4009602,0.0787482421875,0.45831093750000007,0.2495131347656257,0.5277376294147684,0.16936777576227013,-0.026076191458688048,0.022069731097612393,0.172778714714428
106,1791341559.4108348,0.188919140625,0.44873085937500007,0.23035297851562572,0.5386207576402295,0.16961267577010677,-0.02291422444938698,0.02397470990504699,0.17282450109589034
107,1791341559.4308348,0.20807929687499999,0.47268105468750005,0.2351430175781257,0.5674650755458247,0.17062979030415126,-0.016088496580718602,0.02795254601896738,0.1736511154309379
108,1791341559.4559512,0.246399609375,0.5014212890625,0.2590932128906257,0.6158452480869191,0.17257162612115637,-0.0069674252421646175,0.03312969590321746,0.17586099029416669
109,1791341559.4759512,0.361360546875,0.5589017578125001,0.2399330566406257,0.707474728448031,0.17479759078982268,0.0007966255002928562,0.037382371778847664,0.17875199041668322
110,1791341559.500534,0.3469904296875,0.5205814453125001,0.10581196289062571,0.6345104971465283,0.17842921495304015,0.01089855257157177,0.04246290647797667,0.1837358474100003
111,1791341559.520534,0.2559796875,0.36251015625000005,0.005221142578125697,0.4438090514250675,0.18184507537318575,0.01920905514347161,0.046142838776987445,0.18858892016071252
112,1791341559.530468,0.27992988281250003,0.2810794921875,-0.09536967773437431,0.4079972985829211,0.18368650582068224,0.02319719692176642,0.04762931640578666,0.19117372765869603
113,1791341559.550468,0.3948908203125,0.32418984375000004,-0.17680034179687432,0.5406442227724442,0.18784997911410356,0.030930014187220363,0.04976487357915793,0.1967760734264722
114,1791341559.5755603,0.4811115234375,0.3002396484375,-0.16722026367187431,0.5912484765821532,0.1939385898818997,0.04035162600545863,0.05139486650246627,0.20465058678017617
115,1791341559.5955603,0.457161328125,0.266709375,-0.16722026367187431,0.5550612463759254,0.1994710091946498,0.047585156047151814,0.05199752039396636,0.21155796537186872
116,1791341559.6206946,0.5194318359375,0.23796914062500002,-0.2294907714843743,0.6157148351889016,0.20722174465182866,0.05626344049904567,0.05189345139892583,0.22090576382573182
117,1791341559.6406946,0.629602734375,0.1469583984375,-0.21033061523437432,0.6798789169467327,0.21418762291375837,0.06271052120588522,0.05116333129717658,0.22896863049069577
118,1791341559.650542,0.7924640625,-0.054223242187500006,-0.18638041992187432,0.8158903794490915,0.21815322233105824,0.06547721127369263,0.05056477208149917,0.23331285816529243
119,1791341559.670542,0.8403644531250001,-0.18355429687500002,-0.21033061523437432,0.8855188093328263,0.2274484432498352,0.0698967983273928,0.048936388235301165,0.2429261757133427
120,1791341559.6954367,0.7876740234375,-0.2314546875,-0.18638041992187432,0.8418665574152451,0.24032274855122723,0.07379797321175627,0.046472814594333854,0.25565775329079854
121,1791341559.7154367,0.7158234375,-0.17876425781250002,-0.1336899902343743,0.7498218902075595,0.2513695367837081,0.07584666107645452,0.044310396020636335,0.26627574282087385
122,1791341559.7404225,0.77330390625,-0.3080953125,-0.21512065429687433,0.8597665665232027,0.26589061591518093,0.07710981394261768,0.04136048179144528,0.2799186176231225
123,1791341559.7604225,0.993645703125,-0.547597265625,-0.38277202148437434,1.1973758679253508,0.27842097785216874,0.07668570792159375,0.038456563065922926,0.2913380269556948
124,1791341559.7716713,1.1421369140625,-0.5571773437499999,-0.4163022949218743,1.3372475177055798,0.28621331687070173,0.07555089679751927,0.03639412171656556,0.2982457591593857
125,1791341559.7916713,1.051126171875,-0.4565865234375,-0.37319194335937433,1.205242593494638,0.3012795151015354,0.07231524956312979,0.032092981427538615,0.31149446382897783
126,1791341559.8460345,1.19482734375,-0.5763375,-0.44025249023437435,1.3977122559513093,0.34524636761656324,0.06062799652805112,0.018838842034220087,0.35103519807082995
127,1791341559.8660345,1.3720587890625,-0.7918892578125,-0.4546226074218743,1.648124883757766,0.3628456093670882,0.05492092634783546,0.013351816145306172,0.3672213438544334
128,1791341559.8605099,1.4103791015625,-0.86373984375,-0.4881528808593743,1.7243865468324744,0.3628456093670882,0.05492092634783546,0.013351816145306172,0.3672213438544334
129,1791341559.8805099,1.52055,-0.9164302734375,-0.6126938964843743,1.8781135640216053,0.38350505591874245,0.04601639042204694,0.0065341337481190824,0.3863111841592867
130,1791341559.8906825,1.6019806640625,-1.2277828125,-0.6797544433593743,2.1297555695354693,0.39481920188226693,0.040530720132285654,0.002600535678078414,0.39690263823160066
131,1791341559.9106824,1.65467109375,-1.3666939453125,-0.6749644042968743,2.2497479227045645,0.4186118477937643,0.027471612423266373,-0.006005186249200701,0.4195552774835891
132,1791341559.9352891,1.57803046875,-1.2277828125,-0.5264731933593744,2.067560112378785,0.44945982250188843,0.009026466833431116,-0.017222185824312966,0.4498802205381909
133,1791341559.9552891,1.57803046875,-1.1032417968750001,-0.4354624511718743,1.9740694438281396,0.4755057866258472,-0.00721322677733684,-0.026414553483651012,0.4762935149578962
134,1791341559.980604,1.7073615234375001,-1.1894625,-0.5025229980468743,2.140661994380965,0.5097658079565337,-0.029038146871126984,-0.038085310432419694,0.5120106286064974
135,1791341560.000604,1.8127423828125,-1.486444921875,-0.7037046386718744,2.44760161601128,0.5380530386551367,-0.047708378000539856,-0.047732066103071874,0.5422688557089891
136,1791341560.025308,1.798372265625,-1.5870357421875,-0.7468149902343744,2.512082379697886,0.5744430392454832,-0.07300516973655645,-0.06054790960539924,0.5822204131627771
137,1791341560.0453079,1.5828205078125002,-1.6109859375,-0.6414341308593743,2.3477721769809556,0.604556514534423,-0.09521012378180953,-0.071449473036298,0.6161644051174348
138,1791341560.0559063,1.5924005859375001,-1.51518515625,-0.7803452636718743,2.3324803138182233,0.6206445521387084,-0.10769691091551988,-0.07749004676779822,0.6346676233023699
139,1791341560.0759063,1.721731640625,-1.8265376953125,-0.9815269042968744,2.6951799306512654,0.6514211346675766,-0.13273843405349725,-0.08982199907743371,0.6708479545208691
140,1791341560.100989,1.7887921875000001,-2.032509375,-0.9958970214843743,2.8849060170004455,0.6908336620367539,-0.1666929129325088,-0.10668807464303891,0.7186236992307418
141,1791341560.120989,1.5636603515625,-1.8744380859375,-0.9240464355468744,2.610060085152923,0.7225743305390245,-0.19556610932446952,-0.1209990357267489,0.7582878958001591
142,1791341560.1456609,1.3337384765625,-1.74510703125,-0.9192563964843743,2.381026920649761,0.7612173801895813,-0.23253871306126145,-0.1394156444218173,0.8080611826368272
143,1791341560.1656609,1.530130078125,-1.8744380859375,-0.8474058105468744,2.5637692567281603,0.7921399919005176,-0.2634438255757169,-0.15475551345761795,0.8490216045234962
144,1791341560.175328,1.5588703125,-1.9798189453125001,-0.7468149902343744,2.628210862364532,0.8070843286858419,-0.27893581200689666,-0.16221383824446947,0.8691971181200647
145,1791341560.195328,1.5492902343750001,-2.1474703125,-0.9048862792968744,2.798347396564324,0.8380266237630706,-0.3123698568094935,-0.17780707274688232,0.9118546510808231
146,1791341560.2354505,1.5924005859375001,-2.4875630859375004,-1.0006870605468743,3.118506746146132,0.9002436197424603,-0.3833295538271305,-0.2101310137634668,1.0007672879693743
147,1791341560.2554505,1.3528986328125001,-2.5019332031250006,-0.8426157714843744,2.9664803727514304,0.9310230245264061,-0.4208795504401784,-0.22659168099388902,1.0465597250384997
148,1791341560.2660055,1.3433185546875002,-2.3438619140625,-0.7947153808593743,2.8159840106319676,0.9469647305407752,-0.44156013482389284,-0.23527191364999336,1.0710137379634248
149,1791341560.2860055,1.453489453125,-2.3773921875,-0.7468149902343744,2.884849707206671,0.9768357321436671,-0.4819502646575989,-0.2515646343037876,1.1179306196846843
150,1791341560.3112042,1.4726496093750001,-2.3917623046875,-0.7803452636718743,2.9151608059679197,1.0143560696126397,-0.5342191363466515,-0.27189943699465197,1.1782349618972325
151,1791341560.3312042,1.5013898437500002,-2.4300826171875003,-0.8665659667968744,2.98503091509671,1.0441297469427124,-0.5767144318151706,-0.28808841962359927,1.2271109981724435
152,1791341560.3405333,1.4582794921875,-2.4540328125000004,-0.8809360839843744,2.9874578668538607,1.0580054267190044,-0.5969805573845868,-0.2957298235515118,1.2502869260293348
153,1791341560.3605332,1.4391193359375,-2.4492427734375,-0.8282456542968744,2.95902779476075,1.0876365774919627,-0.6412655559593918,-0.3122181966532416,1.3006363981834972
154,1791341560.385537,1.4870197265625,-2.4875630859375004,-0.6941245605468743,2.980101790083571,1.1246116455322508,-0.6975831927272782,-0.332594546084326,1.3645485686216445
155,1791341560.405537,1.6115607421875,-2.4013423828125,-0.6318540527343743,2.960204859331258,1.1543988419829765,-0.7432068768749338,-0.34843738184624296,1.416475117068314
156,1791341560.4309425,1.5636603515625,-2.2432710937500002,-0.6605942871093743,2.8131270336165812,1.1926114385948792,-0.8013185925176352,-0.3680062018223558,1.4831932088441842
157,1791341560.4509425,1.4055890625,-2.2193208984375,-0.6031138183593744,2.695331545609387,1.2226349609377465,-0.8468974624538788,-0.38299608107256294,1.5358247158237184
158,1791341560.4605289,1.3481085937500001,-2.252851171875,-0.5264731933593744,2.6776686140161523,1.2368469721561173,-0.868682567318949,-0.38991539647725104,1.5609080215392601
159,1791341560.4805288,1.3864289062500001,-2.3773921875,-0.6031138183593744,2.817432342252007,1.2661517305504537,-0.9142606732151103,-0.40388018520365393,1.6131125154073391
160,1791341560.5058057,1.434329296875,-2.444452734375,-0.6797544433593743,2.9145695746943763,1.3029804328521883,-0.9723649273400539,-0.4213141481579488,1.679510991852915
161,1791341560.5258057,1.4774396484375,-2.3199117187500002,-0.7084946777343744,2.840208268058284,1.3321172333238727,-1.0185894951265817,-0.4351217351823165,1.7324525411475904
162,1791341560.536347,1.4774396484375,-2.2193208984375,-0.9048862792968744,2.8154985958931498,1.3475066604750974,-1.0428868408538268,-0.4425830771783601,1.7604734996743037
163,1791341560.556347,1.4199591796875,-2.4588228515625006,-1.0054770996093743,3.012155056630323,1.3766715604238897,-1.089088816079958,-0.45748165989747724,1.8140089591104402
164,1791341560.5809925,1.261887890625,-2.6264742187500003,-0.9911069824218743,3.0778273052381984,1.412177146164057,-1.146882254045031,-0.4767775165313968,1.8806647753018926
165,1791341560.6009924,1.06070625,-2.5306734375000004,-0.7947153808593743,2.8567426087471706,1.440152026019197,-1.194482642834186,-0.49276611581311536,1.9348501458699285
166,1791341560.6253092,1.1086066406250001,-2.4540328125000004,-0.7420249511718744,2.7931857719503967,1.4730193743045392,-1.252766856384465,-0.5120924091273173,2.0003623444310707
167,1791341560.6453092,1.2091974609375,-2.3103316406250003,-0.6318540527343743,2.6831008801697256,1.49947379913438,-1.3006601715565114,-0.5276643307036325,2.053915334686612
168,1791341560.6853306,1.2570978515625,-2.339071875,-0.4067222167968743,2.686442853748286,1.551873294462101,-1.396078163398463,-0.5572681954717608,2.160530676030089
169,1791341560.7053306,1.2570978515625,-2.425292578125,-0.22470073242187433,2.740954125311511,1.577902429884346,-1.4437556073035265,-0.5707902258120302,2.2135961270606357
170,1791341560.7157972,1.2187775390625,-2.2193208984375,-0.28218120117187434,2.54763226747101,1.5914245125592872,-1.4686099492088491,-0.5772031279130052,2.241118161311969
171,1791341560.7357972,1.1996173828125,-2.0660396484375,-0.3492417480468743,2.414450557091716,1.617014889937674,-1.5154068136553829,-0.5885662022034169,2.292946824400745
172,1791341560.745344,1.1708771484375,-2.0468794921875,-0.3588218261718743,2.3852509417686454,1.6290951570213925,-1.537338936607914,-0.5936836064130133,2.3172876949496084
173,1791341560.765344,1.07986640625,-2.0947798828125,-0.38277202148437434,2.38761986782119,1.6539826944345708,-1.582606121211599,-0.6039085974946314,2.367489489419836
174,1791341560.7908685,1.0319660156250001,-2.10915,-0.41151225585937434,2.383864492085783,1.6850234043627161,-1.6397596147167743,-0.6165211745460641,2.430681761557831
175,1791341560.8108685,1.127766796875,-2.137890234375,-0.5168931152343743,2.4717627505378394,1.708936830043005,-1.684195715357941,-0.6263140488188947,2.4797680505352506
176,1791341560.8209565,1.166087109375,-2.1426802734375,-0.6701743652343743,2.5298165112604587,1.7209249725001095,-1.706485873866822,-0.6314107682809863,2.50446728007828
177,1791341560.8409564,1.0367560546875,-2.1714205078125,-0.7228647949218744,2.5124616714324874,1.7444313450903115,-1.7505198237731356,-0.6420891862847833,2.5533583560284243
178,1791341560.896481,0.9026349609375001,-2.252851171875,-0.6462241699218744,2.511512284086307,1.8079779093737762,-1.872855206102998,-0.672989444970708,2.6887330728156438
179,1791341560.916481,0.9217951171875001,-2.2336910156250003,-0.5839536621093744,2.485977407549295,1.8301706272642655,-1.9170404827854854,-0.6842954537321676,2.7373032359491694
180,1791341560.9105122,1.1133966796875001,-2.1474703125,-0.6126938964843743,2.4953305833490687,1.8301706272642655,-1.9170404827854854,-0.6842954537321676,2.7373032359491694
181,1791341560.9305122,1.07986640625,-2.0851998046875,-0.5168931152343743,2.4044434227888947,1.8520896244979175,-1.9608993196756337,-0.6956841481461749,2.7855589300998584
182,1791341560.9406652,0.936165234375,-2.1618404296875,-0.3684019042968743,2.3844662615716326,1.86308295307392,-1.9830586709079085,-0.7012725633472434,2.809872415324456
183,1791341560.9606652,0.974485546875,-2.1570503906250003,-0.36361186523437433,2.394723795618809,1.8843558399043345,-2.0266399817479908,-0.7117276647419477,2.857380411453836
184,1791341560.9857073,1.1133966796875001,-2.118730078125,-0.5168931152343743,2.448642032406414,1.9109176923589974,-2.08105364241302,-0.7245086324813508,2.916728209503095
185,1791341561.0057073,1.1229767578125,-2.137890234375,-0.5600034667968743,2.478962552288272,1.9323039573512029,-2.1243776787731714,-0.7348004293510196,2.9642386504192353
186,1791341561.031398,0.984065625,-2.185790625,-0.4785728027343743,2.4444013046473296,1.9597146294508405,-2.1800123614057925,-0.7480387671515037,3.025309458869827
187,1791341561.051398,0.936165234375,-2.137890234375,-0.4594126464843743,2.3786634860858666,1.980733025925919,-2.2233121806183784,-0.75820575070268,3.0726692521126173
188,1791341561.0603971,0.8930548828125,-2.10915,-0.47378276367187433,2.338916598206915,1.9900063759476845,-2.2427392065333636,-0.7627240852968344,3.093824906992351
189,1791341561.0803971,0.8595246093750001,-2.2241109375,-0.3779819824218743,2.4141918721311164,2.0101532875573267,-2.285938182256632,-0.7725371998264852,3.140548254316757
190,1791341561.1060631,0.8738947265625,-2.252851171875,-0.2486509277343743,2.429168104433177,2.035466404464749,-2.341677810774716,-0.7844476407345581,3.200302572294272
191,1791341561.126063,0.96490546875,-2.329491796875,-0.3492417480468743,2.5454949212108855,2.0549908533108545,-2.3854706998785673,-0.7932334103391148,3.246948892491016
192,1791341561.1511009,1.00322578125,-2.4588228515625006,-0.48336284179687433,2.6992427494318787,2.0794627580789755,-2.441062630512509,-0.8041458928034653,3.305994970539845
193,1791341561.1711009,0.8738947265625,-2.6552144531250006,-0.5168931152343743,2.842716003714465,2.098894215397394,-2.4864791368858636,-0.8130555636870846,3.3539521128423755
194,1791341561.18082,0.7206134765625001,-2.7414351562500006,-0.49294291992187433,2.8771067447746983,2.108082935223285,-2.5091728476033617,-0.8174719289161629,3.377606015433934
195,1791341561.20082,0.7637238281250001,-2.8420259765625002,-0.5408433105468743,2.992139238682792,2.1263816629896786,-2.557242178860103,-0.8267473837133675,3.427024624148011
196,1791341561.2561052,0.897844921875,-2.9521968750000003,-0.7084946777343744,3.166000094894886,2.1762663049511466,-2.6942121425377143,-0.8537214579178184,3.5670372056894366
197,1791341561.2761052,0.9409552734375001,-2.9474068359375005,-0.7132847167968743,3.17511873326919,2.1943638315608007,-2.745179258588011,-0.864148545482669,3.6191151536948687
198,1791341561.2706149,0.6391828125,-2.8611861328125006,-0.37319194335937433,2.955370193559905,2.1943638315608007,-2.745179258588011,-0.864148545482669,3.6191151536948687
199,1791341561.2906148,0.50506171875,-2.5737837890625004,-0.08578959960937431,2.624273268542886,2.2111703338345214,-2.797561396014662,-0.8737558443267627,3.6713857445379596
200,1791341561.3004785,0.5481720703125,-2.3438619140625,0.0339613769531257,2.407350133650685,2.2189948394138788,-2.8231581318930883,-0.8778216038270266,3.696583652937527
201,1791341561.3204784,0.4332111328125,-2.2241109375,0.010011181640625698,2.2659306193389197,2.2339524825078407,-2.874126171218598,-0.8847629993877639,3.7461914669797984
202,1791341561.345959,0.2990900390625,-2.2863814453125,0.0243812988281257,2.3059898986483507,2.251549908593005,-2.9379403388493652,-0.8922142685686595,3.807494809787795
203,1791341561.365959,0.3948908203125,-2.329491796875,0.0291713378906257,2.362905363875017,2.264331459128418,-2.987439422825889,-0.8971052476120431,3.854450555805065
204,1791341561.405838,0.3374103515625,-2.1043599609375,0.1585023925781257,2.137124142157258,2.288184694481271,-3.0845949183749837,-0.904833466186693,3.9457874509474715
205,1791341561.425838,-0.16554375000000002,-1.8361177734375,0.28304340820312573,1.8651666901444457,2.298610847503303,-3.1319218731126224,-0.9074655966978535,3.989491227804784
206,1791341561.4359858,-0.309244921875,-1.563085546875,0.3357338378906257,1.6283691407232457,2.3027461082376584,-3.1549202378903,-0.9081298455485761,4.010094906960377
207,1791341561.4559858,0.011687695312499989,-1.36190390625,0.1632924316406257,1.3717081578498522,2.3092273134025634,-3.1978354227838897,-0.9084940809160788,4.047720799565527
208,1791341561.4656274,0.0787482421875,-1.1846724609375001,0.11060200195312571,1.1924273261659903,2.311948515809109,-3.217262284723268,-0.9084452742740348,4.064622413558921
209,1791341561.4856274,-0.318825,-0.959540625,0.1920326660156257,1.0291958688546412,2.316386377457815,-3.2547317041421646,-0.9079052676882303,4.096732391884578
210,1791341561.5119586,-0.5535369140625,-0.7727291015625,0.21119282226562572,0.973712374270731,2.31962990976581,-3.300083804077394,-0.9065046536076463,4.1343665438887225
211,1791341561.5319586,-0.318825,-0.5763375,0.0914418457031257,0.6649630859505241,2.3204154628041356,-3.3313876993750755,-0.9051464352731091,4.159538675485024
212,1791341561.5557733,0.10269843749999999,-0.241034765625,-0.023519091796874305,0.26305488967854196,2.320824516666727,-3.3645310570896187,-0.9036504319391951,4.186033895518027
213,1791341561.5757732,-0.02184257812500001,0.22359902343750002,0.0291713378906257,0.2265493068973716,2.321237801305923,-3.3882164236753334,-0.9025740394027962,4.2050915995348666
214,1791341561.5853207,-0.20865410156250003,0.46310097656250004,0.0866518066406257,0.5152742805400631,2.321240449420828,-3.3973354675714984,-0.9020543374459583,4.2123327896726925
215,1791341561.6053207,-0.002682421875000011,0.40083046875000006,-0.05225932617187431,0.4042317370486867,2.3209281601034775,-3.4122767073325546,-0.9010773807984618,4.224012345856985
216,1791341561.6304662,0.303880078125,0.5397416015625001,-0.20075053710937432,0.6511258530331989,2.321162453977395,-3.4264703634025873,-0.9005104758807756,4.235494470094565
217,1791341561.6504662,0.4236310546875,0.8942044921875001,-0.27260112304687434,1.0263412281645736,2.322412117249597,-3.4339152637946277,-0.9008372387840988,4.2422729535061325
218,1791341561.6761096,0.3853107421875,1.2055570312500001,-0.3252915527343743,1.306769573383822,2.32532985271037,-3.437990670275192,-0.902343256941694,4.2474889200742405
219,1791341561.6961095,0.2559796875,1.3444681640625,-0.3109214355468743,1.4034929225588266,2.328226068959089,-3.436867383274103,-0.9042959741462796,4.2485815570907
220,1791341561.7057724,0.3278302734375,1.3540482421875002,-0.3588218261718743,1.4386356151890876,2.329838560353425,-3.4344504252032926,-0.9055832738434688,4.247785129494411
221,1791341561.7257724,1.0223859375,1.5839701171875,-0.8090854980468744,2.0515490928784756,2.3347007559683517,-3.425791221872063,-0.9095998931837325,4.244319154052241
222,1791341561.7507958,1.051126171875,1.4115287109375,-0.7899253417968743,1.929057172977095,2.3437631752829553,-3.4109603447785295,-0.9168725189739533,4.238930467879102
223,1791341561.7707958,1.127766796875,1.5456498046875,-0.7468149902343744,2.053928892757238,2.353188173369131,-3.3964490494650286,-0.924118371623524,4.2340707941257145
224,1791341561.7952547,1.15650703125,1.8905326171875,-0.7611851074218744,2.343293591879037,2.367175802271566,-3.3750611162193134,-0.9344167617195538,4.227019458395957
225,1791341561.8152547,1.9181232421875,1.464219140625,-1.0342173339843743,2.6254028182178533,2.381509750754022,-3.355163454107884,-0.9442676896435162,4.22141587224267
226,1791341561.8266997,2.219895703125,1.3205179687500002,-1.0390073730468743,2.784105055451434,2.392033982944451,-3.3430945766400524,-0.9508389390574612,4.219265648421434
227,1791341561.8466997,1.96123359375,1.6462406250000001,-0.9958970214843743,2.747427211420783,2.4139379178108964,-3.3207178456895075,-0.9636519471439257,4.216976210148719
228,1791341561.8707848,1.99955390625,1.732461328125,-1.0916978027343744,2.8620695606402258,2.4435138033302635,-3.2917094655637373,-0.9805385254453755,4.2151591562632635
229,1791341561.8907847,2.8857111328125002,1.0426957031250002,-1.3216196777343743,3.3408414574666745,2.4717172860878773,-3.2670717049930342,-0.9960775774187706,4.216078083734712
230,1791341561.9149165,3.1156330078125003,0.6738626953125001,-1.3982603027343743,3.4808607909118425,2.5115045492550707,-3.2386964129111804,-1.0169371159138685,4.222673401253746
231,1791341561.9349165,2.6749494140625005,0.9612650390625,-1.3503599121093743,3.1468804768133762,2.5482191373788186,-3.216254331765569,-1.0357548510228805,4.232079962633252
232,1791341561.9609494,2.8569708984375004,0.9995853515625001,-1.4030503417968743,3.336166040711018,2.5996410754847914,-3.187595904981667,-1.0619507489132336,4.248133798260242
233,1791341561.9809494,3.6952277343750004,0.5493216796875,-1.5323813964843744,4.037902309486981,2.643048845652406,-3.1665580611590363,-1.083460300663511,4.2645847838106885
234,1791341561.990165,4.049690625,0.1852787109375,-1.6617124511718744,4.381279565300438,2.6654031184156652,-3.157810580847491,-1.0940924584235703,4.2747139969536745
235,1791341562.010165,3.7335480468750006,0.123008203125,-1.6904526855468744,4.100261250022102,2.718314840726455,-3.141211694150734,-1.1187338182448652,4.302093889824786
236,1791341562.035199,3.6569074218750006,0.0751078125,-1.8006235839843745,4.076868696299126,2.7884858685796403,-3.1231794375120963,-1.1515055006725545,4.342334413221289
237,1791341562.055199,4.174231640625001,-0.41347617187499996,-2.0880259277343742,4.685618914209123,2.847884107076746,-3.111441696249686,-1.1795929698469918,4.379834801794913
238,1791341562.0810328,4.399363476562501,-0.9068501953125,-2.2365171386718745,5.01784666836517,2.9297114469421768,-3.1011125498999386,-1.218810278929079,4.436846482076442
239,1791341562.1010327,4.1981818359375005,-1.0601314453125,-2.131136279296874,4.82600779629201,2.99645430327568,-3.0972659159977285,-1.2511687364378905,4.487451142136277
240,1791341562.1257484,4.092800976562501,-0.9978609375,-1.8581040527343744,4.604269426861035,3.081930894624948,-3.097040196061229,-1.292553352225424,4.556385649131545
241,1791341562.1457484,4.863997265625001,-1.3427437500000001,-2.0497056152343744,5.446349537744973,3.1541587858810263,-3.1003958445355715,-1.3268803232600108,4.617551670703697
242,1791341562.1556382,5.237620312500001,-1.6924166015625,-2.3850083496093744,5.998766983211083,3.1920102698274695,-3.104057580175855,-1.3445979854977461,4.651026420730785
243,1791341562.1756382,4.777776562500001,-1.7498970703125,-2.3945884277343743,5.623463556928415,3.2720975523745475,-3.115515327539796,-1.3822228653118356,4.72478551870683
244,1791341562.2007475,4.586175000000001,-1.6876265625,-2.3227378417968745,5.410748157768552,3.3751965305690033,-3.134215949141266,-1.4312577549899246,4.823252014671774
245,1791341562.2207475,4.8496271484375,-2.0851998046875,-2.4616489746093744,5.824659421676619,3.4591523087901335,-3.152536244217455,-1.4716328892937847,4.906110763870296
246,1791341562.230406,4.816096875,-2.4971431640625004,-2.4760190917968745,5.963319850062669,3.5006170861131225,-3.163375956818055,-1.4917832841907683,4.948402246660296
247,1791341562.250406,4.533484570312501,-2.3103316406250003,-2.3850083496093744,5.619464339831774,3.587623281048167,-3.189666057053811,-1.5345413737144469,5.039824162595501
248,1791341562.2752814,4.725086132812501,-2.214530859375,-2.4376987792968743,5.759597314761392,3.6968800190720033,-3.2259019317521225,-1.588742974488426,5.157273445114407
249,1791341562.2952814,4.921477734375,-2.3007515625,-2.3945884277343743,5.937040894295277,3.7860164933025007,-3.2574386405316678,-1.6330330637924466,5.254676428841904
250,1791341562.3203802,4.825676953125001,-2.3151216796875,-2.2077769042968742,5.789751748290038,3.899446516339198,-3.299767815393436,-1.6889408428115704,5.380211142679563
251,1791341562.3403802,4.672395703125001,-2.2768013671875003,-2.1790366699218744,5.635894505850163,3.9905223247426633,-3.33532619825936,-1.7333886566218302,5.482089520244088
252,1791341562.3507352,4.672395703125001,-2.2576412109375,-2.1119761230468743,5.602559110640817,4.037861066891951,-3.354496566560301,-1.7562821009013516,5.535476133859952
253,1791341562.3707352,4.5239044921875005,-2.4492427734375,-1.7958335449218743,5.448809056916633,4.129372373281323,-3.393029226197765,-1.7997283913844944,5.6394490697058925
254,1791341562.3950412,4.969378125,-2.01334921875,-1.6138120605468744,5.599346693377389,4.2412101509748785,-3.4409688924374784,-1.8508244067274957,5.766600510525499
255,1791341562.4150412,4.911897656250001,-1.8983882812500001,-1.4940610839843744,5.4738318547922304,4.334252893171498,-3.480366139043579,-1.891223450873581,5.871577534606929
256,1791341562.4402666,4.8496271484375,-1.8265376953125,-1.7527231933593743,5.470572367111089,4.452470086751712,-3.5296503676530766,-1.94067708844785,6.004094365757314
257,1791341562.4602666,4.6101251953125,-1.812167578125,-2.1359263183593744,5.394384755013567,4.54632901522871,-3.5683222071217813,-1.9798380125539525,6.109156197422235
258,1791341562.4695919,4.3897833984375,-1.9510787109375,-2.1359263183593744,5.257289002797093,4.58982206845302,-3.5862807875304914,-1.9983461457362557,6.1580243443208005
259,1791341562.4895918,4.313142773437501,-2.2289009765625,-2.0449155761718742,5.268100213648916,4.682164393599558,-3.6252892895410644,-2.0383577771814916,6.2626103398941355
260,1791341562.5154648,4.212551953125001,-2.339071875,-2.2748374511718743,5.328389683895822,4.800247992063297,-3.6770471054451384,-2.090736972106244,6.39798697150144
261,1791341562.5354648,4.2556623046875,-2.3821822265625,-2.4329087402343745,5.450183368511302,4.89053788166419,-3.718136782377698,-2.132214668235377,6.5029409728138035
