imu_index,t_imu,ax,ay,az,mag,vx,vy,vz,velocity
0,1790650055.1374345,0.38374078244579085,-0.2304106544961735,-0.02150629783163212,0.4481167020586107,0.0,0.0,0.0,0.0
1,1790650055.1574345,0.33584039182079084,-0.30226124043367353,0.0024438974808678807,0.451836916244946,0.0015686397630453755,-0.0010927803847198116,-5.6014076842239924e-05,0.0019125734632269476
2,1790650055.1830492,0.44122125119579086,-0.1298198341836735,-0.13646723533163213,0.4797423143452271,0.0047691213325381536,-0.0031124843578960934,-0.0003744654930004193,0.005707214869624798
3,1790650055.2030492,0.43164117307079086,-0.06754932637117349,-0.14604731345663213,0.4606591272850539,0.008202508599088481,-0.004748974489104301,-0.0010095866753571203,0.009531692990825007
4,1790650055.2131119,0.34063043088329087,-0.01964893574617348,-0.055036571269132126,0.34560699543955403,0.010253682905577634,-0.0055146526310802906,-0.0014329641572562934,0.011730421690868449
5,1790650055.2331119,0.33584039182079084,0.052201650191326526,0.05992436623086788,0.34511550346110376,0.014733655828026665,-0.006759365403949742,-0.0021408892345789188,0.016350933962241812
6,1790650055.2579637,0.36458062619579085,0.03783153300382652,0.055134327168367886,0.37066164074401226,0.020770918450196848,-0.00790622261020015,-0.0026741452822457525,0.0223850499712939
7,1790650055.2779636,0.23524957150829084,0.08573192362882652,0.12219487404336789,0.278610679742195,0.025800479271463297,-0.008505390381308948,-0.002772927908285041,0.02730742619435629
8,1790650055.3015835,0.15860894650829083,0.16716258769132653,0.15093510841836788,0.2754660334585641,0.03154710237086542,-0.008658862181796038,-0.0023882429661167648,0.03280090344405786
9,1790650055.3215835,0.19213921994579083,0.17195262675382653,0.1940454599808679,0.32270547907977076,0.03620925094372716,-0.00826064836543265,-0.0015939026587994836,0.03717376347652816
10,1790650055.3321567,0.24482964963329085,0.16237254862882652,0.11261479591836789,0.3146243699199352,0.038650740790836434,-0.00781659206858991,-0.000993781157408695,0.03944574091376648
11,1790650055.3521566,0.18734918088329083,0.2342231345663265,0.01681401466836788,0.3004045662652011,0.04322454553965483,-0.006507725436714027,0.0001652641987514086,0.04371200223879865
12,1790650055.376976,0.18255914182079083,0.2102729392538265,-0.026296336894132123,0.2797034976163808,0.04873767338821216,-0.00429969239596982,0.0013702026287200028,0.04894615017792263
13,1790650055.396976,0.12028863400829083,0.07615184550382653,0.02160405373086788,0.143997201996516,0.05296815121141317,-0.0023576675333944848,0.002188484531205182,0.053065743220051836
14,1790650055.4220817,0.2687798449457908,0.10010204081632652,0.01681401466836788,0.28730773521425584,0.05821463339816923,4.6334626932118504e-05,0.0031339248068797468,0.05829894658804796
15,1790650055.4420817,0.26398980588329085,0.08573192362882652,0.026394092793367883,0.2788139675012381,0.06256636917712706,0.001952921761717879,0.00383892857130336,0.06271444672475009
16,1790650055.4672446,0.24482964963329085,0.13842235331632652,-0.02150629783163212,0.28207237738497676,0.068180481882246,0.004414903640051398,0.0046021021088425785,0.06847809012864207
17,1790650055.4872446,0.18734918088329083,0.13842235331632652,-0.045456493144132123,0.23733258571934973,0.0726216227971735,0.006493475939401654,0.005017255170599007,0.07308377505929371
18,1790650055.4968238,0.18734918088329083,0.10489207987882652,0.02160405373086788,0.21579805174410724,0.07469887836259238,0.007514501654391685,0.005169133948497157,0.07525363851350135
19,1790650055.5168238,0.21608941525829084,0.09052196269132652,0.07908452248086788,0.24727155682000077,0.07899049994635997,0.00961961653145479,0.005589702924648715,0.07977017539640964
20,1790650055.5424519,0.2687798449457908,0.05699168925382653,0.04076420998086788,0.2777631698199968,0.08459688258957983,0.012196033819677507,0.006278146548406094,0.08570175557647075
21,1790650055.5624518,0.26398980588329085,0.013881337691326523,-0.05982661033163212,0.27103972485628597,0.08911494061515325,0.014011368484251744,0.006706221048578905,0.090458634128513
22,1790650055.5874462,0.22566949338329084,0.03304149394132652,-0.050246532206632125,0.23354480204992356,0.09483220597327767,0.016027689804284945,0.006954607580281688,0.09642821525267514
23,1790650055.6074462,0.22087945432079084,0.07136180644132653,0.012023975605867881,0.23243239178090086,0.09939064069068833,0.017555700453940223,0.0070662145035386755,0.10117624949929706
24,1790650055.616566,0.30231011838329086,0.10489207987882652,0.05992436623086788,0.32555289242517355,0.10151529487981922,0.018268495992171518,0.007158683509770563,0.10339409939617299
25,1790650055.636566,0.27356988400829085,0.047411611128826525,0.05992436623086788,0.28404096883075153,0.10633964921196616,0.019825662495931727,0.007510826487428702,0.10843242320658
26,1790650055.6622488,0.20650933713329084,0.10010204081632652,0.055134327168367886,0.23602186112971252,0.11253029246081683,0.021809492959788734,0.008116827787868128,0.11491128577219016
27,1790650055.6822488,0.33584039182079084,0.11447215800382653,0.0024438974808678807,0.35482195023883784,0.11744151270659711,0.023444486476897956,0.008604318038013838,0.12006742748088906
28,1790650055.7067368,0.42206109494579086,0.047411611128826525,-0.026296336894132123,0.4255289955698914,0.12394477544327963,0.02544340471864432,0.009067861209460548,0.1268538541404075
29,1790650055.7267368,0.3597905871332909,0.09052196269132652,0.02160405373086788,0.37163184397574744,0.12963223194959533,0.027037989306974434,0.00938262266590939,0.13275391532489197
30,1790650055.7374763,0.32626031369579084,0.2150629783163265,0.04076420998086788,0.39288624021531837,0.1327807603883382,0.028011947347345523,0.00957652545033554,0.13604083711590673
31,1790650055.7574763,0.30231011838329086,0.2006928611288265,0.03118413185586788,0.36419978344941106,0.13870751652745664,0.030177288305051668,0.009991382472848727,0.14230344898975433
32,1790650055.7822986,0.35021050900829087,0.14800243144132652,0.03118413185586788,0.38147682814555706,0.14617470073029,0.033110760822970195,0.010545143206431507,0.1502483466168927
33,1790650055.8022985,0.27356988400829085,0.14321239237882652,0.045554249043367884,0.3121305181700147,0.1522244147445047,0.03555662755809319,0.011039504327167727,0.1567112531485901
34,1790650055.8275037,0.23524957150829084,0.17674266581632653,0.007233936543367881,0.2943342668678073,0.15966684974056855,0.03878152543681577,0.011668863490082643,0.16472301598876177
35,1790650055.8475037,0.33584039182079084,0.09531200175382652,-0.050246532206632125,0.3527008086969122,0.16554314643097393,0.04136468807527438,0.012028825440285777,0.17105631643205838
36,1790650055.8570645,0.3789507433832908,0.06657176737882653,-0.07419672751913213,0.3918425965834211,0.16844344308965276,0.04253039911731518,0.012085857214856234,0.17414963770732658
37,1790650055.8770645,0.35021050900829087,0.10968211894132653,-0.03587641501913212,0.36873389454989147,0.1746941661122303,0.04486751630975258,0.01202215516269603,0.18076414995294107
38,1790650055.9019165,0.30231011838329086,0.18153270487882653,0.03597417091836788,0.35445686844919005,0.1825124935447706,0.047878805059150625,0.01195505446017781,0.1890664264245979
39,1790650055.9219165,0.33584039182079084,0.16716258769132653,0.03597417091836788,0.3768636895155418,0.1888178287875091,0.05046171321700173,0.012017076775976899,0.1958136029571586
40,1790650055.9473417,0.3693706652582909,0.16237254862882652,-0.026296336894132123,0.4043402406830449,0.1969759562247922,0.05388111820674607,0.0121025509061436,0.20457070652543677
41,1790650055.9673417,0.36458062619579085,0.10968211894132653,-0.01671625876913212,0.3810887475641479,0.20353163006521136,0.05657550786108637,0.012095182423956841,0.21159443746141032
42,1790650055.9774685,0.34542046994579084,0.07615184550382653,-0.01671625876913212,0.35410992352438564,0.20689238527005596,0.057876291134232635,0.012066618693644102,0.2151737145770494
43,1790650055.9974685,0.42206109494579086,0.08573192362882652,-0.03108637595663212,0.4318007565603098,0.2136853314034705,0.06030275116032149,0.011946964662348214,0.2223523613977555
44,1790650056.0220916,0.3885308215082908,0.06657176737882653,0.03118413185586788,0.3954243917027022,0.22229099820633408,0.06312327026053288,0.011821929029560169,0.23138192050791836
45,1790650056.0420916,0.34063043088329087,0.10010204081632652,0.06471440529336789,0.36088427961301417,0.229326146331092,0.06532058512408942,0.011879451299141447,0.23874333832631123
46,1790650056.067197,0.30710015744579083,0.14800243144132652,0.0024438974808678807,0.3409123040470541,0.23805215402920044,0.06813224297978689,0.012067279715633063,0.24790411414725294
47,1790650056.087197,0.40769097775829083,0.10489207987882652,-0.02150629783163212,0.4215172625329124,0.24503308994214867,0.07041547727436787,0.01216587273652541,0.25524020660118474
48,1790650056.0974092,0.5466021105707909,0.09531200175382652,0.03118413185586788,0.5557253773568098,0.24879384929497894,0.07155978154724477,0.012216076287039784,0.2591686985381392
49,1790650056.1174092,0.3885308215082908,0.14321239237882652,0.055134327168367886,0.41773889288056837,0.2564569960797457,0.07382246453571316,0.012429126536304597,0.2671599339250345
50,1790650056.1421075,0.23524957150829084,0.15758250956632652,0.007233936543367881,0.28324360196475634,0.26565629622209075,0.07675473394144235,0.012768289528077705,0.2768168819316005
51,1790650056.1621075,0.41727105588329083,0.10968211894132653,0.02160405373086788,0.43198615305472693,0.2729670190243538,0.07917393209528022,0.013044994737726533,0.2845165669801625
52,1790650056.2018135,0.5034917590082909,0.028251454878826524,0.06950444435586789,0.5090510425067916,0.2880458945618238,0.08366710332117751,0.013783253006236548,0.3002675467237707
53,1790650056.2218134,0.35500054807079084,0.03783153300382652,0.09824467873086788,0.37028182634165685,0.2957896004883936,0.08568996351351935,0.014350959189149484,0.3082859186431978
54,1790650056.2319562,0.46996148557079087,0.14800243144132652,0.050344288105867885,0.4952807940727521,0.299755233358564,0.08670332273938648,0.01470871318465005,0.312389200106927
55,1790650056.2519562,0.42206109494579086,0.17674266581632653,0.1988354990433679,0.49890790078583314,0.30773991907503007,0.08888889448839395,0.015682100978116304,0.32070394703957533
56,1790650056.2620838,0.41727105588329083,0.30607372050382653,0.3090063974808679,0.6027281394999864,0.31181422388794966,0.0901963413995577,0.01648680692367238,0.32501585349525397
57,1790650056.2820837,0.5466021105707909,0.41145457987882655,0.1796753427933679,0.7073556159327633,0.3200991151606798,0.09346729871784208,0.018570599316364057,0.3339827040659881
58,1790650056.3220067,0.32147027463329086,0.35397411112882654,0.1844653818558679,0.5125117422318024,0.33675551570698387,0.1013090836660189,0.02319654432013705,0.3524285565341168
59,1790650056.3420067,0.42206109494579086,0.24859325175382652,0.2946362802933679,0.5716158765722776,0.34496343687788567,0.10555212116114723,0.025885015112876626,0.3616781125138959
60,1790650056.3525286,0.5609722277582908,0.09531200175382652,0.17009526466836788,0.5938910818130065,0.34940961333621323,0.10772091558912396,0.027453986377994295,0.3666668718539546
61,1790650056.3725286,0.5609722277582908,-0.08191944355867348,-0.13167719626913213,0.582013332808074,0.3582761177516536,0.1112450777775446,0.030046565728132982,0.3763509532244919
62,1790650056.3821173,0.6040825793207909,-0.2304106544961735,-0.14604731345663213,0.6628232419824417,0.3627272574854771,0.11245663419701309,0.03090336939427754,0.38101519147899543
63,1790650056.4021173,0.46996148557079087,-0.3357915138711735,-0.08856684470663212,0.584349060655605,0.3722298149489329,0.11375531844030777,0.032070488660920625,0.39054298592257797
64,1790650056.427391,0.46038140744579087,-0.44117237324617353,-0.26579829001913213,0.6908204066286135,0.38420036596455304,0.11367752167690062,0.03265242374260426,0.4019933841721345
65,1790650056.447391,0.41727105588329083,-0.4363823341836735,-0.3184887197066321,0.6826270872489,0.3935686272287615,0.11230886222555111,0.03216742261810405,0.4105414570430389
66,1790650056.472277,0.41248101682079086,-0.4268022560586735,-0.27537836814413214,0.6543194943267487,0.4050256664799206,0.10925021362182473,0.030546042018376292,0.4206120069219454
67,1790650056.492277,0.5082817980707909,-0.5992436623086735,-0.35201899314413215,0.8610230685651786,0.41423331103226013,0.1056217304554613,0.028497353746585522,0.4284358587743483
68,1790650056.5018287,0.5226519152582909,-0.7142045998086736,-0.26100825095663216,0.922701762206222,0.41870970007331065,0.10320781544886613,0.02722652620580987,0.4321006246633354
69,1790650056.5218287,0.5130718371332909,-0.6854643654336735,-0.15562739158163214,0.8702436390742662,0.4282302466402951,0.09681208997841532,0.024339787070808368,0.4397114396263179
70,1790650056.5467052,0.49391168088329085,-0.5848735451211735,-0.10772700095663212,0.773065921529773,0.44017467830448376,0.08768004299775509,0.020796411968739496,0.4493039373423267
71,1790650056.5667052,0.5034917590082909,-0.43159229512117353,-0.026296336894132123,0.6636771488692939,0.4498332796932152,0.0799147547477475,0.018173931598382157,0.45723805543249535
72,1790650056.5916996,0.4891216418207909,-0.3645317482461735,0.012023975605867881,0.6101376500153455,0.4619539749978382,0.07017358844236958,0.01536141601749019,0.4675059150783493
73,1790650056.6116996,0.40769097775829083,-0.3357915138711735,0.055134327168367886,0.5310439418407052,0.4715431130267685,0.06249762660312506,0.013549214064709368,0.4758596872774271
74,1790650056.6224384,0.3597905871332909,-0.3549516701211735,0.10303471779336788,0.5158062696228959,0.4765377506224552,0.058437971721236354,0.0128495138130565,0.48027943357219993
75,1790650056.6424384,0.3885308215082908,-0.2256206154336735,0.07429448341836789,0.45539052651211254,0.4855669219528666,0.051140534974873635,0.012007856790321477,0.4884002238297956
76,1790650056.667487,0.3981108996332908,-0.1346098732461735,-0.0023461415816321196,0.42025898058518646,0.4966568491677158,0.042695218585660014,0.011247025508625467,0.49861548621966423
77,1790650056.687487,0.27356988400829085,-0.1393999123086735,-0.011926219706632121,0.3072703235010931,0.5051909129065039,0.03655251281500479,0.010709253836541142,0.5066247455406548
78,1790650056.7121096,0.18734918088329083,-0.1968803810586735,-0.026296336894132123,0.2730441307874941,0.5149726902504644,0.02950337804924775,0.010075909057055913,0.5159155405329866
79,1790650056.7321095,0.16818902463329083,-0.05317920918367348,-0.00713618064413212,0.17654036753865757,0.5222595293487015,0.02426142713715047,0.009588486582303352,0.5229106729807659
80,1790650056.7422118,0.19692925900829084,0.10968211894132653,0.050344288105867885,0.23096720029887452,0.5256647509598221,0.022053621973872357,0.009411950723398045,0.5262113429604477
81,1790650056.7622118,0.23524957150829084,0.1911127830038265,0.03118413185586788,0.30469477645983084,0.5320432852035195,0.0187895455037464,0.009237170783180057,0.5324550963926147
82,1790650056.7872374,0.23524957150829084,0.16716258769132653,-0.09335688376913212,0.3033169948512251,0.5397105152899366,0.01599036314849546,0.008934583402894516,0.5400212577378163
83,1790650056.8072374,0.21608941525829084,0.2246430564413265,-0.09814692283163212,0.3267903864180974,0.5455958999507621,0.014676576466542812,0.008441779277042864,0.5458585453917733
84,1790650056.8318355,0.11549859494579083,0.24859325175382652,-0.06940668845663213,0.2827645993658139,0.5523603388158551,0.014176170381158646,0.007617478604365228,0.5525947282446059
85,1790650056.8518355,0.08196832150829084,0.18153270487882653,-0.05982661033163212,0.2079715172211873,0.5573315036353248,0.014475523540621068,0.006853947209466451,0.5575615861216923
86,1790650056.877679,0.08675836057079084,0.2006928611288265,-0.09335688376913212,0.23773965883732784,0.5631186450473419,0.01554517648298355,0.005718407548424634,0.5633621935280457
87,1790650056.897679,0.15381890744579083,0.2677534080038265,-0.10293696189413212,0.3254967924718681,0.5672863035017752,0.016951465006174775,0.00467700685919863,0.5675587869989547
88,1790650056.9075162,0.06759820432079083,0.4162446189413265,-0.03108637595663212,0.42284212514261466,0.5691920737332082,0.018044049493609216,0.004142738208398944,0.5694930788014031
89,1790650056.9275162,-0.03299261599170917,0.46414500956632654,0.07429448341836789,0.4712099032084363,0.5725374218477999,0.021252772787626988,0.003284258717019976,0.5729411541533811
90,1790650056.9522846,-0.03299261599170917,0.44498485331632653,0.10782475685586788,0.45904924635811795,0.5759363466527605,0.02631927823789554,0.0027188846576149082,0.5765438163196913
91,1790650056.9722846,0.11549859494579083,0.42582469706632653,0.055134327168367886,0.44464186948418305,0.5783929884254132,0.031102933367427095,0.0025752734279196553,0.5792343856824863
92,1790650056.9971852,0.11549859494579083,0.38271434550382655,0.0024438974808678807,0.3997701443626965,0.5814242014600467,0.0376753660140486,0.0025308228290587577,0.5826490713216126
93,1790650057.0171852,0.0005376574457908302,0.3970844626913265,0.06471440529336789,0.4023236431517079,0.5836677004896187,0.04333214023806295,0.0026012132401109795,0.5852797837639456
94,1790650057.0282605,0.0005376574457908302,0.3587641501913265,0.10782475685586788,0.37461738177647436,0.5847246062747334,0.046622619176955774,0.0027776646143975177,0.5865869494139565
95,1790650057.0482605,0.08675836057079084,0.24380321269132652,0.1796753427933679,0.3150400743642907,0.5864778492509254,0.05257719479851338,0.003479758646528322,0.5888401631980533
96,1790650057.071938,0.12986871213329085,0.13842235331632652,0.2419458506058679,0.3075132922561014,0.5886268253885174,0.05924803833733076,0.004934997720627362,0.5916216897784331
97,1790650057.091938,0.15381890744579083,0.13363231425382652,0.2371558115433679,0.3126671243502323,0.5905952737166597,0.06444563796798244,0.00669847897562546,0.5941387777364336
98,1790650057.1174564,0.21129937619579084,0.15758250956632652,0.17009526466836788,0.3137069855208103,0.5934289154630501,0.07063996090702297,0.009390464172934154,0.5976922808619672
99,1790650057.1374564,0.2591997668207908,0.12405223612882653,0.13656499123086788,0.3181563660189774,0.5960223927892864,0.07518897690210229,0.011643813951817345,0.6008590960925829
100,1790650057.1470368,0.24482964963329085,0.03783153300382652,0.10303471779336788,0.2683075386561819,0.5974405285518624,0.07715750081798664,0.012733461091137214,0.6025368089338325
101,1790650057.1670368,0.23524957150829084,-0.09149952168367348,0.09345463966836788,0.26916220581411493,0.6006770709581336,0.08057006457698837,0.01496172939916093,0.6062411502260437
102,1790650057.1925898,0.30231011838329086,-0.2160405373086735,0.08387456154336788,0.380919759938536,0.6052221850363245,0.08368672659325116,0.01772148235068274,0.6112376071584128
103,1790650057.2125897,0.30710015744579083,-0.2543608498086735,0.012023975605867881,0.39894175590929387,0.609160089417805,0.08505458930010187,0.019701348387693995,0.6153847908656912
104,1790650057.2376254,0.31189019650829086,-0.2399907326211735,-0.13167719626913213,0.41498184350562545,0.6145123387054554,0.08558178567021853,0.02158328581904665,0.620818407174351
105,1790650057.2576253,0.30710015744579083,-0.2831010841836735,-0.16041743064413214,0.44742651086370133,0.619075171215173,0.08515513183250097,0.02242303979740695,0.6253065302763617
106,1790650057.2664447,0.30710015744579083,-0.32142139668367353,-0.09335688376913212,0.45424412896194505,0.6211916861286638,0.08459535065399605,0.022569939201759755,0.6273315602001992
107,1790650057.2864447,0.31668023557079084,-0.3453715919961735,-0.11730707908163213,0.48304126010291004,0.6262071069687939,0.08251613929903438,0.022537103865902238,0.6320222900449846
108,1790650057.311984,0.30710015744579083,-0.3980620216836735,-0.14125727439413213,0.5222236086001685,0.6328457956212457,0.07883529682929015,0.022006195207776726,0.6381168213494864
109,1790650057.331984,0.29752007932079083,-0.4651225685586735,-0.11251704001913213,0.5634867218278835,0.6381716859110932,0.07509041402128724,0.021272141332742626,0.642926259359015
110,1790650057.3570821,0.30710015744579083,-0.46991260762117354,-0.08856684470663212,0.5683066526848416,0.6449907622014286,0.06933579174576252,0.020110636806645404,0.6490184689629105
111,1790650057.377082,0.33105035275829087,-0.4172221779336735,-0.045456493144132123,0.5345418361457495,0.6505668328549665,0.0641072442950171,0.019122866358358578,0.6539974210956818
112,1790650057.3871703,0.34542046994579084,-0.3884819435586735,-0.0023461415816321196,0.5198451941770901,0.6534693965707717,0.061255900947959324,0.01866319242274505,0.6565994611686208
113,1790650057.4071703,0.2783599230707908,-0.3645317482461735,-0.0023461415816321196,0.45866452515069145,0.6592962767915561,0.05532148417906412,0.01788154155467482,0.6618548154477342
114,1790650057.447435,0.25440972775829085,-0.2974712013711735,0.012023975605867881,0.39160950092231855,0.6708763924863793,0.04316708225116123,0.016573169096746866,0.6724679924870226
115,1790650057.467435,0.21608941525829084,-0.2735210060586735,0.050344288105867885,0.3521972792156487,0.6764713421443604,0.03717892568549086,0.016114317877528497,0.6776838647174489
116,1790650057.477517,0.20650933713329084,-0.24478077168367351,0.04076420998086788,0.3228396712373654,0.6791882462208297,0.034221172189692006,0.015986598434421517,0.6802377038653962
117,1790650057.4975169,0.18734918088329083,-0.2256206154336735,0.007233936543367881,0.2933542355655072,0.6843601974577735,0.028528293526833372,0.0158432388039393,0.685137761046488
118,1790650057.537652,0.17297906369579083,-0.2112504982461735,0.03597417091836788,0.2753954801001515,0.6942668659383286,0.017502651102016008,0.015728766063406143,0.6946655439974733
119,1790650057.557652,0.15381890744579083,-0.1585600685586735,0.055134327168367886,0.2276869466206981,0.6989532152699474,0.0122778208081766,0.015816941631656565,0.6992399571410192
120,1790650057.5521863,0.21129937619579084,-0.1968803810586735,0.03118413185586788,0.2904853884555004,0.6989532152699474,0.0122778208081766,0.015816941631656565,0.6992399571410192
121,1790650057.5721862,0.2687798449457908,-0.2016704201211735,-0.050246532206632125,0.33976208940923075,0.7035247461746784,0.00745186914816963,0.01596211083675862,0.7037452577576009
122,1790650057.5977046,0.24003961057079085,-0.2304106544961735,-0.055036571269132126,0.3372493269457987,0.7094565458726563,0.0013910097011307831,0.015918052379203514,0.7096364631141048
123,1790650057.6177046,0.13465875119579085,-0.2399907326211735,0.04076420998086788,0.2781910347818955,0.7139702681450565,-0.0033522446257404134,0.015867292779459915,0.7141544317017879
124,1790650057.6418626,0.12507867307079085,-0.1681401466836735,0.07429448341836789,0.22234085016109648,0.7190751843796567,-0.008961691789662588,0.016023646187066084,0.7193095230479702
125,1790650057.6618626,0.21608941525829084,-0.1489799904336735,0.055134327168367886,0.26819669455195777,0.7231792652660307,-0.013384739167712212,0.0163278151011622,0.7234873865516118
126,1790650057.6723702,0.2591997668207908,-0.1633501076211735,0.06950444435586789,0.3141634042421543,0.7253865964319544,-0.015606089105363246,0.016561872566946093,0.7257434532417246
127,1790650057.6923702,0.2591997668207908,-0.1681401466836735,0.13177495216836788,0.3358872817862195,0.7297353865604757,-0.019697196238507665,0.01724246769637519,0.7302047771895811
128,1790650057.7174723,0.25440972775829085,-0.1537700294961735,0.09345463966836788,0.3116140260399814,0.7353418103542431,-0.024667808301394333,0.018392585931411173,0.7359853028686743
129,1790650057.7374723,0.22087945432079084,-0.2064604591836735,0.050344288105867885,0.30650970929526894,0.7398515957963844,-0.028574413506004634,0.019387181554106382,0.7406569676431057
130,1790650057.7620783,0.14902886838329082,-0.2878911232461735,0.06471440529336789,0.33057352693163733,0.7452503759698104,-0.03357206831411903,0.02063962042049439,0.7462916323965677
131,1790650057.7820783,0.11070855588329083,-0.2974712013711735,0.08866460060586788,0.3295556271581037,0.7493699343782633,-0.03790293089050726,0.021734983741510266,0.7506426181868552
132,1790650057.791855,0.12507867307079085,-0.3645317482461735,0.06950444435586789,0.3916106966386125,0.7512545694594709,-0.04018789409078088,0.02230610379623847,0.7526593234868983
133,1790650057.811855,0.12986871213329085,-0.3836919044961735,0.01681401466836788,0.4054233232762126,0.7549139995528936,-0.0452833296668021,0.023428646700732223,0.7566337476962591
134,1790650057.8374605,0.16339898557079083,-0.34058155293367354,-0.03108637595663212,0.3790268927851865,0.7594595030102265,-0.052219247506055416,0.02462282532745915,0.761650753331043
135,1790650057.8574605,0.16818902463329083,-0.3262114357461735,-0.01671625876913212,0.367397444364974,0.7629747387516684,-0.05782433601644928,0.025343961448961182,0.7655824071847827
136,1790650057.882049,0.09154839963329084,-0.2831010841836735,0.02160405373086788,0.2983187363860915,0.7671272090131325,-0.06480540232466711,0.026106573926540543,0.7703021797846102
137,1790650057.902049,0.09633843869579084,-0.2639409279336735,0.02160405373086788,0.28180248995783824,0.7702799617251598,-0.07045251373107911,0.026698638806341643,0.7739558084544964
138,1790650057.912295,0.14423882932079085,-0.2735210060586735,0.012023975605867881,0.30945622732230105,0.7718377224120349,-0.07332460237120762,0.02698229918771433,0.7757821933510387
139,1790650057.932295,0.16818902463329083,-0.24478077168367351,0.03118413185586788,0.29862622837379266,0.7748909633046689,-0.07886735559983876,0.027517753859268385,0.7793800687520873
140,1790650057.9574099,0.08196832150829084,-0.1633501076211735,0.045554249043367884,0.18835406286204892,0.778621126745085,-0.08555233231275998,0.02823383193659382,0.7838158009658662
141,1790650057.9774098,0.02448785275829083,-0.11544971699617348,0.02160405373086788,0.11997927831427603,0.7813057277112817,-0.09049553723339882,0.028819276637219917,0.7870569440132713
142,1790650058.002732,0.09154839963329084,-0.1298198341836735,0.026394092793367883,0.16103088820868536,0.7844152524267479,-0.09628119440004182,0.029540485387205072,0.7908539668685547
143,1790650058.022732,0.14423882932079085,-0.1729301857461735,0.03118413185586788,0.22733706056347797,0.7868565032116666,-0.10061950293153331,0.030111034016470754,0.7938350681257546
144,1790650058.0328152,0.06280816525829083,-0.1298198341836735,0.09345463966836788,0.1718482605269362,0.7880592451016404,-0.1027075774636357,0.03044979165281029,0.7953071168236304
145,1790650058.0528152,0.01011773557079083,-0.1393999123086735,0.11261479591836789,0.17949037964326098,0.7901964222069991,-0.10663184051954117,0.03133003117819094,0.7979738754714676
146,1790650058.077484,0.10112847775829084,-0.1489799904336735,0.11261479591836789,0.21237725589870074,0.7926429048496567,-0.11127966491657819,0.03266960130319153,0.8010825433635146
147,1790650058.0974839,0.14902886838329082,-0.1873003029336735,0.12698491310586787,0.2709541940017812,0.7947040897563642,-0.11498704895881344,0.03395214103679262,0.8036973059459203
148,1790650058.1376305,0.17297906369579083,-0.1393999123086735,0.2036255381058679,0.30135933998740205,0.7991905127396544,-0.12229639748219648,0.03713591710000458,0.8093460081010182
149,1790650058.1576304,0.17297906369579083,-0.03401905293367348,0.2323657724808679,0.29167259840479876,0.801609215252801,-0.12565165302968498,0.03913806632301513,0.8123407290803586
150,1790650058.152191,0.23045953244579084,0.047411611128826525,0.2802661631058679,0.36593521167967497,0.801609215252801,-0.12565165302968498,0.03913806632301513,0.8123407290803586
151,1790650058.172191,0.10112847775829084,0.14321239237882652,0.4862378427933679,0.5168790942850408,0.8043684930790407,-0.12777281393475942,0.04238797914354243,0.815555826056639
152,1790650058.1972997,-0.09526312380420918,0.23901317362882651,0.5197681162308679,0.5799665978099469,0.8073240345542518,-0.12931656678170705,0.04775051564259086,0.8190085365594767
153,1790650058.2172997,-0.11442328005420918,0.2964936423788265,0.3473267099808679,0.4707834007859255,0.8090105617970408,-0.1295585089457621,0.05268187502886863,0.8210108868315754
154,1790650058.2574508,0.02927789182079083,0.2821235251913265,0.2515259287308679,0.3790991575297637,0.8116320914915974,-0.12822895539186643,0.06290021127603003,0.8241029993383615
155,1790650058.2774508,0.10591851682079084,0.25338329081632655,0.5197681162308679,0.587861139148194,0.8129448415776084,-0.12686276296234214,0.06838359478290507,0.8256208525161625
156,1790650058.286891,0.043648009008290835,0.30607372050382653,0.8263306162308679,0.882274650204758,0.8135774228202586,-0.12591853210479104,0.071536629582332,0.826366255979925
157,1790650058.306891,0.03406793088329083,0.5934760642538265,0.816750538105868,1.0101761748591704,0.8148331556946343,-0.12286882767496958,0.07967926779422836,0.8278880396223405
158,1790650058.3174748,0.08196832150829084,0.8760883689413266,0.6922095224808679,1.1195551165254667,0.815490111972213,-0.12033049743694657,0.08453974907677356,0.8286437838491515
159,1790650058.3374748,0.14423882932079085,0.7563373923788266,0.7065796396683679,1.045038696981177,0.8168846354573079,-0.11380475681419477,0.0944449091695597,0.830163761668626
160,1790650058.3623035,0.21608941525829084,0.6605366111288266,0.6490991709183679,0.9509642389254904,0.8190271493445674,-0.10428023497493483,0.10742150596035392,0.8325978733534612
161,1790650058.3823035,0.37416070432079085,0.6557465720663266,0.4383374521683679,0.8730060259860893,0.8213794849712602,-0.0957844518515162,0.11793762634151254,0.8353132366096077
162,1790650058.4077797,0.40290093869579086,0.6653266501913265,0.4000171396683679,0.8746441732986185,0.8254111978184454,-0.08406152923492005,0.1309257111059172,0.8399473364503183
163,1790650058.4277797,0.3597905871332909,0.7419672751913265,0.4527075693558679,0.9406959378017201,0.8292455491564255,-0.07412802030128657,0.1408715950102155,0.8443861382508904
164,1790650058.4377432,0.4891216418207909,0.7467573142538265,0.3473267099808679,0.9578738488732157,0.8315035650753531,-0.06880920965972688,0.1456810127447582,0.8469686201633191
165,1790650058.4577432,0.6424028918207909,0.6605366111288266,0.2467358896683679,0.9538703734322135,0.8370535311585418,-0.057623188538902206,0.1547780496486391,0.8531912391342343
166,1790650058.4823644,0.8148442980707908,0.5168354392538266,0.3185864756058679,1.016163099018137,0.8455519814974779,-0.04374396303841692,0.16534114656491175,0.862675711066457
167,1790650058.5023644,0.7382036730707908,0.7036469626913265,0.17488530373086789,1.0347214990039466,0.8537493901228355,-0.03233019298898716,0.1733747480193833,0.8717752381001673
168,1790650058.527502,0.9154351183832908,0.8473481345663265,-0.17478754783163214,1.2595916020676934,0.8656247515801244,-0.017212143057221754,0.18195764402437203,0.8847095866077606
169,1790650058.547502,1.1740972277582908,0.6988569236288266,-0.36638911033163213,1.4146187755375144,0.8767900622904446,-0.004668871957985434,0.1869502815007949,0.8965115835558781
170,1790650058.5575871,1.121406798070791,0.3300239158163265,-0.17478754783163214,1.1819558700083181,0.8833119889304801,0.0014856203217466259,0.18868087604876796,0.9032401396320867
171,1790650058.5775871,1.078296446508291,0.11926219706632653,-0.3280687978316321,1.1333912979691467,0.8976052424806034,0.012533884036800507,0.1908437732452077,0.9177546596799054
172,1790650058.6025093,1.3082183215082908,0.018671376753826522,-0.5675707509566321,1.4261557959708777,0.9172053149573197,0.024493932521892796,0.19146060231359568,0.9372954202142609
173,1790650058.6225092,1.6339409777582907,-0.04838917012117348,-0.6537914540816322,1.7605532925796112,0.9349882288147658,0.03260759154738232,0.19004931464197286,0.9546648548284248
174,1790650058.6477313,1.8015923449457907,0.047411611128826525,-0.5532006337691322,1.8852092137053844,0.9605492652816549,0.041303087471803064,0.18625328847449804,0.9793115559082283
175,1790650058.6677313,1.7968023058832907,0.05699168925382653,-0.5292504384566321,1.8739937581747845,0.9831753081814218,0.04732056453241651,0.1820710446274845,1.0010108829263764
176,1790650058.6773791,1.6147808215082908,0.004301259566326523,-0.5819408681441322,1.7164471376541703,0.9949213339896334,0.04983228472263813,0.17955213784468396,1.0122206714116178
177,1790650058.697379,1.6052007433832909,-0.04359913105867348,-0.5436205556441321,1.695315197627325,1.0204483820649937,0.054199113583126346,0.17342535857488295,1.0364983354396122
178,1790650058.7226865,1.8686528918207908,-0.01964893574617348,-0.5436205556441321,1.946220187775524,1.054497982969619,0.058775878912016466,0.16477195679690904,1.0689108465047763
179,1790650058.7426865,1.8638628527582908,-0.05317920918367348,-0.6490014150191321,1.9743392816024583,1.0829692026424347,0.06174102944223527,0.15717019642966404,1.0960550712597963
180,1790650058.78221,1.6387310168207907,-0.34058155293367354,-0.6969018056441322,1.813038131534819,1.14117650109662,0.06555454162430639,0.14041148328044473,1.151649507975283
181,1790650058.80221,1.5237700793207907,-0.4076420998086735,-0.6154711415816322,1.6931780952662692,1.1709565073552353,0.06607248398070625,0.13123462890182097,1.1801386541758347
182,1790650058.7972493,1.5333501574457908,-0.45075245137117353,-0.6106811025191321,1.7109272008855714,1.1709565073552353,0.06607248398070625,0.13123462890182097,1.1801386541758347
183,1790650058.8172493,1.7057915636957908,-0.4747026466836735,-0.7304320790816321,1.915358578359606,1.2012290944097863,0.06396406400099448,0.12102934113903462,1.2090040695368347
184,1790650058.8420205,1.7776421496332908,-0.6710942482461735,-0.6633715322066321,2.012570717248002,1.2395710613472086,0.05961565825293481,0.1076959774784419,1.2456680402111202
185,1790650058.8620205,1.7057915636957908,-0.9010161232461735,-0.45260981345663215,1.9815172359488933,1.27110952482989,0.05427327186145517,0.0968715887381397,1.2759502799311842
186,1790650058.8866181,1.7010015246332908,-0.9201762794961735,-0.5771508290816322,2.0182253718704994,1.3103647944514223,0.045328558024679784,0.08365603650481922,1.3138146388109742
187,1790650058.906618,1.8111724230707908,-0.8435356544961735,-0.6729516103316322,2.108260376790861,1.342763247260192,0.03650110037981203,0.07264732020200232,1.3452223242476333
188,1790650058.9319503,1.9117632433832907,-0.8531157326211736,-0.38075922751913216,2.1278211253153136,1.3847173361231768,0.023773787433546564,0.05879315343163814,1.3861687952119823
189,1790650058.9519503,1.7105816027582907,-1.0686674904336735,-0.10293696189413212,2.0195879884097456,1.4183054688128016,0.01235004874412306,0.048770332273649894,1.4191974745884963
190,1790650058.962029,1.6770513293207907,-1.3033794044961735,-0.20352778220663212,2.1337109905915987,1.4352534502251937,0.0056637302414300405,0.044245461989592845,1.4359464492557663
191,1790650058.982029,1.8303325793207907,-1.3800200294961735,-0.40949946189413217,2.328575195699143,1.4691011748083171,-0.009639373180814578,0.035693691537650354,1.4695663370375907
192,1790650059.0070696,1.8063823840082909,-1.2890092873086734,-0.4286596181441321,2.260157368027935,1.5119527805261714,-0.030937921328537118,0.02501855889535199,1.512476212641426
193,1790650059.0270696,1.7249517199457909,-1.4327104591836735,-0.34243891501913215,2.268343471901404,1.5463415647980319,-0.049479998410956724,0.016614606239241915,1.5472222045993456
194,1790650059.0515275,1.7968023058832907,-1.5476713966836735,-0.19873774314413212,2.3797651079655586,1.58854754785304,-0.0742208511301123,0.006886303096662733,1.5902954026540868
195,1790650059.0715275,1.8303325793207907,-1.5333012794961733,-0.2705883290816321,2.402987350874509,1.6233243737293162,-0.09603893967134446,-0.0005795407154617661,1.6261629180817996
196,1790650059.0823069,1.9117632433832907,-1.4806108498086734,-0.33285883689413215,2.4408691469681605,1.642281787198426,-0.10847094029259016,-0.004487682857680141,1.6458662013508407
197,1790650059.1023068,1.9069732043207908,-1.5476713966836735,-0.39991938376913216,2.48832655968315,1.6779073107266487,-0.13261966260151958,-0.011750315697554053,1.6831812107487023
198,1790650059.1284041,1.4854497668207907,-1.6243120216836735,-0.34243891501913215,2.227602963737821,1.7240608492315561,-0.16561239956746937,-0.02125858066300098,1.7321273642533725
199,1790650059.1484041,1.4662896105707908,-1.8781840919961734,-0.24184809470663213,2.395009646412423,1.758553229987528,-0.19235786559732326,-0.02832876849686504,1.7692692079729626
200,1790650059.172231,1.8111724230707908,-2.3044975685586735,-0.5100902822066321,2.9751044831377937,1.7993385149409509,-0.22691594180238167,-0.036832058058680256,1.8139643151106382
201,1790650059.192231,1.8447026965082909,-2.4386186623086736,-0.5196703603316322,3.101587706654821,1.8339218275944509,-0.2586871226015094,-0.04444362877562642,1.8526099247456183
202,1790650059.2021835,1.5573003527582907,-2.4242485451211735,-0.4478197743941321,2.915940319615893,1.851089394920082,-0.2757556530864528,-0.048385372347962974,1.8721416272419087
203,1790650059.2221835,1.3704888293207909,-2.3811381935586735,-0.7639623525191321,2.851613088093036,1.8848050676483195,-0.31211855422422524,-0.05693595239322871,1.911321489859498
204,1790650059.2465525,1.5237700793207907,-2.6877006935586736,-1.1088451650191322,3.2825520365677936,1.9250136001117526,-0.3590432032844428,-0.06921453113566034,1.9594336002427573
205,1790650059.2665524,1.5716704699457908,-2.9032524513711735,-1.094475047831632,3.4780595873012876,1.9577065066430288,-0.4001645844936528,-0.08108512969341568,1.999830307574327
206,1790650059.292203,1.6195708605707908,-2.8793022560586734,-0.8789232900191322,3.4184641878909066,1.9994858623078429,-0.4561173559589237,-0.09782223040892893,2.053181907366728
207,1790650059.312203,1.5046099230707908,-2.7212309669961736,-1.0417846181441321,3.279369480089692,2.0318615827990434,-0.501601095926297,-0.11179587746279346,2.0958443332716223
208,1790650059.3217673,1.2603179308832908,-2.6829106544961734,-1.1519555165816322,3.1801591751196794,2.047005270097947,-0.5239662148193057,-0.11904962414766397,2.11635157360268
209,1790650059.3417673,1.2411577746332907,-2.9032524513711735,-0.8166527822066322,3.2613293584995713,2.077674217784544,-0.5720977276097826,-0.1348955097804772,2.159218090824044
210,1790650059.3674254,1.4758696886957907,-2.9463628029336735,-0.5340404775191322,3.33832957272811,2.1163463724272202,-0.6358405394386721,-0.1547742177284953,2.215213357253198
211,1790650059.3874254,1.4806597277582907,-2.7356010841836733,-0.5292504384566321,3.155308629563625,2.146403683738135,-0.6865967474688414,-0.16953993721491215,2.259913196897231
212,1790650059.4119043,1.3130083605707907,-2.5631596779336734,-0.3472289540816321,2.900749288729805,2.182802897570106,-0.7491293029780715,-0.18651066854072862,2.3152989940179154
213,1790650059.4319043,1.193257384008291,-2.3044975685586735,-0.17478754783163214,2.6009849893569443,2.2118406234395698,-0.79985805571512,-0.1990794350355286,2.360433111580157
214,1790650059.4424694,1.2794780871332907,-2.1895366310586737,-0.13646723533163213,2.539637403355268,2.2268383318550056,-0.8261969878180311,-0.20496962788428064,2.3839930719809974
215,1790650059.4624693,1.2842681261957907,-2.2853374123086736,-0.14604731345663213,2.625536426299976,2.254816439167239,-0.8752907044743007,-0.2148711825658834,2.428271116818549
216,1790650059.4870744,1.111826719945791,-2.2661772560586733,-0.16520746970663214,2.5296267549007903,2.2884952661158278,-0.9350280048669921,-0.22579976962876527,2.4824329777225618
217,1790650059.5070744,1.154937071508291,-2.3380278419961735,-0.03587641501913212,2.6079764082997485,2.3151646091088014,-0.9832076918796845,-0.23365211789572674,2.526119127206483
218,1790650059.5316744,1.2315776965082907,-2.2134868263711733,-0.00713618064413212,2.5330531929135605,2.3474505915958517,-1.0419772165142245,-0.24194112384593844,2.579685311646806
219,1790650059.5516744,1.3321685168207908,-2.1464262794961733,-0.16041743064413214,2.5313143784553422,2.3736076109881754,-1.0891300794706136,-0.24792061665323328,2.6232960284936158
220,1790650059.5623386,1.3321685168207908,-2.2422270607461736,-0.18915766501913214,2.614963818370423,2.387593737977512,-1.1140112894242877,-0.2509102981021529,2.646616894884468
221,1790650059.5823386,1.1261968371332909,-2.3140776466836734,-0.12688715720663213,2.576698473146219,2.4135767554809098,-1.1605092111260702,-0.25615025625856647,2.690306179134178
222,1790650059.6072896,1.159727110570791,-2.2757573341836737,-0.19394770408163212,2.5615725886654457,2.4454073107922514,-1.2184054972184573,-0.2623071865289535,2.7446919556542375
223,1790650059.6272895,1.2938482043207908,-2.3715581154336736,-0.24184809470663213,2.7123461378697007,2.4707749506547145,-1.2648232461940492,-0.26715581342976213,2.7885263006729875
224,1790650059.651656,1.3561187121332907,-2.3092876076211737,-0.20352778220663212,2.6857570207002586,2.5018877277059985,-1.3214463158185683,-0.27299083090217546,2.842566896555473
225,1790650059.671656,1.3177983996332907,-2.1943266701211734,-0.16999750876913214,2.565260476105468,2.5276054239455013,-1.367706627032867,-0.2776221049416575,2.887297114939953
226,1790650059.6967158,1.3752788683832908,-2.1512163185586735,-0.27537836814413214,2.568064808507854,2.560057641441246,-1.425143525410566,-0.28339171784687045,2.943677981924241
227,1790650059.7167158,1.3800689074457908,-2.1943266701211734,-0.30411860251913214,2.6100091664402036,2.5862053649385883,-1.4706254705562376,-0.28817491166893044,2.989020281630971
228,1790650059.7271492,1.3656987902582907,-2.2518071388711736,-0.25142817283163216,2.645559430910142,2.599948410109585,-1.4942722734242255,-0.29073060191517786,3.012823533704841
229,1790650059.7471492,1.3513286730707907,-2.3044975685586735,-0.21789789939413212,2.680350298135764,2.626416528120568,-1.5396362445355285,-0.29559876935164214,3.058745196500449
230,1790650059.7719457,1.3513286730707907,-2.2757573341836737,-0.2897484853316321,2.66253916619193,2.6593362284712327,-1.595961207564554,-0.3016731841469736,3.1161142569141917
231,1790650059.7919457,1.4040191027582907,-2.3092876076211737,-0.33285883689413215,2.7230266067230104,2.6860383462864306,-1.6414540569779235,-0.30677159373577123,3.162796583660355
232,1790650059.817068,1.3992290636957907,-2.3428178810586733,-0.31369868064413214,2.746824431727867,2.719830107714256,-1.6987923230788797,-0.3134334128721745,3.222050849394742
233,1790650059.837068,1.3130083605707907,-2.3667680763711734,-0.29453852439413214,2.7225603803425136,2.7467648780959117,-1.7446567078204773,-0.3188537287862374,3.269588968669475
234,1790650059.8476534,1.3704888293207909,-2.4290385841836737,-0.4286596181441321,2.8217400913219435,2.761012608790132,-1.7690973766123645,-0.3218663445841852,3.2949194371958215
235,1790650059.8676534,1.4806597277582907,-2.5104692482461735,-0.46218989158163215,2.951004671578004,2.7881711548020505,-1.8157582969316104,-0.3280408725746884,3.3434245012301003
236,1790650059.9073925,1.4614995715082908,-2.5583696388711736,-0.3184887197066321,2.963557198907608,2.8428085371108973,-1.9096719562892916,-0.34079588554656026,3.441591084791137
237,1790650059.9273925,1.5189800402582907,-2.5200493263711734,-0.40949946189413217,2.9707976671827496,2.870652551287639,-1.957464855820771,-0.3473443275308428,3.491842323739077
238,1790650059.9518776,1.6722612902582907,-2.6445903419961736,-0.6921117665816322,3.204580252906222,2.9054878821789587,-2.0166832761164533,-0.3561817360822237,3.5546781427824246
239,1790650059.9718776,1.5668804308832909,-2.7835014748086735,-0.8645531728316321,3.3091459522965,2.934532719185805,-2.06594068528551,-0.3646525335749799,3.607293260234417
240,1790650059.9669204,1.5620903918207907,-2.8409819435586736,-0.8406029775191322,3.349316073717033,2.934532719185805,-2.06594068528551,-0.3646525335749799,3.607293260234417
241,1790650059.9869204,1.6914214465082908,-2.9942631935586737,-0.7927025868941322,3.5291494688206444,2.9643873110208823,-2.117453232287858,-0.3753967127919924,3.662256546535612
242,1790650060.0123525,1.8255425402582908,-3.0756938576211734,-0.7543822743941322,3.6553509938200697,3.003364401362897,-2.184709263475095,-0.38996064997666624,3.7343301409781686
243,1790650060.0323524,1.8638628527582908,-3.0230034279336735,-0.6777416493941322,3.6155038656478427,3.034952571582257,-2.2388143037479495,-0.40184403461495877,3.7927173934496885
244,1790650060.057233,1.6099907824457909,-2.8888823341836734,-0.5867309072066321,3.3588635902326303,3.0748371837316935,-2.3070583831623668,-0.41676943182321696,3.866631460209397
245,1790650060.077233,1.5525103136957907,-2.7547612404336737,-0.5963109853316322,3.2178540298084775,3.1068325429963055,-2.362152379206366,-0.42874193934298555,3.9263204101757627
246,1790650060.0866363,1.7824321886957908,-2.8026616310586734,-0.7687523915816321,3.4092458059033834,3.121971033736989,-2.3880893406410535,-0.43448930379539585,3.954548620195336
247,1790650060.1066363,1.9692437121332909,-2.9415727638711737,-0.8453930165816321,3.639431339565316,3.154967236925576,-2.4435968035617335,-0.44730111042735643,4.015602306982164
248,1790650060.1322496,1.9117632433832907,-3.1667045998086736,-0.8885033681441321,3.8042469631195446,3.198341209479776,-2.5157543643869533,-0.46457842720193737,4.095636657372085
249,1790650060.1522496,1.5908306261957907,-3.1954448341836734,-0.9555639150191322,3.695228296768727,3.2323831312266305,-2.5731897676084303,-0.47881177156253485,4.159190666433802
250,1790650060.1767213,1.4423394152582907,-3.0661137794961735,-1.0178344228316323,3.53799146549634,3.2733554842519252,-2.6444178555884252,-0.49723711227036116,4.237339574197
251,1790650060.1967213,1.5381401965082908,-3.1427544044961735,-0.9124535634566322,3.615985621730176,3.306288775982784,-2.703211707428869,-0.5129322132702622,4.301394943594528
252,1790650060.2073112,1.7441118761957908,-3.1331743263711735,-0.8453930165816321,3.684209134753842,3.3237179035238156,-2.734657550960679,-0.5213922328393463,4.335585598704771
253,1790650060.2273111,1.8686528918207908,-2.9463628029336735,-0.8980834462691322,3.602703328485988,3.357116216184978,-2.7942572074132452,-0.53758840776411,4.400807190313541
254,1790650060.2525563,1.8159624621332908,-2.7451811623086737,-0.7208520009566322,3.3694757581936665,3.39992639771961,-2.868979273240878,-0.5580309083517696,4.48351871579369
255,1790650060.2725563,1.5908306261957907,-2.6110600685586736,-0.45260981345663215,3.0908303748509662,3.4338647434723764,-2.9273310908471313,-0.5735569765045736,4.548589011682626
256,1790650060.2975075,1.5189800402582907,-2.4146684669961735,-0.5867309072066321,2.912417780072125,3.475673427892993,-2.998613837110083,-0.5919662128479269,4.628435450411186
257,1790650060.3175075,1.4471294543207909,-2.4242485451211735,-0.8837133290816321,2.958397186667378,3.5086080475165837,-3.054439191698525,-0.606714619494348,4.691271878327907
258,1790650060.357177,1.4231792590082908,-2.5727397560586733,-0.7783324697066322,3.0414191570837215,3.572674146421867,-3.1634253870722615,-0.6365247244326118,4.814189907024703
259,1790650060.377177,1.3896489855707908,-2.2565971779336733,-0.33285883689413215,2.670982989810055,3.6043482875623836,-3.2173743582629704,-0.650966339977496,4.875098103120146
260,1790650060.3717177,1.3130083605707907,-1.7153227638711734,-0.29453852439413214,2.1801550590578893,3.6043482875623836,-3.2173743582629704,-0.650966339977496,4.875098103120146
261,1790650060.3917177,1.4327593371332907,-1.6291020607461735,-0.6058910634566321,2.252526764157679,3.634797386985186,-3.266433315497151,-0.6635509811751444,4.931697329889837
262,1790650060.417326,1.5860405871332908,-1.7871733498086735,-0.6585814931441322,2.478556618157516,3.673734756506662,-3.3263881955770165,-0.6796760982673937,5.002313973292277
263,1790650060.437326,1.4231792590082908,-1.6243120216836735,-0.24184809470663213,2.1730897928918442,3.7040970225369017,-3.371306262350271,-0.6917313455985459,5.05613814303095
264,1790650060.4619353,1.2651079699457908,-1.2219487404336735,0.1844653818558679,1.7685260464497072,3.7408146084160174,-3.423539294182381,-0.7044458087868821,5.1196249013835855
265,1790650060.4819353,1.7393218371332908,-1.0782475685586737,0.08866460060586788,2.0483455967272746,3.7706855489837476,-3.463071867609921,-0.7128191932897736,5.169047056457159
266,1790650060.4923544,2.0698345324457907,-1.3273295998086734,-0.14604731345663213,2.463198870574854,3.7868894108119395,-3.4824572249284422,-0.7165718815101072,5.194373397682038
267,1790650060.5123544,1.8638628527582908,-1.4231303810586735,-0.49093012595663216,2.395891734606611,3.8192283755622594,-3.51821230323122,-0.7236502799504737,5.242899285984794
268,1790650060.537557,1.3944390246332907,-1.2890092873086734,-0.6346312978316322,2.002189306827833,3.8600256979635956,-3.5616363020462627,-0.7333595310326587,5.303099823570132
269,1790650060.5575569,1.198047423070791,-1.3081694435586735,-0.6106811025191321,1.8760480617407311,3.891433656890468,-3.59482308528041,-0.7417767301716368,5.349415074367385
270,1790650060.5819716,1.4423394152582907,-1.2937993263711733,-0.37596918845663213,1.9737306088711468,3.9288583016298952,-3.6340231421404248,-0.7523173240371395,5.404445679988347
271,1790650060.6019716,1.7776421496332908,-1.0303471779336735,-0.13646723533163213,2.059186787435227,3.959747009704009,-3.6648043164766717,-0.760425382238979,5.448727724972058
272,1790650060.612555,1.9931939074457907,-0.6663042091836735,0.045554249043367884,2.102108094618544,3.976633715091194,-3.6799962591648585,-0.7641445085945294,5.471736927291234
273,1790650060.632555,1.8590728136957908,-0.3789018654336735,0.13656499123086788,1.9022009218486329,4.009537012633427,-3.7059666936951006,-0.7698453159924441,5.5139131296213115
274,1790650060.6573582,1.9357134386957908,-0.30226124043367353,-0.02150629783163212,1.9592883644482781,4.051280744755635,-3.734610172312117,-0.7756407022794555,5.564333501058099
275,1790650060.6773582,1.8399126574457907,-0.42201221699617353,-0.13167719626913213,1.892276877822206,4.085555158830621,-3.7553287025420112,-0.7798426109522891,5.6037852490830025
276,1790650060.702393,1.4902398058832909,-0.6327739357461736,-0.25621821189413213,1.6391660394557341,4.128275356275596,-3.7793533819325633,-0.7850416957987773,5.65176608388034
277,1790650060.722393,1.5429302355707908,-0.6136137794961736,-0.21789789939413212,1.674704474463029,4.161834311509466,-3.797536950875749,-0.789283314477356,5.689035057040562
278,1790650060.7324874,1.8878130480707909,-0.4555424904336735,-0.09335688376913212,1.9442408731440473,4.178828873973299,-3.8061473680237423,-0.7913386671559011,5.707502556390413
279,1790650060.7524874,1.7968023058832907,-0.4172221779336735,0.055134327168367886,1.8454302116903627,4.2129763304049,-3.8219573152833815,-0.7948574199014652,5.743546430418448
280,1790650060.7771127,1.7105816027582907,-0.4363823341836735,0.09824467873086788,1.76809812459084,4.255192028144747,-3.8400801516100205,-0.7982567878332256,5.7870621792493
281,1790650060.7971127,1.8159624621332908,-0.3357915138711735,-0.02150629783163212,1.846872525517536,4.289625286687922,-3.8537494428876107,-0.8004884211842993,5.821773920481553
282,1790650060.821759,1.7824321886957908,-0.4555424904336735,-0.050246532206632125,1.8404097864030644,4.332344551632916,-3.86953034606658,-0.8029586187273545,5.864061472783356
283,1790650060.841759,1.5093999621332908,-0.5609233498086735,0.07429448341836789,1.6119686474354782,4.366748273251995,-3.8819400562142143,-0.8046263867021406,5.897912571763593
284,1790650060.8518302,1.5429302355707908,-0.4268022560586735,0.0024438974808678807,1.6008747141017021,4.383779652996052,-3.887997855221516,-0.8052822769243526,5.914603191572345
285,1790650060.8718302,1.6339409777582907,-0.46033252949617354,-0.07898676658163212,1.699384613854405,4.417293361431917,-3.8995539206589287,-0.8065042121379535,5.9472220797001665
286,1790650060.9126801,1.6435210558832907,-0.5896635841836735,0.02160405373086788,1.7462334720138855,4.485518601499593,-3.922833596231888,-0.8088014484513065,6.013539750524761
287,1790650060.9326801,1.4375493761957907,-0.5800835060586735,0.17488530373086789,1.560009600118944,4.518532617192831,-3.9342762162406606,-0.809462725777132,6.045733724101233
288,1790650060.9421196,1.5046099230707908,-0.6327739357461736,-0.06940668845663213,1.6337292195358784,4.533860038487898,-3.9397253959457457,-0.8096533408985055,6.060764108302307
289,1790650060.9621196,1.6866314074457909,-0.8866460060586735,-0.3184887197066321,1.9319165896132102,4.566250771786021,-3.9518182084047893,-0.8105784712175509,6.092991935093748
290,1790650060.9722564,1.5429302355707908,-1.1309379982461736,-0.29453852439413214,1.935563848099016,4.582660542172375,-3.9585618831202116,-0.811443094427977,6.109781479134151
291,1790650060.9922564,1.3177983996332907,-1.1740483498086736,-0.17478754783163214,1.773565007729214,4.61447162300868,-3.9733288334988814,-0.813597098511277,6.143503122598044
292,1790650061.031997,1.3225884386957907,-1.1836284279336735,-0.2801684072066321,1.7968613663778321,4.676069543978307,-4.005297006200403,-0.818591174081227,6.211128882762222
293,1790650061.051997,1.3896489855707908,-1.2890092873086734,-0.39512934470663214,1.936180891578634,4.706487892147382,-4.02268111590956,-0.8217404559827369,6.245658413347948
294,1790650061.0621378,1.2698980090082908,-1.6243120216836735,-0.25621821189413213,2.0776617311717396,4.721620614101581,-4.032389243601746,-0.8235931537960336,6.263558886001133
295,1790650061.0821378,0.9250151965082909,-2.0362553810586737,0.2515259287308679,2.2506120019864824,4.750281156506416,-4.054154589860798,-0.8267060157305769,6.299585965823026
296,1790650061.1072173,0.9633355090082909,-2.0362553810586737,0.5437183115433679,2.317321920259298,4.784381750325811,-4.085014058236134,-0.8285281268711838,6.345400495307936
297,1790650061.1272173,1.4806597277582907,-1.6578422951211735,0.2467358896683679,2.2364420189551835,4.8111626264257135,-4.111473108407912,-0.828577554008443,6.382635639144977
298,1790650061.137731,1.3082183215082908,-1.6817924904336734,0.007233936543367881,2.13070727399307,4.825328415156973,-4.125929383910269,-0.828399376078165,6.402603620514248
299,1790650061.157731,1.0926665636957908,-1.8015434669961734,-0.13167719626913213,2.1111177056035175,4.851834738154186,-4.154529076903375,-0.8282979406767967,6.4410006719239465
300,1790650061.1820455,0.9537554308832908,-1.9883549904336735,-0.21310786033163212,2.215540554821101,4.882957209965312,-4.19099412936783,-0.828821864297269,6.488038886249453
301,1790650061.2020454,0.9058550402582909,-2.3332378029336733,-0.18915766501913214,2.510050322450846,4.90750662693209,-4.222971906488266,-0.8297915754602909,6.527301668766075
302,1790650061.2277389,0.8819048449457909,-2.3428178810586733,-0.16041743064413214,2.5084428499373024,4.937758908845602,-4.266901508140334,-0.8315241055602276,6.578703813076107
303,1790650061.2477388,0.8004741808832909,-2.1751665138711735,-0.17478754783163214,2.3243620553184576,4.960298820416016,-4.302744387550527,-0.8331732366856202,6.619089914387572
304,1790650061.2572887,0.7621538683832909,-2.0314653419961735,-0.25142817283163216,2.184249546392696,4.970566293468645,-4.320304865723319,-0.8341478407525493,6.638325544200988
305,1790650061.2772887,0.7669439074457909,-1.9979350685586734,-0.3568090322066321,2.1696221285765414,4.991137372917382,-4.357608891450154,-0.8367951174537077,6.6783556055942705
306,1790650061.30231,0.5609722277582908,-2.1081059669961735,-0.3280687978316321,2.2059985821644728,5.015504766001749,-4.404983640111042,-0.84089549050031,6.728021563087915
307,1790650061.32231,0.5370220324457908,-2.1033159279336733,-0.26100825095663216,2.1864253618861853,5.0337074521808,-4.443488122844242,-0.8445649810479299,6.76728065172495
308,1790650061.3476348,0.6040825793207909,-1.9739848732461736,-0.13646723533163213,2.0688536315463764,5.055466481714347,-4.492674994904453,-0.8492694251972193,6.816386763832565
309,1790650061.3676348,0.43643121213329084,-1.8829741310586734,-0.050246532206632125,1.933542990253667,5.071633598669919,-4.5314784702319955,-0.8527074832637991,6.8544054838729656
310,1790650061.3773675,0.34542046994579084,-1.7728032326211733,0.045554249043367884,1.80671574749753,5.078891699181301,-4.550197733889506,-0.8541330306463869,6.872334650142345
311,1790650061.3973675,0.34063043088329087,-1.6674223732461735,0.08387456154336788,1.7039252927636617,5.092598376495512,-4.58805468999468,-0.8564288672240878,6.907841520133596
312,1790650061.4221995,0.3693706652582909,-1.5764116310586735,0.10303471779336788,1.6223823445665262,5.108386181831635,-4.634048780762017,-0.8585037046416253,6.950327049577863
313,1790650061.4421995,0.40769097775829083,-1.5045610451211735,0.09824467873086788,1.5619116136134465,5.120360098078348,-4.670157770566106,-0.8596222186582755,6.9833667736116265
314,1790650061.4673703,0.35500054807079084,-1.2794292091836734,0.17488530373086789,1.3392346171989282,5.134609133391658,-4.714041374222862,-0.8603031428061849,7.023284027299209
315,1790650061.4873703,0.41248101682079086,-1.1596782326211736,0.17009526466836788,1.242548426225507,5.145383939897402,-4.747338361218941,-0.860245558428584,7.0535253473459045
316,1790650061.4974523,0.7238335558832909,-0.9345463966836736,0.13656499123086788,1.1899420074133757,5.150860015035901,-4.763189192399387,-0.8599890030462725,7.068161802225985
317,1790650061.5174522,0.7286235949457909,-0.6375639748086736,0.2419458506058679,0.9979568927117843,5.1622722960833025,-4.792274562668293,-0.8589886411587722,7.095971549305039
318,1790650061.542555,0.38374078244579085,-0.4651225685586735,0.2994263193558679,0.673240011153324,5.1765420066688055,-4.825380982056748,-0.8569021337866027,7.1284759967113365
319,1790650061.562555,0.46038140744579087,-0.2687309669961735,0.17009526466836788,0.5595531896138811,5.1874718250314755,-4.848901865331578,-0.8547848417600754,7.1520885313881735
320,1790650061.5870464,0.6280327746332909,-0.1250297951211735,0.026394092793367883,0.640901134197793,5.2008477243470175,-4.874107600429501,-0.8522200701596511,7.178580709331971
321,1790650061.6070464,0.46996148557079087,0.05699168925382653,-0.00713618064413212,0.4734583145727775,5.2117792346923695,-4.89170554014995,-0.8504109161379644,7.1982376043717045
322,1790650061.617626,0.16339898557079083,0.13842235331632652,0.03118413185586788,0.21640800923902423,5.217196952549586,-4.899463096701684,-0.8495783797835229,7.20733418824394
323,1790650061.637626,0.15381890744579083,0.14321239237882652,-0.03587641501913212,0.21320685442384057,5.226378328990425,-4.91150600376738,-0.8482476433123326,7.222011196832133
324,1790650061.662299,0.32626031369579084,0.3587641501913265,-0.00713618064413212,0.4849829201421079,5.236894320697644,-4.923205336148177,-0.8469318229198447,7.2374240183028835
325,1790650061.682299,0.42685113400829083,0.5120454001913265,-0.06461664939413213,0.6697519644168158,5.245269631693581,-4.929960103941866,-0.846132835968994,7.247985990034083
326,1790650061.7074318,0.33584039182079084,0.3204438376913265,-0.14604731345663213,0.4866239201483907,5.255653360481726,-4.935605987831264,-0.8456764934647378,7.259288356599254
327,1790650061.7274318,0.36458062619579085,0.2869135642538265,-0.16041743064413214,0.4908891712032509,5.263727583969405,-4.93851384956207,-0.8458275183669791,7.267129509743418
328,1790650061.7524714,0.42206109494579086,0.38271434550382655,-0.06940668845663213,0.5739539411170361,5.273797362388124,-4.9403508137523495,-0.8464198411780725,7.275742665186513
329,1790650061.7724714,0.6471929308832909,0.49288524394132655,-0.07898676658163212,0.8173331406320352,5.282237835605086,-4.940284570950528,-0.847044572112623,7.281890736684751
330,1790650061.7821546,0.7477837511957909,0.46414500956632654,-0.05982661033163212,0.8821509801397642,5.286724453941294,-4.939562281035025,-0.8474024809474643,7.284697793652166
331,1790650061.8021545,0.43643121213329084,0.45456493144132654,-0.026296336894132123,0.6307083138459815,5.296377610164959,-4.936916144603886,-0.8481600202320922,7.290002210440494
332,1790650061.8274846,0.26398980588329085,0.3875043845663265,-0.09814692283163212,0.47904392714003113,5.308100139767412,-4.932467776972358,-0.8492119448400431,7.295637490441015
333,1790650061.8474846,0.40290093869579086,0.2294330955038265,-0.08377680564413212,0.47115524498656713,5.316967916248189,-4.9285569007092835,-0.850190817310492,7.299564738515633
334,1790650061.8721042,0.6663530871332909,0.24380321269132652,-0.050246532206632125,0.7113305541374358,5.328220908292029,-4.923591005440037,-0.8514625138600842,7.304565342915299
335,1790650061.8921041,0.6136626574457908,0.14800243144132652,0.055134327168367886,0.6336610851932468,5.337911196167971,-4.9195743137167245,-0.852333297127329,7.309034095949253
336,1790650061.902686,0.6088726183832909,0.047411611128826525,-0.09814692283163212,0.618551974168763,5.343239512066042,-4.917612780308035,-0.8527590549616674,7.3116565801582745
337,1790650061.922686,0.5082817980707909,0.013881337691326523,-0.3472289540816321,0.6157199236168999,5.353475206073147,-4.9143696285357255,-0.8541111000576765,7.317119064164258
338,1790650061.9476929,0.39332086057079085,0.2294330955038265,-0.2993285634566321,0.5449205754728175,5.366044549715582,-4.9104665050797855,-0.8567606621099366,7.324012168148128
339,1790650061.9676929,0.4795415636957909,0.15758250956632652,0.09345463966836788,0.5133479602653254,5.3758986733169545,-4.907232579463847,-0.8588706853316701,7.329316270215421
340,1790650061.9917917,0.48433160275829085,0.10010204081632652,0.5149780771683679,0.7140027590773287,5.387733416397817,-4.903454639824187,-0.8599320869108614,7.335599632278327
341,1790650062.0117917,0.4891216418207909,0.2054829001913265,0.4574976084183679,0.7005478316839122,5.397542136289363,-4.900331204103893,-0.8592221155771691,7.340638232935223
342,1790650062.021853,0.40290093869579086,0.2342231345663265,0.14614506935586788,0.48841378406537256,5.4024095010225395,-4.898663810203325,-0.8584630232756861,7.3430167032675335
343,1790650062.041853,0.6376128527582908,0.09531200175382652,0.06471440529336789,0.6479370972041665,5.412194398048413,-4.895352201002674,-0.8568641363965844,7.347825360089271
344,1790650062.0671291,0.5753423449457908,0.023461415816326523,0.050344288105867885,0.5780171271378682,5.42500513047143,-4.89156958134258,-0.8549284316439645,7.35452488322601
345,1790650062.087129,0.5992925402582908,-0.2783110451211735,-0.10772700095663212,0.6694876349722862,5.435383185622299,-4.88940778181152,-0.8537126101668229,7.360606228575368
346,1790650062.1127582,0.6998833605707908,-0.5178129982461736,-0.04066645408163212,0.8715622640087906,5.449184578264655,-4.888583365589422,-0.8526735330593711,7.370136501062575
347,1790650062.1327581,0.5945025011957908,-0.7333647560586736,-0.04066645408163212,0.9449396011622239,5.460280747746018,-4.889913287457123,-0.8521063027627706,7.3791600439524
348,1790650062.1569602,0.24482964963329085,-0.9632866310586735,-0.22747797751913212,1.0196121425189697,5.473217683805096,-4.894360923128946,-0.8520095795635941,7.391671054899331
349,1790650062.1769602,0.16818902463329083,-0.9201762794961735,-0.2993285634566321,0.9821453671710358,5.482924341147687,-4.900310211805435,-0.8527318485564059,7.402881270709186
350,1790650062.187583,0.17297906369579083,-0.8483256935586735,-0.30411860251913214,0.9176417401290478,5.487578385859947,-4.904405093774177,-0.8535386987457941,7.409131809804171
351,1790650062.207583,-0.052152772241709174,-0.7812651466836735,-0.2705883290816321,0.8284402120312286,5.495207673952088,-4.913402676637417,-0.8556919920712437,7.420986593974179
352,1790650062.232535,0.07238824338329083,-0.6806743263711735,-0.2993285634566321,0.7470978418266113,5.503336083943715,-4.9256801039159095,-0.859042009409811,7.435521885710568
353,1790650062.2525349,0.09633843869579084,-0.5992436623086735,-0.24184809470663213,0.6533487296235314,5.5091271345731405,-4.935964703737205,-0.8621361713955383,7.446979798512825
354,1790650062.2626112,-0.08568304567920917,-0.3597417091836735,-0.15083735251913213,0.399384011395345,5.511615161055594,-4.941093732133663,-0.8637579838153183,7.452408121400301
355,1790650062.2826111,-0.07610296755420917,-0.2304106544961735,0.02160405373086788,0.2436133545467454,5.51557010196008,-4.950632288388438,-0.866688039081052,7.461998509887028
356,1790650062.3074677,-0.08568304567920917,0.06657176737882653,0.07429448341836789,0.13150306002222223,5.5194465134153,-4.961014303490496,-0.8696045863354851,7.472092402430882
357,1790650062.3274677,0.03406793088329083,-0.06754932637117349,0.14135503029336788,0.1603271031270351,5.522020258650282,-4.9681162711035185,-0.8712758067846402,7.478904234688119
358,1790650062.3530796,0.02927789182079083,-0.09149952168367348,0.16530522560586788,0.1911940768706443,5.5249434757503595,-4.976152319720344,-0.8725058791188893,7.486545186425555
359,1790650062.3730795,0.043648009008290835,-0.1729301857461735,0.13177495216836788,0.2217535475512614,5.526993161276479,-4.981882922591505,-0.8728767245983264,7.491910613158125
360,1790650062.3823957,0.07238824338329083,-0.31184131855867353,0.12219487404336789,0.34266113433391476,5.5278857883060235,-4.9844906098553,-0.8728461041944453,7.494299717111585
361,1790650062.4023957,0.19213921994579083,-0.1873003029336735,0.12219487404336789,0.2948397370825333,5.529911422995936,-4.9899977652264615,-0.8724236445612017,7.499408047221825
362,1790650062.427456,0.43164117307079086,-0.3884819435586735,-0.05982661033163212,0.5837906697308769,5.533241246027084,-4.996945398409847,-0.871856478345587,7.506420966096817
363,1790650062.447456,0.44122125119579086,-0.45075245137117353,-0.10293696189413212,0.6391009177335731,5.5368093787209265,-5.002917290221536,-0.8717158769256752,7.513010586920126
364,1790650062.472185,0.34542046994579084,-0.6088237404336735,-0.06940668845663213,0.7034194597647523,5.5420183948820005,-5.011158823946851,-0.8718877487060944,7.52235793447604
365,1790650062.4921849,0.33105035275829087,-0.5609233498086735,0.050344288105867885,0.6532716799057334,5.546614043257609,-5.0185790930989995,-0.8720344956981039,7.530704324313918
366,1790650062.5173025,0.44122125119579086,-0.5800835060586735,0.007233936543367881,0.7288521086928512,5.552974723126149,-5.028649688992034,-0.8720826810253546,7.5421067463157785
367,1790650062.5373025,0.23045953244579084,-0.5800835060586735,0.07429448341836789,0.6285921892315063,5.558287244648151,-5.037205864666846,-0.8719930010473498,7.551713170594336
368,1790650062.5472279,0.09154839963329084,-0.6088237404336735,0.3090063974808679,0.6888631286947864,5.560767920761676,-5.04170012826919,-0.8716698413837225,7.556499742892844
369,1790650062.5672278,0.22566949338329084,-0.5752934669961736,0.49102788185586793,0.7893020170835805,5.565492603668924,-5.051173994605136,-0.8699162891679895,7.566096813775813
370,1790650062.5923495,0.18734918088329083,-0.45075245137117353,0.3185864756058679,0.5829020761961056,5.5713151985659985,-5.063222184418775,-0.8665186531765307,7.578035794773326
371,1790650062.6123495,0.06759820432079083,-0.4938628029336735,-0.050246532206632125,0.5009937118843828,5.575637800987072,-5.072792181674984,-0.8638169448481026,7.587301043221199
372,1790650062.6375818,-0.02341253786670917,-0.5992436623086735,-0.011926219706632121,0.5998194298811623,5.580356867219837,-5.0851234223686745,-0.8610373591504424,7.59870043626559
373,1790650062.6575818,0.10112847775829084,-0.6327739357461736,0.06471440529336789,0.6440634883502449,5.583652857938729,-5.095279479434991,-0.8590854628633786,7.607698735098666
374,1790650062.6671667,0.0005376574457908302,-0.30226124043367353,-0.03587641501913212,0.30438341561040577,5.585068593259917,-5.100088805278503,-0.858269610039049,7.611867296311859
375,1790650062.6871667,0.043648009008290835,-0.42201221699617353,-0.20352778220663212,0.47055607329452626,5.587645849189555,-5.1097051343716675,-0.857181702522479,7.62008091606177
376,1790650062.7126021,0.24482964963329085,-0.5944536232461736,-0.24663813376913213,0.6885833548374402,5.590982199207845,-5.122039528578733,-0.8568644291454652,7.630765855018541
377,1790650062.7326021,0.33584039182079084,-0.7333647560586736,-0.17957758689413214,0.8263538854038625,5.594083079512533,-5.132275044728394,-0.8572916999315285,7.639958225933029
378,1790650062.7576802,0.13944879025829085,-0.5657133888711735,0.09345463966836788,0.5900943764586754,5.598282004816287,-5.145627623916976,-0.8579090777577975,7.652075080340402
379,1790650062.7776802,-0.01862249880420917,-0.2926811623086735,0.050344288105867885,0.29756277921970603,5.601309623229992,-5.1559666979891245,-0.8581118893677658,7.661267395198793
380,1790650062.7877636,-0.02341253786670917,-0.2352006935586735,0.14135503029336788,0.2754065318199263,5.602575309120002,-5.160796686543013,-0.8580538294697575,7.665437294014096
381,1790650062.8077636,0.09633843869579084,-0.2687309669961735,0.4383374521683679,0.5231033830577827,5.604818557550183,-5.169695613054453,-0.8570864065656586,7.672961677410686
382,1790650062.8329408,0.08675836057079084,-0.1393999123086735,0.6011987802933679,0.623216914169401,5.607564649458772,-5.179988435332056,-0.8540882824010573,7.681570691087098
383,1790650062.8529408,0.09154839963329084,-0.3645317482461735,0.48144780373086793,0.610783507203743,5.609686304531245,-5.187694172881377,-0.8504399435931673,7.6879125492068106
384,1790650062.8770704,0.0005376574457908302,-0.35016163105867354,0.5916187021683679,0.6874781056125232,5.612028733663853,-5.196889881926013,-0.844756582611499,7.69520270273624
385,1790650062.8970704,-0.02820257692920917,0.11447215800382653,0.7448999521683679,0.754171863068318,5.613637541724869,-5.203722044367416,-0.838747723262956,7.700334233536687
386,1790650062.9076645,0.05322808713329083,0.8617182517538265,0.7640601084183679,1.1529004397352915,5.614381793322164,-5.206022590324264,-0.834843269839248,7.702007362847029
387,1790650062.9276645,-0.03299261599170917,1.0964301658163265,0.773640186543368,1.3422990573850713,5.6156064178190945,-5.20677696627752,-0.8262713984747299,7.702485718282542
388,1790650062.952188,-0.07610296755420917,0.8856684470663265,0.5820386240433679,1.062529632376308,5.616682126823825,-5.203917615164864,-0.8148439201127645,7.700119951880627
389,1790650062.972188,0.038857969945790834,0.6317963767538265,0.3712769052933679,0.7338413615433458,5.617371953843357,-5.199659283404788,-0.8054922822865428,7.696761796245659
390,1790650062.9977407,-0.07610296755420917,0.5791059470663266,0.4000171396683679,0.7079329570140146,5.618049722678004,-5.192714124074918,-0.7938583187776641,7.691357077339605
391,1790650063.0177407,-0.13358343630420919,0.6796967673788266,0.5293481943558679,0.8718037284319705,5.618186106067123,-5.186205378116835,-0.7847243148071673,7.686126046108223
392,1790650063.0269687,0.09633843869579084,0.5743159080038265,0.5006079599808679,0.7679376189201884,5.618213817029953,-5.182784811729948,-0.7804292178597599,7.68340124311194
393,1790650063.0469687,0.32626031369579084,0.4880952048788265,0.4287573740433679,0.7269907888791605,5.6188987642259836,-5.174889762989385,-0.7711226604750876,7.677638799735945
394,1790650063.072646,0.06759820432079083,0.4066645408163265,0.3664868662308679,0.5515960379702443,5.6204047238376145,-5.164550917053708,-0.7594351062539069,7.670611260857074
395,1790650063.092646,-0.20064398317920917,0.39229442362882655,0.1940454599808679,0.4814629407706045,5.621202198840347,-5.156507489447112,-0.7508563854166269,7.664937635786258
396,1790650063.1171682,-0.00904242067920917,-0.0004887794961734774,0.1796753427933679,0.17990339931488214,5.621647676901283,-5.147404039449185,-0.7412283145319287,7.658205427044329
397,1790650063.1371682,0.3885308215082908,-0.3645317482461735,0.3185864756058679,0.6207551346386811,5.622525734739184,-5.141640641553008,-0.7338063031430473,7.654262591210632
398,1790650063.147242,0.46517144650829084,-0.08191944355867348,0.16051518654336788,0.498859093322584,5.623546675807374,-5.139510406504428,-0.7302666528441906,7.653243352841182
399,1790650063.167242,0.4795415636957909,0.14321239237882652,-0.10293696189413212,0.5109461016258615,5.626686610112816,-5.135823636915585,-0.7242070283244323,7.652500405605882
400,1790650063.1920931,0.43164117307079086,-0.43159229512117353,0.03118413185586788,0.6111942911852947,5.631701211906072,-5.132467265342662,-0.7179407573402213,7.653346830050794
401,1790650063.212093,0.41727105588329083,-0.5944536232461736,0.13177495216836788,0.7381428603511896,5.6364049384522446,-5.131710325749849,-0.7134097250028265,7.655877802926656
402,1790650063.23776,0.45080132932079087,-0.6758842873086736,0.1988354990433679,0.8364071759782856,5.643207040047124,-5.1333300485155355,-0.7078306320121829,7.661454645656052
403,1790650063.25776,0.4987017199457909,0.33481395487882654,0.012023975605867881,0.6007897850728334,5.6491365269279745,-5.134914443961778,-0.7038191443147839,7.66651493408727
404,1790650063.2828822,0.8771148058832908,0.15279247050382652,-0.045456493144132123,0.8914831543620486,5.658059660720847,-5.135687362278058,-0.6995990990348377,7.673223749292693
405,1790650063.3028822,0.7525737902582909,-0.3645317482461735,-0.18436762595663214,0.8562955837583341,5.666542409952714,-5.136527999002221,-0.6970881614425616,7.679814755132434
406,1790650063.3124619,0.7956841418207908,-0.6375639748086736,-0.5292504384566321,1.1487850547972238,5.671108425153006,-5.137590232481829,-0.6965785849713492,7.683848377718992
407,1790650063.3324618,0.9585454699457909,-0.9441264748086735,-0.7256420400191321,1.5286401108931356,5.681842580362055,-5.141847796755248,-0.6975566316479191,7.694707215181623
408,1790650063.3578928,0.8675347277582909,-1.3560698341836734,-0.9603539540816322,1.8745190359582409,5.696927133843756,-5.150836643967083,-0.7018294511082638,7.712241015398977
409,1790650063.3778927,0.7669439074457909,-1.6243120216836735,-0.9507738759566322,2.0323787698546543,5.709462526628638,-5.161316050172036,-0.70755242168567,7.729021680793332
410,1790650063.4027588,0.7956841418207908,-1.6291020607461735,-0.7352221181441322,1.956435110316941,5.725624295891791,-5.1784582759836395,-0.7167448280967061,7.753252662103383
411,1790650063.4227588,1.0208159777582908,-1.6434721779336734,-0.9268236806441321,2.1452431552370474,5.739398213622473,-5.195086602642442,-0.7255223835019063,7.775345612411715
412,1790650063.4328058,1.3561187121332907,-2.0506254982461734,-1.209435985331632,2.739864649589559,5.747070696011162,-5.2049704178680605,-0.7308800844504283,7.788114298960828
413,1790650063.4528058,1.3417485949457908,-2.3332378029336733,-0.7735424306441322,2.800474215036552,5.764099737512283,-5.228270142604996,-0.7429200614945424,7.817389889586874
414,1790650063.4779782,1.3417485949457908,-2.3523979591836737,-0.40949946189413217,2.7389332338890813,5.787384204718107,-5.262043089917285,-0.7580343098107574,7.858595894179644
415,1790650063.4979782,1.2124175402582908,-2.2326469826211737,-0.6058910634566321,2.6118523736440395,5.806940388405863,-5.291728881792741,-0.7697646545351127,7.894016015709004
416,1790650063.5229065,1.2507378527582909,-2.6158501076211733,-0.7448021962691321,2.9936177567337228,5.832264463369408,-5.332244515869474,-0.7847177176929138,7.941279635182411
417,1790650063.5429065,1.164517149633291,-2.6254301857461737,-0.5963109853316322,2.9333548444135453,5.853157205263409,-5.3677362413364325,-0.7969266918739794,7.981674873001578
418,1790650063.5529804,1.2076275011957909,-2.4817290138711736,-0.5340404775191322,2.8111460850626813,5.863894504315419,-5.386790386039126,-0.8030078849262067,8.002973890006002
419,1790650063.5729804,1.3273784777582907,-2.6589604591836733,-0.5292504384566321,3.0186272332510193,5.885816497221345,-5.426655806314311,-0.8148650003656415,8.047076117944247
420,1790650063.5976164,1.3896489855707908,-2.5966899513711734,-0.32327875876913215,2.962841906433967,5.913789789275051,-5.478107065440699,-0.8288550031295304,8.103676160137324
421,1790650063.6176164,1.2651079699457908,-2.2086967873086736,-0.055036571269132126,2.5459514327781427,5.937074767497213,-5.520818852706308,-0.8390762151782379,8.15060405700874
422,1790650063.641998,1.2842681261957907,-1.9979350685586734,-0.36638911033163213,2.4031916565910016,5.965864988555203,-5.572770028895015,-0.8504382741250374,8.207956878219822
423,1790650063.661998,1.5046099230707908,-2.4338286232461734,-0.8645531728316321,2.9891177589029003,5.990122149827799,-5.615640384893677,-0.8602068287257113,8.25572141550893
424,1790650063.6720886,1.2890581652582909,-2.6445903419961736,-0.9316137197066322,3.0860060196221486,6.002639076533971,-5.637868675034167,-0.8657554066082271,8.280505510180856
425,1790650063.6920886,1.1788872668207908,-2.6924907326211733,-0.5723607900191322,2.994474646256739,6.027428713586818,-5.683323099226029,-0.8773592575243144,8.33065529321257
426,1790650063.7178164,1.4183892199457908,-2.2230669044961733,-0.6825316884566321,2.7239133515719782,6.059546111386388,-5.742509314512213,-0.8924686774134123,8.395892605520956
427,1790650063.7378163,1.4902398058832909,-2.0649956154336735,-0.8837133290816321,2.6955464786933105,6.085131087897494,-5.788049553646932,-0.9048018113702505,8.446833981452924
428,1790650063.7627964,1.2315776965082907,-2.3715581154336736,-0.7783324697066322,2.7833204901368456,6.117392817294232,-5.8447094327540565,-0.9210091825798679,8.510662791393145
429,1790650063.7827964,1.2555278918207908,-2.5200493263711734,-0.48135004783163216,2.856343250211935,6.143078931654164,-5.890606260306394,-0.9339285002105163,8.562060693431203
430,1790650063.7923956,1.5429302355707908,-2.3763481544961733,-0.23705805564413213,2.8432131093116606,6.1555727364179535,-5.91285575618566,-0.9397163636286637,8.586967203318142
431,1790650063.8123956,1.5812505480707908,-2.2134868263711733,-0.19394770408163212,2.7271767339524295,6.182385251458972,-5.959143860832119,-0.9506130480982314,8.639267799921772
432,1790650063.8367038,1.3225884386957907,-2.2518071388711736,-0.20352778220663212,2.619408163492834,6.2153792856729435,-6.015104833029565,-0.962595053028266,8.702816501180664
433,1790650063.8567038,1.1261968371332909,-2.4194585060586733,-0.10293696189413212,2.6707105415287313,6.242126893378056,-6.061248124797905,-0.9714343849969918,8.754802210658685
434,1790650063.8818238,1.0256060168207908,-2.2182768654336735,-0.0023461415816321196,2.4438955496987944,6.27473668902368,-6.119248289487093,-0.9810696258113477,8.81929803077661
435,1790650063.9018238,1.159727110570791,-2.0745756935586734,-0.055036571269132126,2.3773641503720855,6.300083378177907,-6.164939197446701,-0.9876763529748558,8.86978187208874
436,1790650063.9424896,1.116616759008291,-2.0506254982461734,-0.02150629783163212,2.3350290022614213,6.35083279599503,-6.2564884507679,-0.9993282166812354,8.97080720013163
437,1790650063.9624896,1.188467344945791,-2.0745756935586734,0.007233936543367881,2.3908934037603733,6.375505737433269,-6.300947554158853,-1.0042205776434179,9.019837717878712
438,1790650063.9566457,1.1309868761957909,-1.9739848732461736,-0.045456493144132123,2.2754810231467077,6.375505737433269,-6.300947554158853,-1.0042205776434179,9.019837717878712
439,1790650063.9766457,0.9537554308832908,-1.9069243263711735,-0.011926219706632121,2.1321707349933345,6.399416349412417,-6.344052524406448,-1.0078901161389742,9.06726940880028
440,1790650064.0019438,0.8866948840082909,-1.8877641701211734,0.012023975605867881,2.0856715837612425,6.428616342345208,-6.397597627165727,-1.0118353122750865,9.12579718026602
441,1790650064.0219438,0.8819048449457909,-1.9117143654336735,-0.050246532206632125,2.105927986552039,6.450891228477191,-6.439278403756683,-1.0145437629796965,9.171019738814882
442,1790650064.0465825,1.0208159777582908,-1.8925542091836736,-0.16520746970663214,2.1566455905392345,6.477732271939279,-6.489954072097741,-1.017778037413524,9.225854506673242
443,1790650064.0665824,0.8962749621332908,-1.8686040138711735,-0.21789789939413212,2.0838592234032673,6.499127477572417,-6.530560602945804,-1.0205842541436807,9.269761160800783
444,1790650064.0921588,0.7334136340082908,-1.7728032326211733,-0.25142817283163216,1.9349271268538208,6.525510093238777,-6.581684785073509,-1.0245348743227756,9.324726714265296
445,1790650064.1121588,0.9298052355707909,-1.9212944435586734,-0.21789789939413212,2.145551120226377,6.54554080621232,-6.621206934652619,-1.0278647445186941,9.367016155121494
446,1790650064.1223288,1.107036680883291,-2.0410454201211734,-0.23705805564413213,2.3340079566197898,6.555752173396403,-6.641311652992219,-1.029651013689728,9.388561564007247
447,1790650064.1423287,0.9250151965082909,-2.1607963966836734,-0.11730707908163213,2.35339226065165,6.575869409395813,-6.681221141285796,-1.0331684603909213,9.431235947411054
448,1790650064.1673462,0.8675347277582909,-2.1033159279336733,-0.11251704001913213,2.2779847411387126,6.600622338992411,-6.7316555028497085,-1.0373395890333261,9.484696858309611
449,1790650064.1873462,0.9872857043207909,-2.1416362404336735,-0.09335688376913212,2.36009625991021,6.620224768970577,-6.772294268350921,-1.0404827803385182,9.527536411109182
450,1790650064.196914,0.9345952746332908,-2.1128960060586737,-0.050246532206632125,2.3109137962685593,6.629574794039958,-6.791872147078828,-1.0418639407991035,9.548102936351942
451,1790650064.216914,1.0543462511957908,-2.0458354591836736,-0.09814692283163212,2.3036322540555836,6.649171355054008,-6.832896269843248,-1.0445405806681403,9.591194720574235
452,1790650064.2415292,1.150147032445791,-2.2086967873086736,-0.23226801658163213,2.5010254149125077,6.673742129376463,-6.883668175925459,-1.0479507438282698,9.644787313733437
453,1790650064.2615292,0.9872857043207909,-2.3571879982461734,-0.4286596181441321,2.591296468808514,6.693917517012765,-6.925581448710578,-1.0512972852862619,9.689036903085091
454,1790650064.2870739,0.9058550402582909,-2.3044975685586735,-0.3568090322066321,2.5017184259861103,6.719447864307132,-6.980015607567159,-1.0564352913418025,9.746160936892807
455,1790650064.3070738,1.0495562121332909,-2.1272661232461734,-0.37596918845663213,2.40170402677081,6.739371448103112,-7.022889229781797,-1.0609538054020675,9.791104310877794
456,1790650064.3171473,1.1453569933832908,-2.2039067482461734,-0.49093012595663216,2.5318096266956625,6.749559422523481,-7.044516553960728,-1.0635432240050557,9.813913086354967
457,1790650064.3371472,0.9824956652582909,-2.3380278419961735,-0.4573998525191321,2.576991763138784,6.769944499428283,-7.087827881543607,-1.069335639596498,9.85966182553121
458,1790650064.3624651,0.9106450793207909,-2.3284477638711736,-0.2705883290816321,2.514788558388762,6.795473865734788,-7.143292298335111,-1.0769506840897618,9.917908685569737
459,1790650064.3824651,0.9154351183832908,-2.1081059669961735,-0.23226801658163213,2.30999581289254,6.815354953630238,-7.187189307486852,-1.0828181722000867,9.963796890727565
460,1790650064.4065773,0.8435845324457909,-1.9883549904336735,-0.33285883689413215,2.1854028087889867,6.8389095472132295,-7.2395817774588815,-1.0898529859736306,10.01848330030622
461,1790650064.4265773,0.5897124621332909,-2.0123051857461736,-0.36638911033163213,2.1287024049279073,6.857666324575167,-7.282521333851988,-1.095861653104921,10.062982518118943
462,1790650064.4370844,0.35021050900829087,-1.7249028419961734,-0.25142817283163216,1.7779632563806755,6.866782900050712,-7.304641141850676,-1.0990316986305062,10.085552056394388
463,1790650064.4570844,0.7765239855707908,-1.5620415138711734,-0.4478197743941321,1.8009735538208507,6.883223172470094,-7.345360318867655,-1.1052095478382276,10.126922908794043
464,1790650064.4822073,0.9824956652582909,-1.5907817482461735,-0.6154711415816322,1.9684229801859865,6.904091210082459,-7.3947777396171155,-1.113809252188614,10.17790667601819
465,1790650064.5022073,0.7573638293207908,-1.7536430763711734,-0.42386957908163214,1.956662829753467,6.920821841574397,-7.433233823290143,-1.1211874524603755,10.218013571045619
466,1790650064.527415,0.5274419543207909,-1.7584331154336734,-0.23226801658163213,1.8504676349934563,6.94117491179094,-7.481072875151018,-1.130332427004309,10.267619583668539
467,1790650064.547415,0.38374078244579085,-1.3752299904336733,-0.36638911033163213,1.4740269654487037,6.95626769165746,-7.518035778654935,-1.1373977361712908,10.305541993383011
468,1790650064.5574777,0.6424028918207909,-0.8195854591836735,-0.45260981345663215,1.1354547298603652,6.963496777022228,-7.535499947864085,-1.141037421295322,10.323565916128732
469,1790650064.5774777,0.6807232043207909,-0.9537065529336736,-0.13167719626913213,1.179100993989359,6.97769432966422,-7.567663968156637,-1.1480627594792066,10.357403351847774
470,1790650064.617133,0.3597905871332909,-0.9584965919961735,-0.17478754783163214,1.0386123773261093,7.004716780578169,-7.627558695629096,-1.1608143681931788,10.420806054657392
471,1790650064.637133,0.48433160275829085,-1.1069878029336735,-0.3184887197066321,1.2495735920123736,7.017567348258226,-7.656333480612832,-1.1670208309027927,10.451202393670025
472,1790650064.6623244,0.45080132932079087,-0.7142045998086736,-0.3089086415816321,0.8992967239732773,7.033092510223943,-7.690581864290309,-1.1748511119027498,10.487598142752146
473,1790650064.6823244,0.49391168088329085,-0.5944536232461736,-0.16041743064413214,0.7893399842640219,7.044986406888008,-7.715656650002636,-1.1808392005201764,10.514636096006928
474,1790650064.6923223,0.40290093869579086,-0.6040337013711735,0.03597417091836788,0.7269663126771235,7.0507126928009285,-7.727209818991068,-1.1834769044264983,10.527247439214442
475,1790650064.7123222,0.30231011838329086,-0.8243754982461735,0.09345463966836788,0.8830176325878724,7.061507283717019,-7.748997033305899,-1.187767820426694,10.55095410545479
476,1790650064.722393,0.3789507433832908,-0.7189946388711735,0.02160405373086788,0.813033635081504,7.066642033726411,-7.759487889722816,-1.1895174679985134,10.562293015735627
477,1790650064.742393,0.41248101682079086,-0.7333647560586736,-0.055036571269132126,0.843204292472218,7.076496878941824,-7.779375484128247,-1.1925211038429564,10.583836619290746
478,1790650064.7669668,0.13944879025829085,-0.6998344826211735,-0.09814692283163212,0.7203104099146873,7.087806383368607,-7.802787278218366,-1.1959403865126912,10.60899439368969
479,1790650064.7869668,0.45559136838329084,-0.7573149513711736,-0.08377680564413212,0.887754461368467,7.096522778256409,-7.821169114529449,-1.1985787075114882,10.628636449633666
480,1790650064.8122466,0.9154351183832908,-0.7189946388711735,-0.12688715720663213,1.1709291598379892,7.108487034658769,-7.843717447532994,-1.201812710512755,10.653583674510438
481,1790650064.8322465,0.7621538683832909,-0.6950444435586736,-0.35201899314413215,1.0899003023889888,7.119049068149095,-7.861001673801059,-1.2047058522713123,10.673683672505678
482,1790650064.8423316,0.32626031369579084,-0.8147954201211736,-0.4382396962691321,0.9810154944389904,7.124399397502466,-7.8695520112048865,-1.2065436413893194,10.683756979207708
483,1790650064.8623316,0.13465875119579085,-1.2602690529336735,-0.18436762595663214,1.280781982445425,7.134109571395923,-7.887077502415067,-1.2105754252706677,10.703597701990397
484,1790650064.8873641,0.2783599230707908,-1.2411088966836734,-0.05982661033163212,1.2733478564410885,7.145215478938299,-7.9104187613792805,-1.215323231902323,10.728738964987556
485,1790650064.9073641,0.41248101682079086,-0.9824467873086735,-0.21789789939413212,1.0875761001838091,7.153793938305389,-7.9296055129680525,-1.218964129478241,10.749013203637947
486,1790650064.931758,0.2687798449457908,-0.9441264748086735,-0.23226801658163213,1.008744683758235,7.163933938037389,-7.9530218678839635,-1.223562378206397,10.773560748098397
487,1790650064.951758,0.03406793088329083,-1.0399272560586736,-0.09814692283163212,1.045103889701741,7.171454752931012,-7.972316752231553,-1.2272625096369518,10.793228012916666
488,1790650064.9622853,-0.02341253786670917,-0.7764751076211736,-0.00713618064413212,0.7768607756598725,7.174828081937386,-7.982383694634736,-1.2290011259056923,10.80310377721168
489,1790650064.9822853,0.03406793088329083,-0.5513432716836735,-0.09335688376913212,0.560228109695157,7.180291439385451,-8.000631885050433,-1.231959446146046,10.82055542897619
490,1790650065.007458,-0.08568304567920917,-0.6184038185586735,-0.15562739158163214,0.6434164686541035,7.186038917419801,-8.022362979078618,-1.235594449740316,10.840855904170676
491,1790650065.027458,-0.22459417849170918,-0.8195854591836735,-0.055036571269132126,0.8515819949333951,7.189454968575022,-8.039195704631235,-1.238365286405214,10.855896043399772
492,1790650065.051579,-0.30123480349170917,-0.7573149513711736,-0.026296336894132123,0.815450697307361,7.19200565194183,-8.059304432956422,-1.2413529345765109,10.872823476393608
493,1790650065.071579,-0.2772846081792092,-0.7429448341836735,-0.03108637595663212,0.7936120861878433,7.192935539298895,-8.07572701080643,-1.2435446374131018,10.885866602655781
494,1790650065.0824306,-0.3778754284917092,-0.8483256935586735,0.12219487404336789,0.936684530165878,7.192831181940718,-8.084596100996864,-1.2444812877768425,10.892485859700672
495,1790650065.1024306,-0.3395551159917092,-0.8626958107461735,0.15572514748086788,0.9401021541476643,7.191591552515641,-8.101056811290306,-1.2455317502172822,10.904011182072711
496,1790650065.1265507,-0.1431635144292092,-0.7860551857461735,0.055134327168367886,0.8008859724920161,7.189447560965131,-8.120913368117467,-1.246227138165964,10.917438904992222
497,1790650065.1465507,-0.12879339724170918,-0.8626958107461735,-0.02150629783163212,0.8725218174340863,7.187528528060211,-8.137381510956414,-1.2466668097094955,10.92848216043591
498,1790650065.1721704,-0.22938421755420918,-1.0016069435586736,0.06950444435586789,1.0298856521153807,7.1847507764222085,-8.158894909214936,-1.247053314244542,10.942730547147782
499,1790650065.1921704,-0.16232367067920916,-1.0159770607461736,0.14614506935586788,1.0391904268815402,7.182320037853053,-8.176196499281225,-1.2469863053942092,10.954035108892281
500,1790650065.2022533,0.02448785275829083,-0.9872368263711735,0.2419458506058679,1.0167467732437292,7.181174168177199,-8.18512555860256,-1.246664107449838,10.959913970492106
501,1790650065.2222533,-0.00425238161670917,-0.7908452248086736,0.2371558115433679,0.8256495208627502,7.179272572238499,-8.202847173228955,-1.2454022262965512,10.971767547624706
502,1790650065.2473707,-0.21980413942920918,-0.7908452248086736,0.2658960459183679,0.8628155866394159,7.176820558072933,-8.22474442283783,-1.2431075287720867,10.98628647322971
503,1790650065.2673707,-0.3587152722417092,-0.9728667091836736,0.3281665537308679,1.0875842805800884,7.174293204925399,-8.242210508183407,-1.2406633360825912,10.997443455864971
504,1790650065.2930145,-0.19106390505420917,-1.0255571388711735,0.2850562021683679,1.0814480566808766,7.170481351566044,-8.265089701700202,-1.236820096076887,11.011686271428493
505,1790650065.3130145,-0.21501410036670918,-0.8626958107461735,0.1988354990433679,0.9110492198094063,7.167345254707162,-8.283089313061957,-1.2335464717309887,11.022796535646226
506,1790650065.3367343,-0.4449359753667092,-0.8339555763711736,0.1796753427933679,0.9621502763830687,7.163009740086957,-8.304252891885856,-1.2295729926741041,11.035450800637406
507,1790650065.3567343,-0.4976264050542092,-0.9393364357461735,0.13656499123086788,1.0717438944810407,7.158488632340026,-8.322080775031743,-1.2262508381724444,11.04557282550855
508,1790650065.3667867,-0.4640961316167092,-1.0926176857461736,0.04076420998086788,1.1877964250671418,7.155832008481357,-8.331229325223648,-1.224697822339219,11.050574580496493
509,1790650065.3867867,-0.4928363659917092,-1.1692583107461736,0.026394092793367883,1.2691529966979136,7.1499039156918265,-8.350093520589828,-1.221970733837755,11.060669070204458
510,1790650065.412298,-0.4784662488042092,-1.1548881935586734,0.026394092793367883,1.250357284539252,7.1416180640375195,-8.374993536901433,-1.2189129412462656,11.073796732560401
511,1790650065.432298,-0.3587152722417092,-1.2123686623086736,0.03597417091836788,1.264835388839524,7.134840836260288,-8.39513708391789,-1.2167817626251727,11.08444127028503
512,1790650065.4574597,-0.3156049206792092,-1.2698491310586735,0.10303471779336788,1.3125316890186527,7.126320907236244,-8.421362361104299,-1.2142404053182954,11.098566279112097
513,1790650065.4774597,-0.4449359753667092,-1.2315288185586735,0.2084155771683679,1.325921681669951,7.119423792485043,-8.442832961838194,-1.2120562176035645,11.110207191278436
514,1790650065.4866989,-0.5407367566167092,-1.3800200294961735,0.3377466318558679,1.5201724603139477,7.116032516561331,-8.453073387873074,-1.2108201033224852,11.115685035126535
515,1790650065.5066988,-0.4401459363042092,-1.5668315529336734,0.4622876474808679,1.6918627100113799,7.108321296982606,-8.476335891667249,-1.2073456212716371,11.128080933328382
516,1790650065.5318272,-0.2772846081792092,-1.4422905373086734,0.2946362802933679,1.4979650481931652,7.098733960594605,-8.506850307856556,-1.2022085060079162,11.14467726295814
517,1790650065.5518272,-0.2868646863042092,-1.2937993263711733,0.012023975605867881,1.32527454557774,7.091401658242405,-8.531598224735523,-1.1982731256934684,11.158494711680095
518,1790650065.5769262,-0.3682953503667092,-1.3896001076211735,-0.15083735251913213,1.4454694154901704,7.082346925142221,-8.563048385601187,-1.194336521635232,11.17639813844918
519,1790650065.5969262,-0.30123480349170917,-1.6195219826211735,-0.16520746970663214,1.6555625530540286,7.075209714169616,-8.58886376539252,-1.1921442630260528,11.19144232097984
520,1790650065.6072671,-0.12879339724170918,-1.8159135841836735,-0.11730707908163213,1.8242507599555826,7.07173946517894,-8.602873783806094,-1.191399897220085,11.199927237199514
521,1790650065.6272671,-0.08089300661670917,-1.8015434669961734,-0.08856684470663212,1.805532228451592,7.065720015512355,-8.6313317522777,-1.1904850066723163,11.217911646407309
522,1790650065.6525242,-0.1527435925542092,-1.6865825294961734,0.0024438974808678807,1.6934867010115473,7.058815994440351,-8.668486837638232,-1.189666078596672,11.242101790868013
523,1790650065.6725242,-0.1431635144292092,-1.6147319435586733,0.09824467873086788,1.6240403499640719,7.053725195439211,-8.698447043250177,-1.1889638441086205,11.261956096504694
524,1790650065.6971307,0.02448785275829083,-1.5764116310586735,0.050344288105867885,1.5774054116854885,7.048182346815674,-8.735667909195922,-1.1879552455593982,11.287161108054214
525,1790650065.7171307,0.10112847775829084,-1.5716215919961734,-0.050246532206632125,1.5756732248283867,7.0445413575291,-8.76610490725925,-1.1872582837560297,11.30839247706587
526,1790650065.726717,-0.056942811304209175,-1.5572514748086734,-0.03587641501913212,1.558705153872162,7.043089715547415,-8.780755118353465,-1.1870362481133492,11.318826275019658
527,1790650065.746717,-0.1527435925542092,-1.5716215919961734,-0.0023461415816321196,1.579028352460865,7.0402009081530394,-8.81142846393421,-1.1866998336436319,11.34080935812602
528,1790650065.7723281,-0.12879339724170918,-1.5668315529336734,0.02160405373086788,1.5722644782539652,7.0365157255665185,-8.850844104421661,-1.186296663445375,11.36913781650228
529,1790650065.7923281,-0.07131292849170917,-1.6195219826211735,-0.026296336894132123,1.6213045621650886,7.033769443702077,-8.881786646292596,-1.186036088594463,11.391520013627108
530,1790650065.8172245,-0.10005316286670918,-1.5620415138711734,-0.050246532206632125,1.5660488627291844,7.030543630587857,-8.9204675730808,-1.1859032980941178,11.419704553814693
531,1790650065.8372245,-0.20543402224170917,-1.4039702248086734,0.03118413185586788,1.4192631819797652,7.027882720042027,-8.951329062537111,-1.1858412184026232,11.44218715577356
532,1790650065.8472955,-0.10484320192920918,-1.4135503029336733,0.03118413185586788,1.4177760775222061,7.026509437186701,-8.966666536088978,-1.1857675385873543,11.453339613224571
533,1790650065.8672955,-0.09526312380420918,-1.3704399513711734,-0.026296336894132123,1.3739986246009164,7.023891167031452,-8.99673227886704,-1.1856358348644023,11.475276517662882
534,1790650065.8920238,-0.18627386599170917,-1.3991801857461734,0.07908452248086788,1.413738839755144,7.0206173415914765,-9.033466581184246,-1.1853995182031782,11.502076262492084
535,1790650065.9120238,-0.22938421755420918,-1.3896001076211735,0.12698491310586787,1.4141183636882164,7.017743195553934,-9.062903509099213,-1.1849279535323138,11.5234106856021
536,1790650065.93741,0.019697813695790833,-1.2794292091836734,0.007233936543367881,1.2796012797018717,7.014242983659892,-9.099745370408623,-1.1841636235471418,11.550204064319708
537,1790650065.95741,-0.10484320192920918,-1.1740483498086736,-0.01671625876913212,1.1788388600595396,7.011771345277264,-9.128096772789508,-1.1836660126721148,11.571004853573292
538,1790650065.967398,-0.3826654675542092,-0.9010161232461735,0.07429448341836789,0.9817242915780618,7.010356989670675,-9.141685872082173,-1.1834116540831947,11.580845774358243
539,1790650065.987398,-0.23896429567920918,-1.0734575294961735,0.06471440529336789,1.1016364901790259,7.007017214222812,-9.16777717263697,-1.1827702049253577,11.599369546884757
540,1790650066.011751,-0.16711370974170917,-1.0159770607461736,0.0024438974808678807,1.0296321443025016,7.0028188389493735,-9.198598094342179,-1.1819836389660057,11.621134364388148
541,1790650066.031751,-0.061732850366709176,-0.9968169044961736,-0.07419672751913213,1.0014789265273036,6.999544832712351,-9.223132273623502,-1.1815421943375055,11.638549684514196
542,1790650066.0577412,-0.02820257692920917,-0.8291655373086735,-0.045456493144132123,0.8308893827548838,6.99575310105163,-9.253791729053368,-1.1812878167877339,11.660560180439925
543,1790650066.0777411,0.0005376574457908302,-0.8818559669961735,0.045554249043367884,0.8830319502759741,6.993231466645284,-9.276412328785971,-1.1811212841207885,11.676992743319373
544,1790650066.10209,-0.00425238161670917,-0.9537065529336736,0.09345463966836788,0.958283904452949,6.9906152395702845,-9.303172650910662,-1.1806951006072404,11.696656091420419
545,1790650066.1220899,-0.01383245974170917,-0.8483256935586735,-0.03108637595663212,0.8490077632533329,6.988761495206732,-9.324559419990365,-1.1803039922849416,11.712528041717512
546,1790650066.1320577,-0.00904242067920917,-0.7189946388711735,0.06471440529336789,0.7219577621645904,6.987959088716595,-9.334791246926713,-1.1801131664356648,11.720177768910812
547,1790650066.1520576,-0.03778265505420917,-0.8435356544961735,0.2419458506058679,0.8783608165524178,6.98652035542259,-9.35458531230972,-1.1793277250311212,11.735013716440301
548,1790650066.1773076,-0.00904242067920917,-0.7573149513711736,0.17488530373086789,0.7772982506111156,6.984887741010033,-9.378858409477946,-1.177695476134069,11.753238211406
549,1790650066.1973076,0.12507867307079085,-0.6375639748086736,-0.026296336894132123,0.6502491782117332,6.983962608503087,-9.397293020686998,-1.1763736522666495,11.76727261532463
550,1790650066.2219172,0.12986871213329085,-0.6423540138711735,-0.14604731345663213,0.6714271213582804,6.983465566270108,-9.418936286510219,-1.1753092443950168,11.784163267053778
551,1790650066.2419171,0.15860894650829083,-0.7333647560586736,-0.24663813376913213,0.7898170879201006,6.9835549317152665,-9.435950763174944,-1.1751629922045426,11.797805488631925
552,1790650066.252005,0.2687798449457908,-0.8579057716836735,-0.24663813376913213,0.9322420754108683,6.983916607466349,-9.44444948426882,-1.1754734997863838,11.804848799948683
553,1790650066.272005,0.09154839963329084,-0.6854643654336735,-0.20352778220663212,0.7208786748716844,6.985066586041318,-9.46108636464494,-1.1766720074500818,11.818962197410478
554,1790650066.2976215,-0.12400335817920917,-0.3884819435586735,-0.13167719626913213,0.4285253053533072,6.986256212363322,-9.481262207364411,-1.1786208268157348,11.836015206267081
555,1790650066.3176215,-0.12400335817920917,-0.4938628029336735,0.02160405373086788,0.5096508962994492,6.9866736821312925,-9.495975149531809,-1.1800792440990722,11.8481956518056
556,1790650066.3424354,-0.07131292849170917,-0.48907276387117354,0.09824467873086788,0.5039143965293944,6.9867504503669045,-9.51332057523812,-1.181394234852107,11.862278135379094
557,1790650066.3624353,0.019697813695790833,-0.5273930763711735,0.045554249043367884,0.5297231828743666,6.986725621647892,-9.526728614912853,-1.1820794361652025,11.87308741683456
558,1790650066.3720043,-0.12400335817920917,-0.3549516701211735,0.05992436623086788,0.38073409438833133,6.986640667375485,-9.532814627244301,-1.1822823949570842,11.87794149648218
559,1790650066.3920043,-0.10963324099170918,-0.3262114357461735,0.16051518654336788,0.37973474090867465,6.986139284619075,-9.54464866807259,-1.182312308785756,11.887149477336612
560,1790650066.4173217,-0.04736273317920917,-0.34058155293367354,0.2132056162308679,0.4045931999988405,6.985301695773548,-9.558648110613792,-1.1816348720370868,11.897834023650335
561,1790650066.4373217,-0.052152772241709174,-0.2352006935586735,0.15093510841836788,0.2842897902778802,6.984590003940097,-9.568912037908095,-1.1806337806431189,11.90556471723866
562,1790650066.4620252,0.014907774633290832,-0.1633501076211735,0.12698491310586787,0.20743834640892886,6.983773792638577,-9.580426553837663,-1.1790678150754181,11.91418777142487
563,1790650066.4820251,0.09633843869579084,-0.2543608498086735,0.16530522560586788,0.31828659145232635,6.9833789771231,-9.588976958933294,-1.1775517440638223,11.920683250847086
564,1790650066.4921079,0.12028863400829083,-0.2783110451211735,0.07908452248086788,0.3133380841902996,6.983373606612225,-9.593043753704773,-1.1767172747184784,11.92386929375877
565,1790650066.5121078,0.05322808713329083,-0.1633501076211735,0.06471440529336789,0.1835876934116022,6.983624826490081,-9.60056306850202,-1.1750946185949964,11.929906718499707
566,1790650066.5376234,0.02927789182079083,-0.11544971699617348,0.03118413185586788,0.12311897572498982,6.984055141331643,-9.609250634988973,-1.1731514726937504,11.936959762061713
567,1790650066.5576234,0.00532769650829083,-0.09149952168367348,0.007233936543367881,0.09193952717052095,6.984393751049228,-9.615349232929345,-1.1717992060786344,11.941934948753362
568,1790650066.582565,0.03406793088329083,-0.1729301857461735,-0.12688715720663213,0.2171769410431396,6.984826379472145,-9.6223085332928,-1.1705895994500872,11.947673458526983
569,1790650066.602565,0.15860894650829083,-0.08670948262117348,-0.2897484853316321,0.3415106397184083,6.9854102694105835,-9.627441376991296,-1.1703900973993264,11.952129395194872
570,1790650066.6128075,0.24961968869579085,-0.10586963887117348,-0.26100825095663216,0.3763557844470262,6.985978034629535,-9.629823666136664,-1.1707263360250113,11.95441312215178
571,1790650066.6328075,-0.00904242067920917,-0.2783110451211735,-0.10293696189413212,0.29687509382259347,6.987281251681439,-9.63435395433098,-1.1718303272610682,11.958932298634386
572,1790650066.657258,-0.20064398317920917,-0.45075245137117353,-0.00713618064413212,0.4934437206787889,6.988250967386975,-9.640398548358476,-1.1731793896979308,11.964501060837817
573,1790650066.677258,-0.27249456911670916,-0.31184131855867353,0.03597417091836788,0.41568309940599824,6.988215484645407,-9.645745126214399,-1.1740741095447182,11.96887650176197
574,1790650066.7023542,-0.1527435925542092,-0.08191944355867348,0.007233936543367881,0.17347544534383658,6.987377250211729,-9.652188866886489,-1.1749470806427638,11.973666581341526
575,1790650066.7223542,-0.056942811304209175,-0.01964893574617348,0.07908452248086788,0.09941290726666695,6.986494906486049,-9.656706166303968,-1.1754089478825354,11.976838950885618
576,1790650066.7622302,-0.12400335817920917,-0.1393999123086735,0.07429448341836789,0.2008204139468626,6.98445841577602,-9.664837440613093,-1.1757329781748749,11.982240614807779
577,1790650066.7822301,-0.3443451550542092,-0.3549516701211735,0.09345463966836788,0.5032872376751295,6.982887694188271,-9.669045503196568,-1.1756194957649242,11.984708702816032
578,1790650066.776775,-0.3970355847417092,-0.3597417091836735,0.06950444435586789,0.5402612522315473,6.982887694188271,-9.669045503196568,-1.1756194957649242,11.984708702816032
579,1790650066.7967749,-0.3874555066167092,-0.1873003029336735,-0.03108637595663212,0.4314736792166745,6.979630852784539,-9.673817623838348,-1.1752721050421102,11.986628332492726
580,1790650066.822894,-0.3156049206792092,-0.1489799904336735,-0.12209711814413213,0.3697420854672207,6.97463828108296,-9.679773758018237,-1.1751865552127765,11.988522119006964
581,1790650066.842894,-0.41140570192920917,-0.48907276387117354,-0.050246532206632125,0.6410706154077304,6.970298297084922,-9.684607450365787,-1.1753893894132472,11.98992160252813
582,1790650066.8670046,-0.5215766003667092,-0.47949268574617354,-0.055036571269132126,0.7106225509447578,6.964164013122613,-9.691311981781581,-1.1757876160951672,11.991813242710965
583,1790650066.8870046,-0.3395551159917092,-0.4363823341836735,-0.09814692283163212,0.5615692627317246,6.95854712704037,-9.69741305549296,-1.176298174655942,11.993534736839928
584,1790650066.8975914,-0.3203949597417092,-0.46033252949617354,-0.07898676658163212,0.5663902164014295,6.955495879263857,-9.700870149629868,-1.1766685388555487,11.9945968434445
585,1790650066.9175913,-0.2677045300542092,-0.2974712013711735,-0.03587641501913212,0.40179839249476756,6.949714095131922,-9.707558190259439,-1.1774355572624153,11.996731492904818
586,1790650066.942567,0.05322808713329083,-0.2831010841836735,-0.03108637595663212,0.2897340433845455,6.943175142255543,-9.715744873199137,-1.1783751590357479,11.999664474999422
587,1790650066.962567,-0.04257269411670917,-0.3693217873086735,0.07429448341836789,0.37911830229049887,6.938740329090567,-9.722295844886087,-1.1789498952123978,12.002461276982254
588,1790650066.9871414,-0.11921331911670918,-0.3597417091836735,0.13656499123086788,0.4028348416052167,6.933810392137575,-9.730481447158553,-1.1791615252287708,12.0062657662652
589,1790650067.0071414,0.06759820432079083,-0.12023975605867349,0.09345463966836788,0.1666159831468433,6.930322540057371,-9.736864050785153,-1.1789628974253108,12.009406545129737
590,1790650067.0177112,0.18255914182079083,-0.2591508888711735,0.10782475685586788,0.3348330952222166,6.928954044935945,-9.740031983881538,-1.17871410897535,12.011161232560617
591,1790650067.0377111,-0.01862249880420917,-0.2591508888711735,0.08387456154336788,0.2730218356441922,6.926998926850164,-9.745904589537904,-1.1780264206981534,12.014729154201614
592,1790650067.0627773,0.01011773557079083,-0.2256206154336735,0.10782475685586788,0.2502662759398019,6.924900127764488,-9.753072097126529,-1.1769334311182655,12.019227488176787
593,1790650067.0827773,0.08675836057079084,-0.24957081074617352,0.13177495216836788,0.2952579223736585,6.92362202539036,-9.758645924251294,-1.1758327607193397,12.022907090490127
594,1790650067.1075206,0.0005376574457908302,-0.2735210060586735,0.09345463966836788,0.28904636220928714,6.922439982594097,-9.765478043556202,-1.174257334921968,12.027618925640008
595,1790650067.1275206,-0.11442328005420918,-0.2304106544961735,0.055134327168367886,0.263099887411659,6.9214570276746175,-9.770927971854178,-1.1729520498653199,12.031351433999092
596,1790650067.1376019,-0.18148382692920917,-0.2016704201211735,0.026394092793367883,0.2725875747775505,6.920812141016393,-9.773589717568981,-1.1723311502042557,12.033081774190238
597,1790650067.1576018,-0.21022406130420918,-0.1825102638711735,-0.026296336894132123,0.27963485065994714,6.919137113613461,-9.778654464085438,-1.1712839864808005,12.036130927417982
598,1790650067.1822054,-0.20543402224170917,-0.07233936543367347,-0.03587641501913212,0.22073341034011734,6.916618612582825,-9.784420704135908,-1.1703037408515753,12.039273748582252
599,1790650067.2022054,-0.21980413942920918,0.06178172831632653,0.045554249043367884,0.2328218874373129,6.9142405850989,-9.788420752902104,-1.1696119185072782,12.041091966445055
600,1790650067.2268906,-0.27249456911670916,0.08094188456632653,0.11261479591836789,0.30575639181378556,6.9108343149104545,-9.792353046143146,-1.1685932821706069,12.042234816162118
601,1790650067.2468905,-0.2868646863042092,0.13842235331632652,0.13177495216836788,0.34469803330599075,6.9076494717155645,-9.794732062900819,-1.1675251909143214,12.042238682218898
602,1790650067.2564628,-0.3060248425542092,0.2917036033163265,0.12219487404336789,0.44008383711576116,6.905928160918694,-9.795391102626013,-1.1669083381175047,12.041727686953516
603,1790650067.2764628,-0.2772846081792092,0.46414500956632654,0.045554249043367884,0.5425795180840575,6.901996214940337,-9.795427760323657,-1.1655612075205661,12.039372478964461
604,1790650067.3020864,-0.23896429567920918,0.5120454001913265,-0.03108637595663212,0.565915885301582,6.896722206477543,-9.793591670130382,-1.1640663752719178,12.034710861529096
605,1790650067.3220863,-0.20543402224170917,0.4880952048788265,-0.02150629783163212,0.5300024409062033,6.892556561942321,-9.79087330425458,-1.1631535158304842,12.030023363274402
606,1790650067.346716,-0.16711370974170917,0.4785151267538265,-0.00713618064413212,0.5069069378002757,6.887507959876308,-9.786242289712535,-1.1622508812154684,12.02327456066789
607,1790650067.366716,-0.13358343630420919,0.5312055564413265,-0.026296336894132123,0.548375213684052,6.883572238505407,-9.781531263789395,-1.1616780081227436,12.017130124192203
608,1790650067.376907,-0.1527435925542092,0.6222162986288265,-0.045456493144132123,0.6423005683593047,6.881648722015599,-9.778609186948374,-1.1614847251720277,12.013631155112845
609,1790650067.396907,-0.08568304567920917,0.5934760642538265,0.007233936543367881,0.5996730384109251,6.878082457095205,-9.771911322450915,-1.1612196429138093,12.006110953990643
610,1790650067.4222147,-0.00425238161670917,0.4976752830038265,0.03597417091836788,0.49899189475944083,6.874075962681322,-9.762636171451929,-1.1608525145069375,11.99623123807189
611,1790650067.4422147,0.01011773557079083,0.35397411112882654,0.04076420998086788,0.3564572354966126,6.871393466738431,-9.755128274838626,-1.1604907948293255,11.988549316667768
612,1790650067.4672759,0.00532769650829083,0.4066645408163265,0.06950444435586789,0.4125958081375235,6.868565373822319,-9.745701936350258,-1.159898268254202,11.979201163656581
613,1790650067.4872758,-0.02820257692920917,0.3970844626913265,0.045554249043367884,0.4006827241873708,6.866612651122792,-9.738102045335314,-1.1593237455114216,11.971843312240184
614,1790650067.512036,-0.00425238161670917,0.2725434470663265,-0.00713618064413212,0.27267001735136803,6.864497509170221,-9.72886108145008,-1.1586478255766004,11.963048473498366
615,1790650067.532036,-0.10005316286670918,0.2629633689413265,-0.055036571269132126,0.28668692502740106,6.862888828819615,-9.721713125963104,-1.1582770089433774,11.956276795462172
616,1790650067.542069,-0.00425238161670917,0.11447215800382653,-0.050246532206632125,0.12508665678744185,6.862124403739077,-9.71838124195965,-1.1581981154038954,11.953121273165001
617,1790650067.562069,0.07717828244579084,-0.03401905293367348,-0.04066645408163212,0.0936351629002686,6.8609385314903,-9.712614934739875,-1.1582008055646862,11.94775273888069
618,1790650067.586537,-0.00425238161670917,0.047411611128826525,-0.08856684470663212,0.10054864295719701,6.8598391824087965,-9.706594040632682,-1.1584407585268592,11.942250477576376
619,1790650067.6065369,-0.10484320192920918,0.2869135642538265,-0.03587641501913212,0.30756886626937485,6.858911726924682,-9.701909320886163,-1.1587941391784176,11.937944479910977
620,1790650067.63244,-0.11442328005420918,0.25338329081632655,0.0024438974808678807,0.2780319257174832,6.857464724034187,-9.695702311295234,-1.1592481224877118,11.932113055118121
621,1790650067.65244,-0.10005316286670918,0.2246430564413265,-0.026296336894132123,0.24731889442778718,6.856193358591429,-9.69091168460806,-1.159581845052671,11.927522236602286
622,1790650067.6620135,-0.1383734753667092,0.24380321269132652,-0.045456493144132123,0.2839956301998958,6.85550488246976,-9.688626161866178,-1.1597691467725868,11.925287777314647
623,1790650067.6820135,-0.23896429567920918,0.16237254862882652,0.03118413185586788,0.290587730706727,6.853716321146748,-9.68395840260021,-1.1601231546183375,11.920501813595186
624,1790650067.7070403,-0.30123480349170917,0.15758250956632652,0.09345463966836788,0.35257399766780095,6.8507999768484344,-9.678393028613254,-1.1602657432979584,11.914317795583887
625,1790650067.7270403,-0.3443451550542092,0.2150629783163265,0.12698491310586787,0.4253831668132872,6.847850619083653,-9.674053662534687,-1.1600319406705524,11.90907412313237
626,1790650067.7522223,-0.30123480349170917,0.17195262675382653,0.08387456154336788,0.356854388730644,6.843474834057984,-9.668678577761824,-1.159383476705033,11.902128519324265
627,1790650067.7722223,-0.2772846081792092,0.17195262675382653,0.03118413185586788,0.3277604458445871,6.8396530311208386,-9.66453408395588,-1.1587731208574397,11.896504856120014
628,1790650067.7969654,-0.26291449099170916,0.1959028220663265,0.02160405373086788,0.32858587980098375,6.834631628073069,-9.659493168484762,-1.1580333210172138,11.889450741562735
629,1790650067.8169653,-0.2772846081792092,0.2246430564413265,0.02160405373086788,0.3575164218298298,6.83037132438039,-9.655398938243843,-1.1574602219455086,11.883619619078372
630,1790650067.8267136,-0.24375433474170918,0.2294330955038265,0.05992436623086788,0.340068597030088,6.82822534138044,-9.653370717039357,-1.157163180359606,11.880709328118542
631,1790650067.8467135,-0.21501410036670918,0.1863227439413265,0.06471440529336789,0.2917793387455745,6.823794795947416,-9.649210055984266,-1.156458209664992,11.87471371075566
632,1790650067.8717575,-0.21980413942920918,0.2102729392538265,0.012023975605867881,0.3044226415397336,6.818262340575257,-9.64403665063887,-1.1555637228623463,11.867243647173005
633,1790650067.8917575,-0.2581244519292092,0.25338329081632655,0.026394092793367883,0.36266785476941654,6.813789986569512,-9.639829430330888,-1.1548989131455085,11.861190367182088
634,1790650067.9016783,-0.2964447644292092,0.24380321269132652,0.08866460060586788,0.39393009059565326,6.811491647268137,-9.637685577251695,-1.1545329946174356,11.858092097063054
635,1790650067.9216783,-0.26291449099170916,0.2150629783163265,0.08387456154336788,0.3498729144844031,6.806714258339488,-9.633323649761653,-1.1536471614064356,11.851716555367007
636,1790650067.9465995,-0.23417425661670918,0.24859325175382652,-0.0023461415816321196,0.3415284639087214,6.800725178736016,-9.62783709493307,-1.1525565463529277,11.843711271210738
637,1790650067.9665995,-0.24375433474170918,0.30607372050382653,-0.02150629783163212,0.3918670934575275,6.795922835482939,-9.623262441527023,-1.1518483618466608,11.837166124247474
638,1790650067.99157,-0.26291449099170916,0.2150629783163265,0.03597417091836788,0.3415702785503771,6.789877471193207,-9.617431617482515,-1.1510697067453375,11.828879425395975
639,1790650068.01157,-0.31081488161670917,0.24380321269132652,0.06950444435586789,0.4010944588725193,6.784901182817938,-9.61277368310922,-1.150381379146943,11.822168974463588
640,1790650068.0214982,-0.3251849988042092,0.2917036033163265,0.08387456154336788,0.4448271773499395,6.782327861487929,-9.610409520101742,-1.1499767306849435,11.818730424453147
641,1790650068.0414982,-0.2677045300542092,0.3300239158163265,0.09824467873086788,0.43615767483929274,6.777032260617443,-9.605428801588458,-1.1490106773491933,11.811547496433189
642,1790650068.0666592,-0.18627386599170917,0.31565379862882653,0.06950444435586789,0.37304978424537777,6.770512745630023,-9.598884252990176,-1.147661077801413,11.802353481002918
643,1790650068.0866592,-0.17669378786670917,0.23901317362882651,0.02160405373086788,0.2980179977390886,6.765563401136588,-9.593630445898583,-1.1466125617215714,11.795139407144319
644,1790650068.1118484,-0.16232367067920916,0.12884227519132652,0.050344288105867885,0.21326943823280564,6.759624460611991,-9.587311085510462,-1.145354159043892,11.786470754576829
645,1790650068.1318483,-0.1383734753667092,0.08573192362882652,0.10303471779336788,0.1926482143309903,6.755165267079143,-9.58272433364555,-1.1442748038384107,11.780077600206816
646,1790650068.1572888,-0.052152772241709174,0.1863227439413265,0.2323657724808679,0.3023738229128824,6.749980365726971,-9.577245954625079,-1.1424678274609894,11.772472456959306
647,1790650068.1772888,0.0005376574457908302,0.3108637595663265,0.4287573740433679,0.5295936667708596,6.746438255067098,-9.572839377988299,-1.1402686743337125,11.76664334191629
648,1790650068.187365,-0.12879339724170918,0.2964936423788265,0.615568897480868,0.6952850398864738,6.744824447159486,-9.570493301667597,-1.1385376838703698,11.763641737058192
649,1790650068.207365,-0.21022406130420918,0.3779243064413265,0.5820386240433679,0.7251137133089475,6.741593220592588,-9.565523544140081,-1.1338208714404565,11.757290061657582
650,1790650068.2324836,-0.26291449099170916,0.5312055564413265,0.3281665537308679,0.6774929222915642,6.7372524105566995,-9.558505419402886,-1.127070750203317,11.7484417848611
651,1790650068.2524836,-0.40182562380420916,0.4306147361288265,0.3616968271683679,0.6911710914821343,6.733317489061968,-9.552312901056563,-1.1214675486433012,11.74061053058398
652,1790650068.2773366,-0.31081488161670917,0.3204438376913265,0.2946362802933679,0.5348838017867676,6.727832872309193,-9.544372080271303,-1.114325761395652,11.73032375797431
653,1790650068.2973366,-0.19585394411670917,0.5647358298788265,0.3090063974808679,0.6728820689088855,6.723321273237558,-9.537612618762607,-1.1085351612014416,11.721687319339667
654,1790650068.3073902,-0.24375433474170918,0.8569282126913266,0.3473267099808679,0.9562311336062315,6.721062083151713,-9.533652470046167,-1.105566064251259,11.716888719605604
655,1790650068.3273902,-0.2772846081792092,0.9479389548788265,0.2419458506058679,1.0168642046680847,6.716460395132418,-9.524248841011037,-1.0996616236990675,11.706041684169714
656,1790650068.3514996,-0.16711370974170917,0.5743159080038265,0.15572514748086788,0.6180744904360913,6.710941718389263,-9.51186087790444,-1.0928925754148708,11.692161916840845
657,1790650068.3714995,-0.24375433474170918,0.4306147361288265,0.15572514748086788,0.518744203085307,6.706434090001358,-9.50161848829871,-1.0876524120799844,11.680753394803592
658,1790650068.411675,-0.21501410036670918,0.5982661033163266,0.17009526466836788,0.6580925412101317,6.69735516331111,-9.481029860515108,-1.0777233063027918,11.657872058161272
659,1790650068.431675,-0.12400335817920917,0.8186079001913266,0.16051518654336788,0.8433628235856891,6.693004946901068,-9.470192603227321,-1.0730259524601469,11.646125873272908
660,1790650068.426708,-0.1431635144292092,0.8186079001913266,0.3760669443558679,0.912162832369602,6.693004946901068,-9.470192603227321,-1.0730259524601469,11.646125873272908
661,1790650068.446708,-0.10484320192920918,0.7228071189413265,0.4239673349808679,0.8445060860134813,6.689149268387333,-9.457963116358467,-1.0677479224698414,11.633480557043221
662,1790650068.4716175,-0.00904242067920917,0.39229442362882655,0.2994263193558679,0.49359173504528536,6.684854674070145,-9.442933067464626,-1.0608088588604367,11.618157442774269
663,1790650068.4916174,-0.03299261599170917,0.32523387675382653,0.09824467873086788,0.3413467506762457,6.681860689818748,-9.431599218666852,-1.055476650234504,11.60673757172499
664,1790650068.5167365,0.043648009008290835,0.2725434470663265,0.06950444435586789,0.2846330040849116,6.678684502013858,-9.418373469319118,-1.0494681628846316,11.593617593741945
665,1790650068.5367365,0.17776910275829083,0.2342231345663265,-0.055036571269132126,0.29915105689037025,6.676867059356273,-9.4086624490542,-1.045380060435498,11.58431276681166
666,1790650068.5468142,0.45559136838329084,-0.04838917012117348,-0.050246532206632125,0.46090098798892526,6.676567354652219,-9.404362728471872,-1.0437086886789007,11.58049730351432
667,1790650068.5668142,0.6088726183832909,-0.09149952168367348,-0.03108637595663212,0.6164936258027188,6.677658480620117,-9.397319411089358,-1.041011269734213,11.575164766064812
668,1790650068.591913,0.7573638293207908,-0.01964893574617348,-0.21310786033163212,0.7870203369510446,6.681394201958569,-9.390015531091617,-1.038593606508127,11.571175257318805
669,1790650068.611913,0.8771148058832908,0.018671376753826522,-0.2897484853316321,0.9239227174182597,6.686376205894609,-9.385069914767914,-1.0377103524740865,11.569961402159787
670,1790650068.6365812,1.035186094945791,0.03783153300382652,-0.10772700095663212,1.0414636732952551,6.695137318843479,-9.379780392624834,-1.0375197246167953,11.570721287413713
671,1790650068.6565812,1.1740972277582908,0.05699168925382653,0.04076420998086788,1.1761862410728467,6.704488919834243,-9.37599290899198,-1.037488798429587,11.573063454095243
