imu_index,t_imu,ax,ay,az,mag,vx,vy,vz,velocity
0,1791353428.1527991,-0.2905305325255102,-0.2581733298788265,0.15005530532525477,0.41662699534059644,0.0,0.0,0.0,0.0
1,1791353428.172799,-0.3719611965880102,-0.3683442283163265,0.13089514907525476,0.5395981304198224,-0.0013641627216721141,-0.0012689461227257531,0.0006127456115301546,0.001961280545467694
2,1791353428.1988754,-0.2809504544005102,-0.4066645408163265,0.03509436782525475,0.4955207576260163,-0.004152903416188509,-0.004190951778313889,0.0016164472216191688,0.006117481933984184
3,1791353428.2188754,-0.27616041533801017,-0.36355418925382654,0.015934211575254747,0.45682614047599596,-0.006806638051363296,-0.00725122758356578,0.0023473351542692288,0.01021864009334902
4,1791353428.2285175,-0.3384309231505102,-0.25338329081632655,0.07341468032525475,0.42910173280549335,-0.008338561191211555,-0.008951444135321333,0.002711459691935593,0.012530441672516959
5,1791353428.2485175,-0.3096906887755102,-0.14321239237882652,0.07820471938775475,0.3500486968689276,-0.012011669165138862,-0.0125439808990076,0.003580874834482211,0.017732859823154392
6,1791353428.2731574,-0.2617902981505102,-0.25338329081632655,0.13568518813775476,0.38877721454661157,-0.01691421750646868,-0.01703896951276436,0.0048865875697958975,0.024500938226735904
7,1791353428.2931573,-0.3144807278380102,-0.2725434470663265,0.12610511001275476,0.43483394243279716,-0.02116108129569871,-0.02092912569284678,0.00618013445503642,0.03039759407835557
8,1791353428.3180003,-0.2905305325255102,-0.1959028220663265,0.05425452407525475,0.3545835013163186,-0.026772308178302763,-0.02590927977824334,0.00788194717104843,0.038081128594469264
9,1791353428.3380003,-0.2474201809630102,-0.052201650191326505,0.03988440688775475,0.2559932111272764,-0.03141898118801884,-0.029689342395367108,0.009187701371569065,0.04419302306083571
10,1791353428.3481152,-0.2953205715880102,-0.11926219706632651,0.15484534438775474,0.35413950970022917,-0.033828244578494635,-0.031444406449268436,0.009896749739500289,0.0472339547742463
11,1791353428.3681152,-0.3096906887755102,-0.1959028220663265,0.10215491470025476,0.3804232708513203,-0.03878497565264944,-0.03486686496475682,0.011473937366464246,0.05340059782003139
12,1791353428.3932767,-0.27616041533801017,-0.2006928611288265,0.05425452407525475,0.3456671128273113,-0.04519109738676296,-0.039275143030019104,0.013455688830935958,0.06136634016269284
13,1791353428.4132767,-0.3575910794005102,-0.16716258769132653,0.10215491470025476,0.4077380744888791,-0.050469921368746826,-0.04280531096830759,0.015029242670090285,0.06786299245757929
14,1791353428.4382796,-0.4198615872130102,-0.12405223612882652,0.11173499282525476,0.45183782303748105,-0.057537236599321646,-0.04710265389929377,0.01710243393277199,0.07629997933333799
15,1791353428.4582796,-0.3001106106505102,-0.12884227519132652,0.06862464126275475,0.33373050788014785,-0.0634223953977723,-0.05040384018619141,0.01878257514670533,0.08316088306799131
16,1791353428.4838073,-0.2713703762755102,-0.13842235331632652,0.059044563137754746,0.3103045108496978,-0.0709015198720312,-0.0544970919207864,0.020849841728154322,0.09182414959081169
17,1791353428.5038073,-0.3623811184630102,-0.09052196269132651,0.08778479751275475,0.38369319960399023,-0.07683281100287787,-0.05756637723594486,0.02244676566652907,0.09859526319029291
18,1791353428.5138648,-0.39591139190051017,-0.17195262675382653,0.059044563137754746,0.435660184685574,-0.07994008061200122,-0.05907630557031806,0.023240112700218703,0.10208099336512019
19,1791353428.5338647,-0.3144807278380102,-0.23901317362882651,0.05425452407525475,0.3987091405175966,-0.08625784764610092,-0.062244967105593324,0.024751045970732802,0.10921294102421966
20,1791353428.559043,-0.2713703762755102,-0.2773334861288265,0.10694495376275476,0.4024834987718102,-0.09412462803569524,-0.06661072100635548,0.026672260163340622,0.11835473466687102
21,1791353428.579043,-0.3528010403380102,-0.2677534080038265,0.11173499282525476,0.4567769370085421,-0.1003724303952562,-0.07037604989038494,0.028297458196580316,0.12581001280506934
22,1791353428.603231,-0.38633131377551017,-0.2150629783163265,0.03988440688775475,0.4439535274762308,-0.10813598825175376,-0.0751226594082819,0.030243203222487698,0.13509795428840823
23,1791353428.623231,-0.3480110012755102,-0.23901317362882651,0.006354133450254746,0.4222313692619372,-0.11469393073138599,-0.07913981341083474,0.03168008109614042,0.14290358760918406
24,1791353428.6332395,-0.27616041533801017,-0.30607372050382653,0.04946448501275475,0.4152016770923425,-0.11795197841054872,-0.08125773491206414,0.03233317819391665,0.1468363820928635
25,1791353428.6532395,-0.3432209622130102,-0.34439403300382654,0.13568518813775476,0.5047953537336127,-0.12441498082960789,-0.0858308145058975,0.033720215373166315,0.15486467995766565
26,1791353428.6782875,-0.4342317044005102,-0.3300239158163265,0.17400550063775475,0.5724953033602193,-0.13275564039357665,-0.09196601114493032,0.035778559706283214,0.16541436635574966
27,1791353428.6982875,-0.4150715481505102,-0.2581733298788265,0.10215491470025476,0.49937309192846885,-0.1396903645098359,-0.0970122382432922,0.037589789547872565,0.17417739401000767
28,1791353428.7238638,-0.2809504544005102,-0.2869135642538265,0.06862464126275475,0.40738420755980415,-0.14856351001458304,-0.10354306724198528,0.03988618308385487,0.18542705002973592
29,1791353428.7438638,-0.2522102200255102,-0.3970844626913265,0.09736487563775476,0.48038108268762125,-0.15526101564446212,-0.10890994750973149,0.04166152440850008,0.19417271245353304
30,1791353428.753919,-0.3336408840880102,-0.3970844626913265,0.12131507095025475,0.5326440241714477,-0.15856494005881067,-0.11180234027641782,0.042585113054755784,0.198635584327241
31,1791353428.7739189,-0.4007014309630102,-0.35397411112882654,0.11173499282525476,0.5462087666331497,-0.16525235974387775,-0.11781906247040207,0.044496188590093584,0.20777291614012078
32,1791353428.798938,-0.3096906887755102,-0.2964936423788265,0.08299475845025475,0.43669775888539836,-0.1736962045526181,-0.1254372997756124,0.04689366343184729,0.21932602062008325
33,1791353428.818938,-0.2713703762755102,-0.31565379862882653,0.07820471938775475,0.42355068155208675,-0.18030520513031723,-0.13153194744138946,0.048764494688385764,0.22844823513659243
34,1791353428.843013,-0.3719611965880102,-0.3683442283163265,0.09736487563775476,0.5324589386131948,-0.18822908422459064,-0.13900297434145942,0.0509957234192586,0.23948398449761518
35,1791353428.863013,-0.4150715481505102,-0.3779243064413265,0.12610511001275476,0.5753378748653246,-0.19500488210637842,-0.14539785566723223,0.05290645468108338,0.24893078038859193
36,1791353428.874007,-0.3144807278380102,-0.3300239158163265,0.09736487563775476,0.4661478651675044,-0.19877238057856475,-0.14896955974750942,0.05398349317594584,0.25419796723757243
37,1791353428.894007,-0.2522102200255102,-0.32523387675382653,0.06383460220025475,0.4164876061921942,-0.2054481084240912,-0.15547538037944136,0.05589071945875304,0.26363856258291607
38,1791353428.917489,-0.3001106106505102,-0.36355418925382654,0.10694495376275476,0.4833996796485771,-0.21308313826377823,-0.16318118473236476,0.05809488082125618,0.27460432997430057
39,1791353428.937489,-0.2905305325255102,-0.36355418925382654,0.12610511001275476,0.48216401527373715,-0.21949652088954202,-0.16985050561319862,0.060040170299062896,0.2839590445631427
40,1791353428.978285,-0.22346998565051018,-0.3875043845663265,0.05425452407525475,0.45060185965816774,-0.23218894698553916,-0.18371201327896425,0.06396482513462941,0.30290808800652314
41,1791353428.998285,-0.28574049346301017,-0.40187450175382655,0.020724250637754748,0.4935384881940489,-0.23824178095857568,-0.19067226358401385,0.06571272315131294,0.3121429484683687
42,1791353428.9938333,-0.3001106106505102,-0.42582469706632653,0.08778479751275475,0.5282984212838482,-0.23824178095857568,-0.19067226358401385,0.06571272315131294,0.3121429484683687
43,1791353429.0138333,-0.4438117825255102,-0.4785151267538265,0.07820471938775475,0.657313930306683,-0.2444777954750571,-0.1981128683435414,0.06736291241071962,0.32180096807204217
44,1791353429.038509,-0.4390217434630102,-0.5599457908163266,-0.041546257174745256,0.7127450254975145,-0.25265142726942763,-0.2078377862178948,0.06916133226602042,0.3343838796384256
45,1791353429.0585089,-0.3288508450255102,-0.5503657126913265,-0.041546257174745256,0.6424728690500899,-0.25943436721403507,-0.21620312523080282,0.07027569484802959,0.344947322844643
46,1791353429.0837126,-0.3336408840880102,-0.5934760642538265,0.02551428970025475,0.6813083423503264,-0.2679522642842171,-0.22732590781651424,0.07143904890096865,0.3585791711847138
47,1791353429.1037126,-0.19472975127551018,-0.5168354392538266,0.11652503188775475,0.5644613630329007,-0.274490169740474,-0.2364937277950565,0.07243679390662727,0.3694877882718558
48,1791353429.1292992,-0.07976881377551018,-0.4210346580038265,0.15484534438775474,0.4556427631051694,-0.2821264572074732,-0.24826287472605088,0.07404253200524567,0.38303014159388404
49,1791353429.1492991,0.02561204559948983,-0.3970844626913265,0.26980628188775474,0.4807571914560867,-0.2872813143110787,-0.25730958540487625,0.07574637650356086,0.39303471837351633
50,1791353429.1588056,-0.11808912627551017,-0.3683442283163265,0.30812659438775475,0.4945346402907075,-0.28942994074910366,-0.2615104226637512,0.07684682981314929,0.39757115968859535
51,1791353429.1788056,-0.18993971221301018,-0.3204438376913265,0.24585608657525476,0.4463256240638728,-0.29373427598896845,-0.2700557728932182,0.07964569440667055,0.40688251621473936
52,1791353429.219058,-0.22346998565051018,-0.34439403300382654,0.13568518813775476,0.43238472999778554,-0.3023458905450905,-0.28668166665565015,0.08558564555750929,0.425351993355457
53,1791353429.239058,-0.2809504544005102,-0.44498485331632653,0.18837561782525475,0.5589544264963399,-0.3067394995564869,-0.29488741687344155,0.08858038063303,0.43461959579792003
54,1791353429.2487004,-0.2474201809630102,-0.3875043845663265,0.16921546157525474,0.48990842658809486,-0.30892210964280975,-0.29885217711779666,0.09006622717963547,0.43915534708413234
55,1791353429.2687004,-0.18035963408801017,-0.31565379862882653,0.05425452407525475,0.367573763454087,-0.3134118331818005,-0.3068969906851156,0.0930210561219268,0.4484034533230039
56,1791353429.278982,-0.2809504544005102,-0.3683442283163265,0.07820471938775475,0.46981550261386723,-0.31572941761945583,-0.31093975006583546,0.09441435997790498,0.45308130031084093
57,1791353429.298982,-0.3528010403380102,-0.3683442283163265,0.15484534438775474,0.5330320114928322,-0.32051203901379555,-0.3187292561519892,0.09706768402534649,0.46231854944618617
58,1791353429.323686,-0.23305006377551019,-0.3491840720663265,0.12610511001275476,0.43834272799023355,-0.3266188735130581,-0.32823705072359016,0.10037400692315927,0.47380839088018495
59,1791353429.3436859,-0.09892897002551018,-0.2629633689413265,0.06383460220025475,0.2881172173844272,-0.33131924499165827,-0.3356980368671841,0.10293415433178756,0.48276397357955786
60,1791353429.3690236,-0.11329908721301019,-0.2150629783163265,0.03509436782525475,0.2456020815437937,-0.33678415738833317,-0.3446408294735883,0.10587905444443832,0.4933672508163274
61,1791353429.3890235,-0.21867994658801018,-0.2198530173788265,0.06862464126275475,0.31759346605172994,-0.34094873437234713,-0.35129324834522996,0.1080104736289244,0.5013175123777278
62,1791353429.3988175,-0.18035963408801017,-0.2773334861288265,0.05425452407525475,0.335241724013228,-0.3429753342363303,-0.3544274944048069,0.10898792762608828,0.5051032538529339
63,1791353429.4188175,-0.1420393215880102,-0.2869135642538265,-0.022386100924745255,0.3209294310976008,-0.3469766140597549,-0.36071414899540605,0.11073235136241,0.5126101068337419
64,1791353429.4434752,-0.2474201809630102,-0.25338329081632655,-0.041546257174745256,0.3565752788653609,-0.3518900116589206,-0.3683014630226722,0.11244219584013807,0.5216471943519949
65,1791353429.4634752,-0.2809504544005102,-0.2869135642538265,0.011144172512754747,0.4017172435453597,-0.35607005192074503,-0.37434289330733317,0.11357542522728878,0.5289781289052573
66,1791353429.4890268,-0.21388990752551018,-0.2677534080038265,0.059044563137754746,0.34774565486151393,-0.36155762981745365,-0.3819664829691587,0.11494055424017284,0.5383620016309486
67,1791353429.5090268,-0.18993971221301018,-0.16716258769132653,0.07820471938775475,0.26483278334401694,-0.3658143736183088,-0.3876909894364063,0.11605467675245029,0.5455209869767167
68,1791353429.5178,-0.2378401028380102,-0.09531200175382651,0.07341468032525475,0.2665370658718521,-0.3676830507463081,-0.38999817569789763,0.11656986148173155,0.5485234137752649
69,1791353429.5378,-0.1516193997130102,-0.0761518455038265,0.06383460220025475,0.1812799006537597,-0.37188815558316385,-0.3947259819284801,0.1177740032745784,0.5549595633195005
70,1791353429.5638885,-0.07018873565051018,-0.09531200175382651,0.08299475845025475,0.144564747503514,-0.37698461078728357,-0.40030348277477146,0.11939640065913892,0.5626862141392919
71,1791353429.5838885,-0.08934889190051018,-0.06657176737882652,0.09736487563775476,0.14796940124142252,-0.3805449103479023,-0.40418076439525435,0.12072413955389073,0.5681116412905587
72,1791353429.623465,-0.10371900908801018,-0.11447215800382651,0.08299475845025475,0.17535574622597314,-0.38710642080349417,-0.41123974994777573,0.12349275252434226,0.5781176116418176
73,1791353429.643465,-0.1276692044005102,-0.11926219706632651,0.07341468032525475,0.18950623390433863,-0.39027198056427287,-0.4146225179015455,0.12491661612437488,0.5829478640054718
74,1791353429.6686552,-0.11808912627551017,-0.0857319236288265,0.011144172512754747,0.14635298785677855,-0.3941252694508998,-0.4186313315973031,0.12660073085122853,0.588739895766153
75,1791353429.6886551,-0.08455885283801018,-0.0857319236288265,-0.036756218112245255,0.12590147692658,-0.39702969962962825,-0.42159394422413404,0.1276988667050416,0.5930270118234136
76,1791353429.6827888,-0.06539869658801017,-0.0713618064413265,-0.0032259446747452537,0.09684990270012914,-0.39702969962962825,-0.42159394422413404,0.1276988667050416,0.5930270118234136
77,1791353429.7027888,-0.031868423150510174,0.043599131058673496,0.030304328762754747,0.06192602817016836,-0.3994652466674052,-0.4239763701352023,0.1284819101878799,0.5965199468363144
78,1791353429.7284882,-0.07976881377551018,0.019648935746173494,0.06862464126275475,0.10704431659621663,-0.40234058653378163,-0.4264566065497665,0.1295278504843225,0.6004337173188884
79,1791353429.7484882,-0.1276692044005102,-0.12405223612882652,0.09257483657525475,0.20064516791529396,-0.40455376334043414,-0.4282538728634665,0.13046153270332383,0.6033948446670443
80,1791353429.7733524,-0.04623854033801018,-0.05699168925382651,0.05425452407525475,0.09126668964757577,-0.4072167980037966,-0.43049071034827996,0.13172199168584112,0.6070407361671178
81,1791353429.7933524,0.08788255341198983,-0.16237254862882652,0.14047522720025477,0.23199456286601863,-0.4089750844496455,-0.4323491120876744,0.13287587869371417,0.6097887942248708
82,1791353429.8036623,0.03998216278698983,-0.1863227439413265,0.006354133450254746,0.19067016878068294,-0.40964664669706385,-0.43343303980730463,0.13349501549223056,0.6111427773507763
83,1791353429.8236623,0.14536302216198985,-0.004301259566326506,0.15005530532525477,0.20896292422862842,-0.410475963784226,-0.435506256870625,0.13475052004613108,0.6134443082063399
84,1791353429.8483949,0.14057298309948985,0.005278818558673495,0.15005530532525477,0.2056823379853513,-0.4108172935415121,-0.4376836767803135,0.13662691460860274,0.6156336275644576
85,1791353429.8683949,0.4136052096619898,-0.2102729392538265,0.059044563137754746,0.4677288091171104,-0.4102206405815739,-0.43948782060983216,0.1382303068160351,0.616877731925859
86,1791353429.8935194,0.11662278778698983,-0.31565379862882653,0.22190589126275476,0.403088600430643,-0.4085844074174362,-0.4424053007068275,0.14047180654389083,0.6183817562896404
87,1791353429.9135194,-0.3096906887755102,0.24957081074617352,0.3129166334502548,0.5060738402452684,-0.407766887177153,-0.444478474962254,0.14279070192350368,0.6198581559830628
88,1791353429.9228077,0.5333561862244899,-0.23901317362882651,-0.08944664779974526,0.5912671319756139,-0.4072883575214013,-0.4452895132546344,0.14386176861361433,0.6203730855345573
89,1791353429.9428077,0.31301438934948983,-0.8617182517538265,0.02551428970025475,0.9171626531452389,-0.4051429712578938,-0.4484250162431579,0.14572619603967085,0.621660636171009
90,1791353429.9683223,-0.12287916533801017,-0.5455756736288265,0.14526526626275477,0.5778010925154978,-0.40245273336943727,-0.45451805768375236,0.14807473121729292,0.6248847840860071
91,1791353429.9883223,0.20763352997448983,-0.1959028220663265,-0.022386100924745255,0.28634024512427697,-0.40053313818891784,-0.4596899733194951,0.14982384233104173,0.6278446066414665
92,1791353430.0131426,0.34175462372448984,-0.6940668845663266,-0.11818688217474525,0.7826194491621462,-0.3974855249890403,-0.4668023462603285,0.15140723825006724,0.6315246035147587
93,1791353430.0331426,0.33696458466198986,-0.2581733298788265,0.011144172512754747,0.4246443125230135,-0.3943800704015048,-0.4731021245604414,0.15233117673585933,0.6344809276875317
94,1791353430.043323,0.39923509247448985,-0.4401948142538265,0.06862464126275475,0.5982219278390897,-0.39247431713390324,-0.4763610818402733,0.15279184401039428,0.6358469292981258
95,1791353430.063323,-0.5875129544005102,-0.7659174705038265,-0.6786214524872453,1.1799695415506684,-0.389574389024786,-0.4836122568984829,0.15264610036271986,0.6394918698172989
96,1791353430.0879204,-0.7264240872130102,-0.18153270487882653,0.3033365553252548,0.8078732222449693,-0.38896678920391714,-0.49294042963923274,0.1518014136643956,0.6460101388268026
97,1791353430.1079204,0.44234544403698983,1.0255571388711735,0.05425452407525475,1.118204136252653,-0.3889729768338617,-0.49812136599676254,0.15175401219895387,0.6499647314954534
98,1791353430.1334789,1.8266667330994901,-0.48330516581632654,-0.35768883529974527,1.9230799619400123,-0.38463026180050586,-0.5027096511311794,0.15112087422308132,0.6507648963021178
99,1791353430.1534789,0.5573063815369899,-1.2209711814413267,-0.25709801498724527,1.36655055454325,-0.3781657883346088,-0.5083179191260924,0.14977756889047392,0.6510221121545392
100,1791353430.1785164,-0.3432209622130102,-0.8808784080038266,0.26501624282525477,0.9818253447283762,-0.37088495580984365,-0.5182325378963949,0.1483630321355553,0.654318120706636
101,1791353430.1985164,-0.0031281887755101735,0.1154497169961735,0.16921546157525474,0.20487141126969935,-0.3664609383124352,-0.5261125091351071,0.14805393669903918,0.6580334032170037
102,1791353430.2077847,0.2938542330994898,-0.2821235251913265,0.24585608657525476,0.47580375059783786,-0.3645162171674467,-0.5293323075377563,0.14822070832199105,0.6595711809628918
103,1791353430.2277846,0.38007493622448985,0.0819194435586735,0.39434729751275477,0.5537847446748835,-0.35993829638263736,-0.535538401496565,0.14948690674861387,0.662346806416095
104,1791353430.2679088,0.07830247528698983,-0.5120454001913265,0.04467444595025475,0.5199207397422492,-0.3507522620805681,-0.5474159081472216,0.15296728256527578,0.6678999291680512
105,1791353430.2879088,-0.20909986846301018,-0.5407856345663266,0.12610511001275476,0.5933585394311618,-0.3470564795738801,-0.554027466150212,0.1546980322072467,0.6718080934551427
106,1791353430.2834544,-0.041448501275510176,-0.13363231425382652,0.12131507095025475,0.18518347688302203,-0.3470564795738801,-0.554027466150212,0.1546980322072467,0.6718080934551427
107,1791353430.3034544,0.26032395966198985,-0.16237254862882652,0.08778479751275475,0.31912314111745843,-0.34437741270508826,-0.5601082057429557,0.1565776087570265,0.6758946309049306
108,1791353430.327996,0.33696458466198986,-0.5407856345663266,0.04467444595025475,0.6387409803595617,-0.3404837112241183,-0.5677447847707215,0.1587818514097106,0.6807899636307788
109,1791353430.347996,0.07830247528698983,-0.3491840720663265,-0.027176139987245256,0.35888624438044087,-0.33716364324778786,-0.5743695982418953,0.16033497827519302,0.6850452999409486
110,1791353430.373475,-0.2905305325255102,-0.48330516581632654,0.03988440688775475,0.565316406578733,-0.33397402140960963,-0.5831341854656417,0.16204108474133755,0.6912607600459707
111,1791353430.393475,0.03519212372448983,-0.5120454001913265,-0.036756218112245255,0.5145677768761375,-0.3322288700595715,-0.5904750603897635,0.1631841142051827,0.6968973196764963
112,1791353430.4032238,0.33217454559948983,-0.2677534080038265,-0.07507653061224526,0.4332069963547017,-0.33123721791685573,-0.5940866835944324,0.16357592743543015,0.699581422133186
113,1791353430.4232237,0.15015306122448985,-0.2917036033163265,-0.041546257174745256,0.3307008095968987,-0.32878446328949823,-0.6012238929760454,0.1640842455895656,0.7046226170344886
114,1791353430.4483125,-0.16119947783801017,-0.2725434470663265,-0.05112633529974526,0.320747726968134,-0.3261899392443204,-0.6098958376685217,0.16445187403825604,0.7109270202660015
115,1791353430.4683125,-0.39591139190051017,-0.2964936423788265,0.22190589126275476,0.5421222507744727,-0.3252675737014594,-0.616625440570041,0.16495714555154015,0.7164054636365802
116,1791353430.4928226,0.06393235809948983,-0.30607372050382653,0.006354133450254746,0.3127440547910057,-0.3249170260406974,-0.6247432238988171,0.16590307935081375,0.7234631997252529
117,1791353430.5128226,0.08309251434948983,-0.04741161112882651,-0.07507653061224526,0.12160884942931842,-0.3244533527020591,-0.6309038621419417,0.16645608577568652,0.7287093315149654
118,1791353430.5528862,-0.5060822903380102,-0.24380321269132652,0.011144172512754747,0.5618571737491409,-0.32493484118933075,-0.6422686484941711,0.1672055907076056,0.7389515392914099
119,1791353430.5728862,-0.08455885283801018,0.1010795998086735,0.030304328762754747,0.13522439658775695,-0.3260251095220671,-0.6473050933862573,0.1675857968633576,0.7438959976186146
120,1791353430.5679233,-0.17077955596301017,-0.0713618064413265,0.20753577407525475,0.2780813939739721,-0.3260251095220671,-0.6473050933862573,0.1675857968633576,0.7438959976186146
121,1791353430.5879233,0.02561204559948983,-0.05699168925382651,0.0015640943877547465,0.06250180729426051,-0.32735613561109705,-0.6510985647303127,0.16847739115638358,0.7479812911075819
122,1791353430.6129923,0.36091477997448984,0.3453715919961735,-0.0032259446747452537,0.49955122027781124,-0.32804751729697845,-0.6545980513267327,0.16942420096673644,0.7515439722855105
123,1791353430.6329923,0.13099290497448984,0.1585600685586735,0.16442542251275474,0.26331759543085015,-0.32777850158994326,-0.6562152535775151,0.1703080579725118,0.7530352181290855
124,1791353430.6578903,-0.3480110012755102,-0.03783153300382651,0.20274573501275475,0.40453518383950854,-0.3278990873078494,-0.6577010827143827,0.17192896587330167,0.7547503527440413
125,1791353430.6778903,-0.17077955596301017,0.014858896683673494,-0.07986656967474526,0.18911666372160318,-0.32875960636214235,-0.6587500415261561,0.1732200139115902,0.7563330411965582
126,1791353430.7036705,0.0016618502869898265,0.2256206154336735,-0.12776696029974527,0.25929099482874957,-0.33002943394543854,-0.6594343725420503,0.17423310051061636,0.7577138591010572
127,1791353430.7236705,0.0064518893494898266,0.24957081074617352,0.15005530532525477,0.291279609840675,-0.33085461323341814,-0.6591728477385115,0.17493458270568568,0.7580077351320011
128,1791353430.7334385,-0.3575910794005102,0.1873003029336735,0.23627600845025476,0.4677383196992232,-0.33145442362441596,-0.6587442260470747,0.17550882316235472,0.7580299052797244
129,1791353430.7534385,-0.4007014309630102,0.0819194435586735,-0.08944664779974526,0.4186563445254095,-0.33363575538113305,-0.6575944350031663,0.1767284598345371,0.7582718554261132
130,1791353430.777983,-0.20909986846301018,0.0819194435586735,-0.19003746811224526,0.2941900567842555,-0.3370337366659652,-0.6560934400034318,0.1774862288335959,0.758651239432278
131,1791353430.797983,0.08309251434948983,0.0627592873086735,0.030304328762754747,0.10845020251790186,-0.3395762556263982,-0.6548368037030143,0.1777714749407702,0.7587660839625359
132,1791353430.808028,-0.22346998565051018,0.029229013871173496,0.21232581313775475,0.30963756339166804,-0.340767452780697,-0.6542310246501138,0.17807604323254453,0.7588489755298754
133,1791353430.828028,-0.4773420559630102,-0.15758250956632652,0.22669593032525476,0.5514333418811812,-0.3438346208947294,-0.6533983500108412,0.17925001866804754,0.7597909051279881
134,1791353430.8528068,-0.7312141262755102,-0.14800243144132652,0.06383460220025475,0.7487681046996241,-0.3493106580299845,-0.6530893619195683,0.18102626012829187,0.7624396089670878
135,1791353430.8728068,-0.5491926419005102,0.1346098732461735,-0.022386100924745255,0.5658917859517187,-0.35498820297582906,-0.6528974637390418,0.18230705614876735,0.7651977425022316
136,1791353430.9134955,-0.3384309231505102,0.019648935746173494,0.12610511001275476,0.3616961006035216,-0.36751495409588886,-0.6520948743758419,0.18483841775376203,0.7710124560271789
137,1791353430.9334955,-0.3192707669005102,-0.2246430564413265,0.11652503188775475,0.4074020231429677,-0.37373525087963594,-0.6520670390343112,0.1862599793547928,0.7743140454972298
138,1791353430.9285135,-0.6881037747130102,-0.2006928611288265,-0.008015983737245254,0.7168184465243925,-0.37373525087963594,-0.6520670390343112,0.1862599793547928,0.7743140454972298
139,1791353430.9485135,-0.7934846340880102,-0.03304149394132651,0.07341468032525475,0.7975583490522292,-0.38173619711532103,-0.652939831976022,0.18752350446731794,0.7792419477265371
140,1791353430.9728518,-0.7791145169005103,0.2256206154336735,0.07820471938775475,0.8148865385366865,-0.3928827600070731,-0.653491100566923,0.18910722630597548,0.7856010594901736
141,1791353430.9928517,-0.7886945950255102,0.1202397560586735,-0.036756218112245255,0.7986537314314744,-0.4030202170928081,-0.6533573652590887,0.19027561044267038,0.7908893412185825
142,1791353431.018566,-0.4869221340880102,0.0723393654336735,-0.12776696029974527,0.5085769800142408,-0.4165590713119479,-0.6528398114920014,0.19123518918038895,0.7976792443971722
143,1791353431.0385659,0.08309251434948983,0.08670948262117349,-0.12297692123724525,0.17189014943952835,-0.42611553768686933,-0.6522590765417909,0.1914934644031117,0.8023005056077339
144,1791353431.0482352,0.27948411591198985,0.0675493263711735,0.020724250637754748,0.2882772573492442,-0.4297797877055372,-0.6519085578011022,0.191525448112096,0.803976013901577
145,1791353431.0682352,0.03998216278698983,0.1729301857461735,0.17400550063775475,0.24855851772877768,-0.4357428509376558,-0.6509315780815113,0.19187377427818153,0.8064733701386037
146,1791353431.0936205,-0.1372492825255102,0.1489799904336735,0.09736487563775476,0.2247494652081295,-0.4423614658380645,-0.6492646486179398,0.19276623930224895,0.8089419468775926
147,1791353431.1136205,-0.022288345025510175,0.1825102638711735,0.03988440688775475,0.18814232021288974,-0.44703310069577246,-0.6476511107800711,0.19356977558447994,0.8104071892771945
148,1791353431.1532874,0.016031967474489827,0.2878911232461735,0.15005530532525477,0.32504602363557994,-0.4549273633589944,-0.6435314848791412,0.19548948663085247,0.8119777197354082
149,1791353431.1732874,-0.18993971221301018,0.1585600685586735,0.28896643813775474,0.3804208090876644,-0.4585714577857894,-0.6410962664456302,0.19697074648405052,0.8124590326390585
150,1791353431.1828392,-0.1420393215880102,0.1873003029336735,0.13568518813775476,0.27141673241752423,-0.4602886030399251,-0.6398599204646599,0.19787627731508375,0.8126754192354796
151,1791353431.2028391,-0.38633131377551017,0.1441899513711735,0.04467444595025475,0.41477515861113873,-0.46413728932492093,-0.6371622686860824,0.19975845705929743,0.813205153172182
152,1791353431.213057,-0.3288508450255102,-0.03304149394132651,0.23627600845025476,0.4062769631237436,-0.46635669989071593,-0.635905604877113,0.20079111940957178,0.8137454045835437
153,1791353431.233057,-0.17077955596301017,-0.25338329081632655,0.08778479751275475,0.3179228199959691,-0.4707986770012376,-0.6342444740864195,0.2029952965078812,0.8155516768296152
154,1791353431.273688,-0.11808912627551017,-0.24380321269132652,-0.17087731186224525,0.32028753327657417,-0.4793494566323283,-0.6328910886337613,0.20654830671019989,0.8203592107428225
155,1791353431.293688,-0.3575910794005102,-0.15279247050382652,-0.12776696029974527,0.40931811009741725,-0.4836406119413369,-0.6329197267823692,0.207586915827939,0.8231573055572158
156,1791353431.3030097,-0.2474201809630102,-0.2725434470663265,-0.18524742904974525,0.4120840769261834,-0.4857636278591188,-0.6332284361254392,0.20777954714910485,0.8246919998897825
157,1791353431.3230097,0.5477263034119898,-0.5072553611288265,-0.18045738998724525,0.7680344877961589,-0.4891849174371047,-0.6349611270623112,0.20758229256544528,0.8279902925245644
158,1791353431.3324714,-0.4821320950255102,-0.2581733298788265,0.26501624282525477,0.6077322060542977,-0.4905141397131825,-0.636201042862397,0.20756297743994484,0.8297218074761564
159,1791353431.3524714,-0.7407942044005102,-0.23901317362882651,0.21232581313775475,0.8068367873158222,-0.4947367765970717,-0.6391746117586409,0.20824428583890245,0.8346702013484276
160,1791353431.3785324,0.28906419403698985,-0.3875043845663265,-0.15650719467474525,0.5081459025883616,-0.5002966945685138,-0.6436927031265041,0.2091080022313225,0.8416431757292762
161,1791353431.3985324,0.16452317841198982,-0.6653266501913265,-0.05591637436224526,0.6876438530310687,-0.5032431245212515,-0.6482191608249842,0.20935278117055678,0.8469181246274079
162,1791353431.4229393,-0.5539826809630102,-0.5359955955038266,0.40871741470025474,0.8724895496713562,-0.5070123533079823,-0.6551134735222012,0.2102524977989859,0.854658588225693
163,1791353431.4429393,-0.20430982940051018,-0.4785151267538265,0.23148596938775476,0.5694778195375872,-0.5107751470218297,-0.6614372882440022,0.2118394756403443,0.8621290509745783
164,1791353431.453293,0.32259446747448983,-0.6078461814413265,-0.07028649154974526,0.6917256404329133,-0.5123390635645338,-0.6650635990460879,0.21266298180682155,0.8660406749462104
165,1791353431.473293,0.23637376434948984,-0.8233979392538265,-0.04633629623724526,0.8579066238170574,-0.5140684177049452,-0.6731645286632251,0.21384016842058817,0.8735813862269465
166,1791353431.5136678,-0.08455885283801018,-0.6509565330038265,0.23148596938775476,0.6960462351575725,-0.5165761544623919,-0.6915296494198065,0.21642078975139667,0.8898888344183512
167,1791353431.5336678,-0.4342317044005102,-0.45456493144132654,0.10694495376275476,0.637670505149915,-0.5184102340949809,-0.7009206518428044,0.21801501858857647,0.8986486962792145
168,1791353431.5430741,-0.1420393215880102,-0.36355418925382654,-0.04633629623724526,0.3930570820506546,-0.5195499874607603,-0.7052520488594168,0.21869510025171057,0.9028511443006467
169,1791353431.563074,0.07830247528698983,-0.17674266581632653,-0.15171715561224527,0.2457383626196805,-0.5217054600310085,-0.713890593503844,0.21962712665676534,0.9110721383529099
170,1791353431.57327,-0.036658462213010175,-0.4401948142538265,0.059044563137754746,0.4456473693223285,-0.5226076440666713,-0.718105697534579,0.21996013435022918,0.9149737718491779
171,1791353431.59327,-0.20430982940051018,-0.31565379862882653,-0.0032259446747452537,0.3760189273128653,-0.524473329025355,-0.7262674124151852,0.22059909383300544,0.9226053259087171
172,1791353431.61843,-0.17556959502551017,-0.04741161112882651,0.0015640943877547465,0.18186530718778257,-0.5271851226318806,-0.7356797854663009,0.22127919350993477,0.9317260228997258
173,1791353431.6384299,0.14536302216198985,-0.028251454878826507,0.059044563137754746,0.15942024134646712,-0.5290627356348486,-0.7421530269142906,0.2218296357787323,0.938033518007325
174,1791353431.678334,0.36570481903698987,-0.34439403300382654,0.16921546157525474,0.530076538880608,-0.5307175011565185,-0.7542464260716873,0.22344628408718162,0.9489346548356752
175,1791353431.698334,0.35133470184948984,-0.3204438376913265,0.07820471938775475,0.48190902043075784,-0.5303469074194629,-0.7603957214167822,0.22450613979785472,0.953872372052609
176,1791353431.693504,0.27948411591198985,-0.018671376753826508,-0.036756218112245255,0.28250842629363265,-0.5303469074194629,-0.7603957214167822,0.22450613979785472,0.953872372052609
177,1791353431.713504,0.03519212372448983,0.2256206154336735,-0.0032259446747452537,0.22837152712182382,-0.5288028463095221,-0.7649605352277125,0.2252647591505581,0.9568392145162525
178,1791353431.7380874,0.15494310028698982,0.43159229512117353,0.38955725845025474,0.6016927215329972,-0.5268390602633896,-0.768518083821831,0.2267696578332926,0.9589598105730077
179,1791353431.7580874,0.21721360809948984,0.1920903419961735,-0.08944664779974526,0.3034487664078029,-0.5249228194018295,-0.7700426930749077,0.22826049775759497,0.9594855758808296
180,1791353431.783343,0.3944450534119898,0.2783110451211735,-0.21877770248724526,0.5300071896712581,-0.5217073997176267,-0.7707881359655866,0.22927688560266793,0.9585722986489282
181,1791353431.803343,0.45671556122448986,0.3166313576211735,0.21711585220025476,0.5966437913615384,-0.5182663119410997,-0.7703974922012957,0.229958539003088,0.9565527668369945
182,1791353431.8284101,0.2555339205994898,0.7621049904336735,-0.2858382493622453,0.8531149429117563,-0.5132612891857421,-0.7679532602719366,0.23055553978390902,0.9520216477916646
183,1791353431.8484101,0.5908366549744899,0.6519340919961736,0.020724250637754748,0.8800769896621637,-0.5085974313913065,-0.7641745760192938,0.2305627427740548,0.9464635799689269
184,1791353431.858495,0.5333561862244899,0.0004887794961734944,-0.04633629623724526,0.5353654010470926,-0.505748167817163,-0.7620615345879889,0.23054645797161694,0.9432235477511556
185,1791353431.878495,0.6435270846619898,0.4747026466836735,-0.23793785873724527,0.8343165682656133,-0.4991798628323151,-0.7577868103881025,0.2300925959791962,0.9361431451332154
186,1791353431.903132,0.7872282565369899,0.3932719826211735,-0.5397103196747453,1.0323170101129173,-0.4896586570346243,-0.7517070421241593,0.228180451503841,0.9256864458532927
187,1791353431.923132,0.5094059909119899,0.5321831154336735,-0.15171715561224527,0.7521511997177078,-0.4811438958464248,-0.74612370596957,0.22582389550857562,0.9160766697731739
188,1791353431.947502,0.41839524872448985,0.5944536232461736,-0.06549645248724525,0.7298763454408872,-0.4706291670773172,-0.738281703777132,0.22298614228319164,0.9034791124792503
189,1791353431.9675019,0.7584880221619898,0.43159229512117353,-0.09902672592474526,0.8782837135109269,-0.46152898344366766,-0.7312722155237606,0.22075979895813744,0.8924701365264901
190,1791353431.9786367,0.5812565768494898,0.7381547951211735,0.0015640943877547465,0.9395393318442941,-0.4561036437766171,-0.7269782274948147,0.21962482929844315,0.8858684680934186
191,1791353431.9986367,0.9069792330994899,1.5045610451211735,-1.1480452806122454,2.09864795382787,-0.4455882367806226,-0.7170583755618982,0.21617231137010778,0.8714654662829889
192,1791353432.0534518,0.43276536591198983,-1.0964301658163265,0.4997281568877548,1.2803019961053672,-0.41558323991221024,-0.6922707930124392,0.20546386519157991,0.8331648576683157
193,1791353432.0734518,0.5333561862244899,0.6327739357461736,0.059044563137754746,0.829673390907388,-0.40482850467674986,-0.6852788172978936,0.2029809757246277,0.8213978647051228
194,1791353432.068474,0.8542888034119899,1.0686674904336735,-0.18524742904974525,1.3806433915803296,-0.40482850467674986,-0.6852788172978936,0.2029809757246277,0.8213978647051228
195,1791353432.088474,0.5764665377869899,-0.009091298628826506,-0.13734703842474527,0.5926723629990907,-0.39314283182954246,-0.6764684163226256,0.20054228834443474,0.8077054004495794
196,1791353432.113335,0.7105876315369899,0.2687309669961735,-0.09902672592474526,0.7661314555371174,-0.37839610042509175,-0.666675341792422,0.1975248676032283,0.7916158749624921
197,1791353432.1333349,0.6004167330994898,0.7525249123086736,-0.14692711654974527,0.9738488458732512,-0.3663457046205223,-0.6584469044682884,0.1950926092970364,0.7783460846565005
198,1791353432.2336197,0.6291569674744899,0.3597417091836735,-0.09902672592474526,0.731477190003531,-0.3057375400654958,-0.6150106512880045,0.18287615235512353,0.7107441394082757
199,1791353432.2536197,0.5477263034119898,0.49865284199617355,-0.05112633529974526,0.7424773817709237,-0.2936981009007592,-0.6063598761325323,0.1805800255017677,0.6975242070827302
200,1791353432.2336197,0.6674772799744899,0.46033252949617354,-0.12297692123724525,0.82009467755344,-0.2936981009007592,-0.6063598761325323,0.1805800255017677,0.6975242070827302
201,1791353432.2536197,0.7776481784119899,0.6902544044961735,-0.19003746811224526,1.0570251045270238,-0.2812825368927164,-0.5971611071450538,0.17822957127357805,0.683730234466688
202,1791353432.2346165,0.7057975924744898,0.7573149513711736,-0.19003746811224526,1.0525162309435525,-0.2812825368927164,-0.5971611071450538,0.17822957127357805,0.683730234466688
203,1791353432.2546165,0.7584880221619898,0.4268022560586735,-0.20919762436224526,0.8951133400741985,-0.2682244740155211,-0.5868931732657681,0.1754479209445698,0.6687076627724837
204,1791353432.293878,0.6674772799744899,0.7477348732461735,-0.2666780931122453,1.0371839592360645,-0.24223662208627306,-0.5663013428554138,0.16940513470728474,0.6388066152325022
205,1791353432.313878,0.5956266940369899,0.8770659279336736,-0.22356774154974526,1.0835120376134468,-0.22908941347702372,-0.5549480283384531,0.16605328333273944,0.622914895013409
206,1791353432.308353,0.7297477877869899,0.7477348732461735,-0.19003746811224526,1.0619573973258012,-0.22908941347702372,-0.5549480283384531,0.16605328333273944,0.622914895013409
207,1791353432.328353,0.6866374362244899,0.8866460060586735,-0.22835778061224526,1.1444471961828941,-0.2157761285942225,-0.5422220705731399,0.16247663230066084,0.6057745187208666
208,1791353432.3381457,0.6052067721619898,0.7956352638711736,-0.20919762436224526,1.021310117557294,-0.2092864029975439,-0.5356900268073059,0.16066668236665071,0.5971418475732284
209,1791353432.3581457,0.7345378268494899,0.8626958107461735,-0.008015983737245254,1.1330728736259839,-0.19601083989282833,-0.5218631215085864,0.1571988492852476,0.5792001771087294
210,1791353432.3833783,0.7728581393494899,0.8195854591836735,-0.10860680404974526,1.1317355991352258,-0.17892167248377833,-0.503851743042827,0.15325929687695347,0.556208554348911
211,1791353432.4033782,0.8686589205994899,0.6663042091836735,-0.21877770248724526,1.1164198594697914,-0.16494587687489828,-0.489488065013917,0.1501140172715388,0.537903268506985
212,1791353432.4286563,0.8303386080994899,0.7381547951211735,-0.21398766342474526,1.131426279418576,-0.1467103452739137,-0.47139422648742935,0.14591451958124368,0.514808206228978
213,1791353432.4486563,0.8063884127869899,0.5752934669961736,-0.21398766342474526,1.0134177645687785,-0.13199152497330388,-0.4572556150745105,0.14244831737295763,0.4967856512665539
214,1791353432.458717,0.8399186862244898,0.5465532326211735,-0.18045738998724525,1.018208576451179,-0.12445575901407802,-0.4503636734088248,0.14066859315911123,0.4879593501301358
215,1791353432.478717,0.8303386080994899,0.9824467873086735,-0.4055892259247453,1.3487648105507373,-0.10921698824528606,-0.43642467564242854,0.13678227601462215,0.47021722539982536
216,1791353432.503639,0.9021891940369898,0.3357915138711735,-0.12776696029974527,0.9710950925471946,-0.0898380234613973,-0.4191967723169783,0.13166904228179405,0.44847914229741837
217,1791353432.523639,0.6435270846619898,0.42201221699617353,-0.13255699936224527,0.7808922960738616,-0.07430046853297827,-0.4063083896873904,0.1277906640888942,0.432362719233355
218,1791353432.5634992,0.9213493502869898,0.7956352638711736,-0.36726891342474527,1.2715370828874017,-0.04330065708952938,-0.38083448827411776,0.1197262113897772,0.40155226317024256
219,1791353432.5834992,1.0075700534119898,0.8914360451211736,-0.2666780931122453,1.3714856325969669,-0.0271861817557672,-0.36743952821660086,0.11533588611142233,0.3860741664494049
220,1791353432.5932252,0.7776481784119899,0.6950444435586736,-0.19961754623724526,1.0619183738287283,-0.01922291010858522,-0.36074535832531873,0.11318097159349823,0.37857187713451934
221,1791353432.6132252,0.7632780612244898,0.5992436623086735,-0.22835778061224526,0.9969120530567769,-0.0029926634499333055,-0.3471033086824457,0.10877247282865068,0.36375969234933836
222,1791353432.6229048,0.8830290377869898,0.6615141701211735,-0.18524742904974525,1.1187751734891431,0.004879324172988742,-0.3405759534018253,0.10665863430982214,0.35691995196792203
223,1791353432.6429048,0.8351286471619899,0.6806743263711735,-0.041546257174745256,1.0781852750695013,0.021281951002881556,-0.3270988270067782,0.10260595760791194,0.34347422989845383
224,1791353432.6681747,0.8973991549744899,0.6998344826211735,0.015934211575254747,1.1381333162301766,0.04218154002825224,-0.31000831707300613,0.09820494134445341,0.32791561334901403
225,1791353432.6881747,0.9836198580994899,0.5992436623086735,-0.07986656967474526,1.1545473836167934,0.05906293458272473,-0.29656233084067946,0.09514832865463325,0.3170029191678681
226,1791353432.728679,0.8590788424744898,0.5513432716836735,-0.17087731186224525,1.0349854668194298,0.09372086842828328,-0.2699207233298363,0.08912486736434572,0.2993059305202051
227,1791353432.748679,0.7872282565369899,0.6184038185586735,-0.19003746811224526,1.0189533109935558,0.11073657288997611,-0.2569843823731518,0.08605539489821018,0.2927611523925505
228,1791353432.7437115,1.0123600924744898,0.6615141701211735,-0.26188805404974524,1.2373598130535939,0.11073657288997611,-0.2569843823731518,0.08605539489821018,0.2927611523925505
229,1791353432.7637115,0.9069792330994899,0.7189946388711735,-0.32894860092474526,1.2032338933264703,0.12820389856308084,-0.24393522091402237,0.08237524241291955,0.2876218214456839
230,1791353432.8187072,0.7201677096619898,0.6950444435586736,-0.2858382493622453,1.0408803069325767,0.17574214051201764,-0.20760265676763323,0.07123773760074258,0.28117428457666205
231,1791353432.8387072,0.7201677096619898,0.8962260841836736,-0.26188805404974524,1.179172623861731,0.1925973947529218,-0.19398483598741065,0.06697338627195566,0.2814414815328543
232,1791353432.8332713,0.7010075534119898,1.1213579201211736,-0.3433187181122453,1.3662806875475417,0.1925973947529218,-0.19398483598741065,0.06697338627195566,0.2814414815328543
233,1791353432.8532712,0.5860466159119898,1.2458989357461734,-0.3960091477997453,1.432668153919959,0.20851789208717822,-0.17802266142404874,0.062011763797041534,0.2811000500715033
234,1791353432.863457,0.5477263034119898,1.3656499123086734,-0.33852867904974526,1.5098362338271047,0.21627589300206598,-0.16911770298439915,0.05930277525623005,0.28087876122920274
235,1791353432.883457,0.6531071627869899,1.6147319435586733,-0.0032259446747452537,1.7418147497226815,0.23102525990110281,-0.14978474173624268,0.05426883673531874,0.28063008785582794
236,1791353432.9079752,0.8399186862244898,1.3656499123086734,-0.4726497727997453,1.6714846365388498,0.24913997244480146,-0.12415874895532092,0.04814826545936379,0.28249668365963554
237,1791353432.9279752,0.8590788424744898,1.3464897560586735,-0.40079918686224525,1.6467213209731912,0.2642484900340362,-0.10232249558844278,0.04259433172684499,0.28655092860427367
238,1791353432.9533005,0.49024583466198984,1.4375004982461734,-0.22835778061224526,1.5358697655815672,0.28307308717550234,-0.07353166010310669,0.03542146822051073,0.2946047489968297
239,1791353432.9733005,0.41839524872448985,1.2602690529336735,-0.008015983737245254,1.3279295636188095,0.2970723387816409,-0.05015873238886957,0.030252016421860893,0.3027921026077807
240,1791353432.9832256,0.18847337372448983,1.1357280373086736,-0.23314781967474527,1.1746311306751538,0.30342922292239805,-0.03851606056920151,0.027891928443128287,0.30713309804926153
241,1791353433.0032256,0.9548796237244899,0.7094145607461735,-0.3145784837372453,1.2304567189598072,0.3160324668241368,-0.01580651566139773,0.023027927290903714,0.3172643242780668
242,1791353433.028687,1.01715013153699,0.8243754982461735,-0.41037926498724525,1.3720788947162676,0.3334363918094126,0.011696693375607279,0.01638014825351245,0.33404333442775075
243,1791353433.048687,0.5573063815369899,0.9153862404336736,-0.16129723373724525,1.083761583416037,0.3474182535858506,0.03266956015099276,0.01108407324261085,0.34912691068542584
244,1791353433.0732942,0.7536979830994899,0.9537065529336736,-0.08944664779974526,1.2188591147624406,0.36446008068458824,0.0580525974605669,0.005082647574520477,0.3690895389887147
245,1791353433.0932941,1.27581224091199,0.8243754982461735,-0.2954183274872453,1.5474378256928005,0.37927776722166,0.07825570527783438,0.0003592383226958852,0.38726697402354293
246,1791353433.103364,1.28060227997449,0.5273930763711735,-0.3337386399872453,1.4245936741052336,0.387549979132978,0.0879229150280702,-0.002137397572332439,0.3974040686522814
247,1791353433.123364,0.9692497409119899,0.5705034279336735,-0.3624788743622453,1.181655684157171,0.40488995787459997,0.10589000690092441,-0.0073965604008689526,0.41857290960469107
248,1791353433.1486106,1.2039616549744898,0.5226030373086735,-0.39121910873724525,1.369558320150817,0.4276104177495972,0.1272381731962888,-0.01446667395704134,0.44637372989647717
249,1791353433.1686106,1.3093425143494901,0.4459624123086735,-0.33852867904974526,1.42403018212901,0.4466793469363666,0.14306595327734584,-0.02032200375043115,0.4694712875172316
250,1791353433.1929808,1.0458903659119898,0.2926811623086735,-0.2858382493622453,1.1230549519397282,0.47073450033073416,0.16080939309900663,-0.027527764846122276,0.4982051871949149
251,1791353433.2129807,1.1560612643494899,0.3262114357461735,-0.3049984056122453,1.2393206103212084,0.49081764502217406,0.17411507187881436,-0.033440561833645376,0.5218584962384223
252,1791353433.2238162,1.1560612643494899,0.35016163105867354,-0.20440758529974526,1.2251013328386695,0.5019449996915945,0.18079206627785568,-0.03657740802936218,0.5347639299004354
253,1791353433.2438161,0.9596696627869898,0.4842827248086735,-0.2762581712372453,1.10987125217169,0.5225766185079882,0.19251945937413623,-0.04221989381906356,0.5585092513853698
254,1791353433.2688904,1.25665208466199,0.3166313576211735,-0.2954183274872453,1.3291733772272578,0.5487307788059731,0.20652300410233912,-0.049307921408291065,0.5883778462400422
255,1791353433.2888904,1.0123600924744898,0.24957081074617352,-0.09902672592474526,1.0473608923665398,0.5698664459537691,0.21686651253823291,-0.05470517124796253,0.6121858428988247
256,1791353433.3135023,1.0027800143494898,0.33100147480867353,0.011144172512754747,1.056055834738521,0.5956942808008108,0.22875759030191653,-0.06051296452469769,0.6409707717010987
257,1791353433.3335023,1.1943815768494899,0.3357915138711735,-0.07507653061224526,1.242956064128632,0.6168298407447487,0.23797119263415897,-0.06462042612829443,0.6642929628032487
258,1791353433.358255,1.1656413424744898,0.3262114357461735,-0.14213707748724527,1.2187438569666416,0.6434454354458735,0.2488927574487821,-0.06934466863672614,0.6933817968298025
259,1791353433.378255,1.0075700534119898,0.47949268574617354,-0.21398766342474526,1.1361784051436203,0.6649847178428987,0.2576021931193065,-0.07312344333346152,0.7168755839261217
260,1791353433.4040525,1.0123600924744898,0.5273930763711735,-0.22835778061224526,1.1641149813507934,0.6925085736344657,0.26909935524415707,-0.07812234818513178,0.7470513294520144
261,1791353433.4240525,1.18959153778699,0.4938628029336735,-0.21398766342474526,1.3056872577282441,0.7139490379416936,0.2782075829965422,-0.0820800203400823,0.7706230062447371
262,1791353433.4337533,1.1225309909119898,0.5369731544961736,-0.13734703842474527,1.2519106210794257,0.7244707876683213,0.28271274661532364,-0.0839673190433045,0.7821987790522676
263,1791353433.4537532,1.0458903659119898,0.6231938576211735,-0.19482750717474526,1.2329699912147907,0.7461621054762788,0.29234800461725946,-0.08777294983613401,0.8061819485546815
264,1791353433.4788358,1.0746306002869899,0.5944536232461736,-0.13734703842474527,1.2357468374338363,0.7732744007499976,0.30490992705396597,-0.09245467898034879,0.8363439664017922
265,1791353433.4988358,1.0027800143494898,0.5800835060586735,-0.18524742904974525,1.1731927553260917,0.7947661524699305,0.315185704031659,-0.09611166060964153,0.8603677797563856
266,1791353433.5089707,1.1177409518494898,0.6519340919961736,-0.21877770248724526,1.3123363055459056,0.8056352564022125,0.32054832392303656,-0.09799395883787762,0.8725836408602021
267,1791353433.5289707,1.21354173309949,0.8100053810586736,-0.22835778061224526,1.4768004371898973,0.8273636293658494,0.3317363008471478,-0.10182196220149989,0.8971885311815704
268,1791353433.5534859,1.1512712252869899,0.7477348732461735,-0.12776696029974527,1.378715805010777,0.8543503426669754,0.346257115465697,-0.10646512349585796,0.9279780819323222
269,1791353433.5734859,0.9884098971619899,0.6088237404336735,-0.18045738998724525,1.1748128963049533,0.8762737444025226,0.3583613817034426,-0.11014725062222541,0.9531059604499666
270,1791353433.598426,0.9884098971619899,0.6279838966836735,-0.32894860092474526,1.2163573000365204,0.903209390148783,0.3735049128200558,-0.11500301802048547,0.9841335359124157
271,1791353433.618426,0.9740397799744899,0.8722758888711736,-0.20440758529974526,1.3234051459046172,0.924513162445193,0.3860775609424677,-0.11911288040465888,1.0089441753020785
272,1791353433.6289687,0.9500895846619899,0.6806743263711735,0.006354133450254746,1.1687720618135715,0.9355799825814337,0.3929388035615556,-0.12111095493323185,1.0219484676618005
273,1791353433.6489687,0.9836198580994899,0.3597417091836735,-0.07986656967474526,1.0503812600792448,0.9563257820638343,0.4055631740311512,-0.12444311696526152,1.0461962430300809
274,1791353433.6735384,0.9452995455994899,0.1825102638711735,-0.07028649154974526,0.965319334843812,0.9815433446554055,0.41974496028193936,-0.1281993034897823,1.075196833391297
275,1791353433.6935384,0.7728581393494899,0.49865284199617355,-0.027176139987245256,0.9201646064559442,1.001568788745295,0.4305791822369135,-0.13094442933629272,1.0980368456198242
276,1791353433.7184246,0.8015983737244898,0.34058155293367354,0.08299475845025475,0.874896494956218,1.0256875916104513,0.4436045199382409,-0.1337436602892747,1.1254809515761952
277,1791353433.7384245,0.8351286471619899,0.1825102638711735,0.19316565688775475,0.8763919355686807,1.0446184932951026,0.4532869051107094,-0.13524160481475356,1.146728872293641
278,1791353433.747646,0.8255485690369899,-0.0761518455038265,0.006354133450254746,0.8290777517365691,1.0531863761506823,0.4571551499920878,-0.13569068267001255,1.1561160562145778
279,1791353433.767646,0.9740397799744899,-0.44498485331632653,-0.19003746811224526,1.0876025247948895,1.0716806939984067,0.46350457583055155,-0.136794084838825,1.1756056410853333
280,1791353433.7936227,0.8686589205994899,-0.5072553611288265,-0.3337386399872453,1.0598385733457447,1.0956886241046748,0.46865919780933835,-0.13903269723425166,1.199793772105823
281,1791353433.8136227,0.8590788424744898,-0.38271434550382655,-0.3720589524872453,1.0113924025657093,1.1139918115253484,0.4706975995752357,-0.14155641458122808,1.217609216826363
282,1791353433.8385847,0.9309294284119899,-0.41145457987882655,-0.31936852279974526,1.066733671232903,1.1367605239435061,0.4713733067443997,-0.1455282387489058,1.2391915717034323
283,1791353433.8585846,0.7345378268494899,-0.4593549705038265,-0.13734703842474527,0.8771641904246839,1.1547650337242121,0.47052727452618437,-0.14891826641085637,1.25580844449141
284,1791353433.868196,0.7536979830994899,-0.5216254783163266,-0.05112633529974526,0.9180237968147433,1.1631923782376825,0.46947454197284383,-0.15043889842536765,1.2633505912890077
285,1791353433.888196,0.6674772799744899,-0.4880952048788265,-0.15171715561224527,0.8407026487497927,1.1802298962639333,0.46609795523537007,-0.1534327616796524,1.2781750757491763
286,1791353433.9140513,0.6052067721619898,-0.42582469706632653,-0.17566735092474525,0.7605661890218899,1.201419519462326,0.46061536242721196,-0.157357419476527,1.2962780300974595
287,1791353433.9340513,0.5908366549744899,-0.6365864158163266,-0.25230797592474524,0.9044277375106113,1.2171458602850163,0.45541691659614136,-0.1605798629035548,1.3094405314870217
288,1791353433.959024,0.5381462252869899,-0.6749067283163266,-0.05591637436224526,0.8650012096171324,1.235951381001833,0.44744323704274613,-0.1645772593892096,1.324713909070065
289,1791353433.979024,0.5620964205994898,-0.5455756736288265,0.14047522720025477,0.7958256663134644,1.2504034764407106,0.44018448590871495,-0.1671716222787778,1.3361203489300852
290,1791353434.003801,0.49024583466198984,-0.4066645408163265,0.09257483657525475,0.6436514021795648,1.2675775345314075,0.4307712600649224,-0.16947049241641726,1.3494580142955563
291,1791353434.023801,0.6914274752869899,-0.7419672751913265,-0.2762581712372453,1.051145074769382,1.2811334168564017,0.42258976117414876,-0.17132330579542204,1.3598663953286199
292,1791353434.0331154,0.7441179049744898,-0.9000385642538266,-0.19961754623724526,1.184748090698395,1.2875024546386464,0.41820398886386356,-0.17238919056312005,1.3646520362441095
293,1791353434.0531154,0.5333561862244899,-0.8856684470663265,0.04467444595025475,1.0348300467389673,1.3010431075421156,0.4075207425040532,-0.17456700361937977,1.374503532918904
294,1791353434.0787096,0.8973991549744899,0.1298198341836735,0.6530094068877548,1.1174075882059786,1.3185184655865014,0.3944490746568078,-0.17559668153450175,1.3874131364363405
295,1791353434.0987096,0.8686589205994899,0.9584965919961735,0.16921546157525474,1.3045757584906583,1.3327748832165762,0.3873991961819026,-0.17504726927712658,1.3989312252633157
296,1791353434.1240823,0.7010075534119898,-1.8293061423788268,-0.5540804368622453,2.0358727079557366,1.3511351919964005,0.37813989961544164,-0.1751871956432215,1.413947185806338
297,1791353434.1440823,1.28060227997449,-2.2077192283163267,-0.19482750717474526,2.5596726642493617,1.3664091884952463,0.3658805490184008,-0.17640430850752223,1.4255038150121735
298,1791353434.1530905,-0.04623854033801018,-0.5503657126913265,0.11173499282525476,0.5634936813669531,1.3730907525143243,0.3593236894353457,-0.17692641554877495,1.4303127926956118
299,1791353434.1730905,-0.3623811184630102,1.1117778419961735,-0.036756218112245255,1.1699235293565498,1.3850870983482046,0.347791871073701,-0.17779925439318123,1.439110152301889
300,1791353434.1981962,0.7153776705994899,-0.4066645408163265,-0.27146813217474525,0.8665080537053022,1.3985517934401963,0.3368151692745027,-0.17931093256017933,1.4496703031116427
301,1791353434.2181962,0.6004167330994898,-1.1874409080038266,0.04946448501275475,1.3315265294632297,1.4096429132032176,0.3269912932170029,-0.1806675494502623,1.4583062819614214
302,1791353434.2440252,0.23158372528698984,-1.2592914939413267,0.28896643813775474,1.312611020409626,1.423429778903668,0.31146749992906547,-0.18150115587479027,1.4683688257946956
303,1791353434.2640252,0.7297477877869899,-0.7850776267538265,0.020724250637754748,1.0720579314449021,1.4339459083996506,0.29818361788355946,-0.18158527697222104,1.4758345269722166
304,1791353434.2740934,0.7920182955994899,-0.7946577048788266,-0.07986656967474526,1.1247899881485504,1.4395948448799631,0.29130659232251643,-0.1816659313753763,1.4799646478068333
305,1791353434.2940934,0.6770573580994899,0.010068857621173495,-0.33852867904974526,0.7570401010446024,1.451336609725779,0.27851794476913866,-0.18242970752769652,1.4890368694150538
306,1791353434.31869,0.5668864596619898,-0.15279247050382652,-0.28104821029974525,0.6509177319012421,1.465905753010049,0.2648859097838633,-0.18437109445237318,1.5010119661013865
307,1791353434.33869,0.7201677096619898,-0.2581733298788265,-0.031966179049745254,0.7657132850509764,1.4779057843790824,0.2548476913809824,-0.18618240363923363,1.5112302077209314
308,1791353434.3637822,0.6674772799744899,-0.7228071189413265,0.07820471938775475,0.986961006630415,1.4933142358633869,0.24229665508412696,-0.18802699658686484,1.524483265747015
309,1791353434.3837821,0.7297477877869899,-0.5312055564413265,0.006354133450254746,0.9026358911466177,1.50584933980491,0.23191227618941357,-0.189149875233369,1.535299063159695
310,1791353434.3933952,0.7057975924744898,-0.2246430564413265,-0.04633629623724526,0.742133274216345,1.5120056088376734,0.2271247417499272,-0.1896374585711399,1.5406845800373532
311,1791353434.4133952,0.49024583466198984,0.024438974808673495,0.08299475845025475,0.4978216265122942,1.5246866034794786,0.21835801610007924,-0.1904447279612977,1.5519725050506545
312,1791353434.4384775,0.36091477997448984,0.08670948262117349,0.23148596938775476,0.43745144508145645,1.5398057380731451,0.209221768660262,-0.19071368417230114,1.5656139909999796
313,1791353434.4584775,0.7105876315369899,-0.16716258769132653,0.14047522720025477,0.7433783708677382,1.551660237535026,0.2029088439838045,-0.19033803249829748,1.5764041545014462
314,1791353434.483125,0.5764665377869899,-0.2006928611288265,0.12131507095025475,0.6223412569771176,1.5664572444731242,0.19561593453081477,-0.1894605951383121,1.5899525809642439
315,1791353434.503125,0.40881517059948985,-0.3396039939413265,0.14047522720025477,0.5497217531353055,1.5781410339883701,0.1897753866924124,-0.18846271941929074,1.6006442506575442
316,1791353434.5132604,0.6004167330994898,-0.3970844626913265,0.06862464126275475,0.72310833578736,1.5839410633673316,0.18669954090819818,-0.18787393053277707,1.6059335679194204
317,1791353434.5332603,0.6914274752869899,-0.37313426737882655,-0.017596061862245254,0.7858821517677664,1.5956071352067347,0.18038514121521243,-0.1868098204516418,1.6166010138902702
318,1791353434.5582988,0.5094059909119899,-0.40187450175382655,-0.05112633529974526,0.6508544237370555,1.6102764558681655,0.17221038019892745,-0.1858065149620246,1.6300830470788696
319,1791353434.5782988,0.7297477877869899,-0.3012836814413265,-0.13255699936224527,0.8005467185385039,1.6220949828768274,0.16560535491354433,-0.18540084114045582,1.6410334362668557
320,1791353434.6029506,0.49024583466198984,-0.33481395487882654,-0.022386100924745255,0.5940896399531344,1.6367328907752607,0.15750919326099017,-0.1852622878298128,1.6546981044889144
321,1791353434.6229506,0.6195768893494898,-0.3970844626913265,0.18837561782525475,0.75962949239606,1.648491999422612,0.15082819220007973,-0.1849177567202937,1.6656739154087665
322,1791353434.6335056,0.6483171237244899,-0.24859325175382652,0.04467444595025475,0.695779781146951,1.654770707402145,0.1473200315472193,-0.1845787150382717,1.6715377913216465
323,1791353434.6535056,0.6147868502869899,-0.3587641501913265,-0.06549645248724525,0.7148177194479137,1.6667778808789815,0.1407587347458099,-0.18406388574372343,1.6828074873941308
324,1791353434.6779947,0.8351286471619899,-0.41145457987882655,0.059044563137754746,0.9328563603524421,1.6819378741145592,0.1325151485344051,-0.18353990641979206,1.697104055213081
325,1791353434.6979947,0.6435270846619898,-0.2677534080038265,0.011144172512754747,0.6970962550266767,1.6946796789303205,0.12577377264087394,-0.18307088540248648,1.709173251939587
326,1791353434.7234037,0.6626872409119898,-0.2246430564413265,-0.041546257174745256,0.7009600370635096,1.7109285533524794,0.11755552963636412,-0.18262233411946424,1.7246584398495068
327,1791353434.7434037,0.8447087252869898,-0.2917036033163265,-0.041546257174745256,0.8946227776269338,1.7240610208016536,0.11128256140884561,-0.18244686770809748,1.7372556148874148
328,1791353434.7678208,0.8447087252869898,-0.49288524394132655,-0.036756218112245255,0.9786826420454116,1.7407827895960317,0.10333610428490568,-0.1824081752001891,1.7533612900319164
329,1791353434.7878208,0.8255485690369899,-0.2581733298788265,-0.17566735092474525,0.8826340840238727,1.7549303860754843,0.09667694812794657,-0.18269987132843796,1.767061497303874
330,1791353434.7980773,0.6722673190369899,-0.16237254862882652,-0.21398766342474526,0.7239467610890905,1.7622495436866037,0.09345070213040198,-0.18312676060667712,1.7742017637243526
331,1791353434.8180773,0.7632780612244898,-0.2629633689413265,-0.09423668686224526,0.8127876015924217,1.7765342115958842,0.0874652630553508,-0.18429665681334947,1.7882083868846295
332,1791353434.843403,1.0027800143494898,-0.15758250956632652,-0.041546257174745256,1.015936068847452,1.7952639727069757,0.08022405805742511,-0.18581378108911845,1.8066364859687376
333,1791353434.863403,1.1512712252869899,-0.2246430564413265,-0.08465660873724526,1.1760343015337602,1.811067440948436,0.07479004503972629,-0.18702145830531652,1.8222337534924569
334,1791353434.8877454,0.9213493502869898,-0.2246430564413265,-0.12776696029974527,0.9569083154753103,1.831200824205372,0.06834804483148182,-0.18865867501155487,1.8421617761368938
335,1791353434.9077454,1.0027800143494898,-0.2581733298788265,-0.041546257174745256,1.0363142944708978,1.848147610017978,0.0631249072897658,-0.19005603117649417,1.8589662819217745
336,1791353434.917926,0.9979899752869898,-0.2006928611288265,0.0015640943877547465,1.017970560317269,1.8570078512097394,0.0605145878497244,-0.19069116868235547,1.867753542791628
337,1791353434.937926,0.9165593112244899,-0.17195262675382653,-0.07028649154974526,0.9351945614331941,1.8746747044543106,0.055596849441500826,-0.19185481921789663,1.8852863254279995
338,1791353434.9632604,1.0794206393494898,-0.3108637595663265,0.03988440688775475,1.1239999820187545,1.897489319441599,0.04938447692172791,-0.19316550113947573,1.9079353906215588
339,1791353434.9832604,1.1273210299744898,-0.2342231345663265,-0.036756218112245255,1.1519827259810518,1.9161086022680187,0.04439819105485549,-0.19404030899369296,1.9264202595925977
340,1791353435.0088189,0.9740397799744899,-0.3683442283163265,-0.04633629623724526,1.0423905294349562,1.9403616069069065,0.03782685486363478,-0.1951498356756347,1.9505172377785986
341,1791353435.0288188,1.0794206393494898,-0.2821235251913265,-0.07028649154974526,1.1178921195779201,1.9595734589180493,0.03248028997006678,-0.19606276121991742,1.969625273109016
342,1791353435.0529513,1.0794206393494898,-0.3396039939413265,-0.036756218112245255,1.132179671661913,1.983185111659891,0.025871395449129038,-0.1971928272334526,1.9931325915062104
343,1791353435.0729513,1.0363102877869899,-0.31565379862882653,-0.07986656967474526,1.0862573369665094,2.0029917881074004,0.020232914731110684,-0.1981638292787092,2.0128721711272677
344,1791353435.1129532,1.06505052216199,-0.3300239158163265,-0.14692711654974527,1.1246492685926095,2.0429691206646603,0.008709916780758173,-0.20049502432030458,2.052802217802987
345,1791353435.1329532,1.0506804049744898,-0.5120454001913265,-0.13734703842474527,1.1768534378666282,2.0631322702396804,0.0025497733917526537,-0.20191214579797667,2.0729905403714293
346,1791353435.1279745,1.0506804049744898,-0.41145457987882655,-0.09423668686224526,1.1323006393407151,2.0631322702396804,0.0025497733917526537,-0.20191214579797667,2.0729905403714293
347,1791353435.1479745,1.02194017059949,-0.2246430564413265,-0.027176139987245256,1.046692293693243,2.083488306183653,-0.00403253710301282,-0.20341340410033676,2.0933983845238826
348,1791353435.1582134,1.13211106903699,-0.18153270487882653,0.03509436782525475,1.1471099381618808,2.0940004289749483,-0.007208758733799425,-0.20406060071443582,2.103932149931097
349,1791353435.1782134,1.0027800143494898,-0.40187450175382655,-0.11818688217474525,1.0867561876781915,2.114656411226913,-0.013357461643445727,-0.20525980275968503,2.124636850370808
350,1791353435.2177465,1.3476628268494901,-0.4306147361288265,-0.3720589524872453,1.4628916603662638,2.1563307945726646,-0.02615658460664598,-0.20872822577065867,2.1665673621593284
351,1791353435.2377465,0.7345378268494899,-0.3012836814413265,-0.14213707748724527,0.8065485878558248,2.177374851516189,-0.03275829180427937,-0.2109910054008367,2.1878189033960593
352,1791353435.2485032,0.6004167330994898,-0.5120454001913265,0.03988440688775475,0.7901148721266723,2.188072365293413,-0.03643249536460814,-0.2121079539774557,2.1986308891261634
353,1791353435.2685032,0.7393278659119898,-0.2198530173788265,0.07820471938775475,0.7752786729293341,2.206988376857824,-0.043337068984390936,-0.2136960507704557,2.2177334824655057
354,1791353435.2785428,0.6099968112244899,0.43159229512117353,-0.07986656967474526,0.7514962993013466,2.2160754971077514,-0.04612369375916939,-0.2143749144766578,2.2268979787956678
355,1791353435.2985427,0.5908366549744899,0.0962895607461735,-0.13255699936224527,0.6131321150046356,2.233263951267189,-0.050050458849142145,-0.21584306831637665,2.2442284096323117
356,1791353435.3379745,0.6674772799744899,-0.009091298628826506,-0.14213707748724527,0.6825038606407419,2.2657906027418604,-0.056373263122990014,-0.2191158554812391,2.277058795550025
357,1791353435.3579745,0.9405095065369898,0.2064604591836735,0.11652503188775475,0.9699289335560765,2.28222558748861,-0.05880311976382969,-0.2205652492761699,2.2936129726416246
358,1791353435.3687878,0.6578972018494899,0.24957081074617352,-0.022386100924745255,0.7039996131337741,2.29107479422809,-0.05954995387962722,-0.22115499101787095,2.3024941780179304
359,1791353435.3887877,1.0794206393494898,0.6184038185586735,-0.3528987962372453,1.2931008312762415,2.3075930115937964,-0.059422125285667995,-0.22264507782109105,2.319070358313424
360,1791353435.3982556,0.9117692721619899,-0.5216254783163266,-0.4247493821747453,1.1330615088976277,2.3156535913221012,-0.05930196801738888,-0.22379686295245693,2.327198597945831
361,1791353435.4182556,0.5381462252869899,-0.3970844626913265,-0.12297692123724525,0.6800005540133676,2.332301639256897,-0.060464283189406866,-0.2266865398212785,2.3440720239272004
362,1791353435.4433348,0.33696458466198986,0.7429448341836735,0.006354133450254746,0.8158140308725618,2.351692314284757,-0.06105261516769262,-0.22998591817259742,2.3636999990359397
363,1791353435.4633348,0.5094059909119899,0.5944536232461736,0.03509436782525475,0.7836460862025564,2.366105848788872,-0.05944532055338558,-0.232160230930323,2.378211304033816
364,1791353435.4884794,0.6147868502869899,0.0771294044961735,-0.15650719467474525,0.6390667557530204,2.38362885970372,-0.05646119199010343,-0.23471276613068653,2.395822299253039
365,1791353435.5084794,0.8015983737244898,-0.23901317362882651,-0.15171715561224527,0.8501207827320426,2.397600558698389,-0.05468647950961864,-0.23690084438925832,2.4098964832922443
366,1791353435.5334854,0.7441179049744898,-0.04741161112882651,0.011144172512754747,0.7457100709756098,2.4153480190443792,-0.05333756549951442,-0.23948988109840286,2.427778068964202
367,1791353435.5534854,0.5956266940369899,-0.2150629783163265,0.0015640943877547465,0.6332658917729396,2.4294229729258756,-0.05281423849335113,-0.2412309356405738,2.4419413771582765
368,1791353435.5629904,0.6052067721619898,-0.18153270487882653,-0.017596061862245254,0.6320909597553328,2.4359647991143483,-0.052885557204977326,-0.24194568836420433,2.4485218195480956
369,1791353435.5829904,0.7153776705994899,-0.2054829001913265,-0.08465660873724526,0.7491029136682636,2.449645889278029,-0.05359363531083866,-0.2433774198695846,2.4622895502164144
370,1791353435.6091158,0.6483171237244899,-0.44498485331632653,-0.017596061862245254,0.7865343183793115,2.4675084734012245,-0.05565436828844818,-0.24516747163438604,2.480282758913593
371,1791353435.6291158,0.49503587372448987,-0.42582469706632653,0.059044563137754746,0.6556473513573636,2.480846798109677,-0.05830151339459983,-0.24627009698508437,2.4937218896308746
372,1791353435.6527512,0.6339470065369899,-0.47372508769132654,0.011144172512754747,0.7914723358313666,2.4962465070310067,-0.06255517426156516,-0.2472532692314946,2.5092417087313565
373,1791353435.6727512,0.7105876315369899,-0.4210346580038265,-0.008015983737245254,0.825995896678079,2.509339698466166,-0.06695679982111054,-0.2479557332160763,2.5224494010733447
374,1791353435.6830425,0.5620964205994898,-0.44498485331632653,0.06383460220025475,0.7197490966786801,2.516048750025828,-0.06955043030796548,-0.2482198948957136,2.5292195814291403
375,1791353435.7030425,0.5381462252869899,-0.5168354392538266,0.059044563137754746,0.74846943257254,2.528781613851624,-0.07527750766160726,-0.2484719378816784,2.5420742431385523
376,1791353435.728512,0.7584880221619898,-0.4210346580038265,-0.0032259446747452537,0.8675163800889588,2.545041236664857,-0.0832683541507205,-0.24863813786559272,2.558513130458553
377,1791353435.748512,0.9357194674744899,-0.4066645408163265,0.04946448501275475,1.02146644871267,2.558435246678741,-0.08984349838653836,-0.24867971250792148,2.5720622786129157
378,1791353435.7734342,0.7441179049744898,-0.3970844626913265,0.020724250637754748,0.8436924923092417,2.575761954842505,-0.09831017163641068,-0.24859255404885525,2.589597033476405
379,1791353435.7934341,0.6818473971619898,-0.2629633689413265,0.030304328762754747,0.7314259762705406,2.589719863598181,-0.10507556315219799,-0.2484565583792245,2.6037320344629133
380,1791353435.8037086,0.7297477877869899,-0.2821235251913265,-0.027176139987245256,0.7828563468676697,2.5969025119454616,-0.10844979178397311,-0.24839476360015764,2.6110082291081764
381,1791353435.8237085,0.9644597018494899,-0.13363231425382652,-0.13734703842474527,0.983312931303402,2.6113281919767113,-0.1146564054457827,-0.24853930282423,2.625633790643787
382,1791353435.8485184,0.7441179049744898,-0.2917036033163265,0.020724250637754748,0.7995198204271418,2.629718119363355,-0.12199221601082522,-0.24890871217136473,2.6442872451891417
383,1791353435.8685184,0.7153776705994899,-0.023461415816326506,-0.0032259446747452537,0.7157695553343292,2.6445083488326504,-0.12749154423705567,-0.24913558823946674,2.659275661195162
384,1791353435.8931007,0.8686589205994899,0.024438974808673495,-0.10860680404974526,0.8757631082162971,2.66288093151908,-0.1332351783062406,-0.2495788012414737,2.6778678171663644
385,1791353435.9131007,0.8303386080994899,-0.15758250956632652,-0.13255699936224527,0.855491560158101,2.6781350109009523,-0.13740691167483862,-0.2502470511794502,2.6933086311474725
386,1791353435.923038,0.7153776705994899,-0.06657176737882652,-0.11818688217474525,0.7281244062126195,2.6857293605412247,-0.139335842388097,-0.2507161550981737,2.70100264077516
387,1791353435.943038,0.7345378268494899,0.029229013871173496,-0.10860680404974526,0.7430986423151049,2.7008960904425314,-0.1426917302542994,-0.25185885402733893,2.716364022660196
388,1791353435.9684818,0.7489079440369899,0.019648935746173494,-0.14213707748724527,0.7625300899730342,2.7201276554051574,-0.1462273875298673,-0.2535730161059899,2.7358319000005933
389,1791353435.9884818,0.8494987643494899,-0.013881337691326507,-0.13255699936224527,0.8598908071652662,2.735374617088999,-0.14858104579803716,-0.2551303549487045,2.751261914286148
390,1791353436.0135076,0.8303386080994899,0.1010795998086735,-0.008015983737245254,0.8365067516723076,2.754744227695165,-0.15092072957877956,-0.25705058644297063,2.770824395487216
391,1791353436.0335076,0.6578972018494899,0.1154497169961735,0.059044563137754746,0.6705547149875343,2.7701342997050253,-0.15218527633390047,-0.2582784513432524,2.786307979237641
392,1791353436.0581098,0.6674772799744899,0.0819194435586735,-0.022386100924745255,0.6728579731486573,2.788671589896434,-0.15314329981241379,-0.2594946579670182,2.804902776227076
393,1791353436.0781097,0.7345378268494899,0.029229013871173496,-0.08465660873724526,0.7399776319102784,2.803583788430952,-0.15363856687612362,-0.26049561477409167,2.8198483706222803
394,1791353436.1035976,0.6866374362244899,-0.009091298628826506,-0.031966179049745254,0.6874412390442832,2.8224539382111637,-0.15413656326725225,-0.2618028232409565,2.8387576563906407
395,1791353436.1235976,0.6291569674744899,0.005278818558673495,-0.05112633529974526,0.6312529269700488,2.8370136881080055,-0.15447443687298618,-0.2627993470993492,2.8533440933394725
396,1791353436.133494,0.7920182955994899,0.014858896683673494,-0.10860680404974526,0.7995681367218661,2.8441922317714754,-0.15460159725436204,-0.2633370345645357,2.860537973688874
397,1791353436.153494,0.8303386080994899,-0.14321239237882652,-0.16129723373724525,0.8578978908021354,2.8589571808390546,-0.15501256543198855,-0.26466553828124967,2.875363090892471
398,1791353436.1779497,0.6531071627869899,-0.3204438376913265,-0.10381676498724526,0.7348545025312384,2.877024366189005,-0.15629014500857746,-0.266532615530826,2.893567944288461
399,1791353436.1979496,0.5189860690369898,-0.2917036033163265,-0.07986656967474526,0.6006797824080705,2.8913415716154813,-0.15809645093230387,-0.2681060042313961,2.9080459764340376
400,1791353436.238058,0.7393278659119898,-0.16716258769132653,-0.15171715561224527,0.7730246563627242,2.9195320051130347,-0.16255582944935837,-0.2714846536972329,2.9366299466838535
401,1791353436.258058,0.8303386080994899,-0.2821235251913265,-0.17087731186224525,0.8934511420756293,2.9338350322362876,-0.16511986784144916,-0.27340058724128163,2.951169335744182
402,1791353436.2530813,0.7536979830994899,-0.41145457987882655,-0.11339684311224527,0.8661491586668683,2.9338350322362876,-0.16511986784144916,-0.27340058724128163,2.951169335744182
403,1791353436.2730813,0.6243669284119898,-0.2964936423788265,-0.08944664779974526,0.6969528277210001,2.9482557094564608,-0.1689186181410119,-0.27545156337498855,2.9659094375356463
404,1791353436.2981875,0.6818473971619898,-0.2821235251913265,-0.13734703842474527,0.7505822842613659,2.9661023313152093,-0.17406145402076947,-0.2780670283868352,2.984188617008856
405,1791353436.3181875,0.7632780612244898,-0.41145457987882655,-0.08944664779974526,0.8717161079459811,2.980354378403931,-0.17858415346272857,-0.2801782105225141,2.9988171585461956
406,1791353436.327742,0.7441179049744898,-0.3779243064413265,-0.060706413424745254,0.8367935865753738,2.987221929874033,-0.1809863611751793,-0.28114310153840655,3.0058763056377433
407,1791353436.347742,0.7680681002869899,-0.3683442283163265,-0.031966179049745254,0.852424726187278,3.0017092387643354,-0.1863798703768105,-0.282998884358062,3.0207754267261824
408,1791353436.3877203,0.7249577487244898,-0.3491840720663265,-0.017596061862245254,0.8048620223451731,3.0308009491651204,-0.19769527802843753,-0.28630060989539025,3.050705796310324
409,1791353436.4077203,0.7968083346619899,-0.36355418925382654,-0.012806022799745255,0.8759218943095145,3.0454542829286075,-0.20357604250953631,-0.2877502078629921,3.0657845939689303
410,1791353436.4182749,0.8447087252869898,-0.3012836814413265,0.030304328762754747,0.8973422087590504,3.0533267234032624,-0.20674025045646438,-0.288386600907263,3.0738758014256446
411,1791353436.4382749,0.8063884127869899,-0.2054829001913265,0.07341468032525475,0.8353892564759371,3.0684833326480367,-0.21259691941830866,-0.2892560467547685,3.0894103763451617
412,1791353436.4478335,0.8063884127869899,-0.13363231425382652,0.04946448501275475,0.8188813118929577,3.0757968181093243,-0.21521926912544534,-0.2895211619025016,3.096880350172365
413,1791353436.4678335,0.8734489596619899,-0.11926219706632651,0.05425452407525475,0.8832214389191038,3.0913235104358963,-0.22026242534166518,-0.28983708737567065,3.1126840699642995
414,1791353436.4936378,0.9069792330994899,-0.04741161112882651,0.20753577407525475,0.9316277623947159,3.1117970701664563,-0.2261157363586263,-0.28967690918499217,3.1334201830971398
415,1791353436.5136378,0.7968083346619899,0.2016704201211735,0.26501624282525477,0.8636018118901088,3.1278408280676455,-0.22974053763480995,-0.28886255567817515,3.14954132159471
416,1791353436.538042,0.8926091159119899,0.4459624123086735,0.30812659438775475,1.0443062315098726,3.1475733214112003,-0.23231474429554744,-0.28696888621482947,3.169154318699552
417,1791353436.558042,0.7441179049744898,0.5226030373086735,0.41829749282525475,1.0008986879858364,3.1637740298800425,-0.2326550853548393,-0.28456012429395033,3.1850539972225054
418,1791353436.5678022,0.5477263034119898,0.6327739357461736,0.48535803970025476,0.9674602751073244,3.1714398311590073,-0.23195051281107196,-0.282899468992405,3.192469851480414
419,1791353436.5878022,0.6818473971619898,0.7764751076211736,0.39913733657525474,1.107763548425512,3.1866363016145822,-0.22860943344152432,-0.27868023700025346,3.206957415732369
420,1791353436.6127558,0.8926091159119899,0.8291655373086735,0.3512369459502548,1.2679250428436326,3.205699229117499,-0.22206113227830238,-0.2728012777073313,3.2249401903216746
421,1791353436.6327558,1.09858079559949,0.8483256935586735,0.4135074537627548,1.4482833497382925,3.2216728911802317,-0.21508377811724236,-0.2676490407895941,3.2399187116979293
422,1791353436.658551,1.1656413424744898,0.9632866310586735,0.4230875318877548,1.5702369033050305,3.243565242524444,-0.20392969847456333,-0.26038214254724806,3.260383668311151
423,1791353436.678551,1.06984056122449,1.0542973732461736,0.30812659438775475,1.5333113760237707,3.2613463134953324,-0.1935523834618325,-0.2544961736413204,3.276981935270841
424,1791353436.688597,1.13690110809949,1.1165678810586737,0.23627600845025476,1.6109296430256939,3.270600712237903,-0.18748609110968908,-0.25157294572197164,3.285615467499186
425,1791353436.708597,1.02673020966199,0.9489165138711736,0.14047522720025477,1.405115925177328,3.289506572841047,-0.17412240681568728,-0.2460610942162497,3.3032889924144744
426,1791353436.7335994,1.1608513034119898,0.7429448341836735,-0.07986656967474526,1.3805511378522466,3.3136981833633117,-0.15674951577511761,-0.24009051305728848,3.326080202818501
427,1791353436.7535994,1.26144212372449,0.5609233498086735,-0.25230797592474524,1.4033996403670541,3.333780268093882,-0.14298133230033427,-0.23652918572297527,3.3452175703558162
428,1791353436.7778094,1.25665208466199,0.5657133888711735,-0.3864290696747453,1.431269899817334,3.3590154515782,-0.12676921589017576,-0.23402463275399954,3.369543406275419
429,1791353436.7978094,1.26144212372449,0.3932719826211735,-0.4055892259247453,1.3821728198773024,3.3805124625603087,-0.11394676617234581,-0.233453989021843,3.390479190326481
430,1791353436.823185,1.4290934909119901,0.034019052933673494,-0.40079918686224525,1.4846230127271232,3.408816767454392,-0.09930500524299729,-0.23437326468689737,3.4183071929457296
431,1791353436.843185,1.7069157565369901,-0.013881337691326507,-0.6163509446747453,1.8148395462001032,3.4324827969111875,-0.08946578322703445,-0.23651484257846253,3.441784645822511
432,1791353436.8534727,1.8601970065369902,0.034019052933673494,-0.6307210618622453,1.964509927938345,3.4455826222551775,-0.08514823944301202,-0.23841342376916788,3.454870589486739
433,1791353436.8734727,1.76439622528699,-0.14321239237882652,-0.5732405931122453,1.8607011062310692,3.472666277635969,-0.07817751582699642,-0.24335666984798096,3.482060491802294
434,1791353436.8980982,1.67338548309949,-0.4210346580038265,-0.6211409837372452,1.8339316453910124,3.507360956334992,-0.07192416763613844,-0.2507361259848732,3.5170474220270562
435,1791353436.9180982,1.69254563934949,-0.6365864158163266,-0.6690413743622453,1.9280999369045613,3.5363609567143586,-0.06919366422450861,-0.25776572802653724,3.546417875813221
436,1791353436.9578207,1.83624681122449,-0.7275971580038265,-0.6259310227997453,2.0719530934291175,3.595831833757,-0.06864816634195633,-0.2734911003115035,3.6068707392075945
437,1791353436.9778206,1.87935716278699,-0.7467573142538265,-0.6642513352997453,2.1285816094662304,3.6268569407605957,-0.07062623962422175,-0.28215634770991393,3.6385012764900555
438,1791353436.973343,1.93683763153699,-0.7515473533163265,-0.7025716477997452,2.193118864883215,3.6268569407605957,-0.07062623962422175,-0.28215634770991393,3.6385012764900555
439,1791353436.9933429,1.87935716278699,-0.8138178611288266,-0.5588704759247453,2.122879898927731,3.6598625110255885,-0.07631377978236456,-0.29205184797782907,3.6722897045988163
440,1791353437.0188053,1.79792649872449,-0.8377680564413266,-0.5924007493622453,2.0701047459136293,3.7026020055473796,-0.08562256518001105,-0.3049588476497817,3.7161260384856925
441,1791353437.0388052,1.84582688934949,-1.0006293845663266,-0.6882015306122453,2.209515199640011,3.736602687130607,-0.0945951765126133,-0.3154971175937661,3.7510913505406798
442,1791353437.0628297,1.8985173190369902,-1.2353412986288268,-0.5876107102997453,2.3400261711443164,3.778065495243652,-0.10778543997726567,-0.3285559351949916,3.7938562953772523
443,1791353437.0828297,1.91288743622449,-1.1682807517538265,-0.5397103196747453,2.305494629737273,3.8131221236809822,-0.12072444120451521,-0.3394874742176947,3.8301078922088103
444,1791353437.0929713,2.03742845184949,-1.0533198142538265,-0.5588704759247453,2.360706152058294,3.8312368850629053,-0.12799119072951026,-0.34503477739346616,3.848870848961008
445,1791353437.1129713,2.02305833466199,-1.0916401267538265,-0.5732405931122453,2.369187195933688,3.8676926714340385,-0.14338959397965814,-0.35603166850001355,3.886690845089319
446,1791353437.1385818,1.69733567841199,-1.3359321189413267,-0.4822298509247453,2.2131897028389265,3.91451886252446,-0.16481275026891487,-0.3700285102328483,3.935421485190136
447,1791353437.1585817,1.73565599091199,-1.3024018455038266,-0.4247493821747453,2.2111454777147257,3.950751148613569,-0.1829907454511393,-0.3806799551422978,3.9732653421888826
448,1791353437.1831925,1.8266667330994901,-1.1299604392538265,-0.3624788743622453,2.178282094323411,3.995223965180891,-0.20649383960123394,-0.39327399264065366,4.019840627566782
449,1791353437.2031925,1.92246751434949,-0.9623090720663265,-0.2762581712372453,2.167542080580123,4.031567445029829,-0.22586710134982796,-0.40293148131227596,4.057943541983922
450,1791353437.2281735,1.83145677216199,-1.1012202048788267,-0.24751793686224527,2.15132168143212,4.077186380460618,-0.2503017659320619,-0.41416611804432724,4.105804833206052
451,1791353437.2481735,1.5440544284119901,-1.5275336814413267,-0.13734703842474527,2.1763105097389985,4.1132940555244035,-0.2708730719334268,-0.42238876442290035,4.143787214206559
452,1791353437.2582328,1.46262376434949,-1.5323237205038267,-0.21877770248724526,2.1295886794318193,4.130999313139972,-0.28197629454460477,-0.4261728143562929,4.162485942744358
453,1791353437.2782328,1.38119310028699,-1.4029926658163268,-0.31936852279974526,1.9945122346002497,4.165186340642245,-0.3051433479779605,-0.43337495354455646,4.19877405506032
454,1791353437.303708,1.48657395966199,-1.3886225486288266,-0.15171715561224527,2.039900197414721,4.207679910405255,-0.3355600956076196,-0.4420727851252038,4.244125251867636
455,1791353437.323708,1.6685954440369901,-1.6856049705038267,-0.14692711654974527,2.3763548661817806,4.240769186882107,-0.36046893459819596,-0.448324930336919,4.279609373807461
456,1791353437.3331106,1.69733567841199,-1.8388862205038268,-0.23314781967474527,2.5133262508055387,4.256365516133469,-0.3729081168287929,-0.45109135708935827,4.296416097512862
457,1791353437.3531106,1.55363450653699,-1.8772065330038268,-0.26188805404974524,2.4507692466465802,4.289440527103238,-0.4009726087968159,-0.4568356801887946,4.332294762277215
458,1791353437.3788447,1.4243034518494901,-1.8197260642538267,-0.31936852279974526,2.3328179365802177,4.3313624081620565,-0.43880217104700797,-0.4642401314557569,4.3782149965264425
459,1791353437.3988447,1.45783372528699,-1.9298969626913267,-0.3960091477997453,2.4508375511915172,4.363379172506454,-0.46941678023671823,-0.47020457180635594,4.413674461939679
460,1791353437.4231853,1.5871647799744901,-2.092758290816327,-0.34810875717474526,2.6495110887470714,4.402058591194037,-0.508430459180933,-0.47773307497363715,4.457000141693057
461,1791353437.4431853,1.75960618622449,-2.083178212691327,-0.44869957748724526,2.7635442292947943,4.434093224486257,-0.541942293658971,-0.48418634391313814,4.493252784867913
462,1791353437.4536903,1.76918626434949,-2.1741889548788267,-0.5061800462372453,2.848391807439547,4.451175684547452,-0.5602582905107807,-0.487819801543701,4.512740019718693
463,1791353437.4736903,1.59674485809949,-2.2795698142538265,-0.3049984056122453,2.799831549816952,4.483868805053452,-0.5965793606656803,-0.49491652522904206,4.550376771372732
464,1791353437.4988906,1.60153489716199,-1.9730073142538267,-0.3864290696747453,2.5704083945584317,4.524928517166643,-0.6435173181942568,-0.503824051186391,4.598144332101561
465,1791353437.5188906,1.71170579559949,-2.016117665816327,-0.5588704759247453,2.7031469405058077,4.5575969558308,-0.6811650038127789,-0.5112509512054475,4.6364914870326155
466,1791353437.5435607,1.75002610809949,-2.212509267378827,-0.45827965561224526,2.857937871965575,4.598254303625207,-0.7284619534520627,-0.5209199082804391,4.6846512153283975
467,1791353437.5635607,1.7021257174744902,-2.202929189253827,-0.31936852279974526,2.8021643820999977,4.631449177328054,-0.7676770518781478,-0.5287491798803122,4.724322727479267
468,1791353437.5885174,1.8218766940369902,-2.1837690330038266,-0.30020836654974525,2.859756447868959,4.673253743009068,-0.8174817877604877,-0.5382130768573861,4.774646618962355
469,1791353437.6085174,1.96078782684949,-2.092758290816327,-0.34810875717474526,2.8888589222257575,4.707404129419281,-0.8578225161408828,-0.5456321601270115,4.815934754649074
470,1791353437.6187618,1.9416276705994902,-2.083178212691327,-0.3816390306122453,2.8731860062926815,4.725271067603933,-0.8785947970618535,-0.5494230114490855,4.837559418267517
471,1791353437.6387618,1.7835563815369901,-2.2508295798788267,-0.20919762436224526,2.87942195758413,4.760508067548763,-0.9195662927700022,-0.5565999807907557,4.880352729732953
472,1791353437.6637294,1.71170579559949,-2.155028798628827,-0.11818688217474525,2.7546422622051443,4.804444141350695,-0.9712925548299817,-0.564828708913265,4.934077847464487
473,1791353437.6837294,1.9033073580994901,-1.9346870017538267,-0.25230797592474524,2.725665424968023,4.839781843395903,-1.0126464924046688,-0.5709872258675303,4.977445893462632
474,1791353437.7086737,1.8218766940369902,-2.025697743941327,-0.2666780931122453,2.7374811859499815,4.88421370216655,-1.0638963858053325,-0.5784870100532764,5.03210355904581
475,1791353437.7286737,1.73086595184949,-2.178978993941327,-0.18045738998724525,2.7886217507776863,4.9198239059176965,-1.1051311005302213,-0.5842689477447188,5.0761552594357395
476,1791353437.7385457,1.72128587372449,-2.188559072066327,-0.17566735092474525,2.789887970723595,4.9373204390137975,-1.1256651952690173,-0.5869584836110552,5.097918743058428
477,1791353437.7585456,1.83624681122449,-2.025697743941327,-0.21877770248724526,2.742830177872244,4.972786594542349,-1.1673472615767366,-0.5921816592206205,5.142177093555616
478,1791353437.783769,1.76439622528699,-1.9442670798788266,-0.07028649154974526,2.6264441186901144,5.017617431493411,-1.2195401511120496,-0.5983276834277789,5.198245750804495
479,1791353437.8037689,1.6254850924744901,-1.8724164939413268,0.006354133450254746,2.4795535258695742,5.052917361483573,-1.26044216424345,-0.602565882747297,5.242496919830841
480,1791353437.8279595,1.52968431122449,-1.9873774314413268,-0.017596061862245254,2.5079698499786094,5.094933791507181,-1.3094965196895239,-0.6069435895513505,5.295423684259664
481,1791353437.8479595,1.64464524872449,-2.083178212691327,-0.11818688217474525,2.656775790145277,5.129222317877317,-1.3500752843817883,-0.6102236962265747,5.338913542954759
482,1791353437.8584504,1.59195481903699,-1.9442670798788266,-0.13255699936224527,2.5163596686156686,5.147056930175929,-1.3713367344631744,-0.6118834654188672,5.361637889396596
483,1791353437.8784504,1.44346360809949,-1.8963666892538267,-0.18524742904974525,2.390420552536448,5.180510174927758,-1.41155082496388,-0.6150497468237832,5.404484026718391
484,1791353437.9029086,1.5057341159119901,-1.9298969626913267,-0.2666780931122453,2.462286482067522,5.22069382519027,-1.46037105034731,-0.6191700068725597,5.456344849666568
485,1791353437.9229085,1.7021257174744902,-1.8963666892538267,-0.2858382493622453,2.5642039862300425,5.253435803196748,-1.5000436022422166,-0.6228626234021869,5.498788629740983
486,1791353437.948119,1.63506517059949,-1.8484662986288267,-0.22356774154974526,2.4779524419035464,5.2948268289127265,-1.5496310981952766,-0.6277822224798757,5.552536195967539
487,1791353437.968119,1.51052415497449,-1.8484662986288267,-0.14692711654974527,2.3916727321072955,5.327456201835455,-1.5886145680528063,-0.6316553716986918,5.595040155074892
488,1791353437.9776628,1.5871647799744901,-1.7718256736288267,-0.14213707748724527,2.3829941681251197,5.3429084976070635,-1.6070182620875852,-0.6334332927072389,5.61519515642998
489,1791353437.9976628,1.65422532684949,-1.6760248923788268,-0.16129723373724525,2.360410487494717,5.3752948496925965,-1.644971457839062,-0.637055350546518,5.65734613912715
490,1791353438.02263,1.57758470184949,-1.7382954001913267,-0.19482750717474526,2.355504648135468,5.41571191817852,-1.6916372993419515,-0.6415655981843091,5.709919329552685
491,1791353438.04263,1.4674138034119901,-1.7909858298788268,-0.08944664779974526,2.3170960739842887,5.447799104819226,-1.7287056542902575,-0.6450630044106309,5.751786209978908
492,1791353438.0677254,1.56800462372449,-1.6808149314413268,-0.14213707748724527,2.303037186537401,5.487735098666438,-1.7747756952198566,-0.6492290692086763,5.804012721021917
493,1791353438.0877254,1.65901536591199,-1.6137543845663267,-0.21398766342474526,2.3242904117465875,5.519628771186242,-1.8109259726803,-0.6525854007772715,5.8456498659723595
494,1791353438.0982783,1.56800462372449,-1.6664448142538266,-0.20440758529974526,2.297272138842702,5.536487095661799,-1.8297354653432585,-0.6544218543566851,5.867613586205568
495,1791353438.1182783,1.52968431122449,-1.7191352439413268,-0.14692711654974527,2.305850744637469,5.568291249591441,-1.865114656042598,-0.6579072588985634,5.909091476849291
496,1791353438.1429954,1.69733567841199,-1.6568647361288267,-0.16608727279974525,2.3777582175704057,5.607682986963316,-1.9085380652810155,-0.6621488581384657,5.9604586349741995
497,1791353438.1629953,1.63506517059949,-1.5802241111288267,-0.20440758529974526,2.2830525211717103,5.639774531246903,-1.9432595550710758,-0.6656218976429403,6.002196845513987
498,1791353438.1880894,1.61111497528699,-1.4221528220663266,-0.14692711654974527,2.154018962424156,5.680109560648824,-1.9859405640628556,-0.6699871155338446,6.054460114654801
499,1791353438.2080894,1.53447435028699,-1.3694623923788267,0.020724250637754748,2.0568102173980747,5.7121529566211375,-2.0190422862035335,-0.6731336420118189,6.0957634512275565
500,1791353438.2176495,1.5440544284119901,-1.4221528220663266,0.11652503188775475,2.102427361472053,5.727379678264906,-2.0344932916920744,-0.6743136825571231,6.115287391073752
501,1791353438.2376494,1.57279466278699,-1.4604731345663267,0.0015640943877547465,2.1463148125269247,5.759131421482563,-2.0662925267540295,-0.6762349217486403,6.155847074564126
502,1791353438.264317,1.60153489716199,-1.3071918845663266,-0.10381676498724526,2.069889506856863,5.801466897509825,-2.1078684714035005,-0.6786169164956659,6.209722101269371
503,1791353438.284317,1.51052415497449,-1.3024018455038266,-0.08944664779974526,1.996480526510535,5.833122882440109,-2.1382865751319087,-0.6804252786849339,6.249845646006725
504,1791353438.3082259,1.52968431122449,-1.3024018455038266,-0.11339684311224527,2.0122235221778766,5.870740983586256,-2.173866079289097,-0.6826265364212232,6.2974020369728265
505,1791353438.3282259,1.68296556122449,-1.3886225486288266,-0.16129723373724525,2.187844249584364,5.902307665009035,-2.203200813513293,-0.6846037440295588,6.337192744696135
506,1791353438.3677144,1.68296556122449,-1.4844233298788267,-0.19003746811224526,2.252110108729749,5.965253607668613,-2.2609412075649,-0.6889625500951309,6.416445678356673
507,1791353438.3877144,1.63506517059949,-1.4556830955038267,-0.15650719467474525,2.1947541749881925,5.997329134436196,-2.29020883847576,-0.6913588504082557,6.456856071698325
508,1791353438.3830473,1.50094407684949,-1.4365229392538268,-0.16608727279974525,2.0842303757066007,5.997329134436196,-2.29020883847576,-0.6913588504082557,6.456856071698325
509,1791353438.4030473,1.5823747409119902,-1.3119819236288268,-0.24272789779974527,2.0698123637120753,6.029127084319009,-2.3191650143489952,-0.6941147071093491,6.496975834130438
510,1791353438.4281285,1.6254850924744901,-1.4221528220663266,-0.25230797592474524,2.1744837892896007,6.069056378806696,-2.355174001189476,-0.6979835186216996,6.5473254766569084
511,1791353438.4481285,1.67338548309949,-1.4221528220663266,-0.2954183274872453,2.2158541496620874,6.101068716128337,-2.3838473111315075,-0.7014273838968962,6.587698221426755
512,1791353438.4732435,1.53447435028699,-1.4173627830038267,-0.33852867904974526,2.1161593647152848,6.1412807434073,-2.419801474302595,-0.7062974471237661,6.638495644963239
513,1791353438.4932435,1.4674138034119901,-1.4556830955038267,-0.3337386399872453,2.0937282595409035,6.1730025024455175,-2.4484478843873476,-0.7106023214644615,6.678758312518142
514,1791353438.502712,1.59195481903699,-1.4987934470663267,-0.3864290696747453,2.2203669446093244,6.187940367191462,-2.46207369745341,-0.7128460842180795,6.697802805353004
515,1791353438.522712,1.64464524872449,-1.6856049705038267,-0.4439095384247453,2.3964928101381227,6.219614924841853,-2.491314275810007,-0.7181200756077143,6.738393953841011
516,1791353438.5482173,1.62069505341199,-1.6664448142538266,-0.43911949936224526,2.365695819379092,6.260195662333835,-2.529422503404496,-0.725526102492857,6.7907596082346275
517,1791353438.5682173,1.60632493622449,-1.6281245017538266,-0.4151693040497453,2.324528929691543,6.292084360519191,-2.559764529927922,-0.7317438542043889,6.83214235190787
518,1791353438.5934083,1.60153489716199,-1.6808149314413268,-0.4247493821747453,2.360183234039596,6.332285790742098,-2.598501033046398,-0.7399875961831033,6.8845938585280635
519,1791353438.6134083,1.7069157565369901,-1.6664448142538266,-0.3720589524872453,2.414337918145184,6.364378063815809,-2.6296629257936917,-0.7467460284604845,6.926620017981008
520,1791353438.6228633,1.69733567841199,-1.6041743064413267,-0.3241585618622453,2.3578384982617875,6.379687938978562,-2.6445041785860535,-0.7499555161456054,6.94667214034928
521,1791353438.6428633,1.6254850924744901,-1.4844233298788267,-0.24272789779974527,2.2146402056577115,6.412199249117528,-2.675821573534206,-0.7565764888288092,6.989186525427905
522,1791353438.6676233,1.64464524872449,-1.4700532126913268,-0.15650719467474525,2.2114269023146775,6.452483578232523,-2.7142633748069214,-0.7642851270411136,7.0417257650802405
523,1791353438.6876233,1.69733567841199,-1.4365229392538268,-0.12297692123724525,2.2270316305274465,6.485155378626652,-2.745017006726315,-0.7699970298362523,7.084155142153758
524,1791353438.7132502,1.71649583466199,-1.4317329001913268,-0.08465660873724526,2.2368244878186396,6.527301123738736,-2.7840249838750233,-0.7766171908560702,7.13859855517415
525,1791353438.7332501,1.63027513153699,-1.4508930564413267,-0.017596061862245254,2.1824750370005757,6.560279282213371,-2.814225440455785,-0.7811621519834322,7.181040551204117
526,1791353438.7430453,1.60153489716199,-1.4173627830038267,-0.04633629623724526,2.1391536498860955,6.576382169444227,-2.8289049005591447,-0.7831011679963059,7.201718740294478
527,1791353438.7630453,1.64943528778699,-1.4844233298788267,-0.09423668686224526,2.221042535395544,6.609205893425946,-2.8587344281647113,-0.7866772753632222,7.243812960592189
528,1791353438.7881117,1.65422532684949,-1.5179536033163268,-0.08944664779974526,2.246919063209428,6.650384538069468,-2.896156882835436,-0.7908323018216631,7.296626269982111
529,1791353438.8081117,1.6254850924744901,-1.5993842673788268,-0.11339684311224527,2.2832193641048883,6.683231402850208,-2.926212745816242,-0.7939545003688052,7.338846419327527
530,1791353438.8480191,1.55842454559949,-1.7526655173788268,-0.12297692123724525,2.348541420391124,6.748471564572177,-2.9872224307807125,-0.7999574435539848,7.423294297028517
531,1791353438.868019,1.67817552216199,-1.8101459861288267,-0.18524742904974525,2.4753218344796117,6.781117800765028,-3.018555863342656,-0.8029769443509376,7.465923258454497
532,1791353438.8629131,1.6638054049744901,-1.8340961814413268,-0.2762581712372453,2.4916813210311086,6.781117800765028,-3.018555863342656,-0.8029769443509376,7.465923258454497
533,1791353438.882913,1.5871647799744901,-2.0209077048788266,-0.28104821029974525,2.584985123156953,6.813842178659704,-3.0516231730160044,-0.8065829115310135,7.509422429118243
534,1791353438.9233184,1.59195481903699,-2.1981391501913268,-0.2666780931122453,2.727132757092131,6.879671313071739,-3.121192589597087,-0.8144349985872816,7.598356725251971
535,1791353438.9433184,1.63027513153699,-2.3897407126913266,-0.34810875717474526,2.9137325521097757,6.912201390040205,-3.1573448136775193,-0.8186608396417081,7.643138092386722
536,1791353438.9538753,1.6254850924744901,-2.6531928611288267,-0.5061800462372453,3.15243594437865,6.929374480789401,-3.177558084601083,-0.8212332491071611,7.667302662962262
537,1791353438.9738753,1.57758470184949,-2.873534658003827,-0.5540804368622453,3.3246022397833053,6.961833151835398,-3.2183978840465897,-0.8269660256625095,7.714212764866549
538,1791353438.997309,1.5871647799744901,-2.8400043845663268,-0.47743981186224527,3.288261807870305,6.999721930432988,-3.269113266369069,-0.8344884086470039,7.770429817963802
539,1791353439.017309,1.52010423309949,-2.725043447066327,-0.23793785873724527,3.129407786228344,7.031869271079544,-3.314252340587018,-0.8410185922536488,7.819128231149276
540,1791353439.0281358,1.55842454559949,-2.6627729392538266,-0.28104821029974525,3.09806954196676,7.049161368196533,-3.3393976302574715,-0.8444448174098713,7.845721099904968
541,1791353439.0481358,1.53447435028699,-2.753783681441327,-0.5588704759247453,3.2016046452867317,7.080952286182623,-3.387004897903861,-0.8510844585004647,7.895317106558843
542,1791353439.0887947,1.56321458466199,-2.921435048628827,-0.7361019212372453,3.3941521208552277,7.145333375468649,-3.486576725307471,-0.8665067215865806,7.997677175692745
543,1791353439.1087947,1.7069157565369901,-2.863954579878827,-0.5780306321747453,3.383772546619452,7.177157054172911,-3.536886949328826,-0.8749261474565502,8.049015370596562
544,1791353439.1334078,1.77397630341199,-2.5430219626913266,-0.39121910873724525,3.1252207952141364,7.216872193457636,-3.59949563989555,-0.8855225892656751,8.113184539650808
545,1791353439.1534078,1.59674485809949,-2.384950673628827,-0.3337386399872453,2.889457619922862,7.249359011385775,-3.6501306171731844,-0.8939288522838728,8.165523154785049
546,1791353439.1484447,1.18959153778699,-2.3801606345663266,-0.3433187181122453,2.6829387647353844,7.249359011385775,-3.6501306171731844,-0.8939288522838728,8.165523154785049
547,1791353439.1684446,1.0458903659119898,-2.375370595503827,-0.3145784837372453,2.614427613440874,7.279736532513273,-3.6999231894224227,-0.9018524694844846,8.215676080953376
548,1791353439.19264,1.21833177216199,-2.2268793845663266,-0.5445003587372452,2.5961133914239696,7.315082733717871,-3.7594767406956344,-0.9115593132993738,8.274964721775653
549,1791353439.21264,1.62069505341199,-2.394530751753827,-0.6498812181122453,2.963574796576576,7.3441759093824865,-3.8082518458677628,-0.9201710218630847,8.323846263536218
550,1791353439.2530658,1.48178392059949,-2.3705805564413267,-0.29062828842474525,2.8106583862073244,7.403567321772304,-3.9064997161840473,-0.9378183361561488,8.423363482136542
551,1791353439.2730658,1.05547044403699,-2.1646088767538267,0.015934211575254747,2.4082780874840077,7.432348676026825,-3.9546180184569466,-0.9456514847929877,8.47189868002641
552,1791353439.2676067,1.17522142059949,-1.7095551658163268,0.006354133450254746,2.0745516690160013,7.432348676026825,-3.9546180184569466,-0.9456514847929877,8.47189868002641
553,1791353439.2876067,1.40993333466199,-1.4269428611288266,-0.16129723373724525,2.012484716644797,7.459865062325551,-3.999027788846284,-0.95151493149908,8.517463863670681
554,1791353439.313295,1.50094407684949,-1.4173627830038267,-0.46785973373724526,2.11675296407649,7.495514164817654,-4.052991957101971,-0.959128481520538,8.574928795236683
555,1791353439.3332949,0.6052067721619898,-1.7814057517538266,-0.35768883529974527,1.9151039116325879,7.5222653423393675,-4.093502650672307,-0.9654053178068046,8.618192807037381
556,1791353439.3585587,0.6674772799744899,-1.6424946189413268,-0.32894860092474526,1.8031976249384607,7.553399862463205,-4.143487017703522,-0.9734458614977427,8.670059457316533
557,1791353439.3785586,1.3093425143494901,-0.7994477439413266,-0.15650719467474525,1.542072961036825,7.577315485705238,-4.180784372668584,-0.9795845206097994,8.709434756267285
558,1791353439.3881936,1.33808274872449,-0.2677534080038265,-0.09423668686224526,1.3678588681156119,7.589021705015234,-4.196828326847527,-0.9822794130393647,8.727628044864373
559,1791353439.4081936,1.10337083466199,-0.5982661033163266,-0.20919762436224526,1.2724437807615725,7.613338383681479,-4.226435374008997,-0.9874894434246676,8.763607289009899
560,1791353439.4329631,0.7105876315369899,-1.1778608298788267,-0.3864290696747453,1.4288521066037156,7.642306532392228,-4.260902448574671,-0.9940805822026575,8.806153247316727
561,1791353439.452963,0.8638688815369898,-0.9383588767538266,-0.34810875717474526,1.322106853810394,7.664549810084671,-4.287732426361675,-0.9997060581562023,8.839082834438003
562,1791353439.4778454,1.33329270966199,-0.15758250956632652,-0.23793785873724527,1.3634940856415543,7.692172349585459,-4.318150330519031,-1.0067486607668257,8.878596769684075
563,1791353439.4978454,1.51052415497449,0.4076420998086735,-0.13255699936224527,1.5701677179135178,7.715310217304265,-4.338557224377456,-1.0121160176231072,8.90917893924949
564,1791353439.5084138,1.06026048309949,0.24478077168367351,0.011144172512754747,1.0882068327250167,7.72774042038916,-4.347205986326844,-1.0146230366146904,8.924440139241318
565,1791353439.5284138,0.8830290377869898,0.0723393654336735,0.25543616470025476,0.9220742375769639,7.750650208605067,-4.360642449019675,-1.0182558830254835,8.951236018989674
566,1791353439.5529852,0.6626872409119898,0.30226124043367353,0.41829749282525475,0.8399339433788485,7.777423119569269,-4.373983627713622,-1.0208080203504553,8.981207723392728
567,1791353439.5729852,0.8159684909119899,0.6184038185586735,0.33686682876275476,1.0778251812282982,7.798164209413614,-4.381832860420735,-1.0214409968860136,9.003064254117145
568,1791353439.59846,0.7153776705994899,0.4268022560586735,0.14526526626275477,0.8455929132576235,7.823545965337302,-4.388334083385856,-1.0212051416626378,9.028189599277907
569,1791353439.61846,0.5477263034119898,0.043599131058673496,0.19316565688775475,0.5824242085278669,7.842378521397884,-4.3919669161347485,-1.020540103474066,9.046202317442601
570,1791353439.6284282,0.9500895846619899,0.08670948262117349,0.31770667251275475,1.0055477527292032,7.851476776498803,-4.3934085527574664,-1.0198764195786865,9.054715577783497
571,1791353439.6484282,0.6722673190369899,0.2304106544961735,0.24106604751275476,0.7504300481816801,7.86942654472337,-4.3953914513425145,-1.0179064096079375,9.071023845854038
572,1791353439.6736598,0.46629563934948987,-0.09052196269132651,0.19795569595025475,0.5145991707775956,7.890829453609717,-4.3972530796098495,-1.0149630896369612,9.09016909553493
573,1791353439.6936598,0.35133470184948984,-0.3396039939413265,0.26980628188775474,0.558177727225536,7.90647627188166,-4.39915255424524,-1.0122783629463834,9.104373548874165
574,1791353439.7178423,0.42797532684948986,-0.12405223612882652,0.3416568678252548,0.5614991122100313,7.923970869349727,-4.401945687250024,-1.0084101033205612,9.120489630950805
575,1791353439.7378423,0.5812565768494898,-0.15279247050382652,0.5188883131377547,0.7940087081917895,7.937783161302038,-4.404324485467577,-1.0043999569738093,9.133197411788952
576,1791353439.762701,0.30822435028698986,-0.4593549705038265,0.7488101881377548,0.9309811689262615,7.95403414821261,-4.407978966845065,-0.9977997506248286,9.148362812297497
577,1791353439.782701,0.5620964205994898,-0.7228071189413265,0.6913297193877548,1.147318307250334,7.966453096160029,-4.412251377243272,-0.9911258980404611,9.160494948149328
578,1791353439.7932084,0.7010075534119898,-0.8281879783163265,0.3512369459502548,1.1404710910710583,7.97299432401651,-4.415381538992268,-0.9873240095108694,9.167281021405957
579,1791353439.8132083,0.5429362643494898,-0.7707075095663265,0.10215491470025476,0.9482644562805909,7.985443383886699,-4.422844213312652,-0.9804927926456575,9.180970705155483
580,1791353439.8383617,0.5956266940369899,-0.9000385642538266,-0.06549645248724525,1.0812633171813133,8.000899588136953,-4.433973835455861,-0.9731209257069239,9.198993560656834
581,1791353439.8583617,0.31780442841198986,-1.4269428611288266,0.08299475845025475,1.4642587590911005,8.012715845657688,-4.444986285674242,-0.968112384593148,9.214052305706133
582,1791353439.8828,0.11183274872448984,-1.5993842673788268,0.28896643813775474,1.6291219109680535,8.025776063882782,-4.461971061175279,-0.9622285928474951,9.232992529145289
583,1791353439.9028,0.2746940768494898,-1.3550922751913268,0.3224967115752548,1.4197661917077238,8.035440886505382,-4.478217830454533,-0.9572184779695584,9.248730312431523
584,1791353439.9133508,0.5716764987244899,-1.0868500876913265,0.38476721938775477,1.28689663354285,8.040444395889935,-4.487435313673053,-0.954412246858625,9.257252535971544
585,1791353439.9333508,0.5477263034119898,-0.8904584861288265,0.5859488600127548,1.1984391872424947,8.050185454291375,-4.505253038052914,-0.9484346054768444,9.273743526011245
586,1791353439.9580057,0.2555339205994898,-0.6892768455038265,0.6769596022002548,0.9993370088892832,8.061877774973263,-4.526844145730959,-0.9398357740831484,9.29351830366697
587,1791353439.9780056,0.06872239716198983,-0.5551557517538266,0.7871305006377548,0.9656578594985333,8.070426229489996,-4.543598259338097,-0.9317105883712453,9.308283906735086
588,1791353440.0027518,0.04956224091198983,-0.4210346580038265,0.8637711256377548,0.9621991251555633,8.079636287632043,-4.563030562802798,-0.920101206661196,9.324610270032325
589,1791353440.0227518,0.12141282684948983,-0.15279247050382652,0.7152799147002548,0.7414256334521019,8.08621982114716,-4.577240791341307,-0.909757288116577,9.336259560504583
590,1791353440.0333784,0.31780442841198986,-0.004301259566326506,0.5476285475127548,0.6331786332489893,8.089543188239157,-4.583783744977309,-0.9040791471453049,9.34179541198627
591,1791353440.0533783,0.25074388153698984,-0.04262157206632651,0.47577796157525476,0.5394939863004459,8.095712614321837,-4.59432131359153,-0.8934603509434731,9.351289882412969
592,1791353440.0783436,-0.06060865752551017,-0.09052196269132651,0.46619788345025476,0.47875682932991337,8.10261454233436,-4.605751241956169,-0.8804297832607899,9.361648547541275
593,1791353440.0983436,-0.012708266900510174,-0.3300239158163265,0.5140982740752548,0.6110436322109184,8.10720439957676,-4.614165211341032,-0.8700862421139768,9.36879575200477
594,1791353440.1229165,-0.20430982940051018,-0.37313426737882655,0.5619986647002547,0.7048504713816034,8.111597847159073,-4.624248210788132,-0.8573007874249586,9.376388205974218
595,1791353440.1429164,-0.0031281887755101735,-0.33481395487882654,0.3129166334502548,0.4582870164388876,8.114326164477282,-4.632285750817934,-0.8471431849622616,9.381791511037722
596,1791353440.1529717,0.32738450653698986,-0.34439403300382654,0.10215491470025476,0.48602828280515264,8.11573665026991,-4.636232823243594,-0.8424893000463345,9.384541778294137
597,1791353440.1729717,0.3034343112244898,-0.42582469706632653,0.02551428970025475,0.5234978823632602,8.119067513267437,-4.644061262267102,-0.8344297129238754,9.390571614044314
598,1791353440.2136226,0.07351243622448983,-0.6174262595663266,-0.008015983737245254,0.6218388217834268,8.125971360774109,-4.660766840567244,-0.8204521170795447,9.40357909387019
599,1791353440.2336226,-0.09892897002551018,-0.7611274314413266,0.015934211575254747,0.7676951264019491,8.128820391170134,-4.669820860027385,-0.814594877734312,9.410021925132867
600,1791353440.2428834,0.13578294403698984,-0.8233979392538265,-0.012806022799745255,0.8346167794136109,8.129967333816616,-4.674484975334145,-0.8122873639908396,9.413128565745243
601,1791353440.2628834,0.33696458466198986,-0.6174262595663266,-0.08465660873724526,0.7084681070601437,8.132781867666575,-4.685208006552168,-0.8081977139349079,9.420535999427864
602,1791353440.2734425,0.29864427216198985,-0.6030561423788265,-0.21398766342474526,0.7061556714025444,8.134548280312103,-4.690986627242142,-0.8065989424944086,9.424798836883804
603,1791353440.2934425,0.28906419403698985,-0.7707075095663265,-0.18045738998724525,0.8426820534324867,8.138273743396864,-4.70235077438835,-0.8046166084287324,9.433504662341184
604,1791353440.3183894,0.5141960299744899,-0.7084370017538265,-0.12776696029974527,0.8846496135983525,8.143726564314166,-4.717167068092415,-0.8030915415520806,9.445470000308312
605,1791353440.3383894,0.5381462252869899,-0.5982661033163266,-0.14213707748724527,0.8171454209408214,8.149020879079313,-4.729223624647291,-0.8024571465320445,9.456005226923947
606,1791353440.363619,0.5429362643494898,-0.6030561423788265,-0.13734703842474527,0.8229949616921474,8.156743430063978,-4.744424597881242,-0.8023057556269367,9.470254625636237
607,1791353440.383619,0.5094059909119899,-0.7132270408163266,-0.13734703842474527,0.8871592215001143,8.163525463219061,-4.756641567286507,-0.8026157878552351,9.482245466722443
608,1791353440.4084241,0.5094059909119899,-0.7515473533163265,-0.2762581712372453,0.9490186852897833,8.17257057165539,-4.772245934479251,-0.8037120918575735,9.497957366425663
609,1791353440.4284241,0.6818473971619898,-0.9623090720663265,-0.5445003587372452,1.2990131884868312,8.180556453025964,-4.785511062632387,-0.8056945729027785,9.511664615435443
610,1791353440.4380004,0.8447087252869898,-1.1299604392538265,-0.5492903977997453,1.5139561968464192,8.184903068272485,-4.79241260868726,-0.8072870176498887,9.51901093484964
611,1791353440.4580004,0.5381462252869899,-1.2257612205038266,-0.24751793686224527,1.36138057079944,8.194693505210326,-4.808197883980521,-0.8113091534518053,9.535721843590329
612,1791353440.4978986,0.5764665377869899,-1.0868500876913265,-0.21398766342474526,1.2487383642704124,8.21463021230552,-4.841884723444785,-0.8195103734402023,9.570558732499723
613,1791353440.5178986,0.9357194674744899,-1.1874409080038266,-0.37684899154974527,1.5580763762549494,8.225393209755426,-4.859649594690273,-0.8238910397735554,9.58916493150906
614,1791353440.5284598,0.9117692721619899,-1.3694623923788267,-0.2762581712372453,1.6682532862170816,8.23168759045437,-4.869648706372181,-0.8263746343028278,9.59984656890577
615,1791353440.5484598,0.7728581393494899,-1.3598823142538268,-0.15650719467474525,1.5719682293749,8.244346340715927,-4.889837887601597,-0.8310215239968852,9.621349069961354
616,1791353440.5587566,0.8973991549744899,-1.2353412986288268,-0.2954183274872453,1.5552058885119509,8.251175879556765,-4.900677174501079,-0.8334040789231808,9.632917653692521
617,1791353440.5787566,1.06984056122449,-1.4652631736288266,-0.40079918686224525,1.8580083376086851,8.265402259400219,-4.922623667735276,-0.838381986493959,9.65670661453082
618,1791353440.6183443,0.9596696627869898,-1.7287153220663267,-0.28104821029974525,1.9971005540365934,8.295363643149837,-4.9690313905741235,-0.8487816779782615,9.706943971687213
619,1791353440.6383443,0.8782389987244898,-1.7430854392538266,-0.16608727279974525,1.9588863084940273,8.310986686017712,-4.994167746809701,-0.8539182733854652,9.733621504664109
620,1791353440.6481917,0.9692497409119899,-1.7095551658163268,-0.3145784837372453,1.9902219845177254,8.318889636338362,-5.00723765480064,-0.8564230138463489,9.74729778409775
621,1791353440.6681917,1.0506804049744898,-1.8676264548788268,-0.2954183274872453,2.163152763115905,8.33556272303631,-5.035166552067968,-0.8616620466274093,9.776347456966464
622,1791353440.723041,1.01715013153699,-1.9586371970663268,-0.16129723373724525,2.212887447980317,8.382935817078843,-5.116011752210695,-0.8757535545170769,9.859722787698981
623,1791353440.743041,0.9548796237244899,-1.9634272361288267,-0.05591637436224526,2.184025697719357,8.400576645449696,-5.146951953029316,-0.8804468875880407,9.891207666646709
624,1791353440.7240424,0.9548796237244899,-1.9825873923788266,-0.14213707748724527,2.2051419031482564,8.400576645449696,-5.146951953029316,-0.8804468875880407,9.891207666646709
625,1791353440.7440424,1.13690110809949,-1.9777973533163267,-0.25230797592474524,2.2951875337536487,8.418894752771411,-5.180277983427189,-0.8846820056579598,9.924501553980305
626,1791353440.7685509,1.06984056122449,-2.083178212691327,-0.11818688217474525,2.34481522329397,8.442031389834368,-5.2224553753271215,-0.8897743720506393,9.966625936965329
627,1791353440.7885509,0.9165593112244899,-1.9969575095663268,0.059044563137754746,2.1980460701363347,8.461059412286547,-5.257831368945068,-0.8933953387436868,10.001623483904725
628,1791353440.798516,0.9548796237244899,-1.8772065330038268,0.06383460220025475,2.1070771983471643,8.470516864115451,-5.275709337432686,-0.8948370542835331,10.019156566900106
629,1791353440.818516,1.01715013153699,-2.0113276267538267,-0.031966179049745254,2.254119572878053,8.489608734515544,-5.312040842942243,-0.8972487293437295,10.054665069735446
630,1791353440.843575,1.0794206393494898,-2.2364594626913266,-0.11339684311224527,2.485912043685991,8.513882071827192,-5.358717574553923,-0.9000903809892037,10.100109141527277
631,1791353440.863575,0.9261393893494899,-2.274779775191327,-0.08944664779974526,2.457713957507415,8.533357410548918,-5.397149863062032,-0.9023224188428982,10.137139689679094
632,1791353440.8880901,0.7968083346619899,-2.222089345503827,-0.036756218112245255,2.3609183808760426,8.55681654206246,-5.4454603777221084,-0.904880008999677,10.182875619909261
633,1791353440.90809,0.7584880221619898,-2.1310786033163267,-0.08465660873724526,2.26361808498668,8.575417172852397,-5.485490954526178,-0.9068356839161464,10.220114561895283
634,1791353440.918358,1.0027800143494898,-2.1741889548788267,-0.24272789779974527,2.4065706308076917,8.584890637418361,-5.506275346381704,-0.9079412376024414,10.239324818441078
635,1791353440.938358,1.0075700534119898,-2.274779775191327,-0.20919762436224526,2.4967146581439676,8.603590729994869,-5.547360095755224,-0.9104495152141053,10.277348675654856
636,1791353440.9633787,0.9213493502869898,-2.3610004783163268,-0.15650719467474525,2.539232637209348,8.627095672718601,-5.599747902254074,-0.9138030201817912,10.325647305362134
637,1791353440.9833786,0.9261393893494899,-2.351420400191327,-0.11818688217474525,2.5299960881508836,8.645837089966005,-5.642410872439447,-0.9164935646781385,10.364712243654001
638,1791353441.0083678,1.0075700534119898,-2.3178901267538268,-0.21877770248724526,2.5368633655246606,8.669365333678858,-5.696471758746365,-0.9199825615886739,10.41412760151396
639,1791353441.0283678,1.02194017059949,-2.1598188376913265,-0.23314781967474527,2.4007367681089726,8.688415747261143,-5.7399656769908285,-0.9230339970597603,10.45407891351583
640,1791353441.0378845,0.9165593112244899,-2.1167084861288266,-0.19003746811224526,2.314443783186062,8.697504504259376,-5.760609649850955,-0.92457023320502,10.473110247471705
641,1791353441.0578845,0.8973991549744899,-2.1406586814413266,-0.24272789779974527,2.3338084039075127,8.716460947659224,-5.803872617581615,-0.9279636034900348,10.512979846959862
642,1791353441.0843318,0.8590788424744898,-2.0975483298788267,-0.20919762436224526,2.2762884482867216,8.741252258589135,-5.860907359734722,-0.9326742051625432,10.565491342131603
643,1791353441.1043317,0.8686589205994899,-2.0209077048788266,-0.11818688217474525,2.202862776274061,8.759779400429572,-5.903746240866812,-0.9361931959761891,10.604923975254673
644,1791353441.1732166,1.0027800143494898,-1.8580463767538267,0.015934211575254747,2.111435055701527,8.823688159942716,-6.049201818064343,-0.9470236992807219,10.739979947215243
645,1791353441.1932166,1.02673020966199,-1.8580463767538267,-0.031966179049745254,2.1230951693703273,8.842504364721723,-6.090672705234153,-0.9497205901025407,10.779060563967148
646,1791353441.1742175,0.9165593112244899,-1.8676264548788268,-0.09423668686224526,2.0825441409742886,8.842504364721723,-6.090672705234153,-0.9497205901025407,10.779060563967148
647,1791353441.1942174,0.7824382174744898,-2.0017475486288268,-0.09902672592474526,2.1515132128466115,8.861125258313386,-6.131189705014575,-0.9521198970646031,10.817465522976374
648,1791353441.203758,0.8399186862244898,-2.049647939253827,-0.060706413424745254,2.215898315128072,8.869836412548752,-6.1505172418452805,-0.9532070496299592,10.835657063929073
649,1791353441.223758,0.9788298190369898,-1.9346870017538267,0.04946448501275475,2.1687711600509574,8.888086631404416,-6.190932795219328,-0.955161071345031,10.873732823390736
650,1791353441.2478342,0.9548796237244899,-1.8484662986288267,0.03988440688775475,2.080916509349562,8.910252725445678,-6.239118928310788,-0.9569991666506369,10.919480575461824
651,1791353441.2678342,0.7824382174744898,-1.9011567283163266,-0.12776696029974527,2.0598375824155,8.928509960033697,-6.278767110657996,-0.9584288513156466,10.957179947383164
652,1791353441.2934284,0.8207585299744898,-2.0783881736288268,-0.14213707748724527,2.2390946638323874,8.951446821049036,-6.329533664379024,-0.9605020984332491,11.005178820885689
653,1791353441.3134284,0.8351286471619899,-1.9538471580038268,0.03509436782525475,2.1251329814398208,8.969165575339433,-6.3693017382652855,-0.9620397368350785,11.042619988307704
654,1791353441.3234947,0.8207585299744898,-1.7574555564413268,0.07820471938775475,1.9412394431205275,8.977996103853224,-6.389117116446688,-0.9626120271102169,11.061277208496898
655,1791353441.3434947,0.9500895846619899,-1.7095551658163268,0.05425452407525475,1.956576764973742,8.99556542760417,-6.427781967401515,-0.9633798259813963,11.097958328984095
656,1791353441.3685827,1.02673020966199,-1.7239252830038267,0.08778479751275475,2.008432093820135,9.018018209629396,-6.475468590731459,-0.9639312250216032,11.143855226326691
657,1791353441.3885827,1.0890007174744898,-1.5850141501913266,0.08299475845025475,1.9248585789342818,9.036406082237662,-6.512745033359995,-0.9640486906540737,11.180423633772063
658,1791353441.4136815,0.9021891940369898,-1.6472846580038267,0.09736487563775476,1.880683919572838,9.05976866268163,-6.558592328159797,-0.9638344804618308,11.226019706647222
659,1791353441.4336815,0.7632780612244898,-1.7574555564413268,0.03988440688775475,1.9164639828407675,9.078090863857545,-6.594752840460247,-0.9634835173396825,11.261918098059388
660,1791353441.4587634,0.7920182955994899,-1.7478754783163268,-0.027176139987245256,1.9191404875225928,9.100547706084068,-6.639893265729081,-0.9630854914191717,11.306444392237928
661,1791353441.4787633,0.9357194674744899,-1.7909858298788268,-0.06549645248724525,2.021754423743375,9.11836010157054,-6.67579681557313,-0.9629547262947163,11.341870915753855
662,1791353441.488579,0.9213493502869898,-1.8197260642538267,-0.05591637436224526,2.0404446121178585,9.12715798261531,-6.693432727112479,-0.9629895566814773,11.359331115795348
663,1791353441.508579,0.8926091159119899,-1.8436762595663267,-0.036756218112245255,2.0487176973579304,9.145116133943269,-6.729471793394624,-0.9631888888418039,11.395028414049332
664,1791353441.563515,0.9644597018494899,-1.7526655173788268,-0.07986656967474526,2.002098299597702,9.194695940203433,-6.828432689996433,-0.9641347940690668,11.49345389061704
665,1791353441.583515,0.9788298190369898,-1.8245161033163266,-0.09423668686224526,2.07264260765028,9.212953396523885,-6.864422014091814,-0.9646886601032743,11.52950233466307
666,1791353441.5645125,0.9357194674744899,-1.8963666892538267,-0.036756218112245255,2.114977201175506,9.212953396523885,-6.864422014091814,-0.9646886601032743,11.52950233466307
667,1791353441.5845125,0.9788298190369898,-1.7861957908163266,-0.012806022799745255,2.03685228035464,9.231457277918729,-6.900692260239061,-0.9653301873980215,11.565950869481672
668,1791353441.608642,1.06505052216199,-1.7766157126913267,-0.08944664779974526,2.0733298599455536,9.254132052926572,-6.944335467228166,-0.9661731291192585,11.61017853651864
669,1791353441.628642,1.05547044403699,-1.9059467673788268,-0.10860680404974526,2.1813863427195423,9.273287830600019,-6.980607138856535,-0.9670640845148516,11.64722954868529
