imu_index,t_imu,ax,ay,az,mag,vx,vy,vz,velocity
0,1791353996.5619028,0.014274316406250088,0.08416098632812496,0.07194638671874992,0.11163830118052,0.0,0.0,0.0,0.0
1,1791353996.5819027,-0.043206152343749915,0.07458090820312498,0.038416113281249914,0.09436567823309547,-2.5197976457594997e-05,0.0003454177699488644,0.0002572751477094713,0.00043143814787630265
2,1791353996.606886,0.02385439453125009,-0.040380029296875036,-0.04780458984375009,0.0669690802878328,-8.821294168708594e-05,0.000776260868927633,0.000512854663177711,0.0009345492845497751
3,1791353996.626886,0.05259462890625009,-0.09307045898437503,9.580078124991288e-05,0.10690329509953415,-1.6418521563115712e-05,0.0008692557452156987,0.000615202545850611,0.0010650583509188084
4,1791353996.6365142,0.01906435546875009,0.007520361328124968,0.05278623046874992,0.056625008706793156,6.47065109896348e-05,0.0008455319003309691,0.0006952708913409188,0.001096591418618506
5,1791353996.6565142,-0.024045996093749914,0.08895102539062497,0.06715634765624992,0.11401960303698372,0.00020047064366347333,0.0009483513700354138,0.0010165554577230048,0.001404615178134325
6,1791353996.6819053,0.028644433593750088,0.031470556640624966,0.028836035156249915,0.05140443983460985,0.00035573377703530947,0.0012886289589158291,0.0015460624045438055,0.0020438737907767382
7,1791353996.7019053,0.03822451171875009,-0.035589990234375035,-0.014274316406250088,0.05414348354036258,0.0005599896874252147,0.0015102742519446193,0.0019224232324146196,0.002508032665384752
8,1791353996.727052,-0.07194638671874992,0.007520361328124968,0.014465917968749914,0.07377059833746825,0.00071468588460027,0.0016942152811222346,0.0023250152372403235,0.00296425997271404
9,1791353996.747052,-0.10547666015624992,0.007520361328124968,-0.004694238281250087,0.10584855948601167,0.0005531311137287813,0.0018411263250793525,0.0026118377326889487,0.0032430535789241583
10,1791353996.756232,-0.014465917968749914,-0.026009912109375033,-0.028644433593750088,0.041307165074872594,0.00040751890074102305,0.0018857140028150459,0.002700788628708977,0.0033190733905470713
11,1791353996.776232,-0.009675878906249913,-0.021219873046875035,0.009675878906249913,0.02524932231451604,0.00010165627674196457,0.0018974384671384317,0.002837058310671118,0.003414601967041801
12,1791353996.8016148,-0.09110654296874991,0.04584067382812497,0.10068662109374991,0.14331631175832563,-0.0004201587791588139,0.0019569572321191196,0.0031941595519574813,0.0037694655126965636
13,1791353996.8216147,-0.11505673828124992,0.06979086914062498,0.06715634765624992,0.15039545694551743,-0.0010788866172999694,0.002170266797692448,0.003685090663505236,0.004410662932531647
14,1791353996.8471308,-0.024045996093749914,-0.006849755859375033,0.004885839843749913,0.025475488502724596,-0.0020594337056202283,0.002522037176302754,0.004355339602107704,0.005437915203107302
15,1791353996.8671308,0.04780458984375009,-0.040380029296875036,9.580078124991288e-05,0.0625766310529366,-0.0026770825292274296,0.002685558570159165,0.004809363485476063,0.006124456942250515
16,1791353996.876683,-0.03362607421874991,0.0027303222656249676,0.047996191406249916,0.05866687239443077,-0.0029176720503631998,0.002724970520158596,0.005028137805365567,0.006420314970385057
17,1791353996.896683,-0.08152646484374991,0.007520361328124968,0.043206152343749915,0.0925737106568386,-0.0035185743791043985,0.002810487407261501,0.005554290677820544,0.007150479009226555
18,1791353996.9222867,-0.028836035156249915,-0.030799951171875034,0.004885839843749913,0.04247381954452815,-0.004384380261841834,0.002858840178598495,0.006219180106336676,0.00812858896994129
19,1791353996.9422867,0.014274316406250088,-0.05475014648437503,-0.02385439453125009,0.06140331251145005,-0.004981086804958045,0.002762619656682046,0.006632189983351219,0.00874238166069621
20,1791353996.9668949,-9.580078124991288e-05,-0.021219873046875035,-0.028644433593750088,0.03564822247773289,-0.005578982388200539,0.00252177669857597,0.00696724264901058,0.009275067241563505
21,1791353996.9868948,-0.019255957031249913,-0.011639794921875033,-0.02385439453125009,0.03279190213246534,-0.006021052884456114,0.0023061062340165857,0.007119958176042038,0.00960546762154635
22,1791353996.9970627,0.009484277343750088,-0.030799951171875034,-0.05259462890625009,0.06168292712500936,-0.006219538114709647,0.002180543771327673,0.007127652578316943,0.009707773008068849
23,1791353997.0170627,-0.004885839843749913,-0.07870034179687503,-0.03822451171875009,0.0876283545780736,-0.0065444952783022545,0.0018063609532062489,0.007004288553651705,0.009754661269557492
24,1791353997.0425239,-0.07194638671874992,-0.05475014648437503,0.038416113281249914,0.09823267715776796,-0.007042850076163346,0.0011466213278117665,0.006871161988528571,0.009906025678207522
25,1791353997.0625238,-0.11505673828124992,-0.006849755859375033,0.07673642578124992,0.13846823181125106,-0.007656097042293102,0.0006137252660312725,0.006955004416333871,0.01036168746172157
26,1791353997.0865796,-0.05278623046874992,0.007520361328124968,0.05757626953124992,0.07847272631137954,-0.008585880511189078,7.011871868764887e-05,0.007283046457497087,0.011258997579233583
27,1791353997.1065795,0.004694238281250087,-0.006849755859375033,0.024045996093749914,0.025439437032191425,-0.00931508894477308,-0.00031303775754769824,0.007637304416470291,0.012049783958084924
28,1791353997.132307,-0.019255957031249913,0.021890478515624968,0.038416113281249914,0.04822636924412004,-0.010140517960887135,-0.0007029667763954232,0.008145181830811974,0.013025676714120455
29,1791353997.152307,-0.10547666015624992,-0.011639794921875033,0.03362607421874991,0.11131722028017597,-0.010873035975201537,-0.0009452444166503758,0.008588835497866213,0.013888286198615086
30,1791353997.1617906,-0.05757626953124992,-0.030799951171875034,-0.02385439453125009,0.06951759449072989,-0.011284253448860991,-0.0010730810317903445,0.008774601438853096,0.014334556470628668
31,1791353997.1817906,0.014274316406250088,-0.06433022460937504,-0.009484277343750088,0.066573909483307,-0.012086342869036544,-0.001444932379127184,0.009057592132898473,0.015172590048310966
32,1791353997.206513,-9.580078124991288e-05,-0.030799951171875034,9.580078124991288e-05,0.030800249151090683,-0.012902809053875797,-0.002012024746868819,0.009337522674041665,0.016053661724075102
33,1791353997.226513,-0.07194638671874992,-0.021219873046875035,-0.009484277343750088,0.07560765232926214,-0.013572304247963733,-0.002480007865681862,0.009515930452874612,0.0167603942076875
34,1791353997.2518473,-0.05757626953124992,-0.04996010742187504,0.047996191406249916,0.09008148276003126,-0.01453926025870049,-0.0031191379891998766,0.009781199712588326,0.01779862293784087
35,1791353997.2718472,-0.047996191406249916,0.0027303222656249676,0.07673642578124992,0.09055146653070188,-0.015346470306040307,-0.00361885479126137,0.010146300723746652,0.018749871445722342
36,1791353997.2815151,-0.047996191406249916,0.02668051757812497,0.038416113281249914,0.06701702893578497,-0.015747743980109905,-0.003802855414101893,0.010379811269140343,0.0192404166209213
37,1791353997.301515,-0.004885839843749913,-0.011639794921875033,-0.014274316406250088,0.019055507489117742,-0.016532666381905033,-0.004103840956083755,0.010826628757766328,0.020183816748739477
38,1791353997.3265903,0.014274316406250088,-0.06433022460937504,-0.028644433593750088,0.07185149603915802,-0.017351499408198395,-0.004567472556258879,0.01122208606039279,0.021162975991380548
39,1791353997.3465903,-0.009675878906249913,-0.030799951171875034,0.028836035156249915,0.043287140680931785,-0.01789973789762208,-0.005024491420455597,0.011490477743931126,0.021855827818263406
40,1791353997.3714466,-9.580078124991288e-05,0.012310400390624967,0.06715634765624992,0.06827539942097953,-0.018497110896680782,-0.005541752534960512,0.011952956741752717,0.022709630282174563
41,1791353997.3914466,0.004694238281250087,0.031470556640624966,0.06715634765624992,0.07431289819970045,-0.01889877443533735,-0.005829851446188934,0.012470728755307525,0.0233809734342017
42,1791353997.4013684,-0.038416113281249914,0.05542075195312497,0.11026669921874992,0.1292517019744262,-0.019093240087194794,-0.005886677176634602,0.012821087570531771,0.023739946750159682
43,1791353997.4213684,-0.03362607421874991,0.10332114257812497,0.11026669921874992,0.15480541440018294,-0.019534500521688387,-0.005745929712479494,0.01375219180153659,0.024571023548864396
44,1791353997.4468567,-0.019255957031249913,0.05542075195312497,0.038416113281249914,0.07012880569264654,-0.02011358977818449,-0.005290008541709418,0.015045043278224203,0.025668930857752636
45,1791353997.4668567,-0.004885839843749913,-0.016429833984375034,0.009675878906249913,0.019683330722753987,-0.020536037628426144,-0.0049274364551736265,0.01597947440975919,0.02648305257911288
46,1791353997.4913998,-0.03362607421874991,-0.040380029296875036,0.004885839843749913,0.05277434096566378,-0.021047574717762037,-0.004653816121056624,0.016980965463511584,0.02744105672275314
47,1791353997.5113997,-0.09589658203124991,-0.04517006835937504,0.043206152343749915,0.11446947681027543,-0.021596179732254698,-0.004592615319245,0.017746796049230865,0.02832729892720816
48,1791353997.521916,-0.047996191406249916,-0.04517006835937504,0.004885839843749913,0.06608964288052074,-0.0219548619209313,-0.004636514780466577,0.018127005220085583,0.028846170448183484
49,1791353997.541916,-0.03362607421874991,-0.040380029296875036,-0.03822451171875009,0.06497978862321904,-0.022657125436746747,-0.004835805789730352,0.01869162708970895,0.029767554047203937
50,1791353997.5665276,-0.05278623046874992,-0.040380029296875036,-0.05259462890625009,0.0847533355267073,-0.023551198790385572,-0.005193337178317225,0.019114579765273025,0.03077331433425616
51,1791353997.5865276,-0.09110654296874991,-0.04517006835937504,-0.03343447265625009,0.10704485606094682,-0.02438459871828306,-0.00556861893312235,0.01927768124293105,0.03157922047134913
52,1791353997.6123638,-0.06236630859374991,-0.040380029296875036,-0.014274316406250088,0.07565619156746572,-0.025597092820481473,-0.006146465504571298,0.019364327177747404,0.03267976998245361
53,1791353997.6323638,0.03343447265625009,-0.030799951171875034,9.580078124991288e-05,0.04545888396981507,-0.026438299680035547,-0.00663345271178573,0.019400071594156444,0.033456675906450434
54,1791353997.6423573,0.004694238281250087,-0.021219873046875035,0.019255957031249913,0.029036369717235493,-0.026767004355798745,-0.006879278758083235,0.019429757653508628,0.033783316605816564
55,1791353997.6623573,-0.047996191406249916,0.0027303222656249676,0.06236630859374991,0.07874417754215475,-0.027391115119486834,-0.0073251865276442165,0.019602689743720533,0.034470233395530216
56,1791353997.6867626,-0.024045996093749914,0.06021079101562497,0.05278623046874992,0.08360583358814075,-0.028170323136286365,-0.007672485670666657,0.01999283342192591,0.03538569668957012
57,1791353997.7067626,0.004694238281250087,0.04105063476562497,0.024045996093749914,0.047805861730989926,-0.028742124473550748,-0.007762512197456916,0.02037984443432509,0.036079140428176
58,1791353997.7325225,0.03343447265625009,-0.021219873046875035,0.004885839843749913,0.0399001053244951,-0.029294467119466826,-0.007822760150204416,0.02085943959869789,0.036803228126794464
59,1791353997.7525225,0.01906435546875009,-0.06912026367187504,0.014465917968749914,0.07314590406979048,-0.02958023135846973,-0.007998030194577408,0.021204970719833224,0.03726404912838851
60,1791353997.776553,-0.038416113281249914,-0.035589990234375035,0.028836035156249915,0.059782623629723856,-0.029906958293162905,-0.008365750175156174,0.0216359023131687,0.03784870142088219
61,1791353997.796553,-0.06236630859374991,-0.0020597167968750326,0.014465917968749914,0.06405514548865512,-0.030289269912165052,-0.00868236273531383,0.022005711353514566,0.03843272858715282
62,1791353997.807266,-0.028836035156249915,-0.021219873046875035,0.024045996093749914,0.04312783166122094,-0.030536618636072984,-0.008845223458200659,0.022205031723424924,0.03877868602194729
63,1791353997.827266,0.02385439453125009,0.031470556640624966,0.014465917968749914,0.04205580645287783,-0.030936594111998394,-0.00908828147093198,0.02257908921467854,0.039363498131007514
64,1791353997.8523018,0.028644433593750088,0.04105063476562497,0.03362607421874991,0.06030233045191847,-0.03126360152122131,-0.00921072900000426,0.023067397553788966,0.03992937688837355
65,1791353997.8723018,-9.580078124991288e-05,0.017100439453124967,0.05278623046874992,0.0554871186346855,-0.03144282495217359,-0.009206647455198362,0.023528589656199497,0.04033618883269909
66,1791353997.8974,-0.03362607421874991,-0.016429833984375034,0.014465917968749914,0.04012374726764194,-0.03169747373338754,-0.009201031476741938,0.024147121785610313,0.04089587157457199
67,1791353997.9174,-0.06236630859374991,-0.035589990234375035,-0.05259462890625009,0.08900785831756605,-0.03201394644877251,-0.009275257201375602,0.024508886475222817,0.041371592664918085
68,1791353997.9263895,-0.014465917968749914,-0.12181069335937504,-0.07654482421875008,0.14458982645417914,-0.03218665879270626,-0.009409738038199146,0.024560033142412778,0.04156584417694462
69,1791353997.9463894,-9.580078124991288e-05,-0.12660073242187503,-0.02385439453125009,0.12882851689745334,-0.03253511388231041,-0.010036668587756519,0.02450615680044582,0.041950209448862144
70,1791353997.9722173,-0.03362607421874991,-0.04517006835937504,0.014465917968749914,0.05814043967527329,-0.03298293055887898,-0.011057577298657126,0.024428831149555266,0.042507781820521895
71,1791353997.9922173,-9.580078124991288e-05,0.021890478515624968,0.047996191406249916,0.052752598200828976,-0.03332826747499985,-0.011764461534310239,0.02447162827099246,0.042988795729946135
72,1791353998.0173037,0.014274316406250088,0.04105063476562497,0.05757626953124992,0.07213832224734379,-0.03366977982247303,-0.012399700059793926,0.02471588990903867,0.04356927643262377
73,1791353998.0373037,0.014274316406250088,0.04105063476562497,0.043206152343749915,0.06128362198726348,-0.03385838524580903,-0.012707022290301928,0.025032589077245218,0.04398282827252092
74,1791353998.0474467,0.02385439453125009,-0.0020597167968750326,0.03362607421874991,0.041279382736430795,-0.0339106836286448,-0.012809841171197774,0.025227560088524306,0.044163970417224224
75,1791353998.0674467,-0.03362607421874991,-0.011639794921875033,0.004885839843749913,0.035917532267222364,-0.03401299449247452,-0.013002717357720878,0.025612104048999766,0.04451892099823027
76,1791353998.1069853,0.014274316406250088,-0.07391030273437503,9.580078124991288e-05,0.0752761458693416,-0.03424230259294261,-0.01358051513023475,0.026273061581604164,0.045246430167914284
77,1791353998.1269853,0.04301455078125009,-0.12660073242187503,-0.009484277343750088,0.1340445767101419,-0.034254962440911176,-0.014129710711387113,0.02654316347737378,0.045580595696001085
78,1791353998.136657,-0.028836035156249915,-0.10744057617187504,-0.009484277343750088,0.1116465218822787,-0.034249881471611225,-0.014525224071881672,0.026640428742075756,0.04575750166605914
79,1791353998.156657,-0.043206152343749915,-0.05475014648437503,-0.004694238281250087,0.06990268960099463,-0.034349013799779615,-0.01546370611511101,0.026790124724452295,0.04622436304140579
80,1791353998.1668568,-0.024045996093749914,-0.07391030273437503,0.004885839843749913,0.07787691705124423,-0.03444343361046767,-0.015968953073970324,0.02685516320043977,0.04650330495437518
81,1791353998.1868567,0.004694238281250087,-0.07870034179687503,0.004885839843749913,0.07899146221564,-0.034629830734088755,-0.01703996401500031,0.02697822034501878,0.04708938227762739
82,1791353998.2117424,0.03822451171875009,-0.04517006835937504,0.014465917968749914,0.060915606821290706,-0.03474686744582898,-0.01840390416012298,0.02714448925302823,0.04777940751454299
83,1791353998.2317424,0.01906435546875009,-0.07870034179687503,0.009675878906249913,0.08155253571160266,-0.03474088479475274,-0.01952144962538436,0.027294284168444413,0.04830107680027948
84,1791353998.257212,-0.024045996093749914,-0.059540185546875034,-0.009484277343750088,0.06490912986498983,-0.034743924842636144,-0.02099521324626442,0.02745679665581639,0.04900831536918726
85,1791353998.277212,-0.06236630859374991,-0.040380029296875036,0.004885839843749913,0.07445787160942827,-0.034875572296390545,-0.0221287765285162,0.02755837012429191,0.04965331869630909
86,1791353998.2872705,-0.06236630859374991,-0.040380029296875036,0.028836035156249915,0.07969705224887437,-0.03502594866806662,-0.022674291756464616,0.02762723175607399,0.05004202754944228
87,1791353998.3072705,-0.014465917968749914,-0.04517006835937504,0.043206152343749915,0.06415893903908124,-0.03539534611858588,-0.023724585228503573,0.027851677114861778,0.0509058188150386
88,1791353998.3310695,0.014274316406250088,-0.04996010742187504,0.019255957031249913,0.055412636858936576,-0.03576931738862857,-0.024956710706626625,0.028190183636505356,0.051932339916497046
89,1791353998.3510695,-9.580078124991288e-05,-0.05475014648437503,0.009675878906249913,0.055598654214455805,-0.03601518358523298,-0.025993903829693934,0.028475382234251733,0.052760059499323456
90,1791353998.3761942,-0.019255957031249913,-0.07870034179687503,0.004885839843749913,0.0811690033886894,-0.03631418628273339,-0.027352891979892067,0.028807358093691622,0.05382160073222354
91,1791353998.3961942,-0.024045996093749914,-0.07870034179687503,-0.009484277343750088,0.08283661777148293,-0.0365814509452041,-0.028508514021826848,0.029025082604591648,0.05471191227870253
92,1791353998.4069977,0.028644433593750088,-0.08349038085937503,-0.02385439453125009,0.091434016702772,-0.03670043892774436,-0.029170531619024463,0.02909803729847479,0.05517733146002106
93,1791353998.4269977,0.03343447265625009,-0.07870034179687503,-0.01906435546875009,0.08760740499629784,-0.03679455637358794,-0.03045554737046441,0.029148458427892848,0.05595544989620171
94,1791353998.4517055,-0.019255957031249913,-0.05475014648437503,0.009675878906249913,0.05883870370647436,-0.03686711344485795,-0.03205221464770949,0.0291840071201466,0.05690548997388245
95,1791353998.4717054,-0.03362607421874991,-0.07391030273437503,0.009675878906249913,0.08177449694287489,-0.03699635868052485,-0.03334377822819424,0.02923749369898557,0.05775265483029562
96,1791353998.4969354,0.03822451171875009,-0.08828041992187503,9.580078124991288e-05,0.09620059779184921,-0.037126243498561876,-0.03503559164710775,0.02931333632810862,0.05886528964561549
97,1791353998.5169353,0.05738466796875009,-0.11223061523437504,-0.01906435546875009,0.1274839627686906,-0.037070346546348894,-0.03647630557408239,0.029335986456143097,0.0597103974426167
98,1791353998.5414197,0.009484277343750088,-0.05475014648437503,0.009675878906249913,0.05640170821351165,-0.036889387428424424,-0.038282126672687454,0.02934231556519674,0.06072330368281746
99,1791353998.5614197,0.014274316406250088,-0.04517006835937504,0.03362607421874991,0.058093063715225345,-0.03672810619984732,-0.039685822932408944,0.0294116628542438,0.061554563102189944
100,1791353998.572043,0.009484277343750088,-0.04517006835937504,0.038416113281249914,0.06005068152786953,-0.0366363603480404,-0.04039155145155633,0.029500371245573663,0.06199977606283638
101,1791353998.592043,-0.019255957031249913,-0.016429833984375034,0.043206152343749915,0.050074973053360644,-0.03650419998780385,-0.04161330532907006,0.029764761645049976,0.06285033677671606
102,1791353998.6174626,-0.004885839843749913,-0.021219873046875035,0.047996191406249916,0.0527047325447122,-0.036407447838127105,-0.04300499179200742,0.030224268148978436,0.06394089428728632
103,1791353998.6374626,0.0669647460937501,-0.07391030273437503,-0.009484277343750088,0.100184637477113,-0.036249624468946556,-0.04407840742678341,0.030589340905987236,0.06475066835549938
104,1791353998.6625323,0.05738466796875009,-0.12660073242187503,-0.04780458984375009,0.14698987848749337,-0.035847664060683945,-0.04559909954175713,0.030870596566999784,0.06570636673891797
105,1791353998.6825323,-0.05757626953124992,-0.10744057617187504,-0.009484277343750088,0.12226387748641375,-0.03557537872679174,-0.04698135529199052,0.030975385179105235,0.06657574485967727
106,1791353998.7074413,-0.09110654296874991,-0.09307045898437503,0.028836035156249915,0.1333942631105678,-0.03556489385320978,-0.04881924868771153,0.03112247050042474,0.06794695642390843
107,1791353998.7274413,0.04780458984375009,-0.14097084960937503,0.038416113281249914,0.15373307064309888,-0.035622690972365124,-0.05042464142136288,0.03132373186680267,0.06923002782499078
108,1791353998.7371228,0.03822451171875009,-0.09786049804687504,9.580078124991288e-05,0.10506093256729156,-0.035584005755302836,-0.05125861822622982,0.03143450726392765,0.06986984796735804
109,1791353998.7571228,-0.004885839843749913,-0.08828041992187503,-0.009484277343750088,0.08892275012219615,-0.03546606921388501,-0.05300223526482771,0.03161493854332399,0.07117993641223895
110,1791353998.7817748,0.004694238281250087,-0.10744057617187504,0.028836035156249915,0.11134195168362244,-0.03534286003316483,-0.05519091094080542,0.03183975788304763,0.07286236743237821
111,1791353998.8017747,0.02385439453125009,-0.06912026367187504,0.024045996093749914,0.07697306617683031,-0.03521507226537006,-0.05696505929042128,0.0320741159213186,0.07425542543646646
112,1791353998.811752,0.028644433593750088,-0.07391030273437503,-0.009484277343750088,0.07983224876531347,-0.03512160057251375,-0.0578243943673898,0.03218438903298658,0.07492010616755189
113,1791353998.831752,-0.014465917968749914,-0.07391030273437503,-0.01906435546875009,0.07768812832347313,-0.03494107021510283,-0.059510311044983444,0.0323294559809579,0.07620727808071956
114,1791353998.8566787,-0.004885839843749913,-0.11702065429687504,-0.01906435546875009,0.11866404094116455,-0.034785997318403525,-0.06165328983914278,0.03241185599536551,0.07785706240598624
115,1791353998.8766787,0.07654482421875008,-0.11702065429687504,-0.014274316406250088,0.14055852786513462,-0.034572749228801096,-0.0634658630048513,0.032418044845070354,0.07920934533099684
116,1791353998.901535,0.06217470703125009,-0.11702065429687504,-0.014274316406250088,0.13327896996659397,-0.03408887064296283,-0.06581696179510253,0.03237136164923274,0.08088157155172034
117,1791353998.921535,-0.004885839843749913,-0.08828041992187503,-0.004694238281250087,0.08854004656426671,-0.03367199844572635,-0.06773289960884758,0.03231098081612531,0.08225295526636864
118,1791353998.9320025,0.014274316406250088,-0.08349038085937503,0.028836035156249915,0.08947578850416306,-0.033479173775004124,-0.06872009485926622,0.03230307204203349,0.08298671566869169
119,1791353998.9520025,0.05259462890625009,-0.07870034179687503,0.009675878906249913,0.09515020452599944,-0.033065709993987405,-0.07056665334379972,0.03234799546777616,0.08437645733457731
120,1791353998.9772325,0.014274316406250088,-0.05475014648437503,-0.009484277343750088,0.057369732138641154,-0.03249583149491444,-0.07279918930108015,0.03239652820514492,0.08605368131106958
121,1791353998.9972324,-0.004885839843749913,-0.07391030273437503,-0.009484277343750088,0.07467634028257485,-0.03209776338775127,-0.07449646750622498,0.0324007768671067,0.08734872882300083
122,1791353999.0216725,0.03822451171875009,-0.10744057617187504,0.009675878906249913,0.11444742608241461,-0.031623178891629515,-0.07659185251775094,0.032405541171930424,0.08897447057419669
123,1791353999.0416725,-0.014465917968749914,-0.12181069335937504,0.03362607421874991,0.12719206212156156,-0.03125743006146309,-0.07839323474741303,0.03247380798970058,0.09042717729511524
124,1791353999.051181,-0.06236630859374991,-0.04517006835937504,0.028836035156249915,0.08222778390990444,-0.031164417571753835,-0.07924028428789233,0.032545940310325434,0.09115635911605893
125,1791353999.071181,0.01906435546875009,-0.06912026367187504,0.05278623046874992,0.08903620963747487,-0.031063077905146366,-0.08092611855153012,0.03279733548134356,0.09268018497733642
126,1791353999.111888,0.0717547851562501,-0.07870034179687503,0.07673642578124992,0.1312667971478159,-0.030610483606974055,-0.0842939841779768,0.03362769479901831,0.09577734248112
127,1791353999.131888,0.05259462890625009,-0.14576088867187503,0.06236630859374991,0.16703888201197872,-0.030234947460772946,-0.08603716205029631,0.034183122941881,0.09739112483016303
128,1791353999.1424594,-0.03362607421874991,-0.14097084960937503,0.024045996093749914,0.14690712452122445,-0.03005118402964874,-0.08704768991616026,0.03450118326398578,0.09833974592167166
129,1791353999.1624594,-0.05757626953124992,-0.14576088867187503,0.06236630859374991,0.168673708464481,-0.0298924776650154,-0.08910281574382144,0.03514227401402637,0.1003386835537907
130,1791353999.1870387,-0.004885839843749913,-0.10744057617187504,0.07194638671874992,0.12939718467187442,-0.0298418352716396,-0.09171640602694436,0.03605956893366445,0.1029695429656784
131,1791353999.2070386,0.028644433593750088,-0.11223061523437504,0.05757626953124992,0.12934929990119093,-0.02977117118005723,-0.09385357247009611,0.03688828932286809,0.1051454306567788
132,1791353999.2175121,-0.009675878906249913,-0.13139077148437503,0.024045996093749914,0.13392299052817,-0.029724816893125526,-0.09499624344636612,0.037321287688643894,0.10630488945946757
133,1791353999.237512,-0.009675878906249913,-0.12660073242187503,0.009675878906249913,0.1273380960866465,-0.02967860481183106,-0.09723795006018152,0.03807468922352852,0.10856205817389183
134,1791353999.2773256,0.014274316406250088,-0.15534096679687504,9.580078124991288e-05,0.1559954526646314,-0.029586679452942025,-0.1018729701887267,0.03937868036407736,0.1131554423054433
135,1791353999.2973256,-9.580078124991288e-05,-0.12181069335937504,-0.05738466796875009,0.134650860793257,-0.029526160468830703,-0.10426780563465526,0.03984953863392247,0.11546235392210688
136,1791353999.3068655,-0.03362607421874991,-0.06912026367187504,-0.10528505859375009,0.1303582267466223,-0.02952575103163969,-0.10537538541841034,0.03992405688269174,0.11648893571508542
137,1791353999.3268654,-0.047996191406249916,-0.10265053710937504,-0.07654482421875008,0.13674749457678526,-0.029647454696916573,-0.10760674672160075,0.0397841037149744,0.11849455016335686
138,1791353999.3379123,-0.08152646484374991,-0.17929116210937504,-0.0669647460937501,0.20802923472399212,-0.029811905386304516,-0.10888794885042626,0.03959949662086634,0.11963885338902669
139,1791353999.3579123,-0.11984677734374992,-0.20324135742187505,-0.0717547851562501,0.24661518322923334,-0.03036703708890923,-0.11143338094774224,0.03910732683110529,0.12193825627291346
140,1791353999.3817887,-0.11505673828124992,-0.20324135742187505,-0.04780458984375009,0.2383912355786923,-0.03135100580729136,-0.11474425775391683,0.038393799122757824,0.12499285605067514
141,1791353999.4017887,0.009484277343750088,-0.19366127929687504,-0.04780458984375009,0.1996995779308624,-0.03220994869960143,-0.11769695079870131,0.037742354759145634,0.1277283772906713
142,1791353999.4269793,0.03343447265625009,-0.23198159179687505,-0.009484277343750088,0.23457040395400838,-0.033048447814240954,-0.12166227212277717,0.036936682124152326,0.13137057070496405
143,1791353999.4469793,-0.05757626953124992,-0.21282143554687505,-0.01906435546875009,0.22129491609796798,-0.03365052536064876,-0.1250054908954443,0.03635014742705838,0.13446212786144487
144,1791353999.457539,-0.09589658203124991,-0.16492104492187504,-0.028644433593750088,0.19291347562911754,-0.03404228099920269,-0.12680506641020872,0.03604913082154113,0.13615410972833214
145,1791353999.477539,0.004694238281250087,-0.20324135742187505,0.004885839843749913,0.20335426395998263,-0.03480976311077054,-0.13025440625360327,0.035528892998208786,0.13942823313082917
146,1791353999.5019479,0.05738466796875009,-0.16492104492187504,0.019255957031249913,0.17567795267817804,-0.035492284971044265,-0.13450664833257067,0.035033406362649996,0.14345410520266827
147,1791353999.5219479,0.04301455078125009,-0.07870034179687503,0.009675878906249913,0.09020874686229773,-0.03581704158216442,-0.13783363471632498,0.03473171300947207,0.14658534447680688
148,1791353999.5471218,0.02385439453125009,-0.07870034179687503,0.038416113281249914,0.09076658910103054,-0.036038244619150804,-0.141690329633234,0.03449973347575937,0.15021696374478713
149,1791353999.5671217,-0.004885839843749913,-0.10744057617187504,0.05757626953124992,0.12199334265548425,-0.03615917064182344,-0.14457397408636596,0.0344870656965512,0.15296560824246724
150,1791353999.5768282,-0.028836035156249915,-0.12181069335937504,0.028836035156249915,0.12845574671363152,-0.03623360493000458,-0.14593044591963844,0.03454474696108923,0.15427867226267492
151,1791353999.5968282,0.02385439453125009,-0.13618081054687503,-0.02385439453125009,0.14029710416864968,-0.036371441784818166,-0.14869316101372362,0.03465324252782737,0.15695026322836156
152,1791353999.6224883,0.03343447265625009,-0.15534096679687504,-0.05259462890625009,0.16737644672108296,-0.036411507544612004,-0.15226708178522838,0.03462443629271398,0.16034311231122145
153,1791353999.6424882,0.02385439453125009,-0.15055092773437503,-0.03343447265625009,0.15605280497938856,-0.036352118217381414,-0.15509367075656175,0.034476308398478366,0.1629850884235188
154,1791353999.6666603,-0.014465917968749914,-0.15055092773437503,-0.009484277343750088,0.15154140074940836,-0.03627408632191754,-0.158543333849156,0.03424632694088078,0.16620652500860655
155,1791353999.6866603,0.009484277343750088,-0.14097084960937503,-0.028644433593750088,0.14416391896805858,-0.03622667969060323,-0.16140673112953718,0.03402739017136926,0.16888566681990178
156,1791353999.6968153,0.004694238281250087,-0.21761147460937505,-0.009484277343750088,0.21786863306001855,-0.036195420964945026,-0.16291563847836318,0.03390386038446201,0.17029705079246502
157,1791353999.7168152,-0.024045996093749914,-0.19845131835937505,0.019255957031249913,0.20082810452699099,-0.03617211969267455,-0.16606572863507532,0.033711722013959396,0.17327068035679355
158,1791353999.7422998,-0.07673642578124992,-0.12181069335937504,0.03362607421874991,0.14784125583117133,-0.036339511893481724,-0.17008970554423558,0.03360469357697165,0.1771449787241609
159,1791353999.7622998,-0.07194638671874992,-0.13618081054687503,0.019255957031249913,0.15521690502093233,-0.03667419819566961,-0.17316096624478336,0.03361262110105281,0.1801652722957596
160,1791353999.786781,0.004694238281250087,-0.17450112304687504,-0.004694238281250087,0.1746273566503912,-0.03714590608291347,-0.17692692040147376,0.03364760607341576,0.18388886561165638
161,1791353999.806781,0.004694238281250087,-0.20324135742187505,0.03362607421874991,0.20605775429983797,-0.037459380642314376,-0.18010863852552078,0.033715297595783476,0.1870268648125043
162,1791353999.816191,-0.10547666015624992,-0.10265053710937504,0.05757626953124992,0.15804266961708588,-0.0376558722746916,-0.1815969564564206,0.033806734279610846,0.18851608576897416
163,1791353999.836191,-0.1294268554687499,-0.07391030273437503,0.05278623046874992,0.15811524244650046,-0.038363210046609864,-0.18455060060182063,0.034137467874031845,0.1915620703073121
164,1791353999.8773122,-0.05757626953124992,-0.15534096679687504,0.019255957031249913,0.1667831965748118,-0.040176127216550214,-0.19041958255813288,0.03493766077692274,0.19772298490640217
165,1791353999.8973122,-9.580078124991288e-05,-0.21282143554687505,-0.004694238281250087,0.21287322161104139,-0.041012115536720746,-0.19339812861993724,0.035290312057650104,0.20082389275088122
166,1791353999.90731,-0.07673642578124992,-0.18887124023437504,0.009675878906249913,0.20409421124069319,-0.04142494608483836,-0.1949649436412197,0.03544389211705498,0.20244412783669763
167,1791353999.92731,-0.11984677734374992,-0.15055092773437503,0.03362607421874991,0.19534468190541626,-0.04242178316507876,-0.19813823361046817,0.035769987120863586,0.20576165649558756
168,1791353999.9522412,-0.043206152343749915,-0.17450112304687504,0.014465917968749914,0.18035153541805668,-0.04378289129352956,-0.20210837282557914,0.03620543408803225,0.20994182383157287
169,1791353999.9722412,0.02385439453125009,-0.18887124023437504,0.019255957031249913,0.19134306730925185,-0.04474002598012892,-0.20536057382297873,0.036552937724106775,0.21333249274751406
170,1791353999.9823613,-0.019255957031249913,-0.16492104492187504,0.024045996093749914,0.1677735165854644,-0.04514820597560073,-0.20702790042796138,0.03673526812717162,0.21505439307951918
171,1791354000.0023613,-0.07673642578124992,-0.19366127929687504,0.038416113281249914,0.2118229635809615,-0.04597786122134821,-0.21036657335534045,0.03713524251652723,0.21851106412380744
172,1791354000.027192,-0.05278623046874992,-0.20324135742187505,0.03362607421874991,0.21265970083951313,-0.04709461685949712,-0.21462906717332614,0.037691504785316333,0.22294436289311398
173,1791354000.047192,-0.009675878906249913,-0.21761147460937505,-0.014274316406250088,0.21829368434093743,-0.04795287707848706,-0.2181785873885783,0.0381013675921255,0.2266121987611661
174,1791354000.0725267,-9.580078124991288e-05,-0.14097084960937503,-0.02385439453125009,0.14297489904116475,-0.048895551326372494,-0.22268177209731937,0.0384702274772512,0.23120965586684278
175,1791354000.0925267,-0.043206152343749915,-0.15534096679687504,0.004885839843749913,0.1613116827657499,-0.04959305608205612,-0.22614795978093716,0.038689286490191016,0.2347322555886992
176,1791354000.1020875,-0.07194638671874992,-0.16492104492187504,0.06715634765624992,0.19205522291917537,-0.04995904842671695,-0.22778604212461467,0.03882995661589644,0.23641098332626634
177,1791354000.1220875,-0.038416113281249914,-0.17450112304687504,0.07194638671874992,0.19262066936375846,-0.05077535855211027,-0.23120782916795804,0.039288734356783796,0.23995583333608073
178,1791354000.1468375,-0.03362607421874991,-0.12181069335937504,0.019255957031249913,0.12782546602788475,-0.05176774366525108,-0.23535715269663682,0.039940605853078535,0.24427062984642695
179,1791354000.1668375,-0.014465917968749914,-0.15055092773437503,-0.009484277343750088,0.15154140074940836,-0.052521519351796754,-0.23861573308309875,0.04040301315380755,0.24764567741374477
180,1791354000.192179,0.01906435546875009,-0.21282143554687505,0.024045996093749914,0.21502237791869985,-0.053324607398441894,-0.24281590415306037,0.040928709057893156,0.2519488763400461
181,1791354000.212179,-9.580078124991288e-05,-0.21761147460937505,0.038416113281249914,0.22097638068149772,-0.05383489452485352,-0.24627917655312076,0.04137505758107976,0.2554672661262554
182,1791354000.2220502,-0.043206152343749915,-0.19366127929687504,-0.004694238281250087,0.19847795487734834,-0.05408103272185641,-0.24803660033645855,0.04158727917834685,0.25724776966222335
183,1791354000.2420502,-0.038416113281249914,-0.24156166992187506,-0.03343447265625009,0.24687183334046897,-0.05462735838994675,-0.2517160207078885,0.041895568324107874,0.2609604223074408
184,1791354000.2671757,0.009484277343750088,-0.24156166992187506,-0.02385439453125009,0.24292184757783852,-0.055265263536350466,-0.2565554380504272,0.04211681436639487,0.26579836003888774
185,1791354000.2871757,0.009484277343750088,-0.17450112304687504,-0.004694238281250087,0.17482170727456858,-0.05566841908229031,-0.2604538945339102,0.04222368712982307,0.2696628335826795
186,1791354000.3118646,-0.004885839843749913,-0.15055092773437503,0.03362607421874991,0.15433783120163594,-0.056082928046776996,-0.2651463635867873,0.04238939904009488,0.2743077652793977
187,1791354000.3318646,0.03343447265625009,-0.13618081054687503,0.06236630859374991,0.1534686729290908,-0.05632552201811783,-0.2688075365628566,0.04264749110421339,0.2779367997244858
188,1791354000.3424122,0.028644433593750088,-0.10744057617187504,0.06715634765624992,0.12989979220375353,-0.0563851619032985,-0.27064147128851984,0.04286564919079415,0.2797562445140843
189,1791354000.3624122,0.009484277343750088,-0.11223061523437504,0.024045996093749914,0.11516888660033205,-0.05642409250574471,-0.27392679220843585,0.04335406532150642,0.2830179158367927
190,1791354000.3873358,0.004694238281250087,-0.16492104492187504,-0.04780458984375009,0.17177387968283608,-0.05643882640673141,-0.2779248469166763,0.043827010138024744,0.2869640543299206
191,1791354000.4073358,0.08612490234375009,-0.20803139648437505,-0.0669647460937501,0.23490176233132043,-0.05631264759579739,-0.2812112874396131,0.043977444774594615,0.29014637359718226
192,1791354000.4325094,0.028644433593750088,-0.24156166992187506,-0.03343447265625009,0.24554105138072782,-0.05596096383613494,-0.2855762330211584,0.043948835830365865,0.2943075169119345
193,1791354000.4525094,-0.08631650390624991,-0.19845131835937505,0.019255957031249913,0.21726540563642668,-0.05580997690443502,-0.28918393576495066,0.04390824822030527,0.29777514417485657
194,1791354000.4620125,0.03822451171875009,-0.21282143554687505,0.004885839843749913,0.21628210317857632,-0.05578327263243163,-0.2909341547253464,0.0439090622551732,0.29947030176540823
195,1791354000.4820125,0.09570498046875009,-0.22240151367187505,-0.014274316406250088,0.24253996099391706,-0.055534607759147196,-0.2947179260201226,0.04389643576715177,0.3031000588083487
196,1791354000.5067322,0.03343447265625009,-0.12181069335937504,0.019255957031249913,0.12777519657461917,-0.05503394141794948,-0.2993312761989176,0.04389240637434095,0.30749713975287196
197,1791354000.5267322,-0.043206152343749915,-0.011639794921875033,0.23001767578124993,0.2343296558226953,-0.05470428590684501,-0.30270409664633807,0.04426354541511495,0.31077578811060774
198,1791354000.5516155,0.02385439453125009,0.12248129882812497,0.3018682617187499,0.326642232624896,-0.054391777145840106,-0.30606413173225216,0.0456486694092678,0.3141934422818795
199,1791354000.5716155,0.05738466796875009,0.06500083007812497,0.20606748046874993,0.22356635376430772,-0.05405641602921099,-0.308078448797645,0.047356874176474266,0.3163496487421042
200,1791354000.59684,0.09570498046875009,-0.016429833984375034,0.05757626953124992,0.11289114023878534,-0.053407275355386336,-0.31014598908623603,0.049686908157097885,0.3186089459657051
201,1791354000.61684,0.06217470703125009,0.0027303222656249676,0.1437969726562499,0.15668668800889957,-0.05273296852760972,-0.31155995445300283,0.051559291137295474,0.32016984819166133
202,1791354000.6275215,0.07654482421875008,0.05542075195312497,0.24438779296874993,0.2620228295661768,-0.05231572238294397,-0.3121552657325223,0.05272027965579216,0.3208695570165169
203,1791354000.6475215,0.1579754882812501,0.007520361328124968,0.32581845703124995,0.3621746507894077,-0.05129988833293951,-0.3130083015812064,0.055423320022462856,0.3219900927109961
204,1791354000.6725247,0.2154559570312501,0.08895102539062497,0.57490048828125,0.6203580625447815,-0.04952015225791518,-0.3137338618939157,0.059984734012817,0.32323265598188883
205,1791354000.6925247,0.08133486328125009,0.400303564453125,0.6659112304687499,0.7812144843532162,-0.047864901712175716,-0.31349329820894517,0.06494731204092415,0.32370858836178573
206,1791354000.71696,0.004694238281250087,0.481734228515625,0.3928790039062499,0.6216460524341425,-0.04598826235069543,-0.31162700956112654,0.07204133945741242,0.3231350614725443
207,1791354000.73696,-0.1342168945312499,0.189541845703125,0.23959775390624993,0.33368753307110505,-0.04487694063060361,-0.30932169203414056,0.07792547257608161,0.32212765829626006
208,1791354000.747328,0.1292352539062501,0.184751806640625,0.23001767578124993,0.3220917758667489,-0.044391115988869585,-0.30801481149857396,0.08088346345017168,0.3215366696676051
209,1791354000.767328,0.3208368164062501,0.338033056640625,0.20127744140624992,0.5076565951138113,-0.04291943017020728,-0.30508781908663285,0.08638045078904864,0.3199722442958023
210,1791354000.792514,0.3112567382812501,0.438623876953125,0.1390069335937499,0.5555129072721983,-0.04015012888738888,-0.3004876713729306,0.0929072553334956,0.31707511979088426
211,1791354000.812514,0.1483954101562501,0.419463720703125,0.17732724609374992,0.47897386457795826,-0.037591439804644744,-0.296095552540355,0.09778719166720719,0.3140828353076995
212,1791354000.8367562,-9.580078124991288e-05,0.419463720703125,0.24438779296874993,0.48546391783121795,-0.03468560787131223,-0.290045077537274,0.1035817017564913,0.30993290779744
213,1791354000.8567562,-0.043206152343749915,0.44341391601562496,0.12463681640624992,0.4626197234452378,-0.032712826055142676,-0.2845078249923045,0.10819867830579319,0.3061401402258226
214,1791354000.8674695,-0.019255957031249913,0.510474462890625,-0.014274316406250088,0.511036911830767,-0.031864772625952345,-0.28122016821065765,0.11038954408039912,0.30378610597789457
215,1791354000.8874695,0.10049501953125009,0.539214697265625,-0.05738466796875009,0.5514931901807398,-0.03039721839973653,-0.2744287644850357,0.11375853331652264,0.29862374581662265
216,1791354000.9118953,0.1723456054687501,0.481734228515625,-0.1340252929687501,0.5288985288344956,-0.02837393230571284,-0.26550833333603924,0.11690521489549567,0.291490281785058
217,1791354000.9318953,0.01906435546875009,0.27576254882812495,-0.1531854492187501,0.3160288196319651,-0.026678638244561206,-0.2581635914229058,0.11866444644871864,0.28537946759698396
218,1791354000.9573169,-0.09589658203124991,0.07458090820312498,-0.009484277343750088,0.1218540841761669,-0.02499349885163844,-0.24956021407410345,0.12025500555834535,0.2781478775676652
219,1791354000.9773169,0.11007509765625009,0.07937094726562498,0.047996191406249916,0.1439441168765886,-0.023845342134745626,-0.24357602299717127,0.12137641446797955,0.2731851264431216
220,1791354000.9870121,0.2250360351562501,0.05542075195312497,0.019255957031249913,0.2325585275733491,-0.023128568825870378,-0.24101222201185837,0.12188739351485119,0.27106891845593534
221,1791354001.0070121,0.2346161132812501,-0.11223061523437504,-0.08133486328125009,0.2724991588832273,-0.021182281745934076,-0.23660199941982357,0.12269023958897507,0.2673613473930411
222,1791354001.0318923,0.2825165039062501,-0.27030190429687506,-0.2920965820312501,0.4880564595210948,-0.018159285605999463,-0.23265240416800154,0.12284234780474729,0.26371792360978025
223,1791354001.0518923,0.3160467773437501,-0.36131264648437506,-0.2825165039062501,0.5569990744681028,-0.015195905667007587,-0.23090116776516417,0.12208436064768098,0.2616311448186361
224,1791354001.0769546,0.3112567382812501,-0.32299233398437505,-0.19150576171875008,0.4877286763248962,-0.010860336102429086,-0.23032210920289903,0.12038598341311428,0.26011344811499554
225,1791354001.0969546,0.3016766601562501,-0.3182022949218751,-0.2058758789062501,0.4844031227108249,-0.007000083655997734,-0.2308911199459996,0.11863788798736365,0.25968184169712594
226,1791354001.1073904,0.2585663085937501,-0.4475333496093751,-0.19629580078125008,0.5528785367119416,-0.004849479255311069,-0.23174282008964106,0.11754779355141597,0.2598956249746304
227,1791354001.1273904,0.2873065429687501,-0.4571134277343751,-0.1531854492187501,0.5612161057026733,-0.0005273292623606905,-0.234487211239132,0.11524780482866104,0.2612787531137605
228,1791354001.1527157,0.40705751953125013,-0.47148354492187505,-0.19629580078125008,0.653088507587895,0.005443587311667743,-0.2392048459996559,0.1121084629278176,0.2642288751302111
229,1791354001.1727157,0.39747744140625013,-0.572074365234375,-0.3016766601562501,0.7591219948520802,0.010658455307470255,-0.24393696398859932,0.10925417492777263,0.26749826131895676
230,1791354001.197154,0.4214276367187501,-0.5816544433593751,-0.3831073242187501,0.8140604193425116,0.017575738665963365,-0.250966538896491,0.10503449362418138,0.2726267688364926
231,1791354001.217154,0.4741180664062501,-0.6247647949218751,-0.2729364257812501,0.830429577017111,0.023730901045404006,-0.257666124103226,0.10111510711020152,0.27781154054630874
232,1791354001.227227,0.4789081054687501,-0.5672843261718751,-0.1627655273437501,0.7600375629503024,0.027085913604928475,-0.2614347793260331,0.09910805506220403,0.2808989091030404
233,1791354001.247227,0.4932782226562501,-0.538544091796875,-0.20108583984375009,0.757488388519518,0.034206403735861125,-0.26945383186289257,0.09517500231511666,0.287808489499214
234,1791354001.2719018,0.5747088867187501,-0.6008145996093751,-0.2729364257812501,0.8750787279413907,0.04364998232466991,-0.2799717998634356,0.090173239479659,0.2973562556832655
235,1791354001.2919018,0.5603387695312502,-0.6487149902343751,-0.3064666992187501,0.9103474682365063,0.05185878857079554,-0.28909253886477293,0.08585812719893945,0.3059990980140627
236,1791354001.3174982,0.4118475585937501,-0.6630851074218751,-0.2202459960937501,0.8110539871054455,0.06265504925799224,-0.30153280928224785,0.08015279901621104,0.3182328730054439
237,1791354001.3374982,0.3926874023437501,-0.6247647949218751,-0.3256268554687501,0.8065775188633273,0.071032249447572,-0.311726859751394,0.07554476385084964,0.32852127312752216
238,1791354001.3626306,0.5363885742187501,-0.6487149902343751,-0.3783172851562501,0.9228584990968032,0.081731422394465,-0.3250158402802516,0.0692959025552109,0.34222396752805284
239,1791354001.3826306,0.7184100585937502,-0.835526513671875,-0.4310077148437501,1.1832097098960035,0.0908507164260727,-0.3362310870544505,0.06385508288263925,0.35409415158527663
240,1791354001.3920383,0.7279901367187501,-0.974437646484375,-0.4357977539062501,1.2920596148612977,0.09551743871620666,-0.3419923585493462,0.06106807701157693,0.36029385844743556
241,1791354001.4120383,0.6465594726562501,-1.036708154296875,-0.2825165039062501,1.254040878060429,0.1060121095920919,-0.3554197922713105,0.0549544385203046,0.37494237748143266
242,1791354001.4367666,0.5603387695312502,-0.8882169433593751,-0.1388153320312501,1.0593293026804333,0.11927986299047628,-0.3731014122254843,0.04774787623328592,0.39460386364614675
243,1791354001.4567666,0.4645379882812501,-0.8403165527343751,-0.20108583984375009,0.9810010022122511,0.1299383701602037,-0.38784980801998553,0.0422837235732534,0.41121693411172777
244,1791354001.4823253,0.4836981445312501,-0.893006982421875,-0.4836981445312501,1.124895222098561,0.14333381016369598,-0.40719281066119767,0.03503564377731332,0.4331028313519772
245,1791354001.5023253,0.5651288085937501,-1.161249169921875,-0.39747744140625013,1.3512433242660975,0.1538168204394952,-0.4231398933123193,0.02889293261463988,0.4511560540628387
246,1791354001.526909,0.6130291992187501,-1.261839990234375,-0.2825165039062501,1.4310347777146717,0.16694187946239655,-0.4442692742004825,0.02122118343566768,0.47507380241755187
247,1791354001.546909,0.6752997070312501,-1.189989404296875,-0.4836981445312501,1.4512299513441342,0.17795049593046489,-0.4625582177332256,0.014766762290613546,0.4958271282039578
248,1791354001.571865,0.6609295898437502,-1.515712060546875,-0.5651288085937501,1.7474500117373524,0.19212758946852798,-0.48702028801248626,0.005957917915051276,0.5235811955720285
249,1791354001.591865,0.5699188476562501,-1.865384912109375,-0.4022674804687501,1.9915540387049018,0.20363127649096252,-0.5087554564148988,-0.0014937475019018258,0.5479963891111604
250,1791354001.6018026,0.6273993164062501,-1.793534326171875,-0.3112567382812501,1.9254287934144212,0.20938218198376154,-0.5206622456532272,-0.005172722518066733,0.5612101471277862
251,1791354001.6218026,0.7232000976562502,-1.7983243652343752,-0.3304168945312501,1.9662563993633444,0.22124607224983522,-0.546418805302686,-0.012428802824419959,0.5896421036646232
252,1791354001.631351,0.6609295898437502,-1.788744287109375,-0.5507586914062501,1.9848851814543276,0.227051758962285,-0.5594398499581997,-0.016004419700174532,0.6039715129201542
253,1791354001.651351,0.7471502929687501,-1.7216837402343752,-0.7711004882812501,2.0290452002600383,0.23950030115801865,-0.5878881094943387,-0.024353222400729558,0.6352683708330744
254,1791354001.6774418,0.9818622070312502,-1.870174951171875,-0.7088299804687501,2.228014291425962,0.25668738108899725,-0.6264619224538605,-0.0365068471038324,0.6779938803413917
255,1791354001.6974418,0.9531219726562501,-2.004296044921875,-0.5986590820312501,2.2987032924995154,0.2707884151620626,-0.6574071063844634,-0.04638699832651266,0.7125041915136491
256,1791354001.7212896,0.8860614257812501,-1.980345849609375,-0.7471502929687501,2.2945823355473367,0.28836982039254927,-0.695897955362367,-0.05880795639669316,0.7555722952347508
257,1791354001.7412896,0.8764813476562502,-2.2581681152343753,-0.8621112304687502,2.571143434962513,0.30354658574583837,-0.7296940292067132,-0.07007616095487743,0.7934132430909236
258,1791354001.751454,0.9195916992187502,-2.6796915527343756,-0.6082391601562501,2.897645697288676,0.31147203511146304,-0.7480579656140595,-0.07606483418786898,0.8138743192748804
259,1791354001.771454,1.1447235351562501,-2.9718839355468756,-0.5890790039062501,3.2387497852019056,0.3278237089286083,-0.7872487491869229,-0.08787678247467023,0.8572930106621564
260,1791354001.7965143,1.11598330078125,-2.7946524902343755,-0.8764813476562502,3.134281547912556,0.3494882271205345,-0.839827509297673,-0.10321173889442703,0.91548070941697
261,1791354001.8165143,0.7184100585937502,-2.243797998046875,-1.0297625976562501,2.571216341706701,0.366936297335312,-0.8830528458850665,-0.11647382238892226,0.9633227528869801
262,1791354001.9169633,0.8764813476562502,-2.143207177734375,-0.6896698242187501,2.4160300134558312,0.4534390865011486,-1.100636005697832,-0.18604450902771877,1.2048315988323177
263,1791354001.9369633,1.0872430664062502,-1.822274560546875,-0.6896698242187501,2.231238787288957,0.47102438564697363,-1.1434079545817875,-0.19988764609915963,1.2526774499200017
264,1791354001.9169633,0.8764813476562502,-1.587562646484375,-0.6800897460937502,1.9367748377247291,0.47102438564697363,-1.1434079545817875,-0.19988764609915963,1.2526774499200017
265,1791354001.9369633,0.6130291992187501,-1.712103662109375,-0.5555487304687501,1.9015094374808017,0.48846777420955173,-1.1836077206859508,-0.21348921036713456,1.2981161911985413
266,1791354001.9179642,0.5938690429687501,-1.625882958984375,-0.4789081054687501,1.7959757264495735,0.48846777420955173,-1.1836077206859508,-0.21348921036713456,1.2981161911985413
267,1791354001.9379642,0.5794989257812501,-1.750423974609375,-0.41663759765625014,1.8903412347112563,0.5043694665119026,-1.221972436149874,-0.22597858903233384,1.3411455984197254
268,1791354001.9620368,0.7040399414062501,-1.6115128417968752,-0.5507586914062501,1.842818768770028,0.5229556680383839,-1.2672927383630115,-0.24050291264237628,1.3918890639812354
269,1791354001.9820368,0.8429510742187502,-1.7264737792968752,-0.7279901367187501,2.0545675611393177,0.5384016355322461,-1.3043046857953307,-0.2526780392331693,1.433503828401645
270,1791354002.0065303,0.8094208007812501,-1.8893351074218752,-0.7184100585937502,2.177352105921976,0.5575158909346097,-1.349475393021647,-0.26800906613131287,1.4844987923686965
271,1791354002.0265303,0.6609295898437502,-1.9611856933593752,-0.6513495117187501,2.1696390098319984,0.5729878980629581,-1.386602452668434,-0.280704390979468,1.5263605236600812
272,1791354002.0370722,0.7471502929687501,-1.8845450683593752,-0.4789081054687501,2.0830498430053463,0.5810331395596738,-1.4062771607571853,-0.28728593194786534,1.548466392541025
273,1791354002.0570722,0.9962323242187502,-1.7168937011718752,-0.4214276367187501,2.029237314345541,0.5966220362802106,-1.44340691639942,-0.29924988356359256,1.5902615738606185
274,1791354002.0816803,1.11598330078125,-1.783954248046875,-0.5172284179687501,2.1668956419499215,0.6168239597431062,-1.4887001509377094,-0.3134947365451049,1.641639085352383
275,1791354002.1016803,1.0872430664062502,-1.8893351074218752,-0.4980682617187501,2.236013556961771,0.6340848463762934,-1.5254999050461957,-0.3248584204829876,1.683670557460307
276,1791354002.1265535,0.9722821289062501,-2.013876123046875,-0.4836981445312501,2.2880108112051736,0.6561736109017977,-1.5716828737750066,-0.3387026141929905,1.7365109628858475
277,1791354002.1465535,0.8764813476562502,-1.989925927734375,-0.5315985351562501,2.2384418136818076,0.6740436361842169,-1.6092529830398725,-0.3496875703794533,1.7794132133321519
278,1791354002.1865897,0.9483319335937501,-2.248588037109375,-0.6226092773437502,2.5185559213842286,0.7099295967319318,-1.6859070836567691,-0.3718446720061376,1.8666952582409877
279,1791354002.2065897,0.9866522460937501,-2.392289208984375,-0.6417694335937502,2.6661579698210254,0.7280697982147337,-1.7254168969823667,-0.38314948266605103,1.9115314869318698
280,1791354002.2013237,0.8429510742187502,-2.3012784667968753,-0.6465594726562501,2.5346574220101323,0.7280697982147337,-1.7254168969823667,-0.38314948266605103,1.9115314869318698
281,1791354002.2213237,0.7998407226562502,-2.2342179199218752,-0.7806805664062502,2.498186750842236,0.7459730211400583,-1.7667502682816585,-0.3951006841736939,1.9580568963583922
282,1791354002.2469046,0.8046307617187501,-2.516830224609375,-0.7758905273437501,2.7538829228260844,0.7685154851909287,-1.820802637441843,-0.411080278526331,2.018644419130498
283,1791354002.2669046,0.8573211914062502,-2.5934708496093752,-0.6896698242187501,2.817221173327669,0.7859891884983674,-1.8643890231138778,-0.4238979862982882,2.067223968691246
284,1791354002.2769802,0.8429510742187502,-2.162367333984375,-0.7375702148437501,2.4352430725563914,0.7947564804497921,-1.8866470739766739,-0.43046520300514163,2.0919788086785065
285,1791354002.2969801,0.7902606445312501,-2.0282462402343753,-0.6752997070312501,2.2791060509849728,0.8119988914024652,-1.9304878398926195,-0.44366502904644045,2.1407858738348593
286,1791354002.321862,0.6992499023437502,-2.157577294921875,-0.6034491210937502,2.346964220272427,0.833012014512821,-1.984659862153783,-0.46000989225864697,2.200998156687732
287,1791354002.341862,0.8381610351562502,-2.3012784667968753,-0.4501678710937501,2.4901902768186717,0.8496748947692113,-2.0283600127098236,-0.47275759375553966,2.249375804621094
288,1791354002.3665698,0.7663104492187501,-2.176737451171875,-0.4932782226562501,2.3598180101149713,0.8701455109765179,-2.0825469075030556,-0.4878920142764312,2.3091542715500495
289,1791354002.3865697,0.7184100585937502,-2.0186661621093753,-0.4789081054687501,2.1955589401830546,0.8864572197912144,-2.1261228305485784,-0.49976339933176234,2.3571101264920795
290,1791354002.3966005,0.6896698242187501,-2.085726708984375,-0.41663759765625014,2.23595332214013,0.8944703245019421,-2.1477873166070838,-0.5054979798288127,2.3808812919597395
291,1791354002.4166005,0.7950506835937501,-2.157577294921875,-0.4741180664062501,2.3477719893418283,0.910277912896822,-2.190868966863209,-0.5165530074357062,2.4280320669552395
292,1791354002.4422882,0.7711004882812501,-2.186317529296875,-0.5938690429687501,2.393169601623544,0.9305528116698036,-2.246271261552785,-0.5306796507714392,2.488630950447939
293,1791354002.4622881,0.6417694335937502,-2.205477685546875,-0.5747088867187501,2.3677605731606284,0.9460899379865932,-2.2895239010215738,-0.5417814557061373,2.53584956372723
294,1791354002.486547,0.7040399414062501,-2.1479972167968753,-0.4932782226562501,2.313630845102422,0.9645573335832904,-2.342038239938787,-0.5551705515373173,2.593015292743012
295,1791354002.506547,0.7663104492187501,-2.1479972167968753,-0.5315985351562501,2.3417345602201025,0.9797043361464639,-2.3852829326668554,-0.5660906015391081,2.6400480723439275
296,1791354002.5172634,0.7711004882812501,-2.124047021484375,-0.6034491210937502,2.3388720688086058,0.987838691961532,-2.408412269783619,-0.5719764031800981,2.6652264347284635
297,1791354002.5372634,0.6705096679687501,-2.186317529296875,-0.5315985351562501,2.347799939588258,1.002905011561481,-2.451568952149076,-0.583015893548643,2.712179256886752
298,1791354002.5611231,0.6896698242187501,-2.186317529296875,-0.5124383789062501,2.349089589080157,1.0206168751998712,-2.503156294420947,-0.596078660764112,2.7681690717982335
299,1791354002.581123,0.6992499023437502,-2.253378076171875,-0.6513495117187501,2.447635464385181,1.035319895912462,-2.546571638870025,-0.6071315185224602,2.815230555310301
300,1791354002.621394,0.5842889648437501,-2.143207177734375,-0.7423602539062502,2.3421847381686356,1.0643609613283533,-2.6341565245595344,-0.63025804071202,2.9101323079477908
301,1791354002.641394,0.6226092773437502,-2.1048868652343753,-0.6657196289062501,2.293768439049979,1.0784307499249643,-2.677501886764269,-0.6421328265088826,2.957087046890948
302,1791354002.6364357,0.6178192382812501,-2.1048868652343753,-0.4789081054687501,2.245351264303714,1.0784307499249643,-2.677501886764269,-0.6421328265088826,2.957087046890948
303,1791354002.6564357,0.5507586914062501,-2.023456201171875,-0.3687372070312501,2.1292433543561073,1.0919305822580245,-2.720378876038694,-0.653443224972835,3.003291806323654
304,1791354002.6820347,0.5842889648437501,-1.8941251464843751,-0.3831073242187501,2.01887961177795,1.1087970483417737,-2.774548730959247,-0.6671919561808439,3.061486021733795
305,1791354002.7020347,0.7423602539062502,-1.9180753417968752,-0.4501678710937501,2.1054127565762566,1.1219878335143227,-2.816240562443783,-0.6775722315351584,3.1063115962593604
306,1791354002.7264304,0.7758905273437501,-2.013876123046875,-0.4645379882812501,2.2076002110790953,1.1384421923385735,-2.8666616256857167,-0.6900083092525543,3.160682041634891
307,1791354002.7464304,0.6034491210937502,-2.066566552734375,-0.4262176757812501,2.1946547942165364,1.151977310025235,-2.907917865446525,-0.7000104392763845,3.205160315817598
308,1791354002.7721293,0.5603387695312502,-2.157577294921875,-0.4453778320312501,2.273209346599439,1.1690035289442904,-2.961119796804541,-0.7126147371575682,3.2623027856601725
309,1791354002.7921293,0.6321893554687501,-2.128837060546875,-0.5986590820312501,2.300000719135616,1.182055270099935,-3.0027428237026417,-0.7225186131900302,3.3069248968301035
310,1791354002.801898,0.6705096679687501,-2.1479972167968753,-0.5986590820312501,2.328490488429185,1.1884284050222271,-3.023156946256162,-0.7275076374765969,3.328829728019644
311,1791354002.821898,0.5268084960937501,-2.205477685546875,-0.5028583007812502,2.3226117806612376,1.2013152032113825,-3.0652127478191216,-0.7378420416118551,3.3738847468800124
312,1791354002.8466542,0.38789736328125013,-2.210267724609375,-0.4501678710937501,2.2887548778878726,1.2165722565333885,-3.117660084241045,-0.7504847709427567,3.4297346614065676
313,1791354002.8666542,0.5699188476562501,-2.205477685546875,-0.4741180664062501,2.3267417680636218,1.228485940029773,-3.160299082697434,-0.760552912724852,3.4749257157532636
314,1791354002.891648,0.7950506835937501,-2.124047021484375,-0.5028583007812502,2.32304709586873,1.2436998434487414,-3.213707878147381,-0.7730790953617921,3.531622702717035
315,1791354002.911648,0.7854706054687501,-2.042616357421875,-0.5315985351562501,2.252075189296113,1.2564185939401489,-3.256284682377067,-0.7831506552536844,3.5770522172182964
316,1791354002.9214087,0.5842889648437501,-2.056986474609375,-0.5076483398437501,2.1977929356766532,1.2626973983624352,-3.2769477756289573,-0.7880893837985351,3.5991493885204027
317,1791354002.9414086,0.4836981445312501,-2.205477685546875,-0.5220184570312502,2.317455282405566,1.275235116515382,-3.319330195453626,-0.7982356230447583,3.6443597049059058
318,1791354002.9669683,0.6369793945312501,-2.229427880859375,-0.5986590820312501,2.3946782918607292,1.291002984155949,-3.3738712585207624,-0.8114056588448989,3.702441777716101
319,1791354002.9869683,0.7519403320312501,-2.1719474121093754,-0.6992499023437502,2.4024404778956803,1.3035737256240651,-3.416749112691933,-0.8221120408198178,3.7482458783915766
320,1791354003.0110736,0.6561395507812501,-2.152787255859375,-0.6226092773437502,2.33509194494017,1.3189978221942702,-3.468495154361494,-0.8354702663222683,3.803711931349559
321,1791354003.0310736,0.5124383789062501,-2.100096826171875,-0.4357977539062501,2.2052028146596814,1.3316283482663038,-3.5113677554824774,-0.8464786051787658,3.8496056422929716
322,1791354003.0420403,0.5938690429687501,-2.0713565917968753,-0.3831073242187501,2.188599961721428,1.3384252383065196,-3.5347812370813583,-0.8522830215879865,3.8745898959045237
323,1791354003.0620403,0.6992499023437502,-2.1479972167968753,-0.5124383789062501,2.3163409855785337,1.3509010105794041,-3.57740431410402,-0.8626239666642793,3.9200606213192835
324,1791354003.0866365,0.6800897460937502,-2.167157373046875,-0.6178192382812501,2.3538890699189112,1.3664869256882874,-3.6299201609153138,-0.8755187756622291,3.9761966776347437
325,1791354003.1066365,0.5794989257812501,-2.143207177734375,-0.5076483398437501,2.2774685175913816,1.3791487087359737,-3.6726826915794373,-0.8861193853246385,4.021922037892256
326,1791354003.131538,0.5603387695312502,-2.124047021484375,-0.4453778320312501,2.24140953406139,1.3946775671916187,-3.7259082512508077,-0.8991179931983777,4.0787168299429
327,1791354003.151538,0.5555487304687501,-2.1384171386718753,-0.5411786132812502,2.2747168048713378,1.4069528267728375,-3.7686386137136685,-0.9094718741464799,4.12423233431402
328,1791354003.1616695,0.5220184570312502,-2.200687646484375,-0.6273993164062501,2.3471598345867406,1.4130572821463523,-3.7903351764646143,-0.9148181530595512,4.147320084794416
329,1791354003.1816695,0.5028583007812502,-2.253378076171875,-0.6609295898437502,2.40154265995166,1.4248373677182147,-3.8334213088814293,-0.9257212590003977,4.193118207873189
330,1791354003.20649,0.5890790039062501,-2.286908349609375,-0.6513495117187501,2.449738773578218,1.4392965739532437,-3.887323731745122,-0.9396655368983693,4.2503919518577185
331,1791354003.22649,0.6321893554687501,-2.330018701171875,-0.6992499023437502,2.5134838282563927,1.4510318053066904,-3.9311677060600547,-0.9512420823885231,4.297026219664935
332,1791354003.2515888,0.5507586914062501,-2.4976700683593753,-0.3447870117187501,2.580807817329256,1.4657765704144141,-3.987023765303234,-0.9655560895662988,4.356278000950717
333,1791354003.2715888,0.4980682617187501,-2.5216202636718754,0.024045996093749914,2.5704511194380446,1.477336771317986,-4.032385262374665,-0.9757324005434976,4.4039423880853645
334,1791354003.2968857,0.6226092773437502,-2.4641397949218753,-0.1771356445312501,2.547744939689927,1.4918916064548795,-4.090613663749192,-0.9869636124058792,4.464634126518697
335,1791354003.3168857,0.6178192382812501,-2.401869287109375,-0.38789736328125013,2.5102073715114193,1.5035333551063343,-4.137043190057814,-0.9953587349059487,4.512923433593198
336,1791354003.3271947,0.3926874023437501,-2.5695206542968756,-0.4405877929687501,2.6364289089848034,1.5094152760096606,-4.161229203598388,-0.9996774704491269,4.538008153943199
337,1791354003.3471947,0.3926874023437501,-2.6078409667968754,-0.3735272460937501,2.663561620769815,1.520292895231967,-4.20887908751214,-1.0080204354162547,4.587162397256783
338,1791354003.3722727,0.5220184570312502,-2.6605313964843753,-0.4357977539062501,2.74606086303092,1.5336068914566863,-4.269574256090594,-1.018434744215899,4.649561673321593
339,1791354003.3922727,0.4932782226562501,-2.636581201171875,-0.4501678710937501,2.7198409783450423,1.5441551637704207,-4.31866412689437,-1.0268233719656785,4.699961834732079
340,1791354003.4172242,0.4214276367187501,-2.5934708496093752,-0.4405877929687501,2.664171523021181,1.557052695667095,-4.380508196896907,-1.0373859153315905,4.763342807051946
341,1791354003.4372241,0.5363885742187501,-2.5599405761718756,-0.3495770507812501,2.6387899822677316,1.5672767942184878,-4.430374048324637,-1.0457676574046704,4.814374388333116
342,1791354003.4472847,0.6130291992187501,-2.373129052734375,-0.2202459960937501,2.460905239707954,1.5725156332009536,-4.455417580543502,-1.0497814250772994,4.839999201871301
343,1791354003.4672847,0.6034491210937502,-1.9995060058593752,-0.03822451171875009,2.088931837689461,1.5831927664081333,-4.5042942623113875,-1.0569514628089713,4.890021731222914
344,1791354003.492081,0.2633563476562501,-1.740843896484375,0.1390069335937499,1.7661305063230401,1.5960567869478282,-4.562758537204456,-1.0643201193516216,4.949640396276382
345,1791354003.512081,0.1196551757812501,-1.549242333984375,0.16295712890624992,1.5623777380524737,1.6054507083459466,-4.607776005998417,-1.0689190284856218,4.995163619726773
346,1791354003.5370486,0.1436053710937501,-1.424701318359375,0.11505673828124992,1.4365355554826464,1.615911827223977,-4.66111419124043,-1.073278453268421,5.0486714267612545
347,1791354003.5570486,-0.009675878906249913,-1.189989404296875,0.12463681640624992,1.1965378142688703,1.6232354863579692,-4.701353119328323,-1.0758871577859719,5.088727520026861
348,1791354003.5666468,-0.27791806640624994,-0.9265372558593751,0.11505673828124992,0.9741395131880904,1.6260159690367313,-4.719291255911962,-1.076778768801092,5.106377425007905
349,1791354003.5866468,-0.43598935546874995,-0.6391349121093751,0.019255957031249913,0.7739192114428379,1.629869770718903,-4.753410956385847,-1.0781564799734147,5.139436991062442
350,1791354003.6125517,-0.6994415039062499,-0.38526284179687503,-0.1196551757812501,0.8074424039814124,1.631906657324306,-4.792965617685252,-1.0798683458756237,5.1770410849206625
351,1791354003.6325517,-1.05390439453125,-0.21282143554687505,-0.03822451171875009,1.0758571231983596,1.6306133397351068,-4.819820332728713,-1.0812285703848556,5.201790376872532
352,1791354003.6565466,-1.1305450195312499,-0.0020597167968750326,-0.004694238281250087,1.1305566414351997,1.6253632565163183,-4.847593077515189,-1.0826929445936229,5.22620209837692
353,1791354003.6765466,-0.9772637695312499,-0.030799951171875034,0.07673642578124992,0.9807556226054985,1.6184819540429911,-4.867318871796993,-1.0836223649774137,5.242567526049924
354,1791354003.687213,-0.5222100585937499,0.10332114257812497,-0.1148651367187501,0.5445847991209029,1.6141629681840364,-4.876202976676734,-1.0840741930384161,5.2495804035769975
355,1791354003.707213,-0.23959775390624993,0.347613134765625,-0.1148651367187501,0.4375339698491097,1.6061366892104854,-4.889685997843527,-1.0851389084073126,5.259869834175983
356,1791354003.7314818,-0.4216192382812499,0.46257407226562497,-0.004694238281250087,0.625907014095789,1.5966546382062303,-4.902118085980263,-1.0864547031871277,5.2688188035533825
357,1791354003.7514818,-0.6611211914062499,0.414673681640625,0.043206152343749915,0.7816023692211795,1.5883884916911386,-4.909510710693493,-1.087318630282902,5.273379867097692
358,1791354003.7770305,-0.47909970703124993,0.44341391601562496,-0.1196551757812501,0.6636789821027806,1.57722810238487,-4.915893548701273,-1.0884031881202343,5.276199329917859
359,1791354003.7970304,0.03343447265625009,0.45299399414062497,-0.2106659179687501,0.5007010601974937,1.5691335340546093,-4.918796048830037,-1.089620329026954,5.276742089500822
360,1791354003.8223803,0.2202459960937501,0.524844580078125,-0.2250360351562501,0.6120550213433075,1.5608949971606993,-4.920064010067727,-1.0917600135970855,5.275922950784491
361,1791354003.8423803,0.1531854492187501,0.601485205078125,-0.2777264648437501,0.679986928591154,1.5559302604650542,-4.919224830351111,-1.093949060393432,5.274127079783861
362,1791354003.851845,-0.019255957031249913,0.5871150878906249,-0.004694238281250087,0.5874495333073699,1.5540282564610903,-4.9180435342220985,-1.0950300864565883,5.272688774868891
363,1791354003.871845,0.2777264648437501,0.793086767578125,-0.09091494140625009,0.8452124802397486,1.55099969953015,-4.91385146213976,-1.0971151724527892,5.268320222000727
364,1791354003.896546,0.7232000976562502,0.951158056640625,-0.2920965820312501,1.2300570894054954,1.5496746381072743,-4.9062193448182345,-1.1000136256788873,5.261417082891337
365,1791354003.9165459,0.7327801757812501,0.931997900390625,-0.39747744140625013,1.2504300015504235,1.5509466542021557,-4.898141931467084,-1.1030427995865209,5.254896128630577
366,1791354003.926913,0.40705751953125013,0.874517431640625,-0.3831073242187501,1.0379054794731069,1.5523933757925563,-4.893178354863844,-1.1049844005230613,5.251105610355971
367,1791354003.946913,0.3735272460937501,0.769136572265625,-0.2058758789062501,0.8794762918273107,1.5559365751284653,-4.882573640211309,-1.1090516972604987,5.243134524795754
368,1791354003.972013,0.7806805664062502,0.697285986328125,-0.2154559570312501,1.068686653287212,1.5618890811128336,-4.868500513664422,-1.1141836458921959,5.232895942976877
369,1791354003.992013,1.3459051757812501,0.591905126953125,-0.38789736328125013,1.5206172384754484,1.5691105317617,-4.857035135523113,-1.1185644944808675,5.225331060985969
370,1791354004.0167866,1.35548525390625,0.43383383789062496,-0.4357977539062501,1.4884460872889997,1.58173308181215,-4.8430576373804906,-1.124707439415644,5.21747579250401
371,1791354004.0367866,1.08245302734375,0.33324301757812497,-0.5315985351562501,1.2511404668343578,1.5940517533534693,-4.83231547155456,-1.130373905843536,5.212486832214237
372,1791354004.0473309,1.2501043945312502,0.12248129882812497,-0.7136200195312501,1.444650891414514,1.6014167977194789,-4.827141153568969,-1.1338979843253283,5.210715125139189
373,1791354004.0673308,1.6620477539062501,-0.14576088867187503,-0.8429510742187502,1.869282077819656,1.6176592698415242,-4.8188338101619115,-1.1419145128765344,5.2097936195190915
374,1791354004.0916054,1.7961688476562503,-0.19845131835937505,-0.8764813476562502,2.0084384500996473,1.6407121652649748,-4.810890035932761,-1.1533153210434948,5.212171867546125
375,1791354004.1116054,1.7195282226562503,-0.26551186523437503,-0.9435418945312501,1.9792789509887736,1.6621301139114026,-4.806022794578273,-1.1640295694286313,5.216847367527757
376,1791354004.1517363,1.9781903320312502,-0.25114174804687506,-0.9818622070312502,2.2226926375345344,1.7097892178251404,-4.799276439556395,-1.1880985023152797,5.231444500697299
377,1791354004.1717362,2.2655926757812503,-0.4571134277343751,-1.0058124023437502,2.5206192586499894,1.7363439408241652,-4.797480972156999,-1.2012759437325384,5.241543460855376
378,1791354004.1968153,2.26080263671875,-0.6870353027343751,-1.0632928710937501,2.591107446463106,1.773161346083654,-4.7977193160024,-1.2192130722524197,5.258202383889281
379,1791354004.2168152,2.4619842773437504,-0.816366357421875,-1.1447235351562501,2.835174171608988,1.8052024555851782,-4.8001359793860745,-1.2346839018349072,5.274893900705277
380,1791354004.212386,2.66316591796875,-0.9073770996093751,-1.2692645507812501,3.086554455601875,1.8052024555851782,-4.8001359793860745,-1.2346839018349072,5.274893900705277
381,1791354004.2323859,2.7110663085937503,-1.060658349609375,-1.3842254882812501,3.2235007160842533,1.8429480581191477,-4.807031839851065,-1.2529196393453186,5.298473391168843
382,1791354004.2569687,2.8403973632812503,-1.3768009277343751,-1.47044619140625,3.4821903994133434,1.8926189472276516,-4.818730425919478,-1.2772350396505874,5.332307075140971
383,1791354004.2769687,2.92182802734375,-1.668993310546875,-1.5710370117187502,3.713593271241732,1.9356115843328754,-4.831389129720634,-1.2986122833761775,5.364262017344214
384,1791354004.3017251,2.97930849609375,-1.7695841308593752,-1.6907879882812502,3.855706307850987,1.9918030905200141,-4.851092494677357,-1.3271606724292964,5.409411557070053
385,1791354004.3217251,3.27150087890625,-1.865384912109375,-1.7482684570312501,4.151965976361089,2.0397654178411697,-4.870075038594988,-1.3519231336782278,5.450318339394598
386,1791354004.3477614,3.4104120117187504,-1.9707657714843752,-1.6428875976562503,4.26777547139756,2.1058856604679734,-4.898570951699515,-1.385945819518893,5.509228403183228
387,1791354004.3677614,3.0942694335937504,-2.186317529296875,-1.4608661132812502,4.060617867703984,2.1588148856312324,-4.923412546141493,-1.412816043743999,5.558463994970813
388,1791354004.3779614,2.87871767578125,-2.1911075683593753,-1.43212587890625,3.8908806671510927,2.186329125558236,-4.937530150536708,-1.4266774680691765,5.585216883042194
389,1791354004.3979614,3.0703192382812503,-2.1144669433593752,-1.4033856445312503,3.9833807182838914,2.2411095889013093,-4.96751776980629,-1.4540330295730897,5.640302920402073
390,1791354004.421532,3.1709100585937504,-2.023456201171875,-1.2069940429687502,3.950427852462817,2.307019037145786,-5.004872811952399,-1.4860510344728346,5.707839904782822
391,1791354004.441532,3.2140204101562504,-1.9228653808593752,-1.2644745117187501,3.9530031951156825,2.3641328682451532,-5.037734190580293,-1.51285085788349,5.76685423015508
392,1791354004.4522526,3.18528017578125,-2.052196435546875,-1.4273358398437501,4.049050210604802,2.3953011140003673,-5.05590303552982,-1.527226063207555,5.7993139576635695
393,1791354004.4722526,3.04157900390625,-2.282118310546875,-1.03934267578125,3.942017252376857,2.4540652372975362,-5.091215046489829,-1.5537210047917556,5.861480683176201
394,1791354004.4970627,3.01283876953125,-1.8174845214843751,-0.7663104492187501,3.6010663895029356,2.5272936385788207,-5.136077422116517,-1.5850179248348506,5.939594787830547
395,1791354004.5170627,3.1373797851562504,-1.348060693359375,-0.9195916992187502,3.5363920091754064,2.5866954119944543,-5.171565651955031,-1.608991576479208,6.002077835224671
396,1791354004.5422645,3.1469598632812503,-1.2187296386718751,-1.0872430664062502,3.545526166696403,2.6621975590225033,-5.214427873178857,-1.6384624015518812,6.079647434609108
397,1791354004.5622644,3.0703192382812503,-1.194779443359375,-1.1878338867187501,3.5021861009477306,2.722453775484164,-5.246961033959968,-1.661754688926085,6.140340649972936
398,1791354004.571822,2.8739276367187503,-1.2043595214843752,-1.24052431640625,3.353929411553125,2.7511903644590663,-5.261895523406892,-1.672956540117622,6.168903995513646
399,1791354004.591822,2.7206463867187503,-1.2139395996093751,-1.2453143554687502,3.228989618596212,2.8106962414224785,-5.29208707655646,-1.6966101259535353,6.227735134612777
400,1791354004.6168234,2.90266787109375,-1.4007511230468752,-1.1878338867187501,3.4348993902346514,2.8844695127139435,-5.329070434622625,-1.7263060502107563,6.300737150995862
401,1791354004.6368234,3.1134295898437503,-1.223519677734375,-0.9387518554687502,3.4744350992447495,2.9436563652464462,-5.358153961712404,-1.7496879025986192,6.3589570238027395
