imu_index,t_imu,ax,ay,az,mag,vx,vy,vz,velocity
0,1791274375.8277645,-0.14506975446428597,0.1445320970184949,0.15069071867028067,0.2542488022041746,0.0,0.0,0.0,0.0
1,1791274375.8477645,-0.15464983258928597,0.1253719407684949,0.006989546795280657,0.1992072991041156,-0.0006345427123746579,0.0005891339185366428,0.0004286506557094389,0.0009661597240820276
2,1791274375.8277645,-0.09237932477678595,0.0966317063934949,-0.08881123445471935,0.16049629806355234,-0.0006345427123746579,0.0005891339185366428,0.0004286506557094389,0.0009661597240820276
3,1791274375.8477645,-0.16422991071428594,0.0774715501434949,-0.050490921954719346,0.18847450186880965,-0.0017928751834899045,0.001558992190617733,0.0004250751668427329,0.002413616989384897
4,1791274375.8732226,-0.307931082589286,-0.008749152981505104,0.13153056242028066,0.33496027847059534,-0.003947680412339204,0.002739565525166477,0.000575940224401498,0.004839535829677362
5,1791274375.8932226,-0.19776018415178595,-0.013539192044005104,0.04051982023278066,0.20232215891653985,-0.00614511649177951,0.0034944766139101183,0.0009347577046095238,0.007130749993446138
6,1791274375.9180324,-0.19297014508928595,-0.018329231106505105,0.03572978117028066,0.19710417263774985,-0.009189181742120188,0.004231170499478664,0.0014549822221028204,0.010220608502041784
7,1791274375.9380324,-0.12590959821428596,-0.06622962173150511,0.06926005460778066,0.15822940586835915,-0.011753329162989816,0.004609123402034362,0.001968930604105409,0.012777380509030425
8,1791274375.9478595,-0.13548967633928596,-0.08059973891900511,0.11237040617028066,0.1935997894916472,-0.013016915359367977,0.0046587584198376185,0.0023174511145249784,0.01401836991791738
9,1791274375.9678595,-0.10195940290178596,-0.1141300123565051,0.08363017179528066,0.1744000722336229,-0.0155589689073456,0.00445252778728951,0.0032143580237303537,0.016499654986121742
10,1791274376.0082667,-0.08758928571428595,-0.1380802076690051,0.09800028898278067,0.19063599702722178,-0.020498889414698074,0.003334033718530994,0.005305060491725699,0.02143510939774256
11,1791274376.0282667,-0.02531877790178595,-0.15245032485650512,0.15069071867028067,0.215846785374857,-0.02274655938452639,0.002427668979472627,0.006557690505992073,0.023797118423877665
12,1791274376.0371497,-0.01573869977678595,-0.1380802076690051,0.18901103117028067,0.2346039648527539,-0.02362247087920041,0.001891932370059626,0.007256910987344418,0.024784335690306306
13,1791274376.0571496,0.027371651785714053,-0.11892005141900511,0.06926005460778066,0.14031443658886267,-0.02528131125514601,0.0004811577493959063,0.008982461749850765,0.026833949218236737
14,1791274376.0676012,0.07527204241071406,-0.2195108717315051,-0.016960648517219346,0.23267695798065238,-0.02593769511811793,-0.0004107810882358388,0.009789932528969083,0.027726801980478343
15,1791274376.0876012,0.022581612723214052,-0.1620304029815051,-0.007380570392219343,0.16376279657738096,-0.0268585563617261,-0.0024338761334426993,0.011066812840508955,0.029150988822264905
16,1791274376.1127033,-0.04447893415178595,-0.0997598951690051,0.05488993742028066,0.12224286276675676,-0.027882194944305144,-0.005085060928972776,0.012518486267284856,0.030983659209134744
17,1791274376.1327033,-0.04926897321428595,-0.0997598951690051,0.04051982023278066,0.11841167272451553,-0.028716057977949412,-0.007179808811048377,0.01364472117755974,0.03259355851037912
18,1791274376.158203,0.008211495535714052,-0.11892005141900511,-0.012170609454719344,0.11982291526636787,-0.029698264239009606,-0.009868175352909288,0.01491947640939814,0.03466927400359562
19,1791274376.1782029,-0.03968889508928595,-0.06143958266900511,0.01656962492028066,0.07499722116151133,-0.030400294569236132,-0.011930986556833566,0.01577592485824848,0.03626852844062981
20,1791274376.2033262,-0.13069963727678596,-0.051859504544005106,0.07884013273278066,0.1612066063322331,-0.031470937952556316,-0.014347024285600918,0.016870168324856973,0.038481938890527326
21,1791274376.2233262,-0.13548967633928596,-0.013539192044005104,0.05967997648278066,0.1486689668650259,-0.03259468362736762,-0.01607995953019693,0.017818379619815694,0.040478057655189206
22,1791274376.2329705,-0.03968889508928595,0.0391512376434949,-0.016960648517219346,0.05827256130075641,-0.03318199680597302,-0.016771732546427526,0.018237933987169493,0.041412053327030914
23,1791274376.2529705,-0.09237932477678595,-0.018329231106505105,-0.007380570392219343,0.09446890058895085,-0.03441535766246391,-0.017959889953632006,0.01894097194544558,0.043194153637037984
24,1791274376.2779675,-0.17860002790178595,-0.07101966079400511,0.05967997648278066,0.20125471864977357,-0.03623367258812884,-0.01938966574829191,0.019785910332405465,0.04561052964761748
25,1791274376.2979674,-0.08279924665178595,0.0008309251434948962,0.026149703045280658,0.08683439786198635,-0.03786237269001117,-0.020467312206597848,0.020489281332944486,0.047668446421298444
26,1791274376.3223622,-0.04447893415178595,0.0487313157684949,0.0021995077327806568,0.06601480556719251,-0.039783841904287305,-0.021493912838822946,0.021270388728582598,0.04997171002130363
27,1791274376.3423622,-0.17860002790178595,-0.008749152981505104,0.03093974210778066,0.18147116929724258,-0.041457475377623225,-0.022149347421065106,0.021864428313098046,0.05183984067610435
28,1791274376.3530757,-0.24087053571428596,-0.05664954360650511,0.07405009367028066,0.25828511791949954,-0.04255657894198373,-0.022500333839184733,0.022219272107011242,0.05301908606422278
29,1791274376.3730757,-0.08279924665178595,-0.0422794264190051,0.05488993742028066,0.10796374564836884,-0.044786107795566354,-0.0232056618970031,0.022975737481965536,0.05542727404801996
30,1791274376.3981934,0.04653180803571406,-0.008749152981505104,-0.012170609454719344,0.048886404771322944,-0.04723445246617247,-0.02405472877227037,0.023863740314404646,0.058130900370456505
31,1791274376.4181933,-0.03968889508928595,-0.0422794264190051,-0.007380570392219343,0.058457087774220484,-0.04888126364339179,-0.024705932466836163,0.02443542689721908,0.05997375361005832
32,1791274376.4427886,-0.14027971540178596,-0.09017981704400511,0.09321024992028067,0.19104698020512517,-0.050934652780015216,-0.025630975631940528,0.025191335888526553,0.06233690054465659
33,1791274376.4627886,-0.07321916852678595,-0.09017981704400511,0.07405009367028066,0.13775653310976382,-0.05267418163558246,-0.026540894868743344,0.02596470245776297,0.06444497098402778
34,1791274376.4882987,0.032161690848214054,-0.08059973891900511,-0.0025905313297193435,0.08681821885179482,-0.0546386959495293,-0.02785415522658172,0.02693989074469164,0.06698506379624895
35,1791274376.5082986,-0.020528738839285948,-0.1428702467315051,-0.026540726642219344,0.14675744168576177,-0.05593040437042128,-0.029064520260167183,0.02754606210077369,0.06878765883683054
36,1791274376.5182962,-0.10195940290178596,-0.1093399732940051,0.05967997648278066,0.1609740637276941,-0.056571093679187785,-0.02976791514150426,0.027828471992899527,0.0697197336870332
37,1791274376.5382962,-0.03489885602678595,-0.05664954360650511,0.05488993742028066,0.08625547039351177,-0.05786581243768007,-0.031212955640031965,0.028480538007881376,0.07165083317085537
38,1791274376.5633729,0.022581612723214052,-0.07101966079400511,0.021359663982780656,0.07752391049175775,-0.059268834536736294,-0.03299313215423973,0.02931888859615321,0.07389816469442118
39,1791274376.5833728,-0.06842912946428595,-0.07580969985650511,0.07405009367028066,0.1261470282018199,-0.06028874451950827,-0.034420195825733906,0.0300303389410468,0.07563930098391021
40,1791274376.5928423,-0.10195940290178596,0.010411003268494897,0.10279032804528067,0.14515495295993777,-0.060820224085862316,-0.035040971069512455,0.030442259748281703,0.076509479738989
41,1791274376.6128423,-0.01573869977678595,0.043941276705994896,0.04051982023278066,0.06180937065618346,-0.06195090120564984,-0.03607387948858599,0.031396718962538525,0.07826233387244363
42,1791274376.6373858,-0.07321916852678595,-0.03269934829400511,0.08842021085778067,0.11936677806969966,-0.06329406183061788,-0.0371306133008754,0.032629664294324894,0.08030887683860088
43,1791274376.6573858,-0.16422991071428594,0.0056209642059948965,0.20817118742028068,0.2652136913581141,-0.06458057050277242,-0.03790317372599627,0.033928546132622944,0.08220977379630805
44,1791274376.682798,-0.10195940290178596,0.0726815110809949,0.2560715780452807,0.28504556649017676,-0.0664773504424024,-0.038588313047738965,0.03621616057352996,0.08497003184888179
45,1791274376.702798,0.013001534598214053,0.18285240951849493,0.27044169523278067,0.3267150962061719,-0.06787968068442582,-0.038663351878753555,0.03853628081991379,0.08710654836320392
46,1791274376.7128475,-0.010948660714285949,0.2594930345184949,0.3470823202327807,0.4335004557704915,-0.06847707933044495,-0.0383619975402,0.03999266120708461,0.08809180551746576
47,1791274376.7328475,-0.11153948102678596,0.2738631517059949,0.3470823202327807,0.45596953703974136,-0.06967137755599194,-0.03705218967595948,0.04349753642163447,0.09010550085918324
48,1791274376.757414,-0.09237932477678595,0.40319420639349496,0.3470823202327807,0.539968188631206,-0.07129404494213142,-0.03443716336106415,0.048435916786673826,0.09281593128085752
49,1791274376.777414,-0.020528738839285948,0.46546471420599494,0.3375022421077807,0.5753143425267435,-0.07258628357344453,-0.03132459273255842,0.05288012406592554,0.09511207175796789
50,1791274376.8025603,-0.06363909040178595,0.48462487045599495,0.3375022421077807,0.5939856583449095,-0.07412605815512133,-0.026206298252264122,0.058902758750456224,0.09823938901539188
51,1791274376.8225603,-0.19297014508928595,0.4415145188934949,0.36145243742028066,0.6023457576895485,-0.07555192793233899,-0.021356895148800428,0.06402275942575843,0.10130708025196827
52,1791274376.8471513,-0.17860002790178595,0.4319344407684949,0.2848118124202807,0.5473418489231718,-0.07772742423479542,-0.014677778911463069,0.07056567992186283,0.10600238136374318
53,1791274376.8671513,0.017791573660714054,0.45588463608099494,0.16985087492028067,0.4868230286451234,-0.07947257911891698,-0.0087287114624596,0.07577085992311088,0.11015127983412214
54,1791274376.8772993,0.08485212053571406,0.3888240892059949,0.21775126554528068,0.45365148335793,-0.08014712878828638,-0.005520012600834548,0.07831082025018436,0.11219009475161441
55,1791274376.8972993,-0.05884905133928595,0.2930233079559949,0.17943095304528067,0.34859910607995753,-0.08123812804017484,0.0008779613490531319,0.08316152781859287,0.11625938229977342
56,1791274376.9226902,-0.10195940290178596,0.27865319076849493,0.11237040617028066,0.3172860361699295,-0.08272166912757542,0.0088707484412359,0.0889516697123525,0.1217947628832012
57,1791274376.9426901,0.08485212053571406,0.37445397201849495,0.11237040617028066,0.4000534560564488,-0.08374060756976656,0.015201831270685345,0.0931654632057326,0.1261879097397003
58,1791274376.9680185,0.027371651785714053,0.0583113938934949,0.09800028898278067,0.11727524299693103,-0.08462426831138124,0.02283906959332021,0.09810106107943159,0.13155496217184487
59,1791274376.9880185,-0.16901994977678594,-0.12371009048150511,-0.03612080476721934,0.21254797681116847,-0.0854298384069684,0.02786695430159234,0.10150656839672587,0.13556698661535171
60,1791274376.9977617,-0.02531877790178595,-0.06622962173150511,-0.09360127351721935,0.11742487689234989,-0.0859054257720161,0.02981013913219346,0.10282195137637642,0.1372615760400485
61,1791274377.0177617,-0.0013685825892859476,-0.027909309231505103,-0.14629170320471935,0.14893644613264131,-0.0867752628101248,0.03305940467002509,0.1047571957991292,0.1399890729471404
62,1791274377.0570683,0.05611188616071405,-0.1859805982940051,-0.31873310945471933,0.3732668238311344,-0.08806697184791173,0.03785686561055208,0.10661919481726999,0.14337568311188353
63,1791274377.0770683,-0.08279924665178595,-0.7176749342315052,-0.4480641641422194,0.8501026536005898,-0.08866566246501603,0.03857626858351792,0.1062743080285248,0.14368004992040348
64,1791274377.0875578,-0.18818010602678595,-1.1583585279815052,-0.6300856485172194,1.3319963048443852,-0.08914574242922584,0.03742108644329237,0.10527236558085351,0.142932053993648
65,1791274377.1075578,-0.16422991071428594,-1.493661262356505,-0.5247047891422194,1.5916376930653633,-0.0904524092662407,0.031570888816310615,0.10191636117125598,0.13987603095995127
66,1791274377.1170483,0.032161690848214054,-1.5271915357940051,-0.4576442422672194,1.5946117439174359,-0.09107345278860095,0.027061030801418733,0.09986350649732043,0.13783828612113985
67,1791274377.1370482,0.06569196428571406,-1.4745011061065052,-0.49117451570471937,1.555545354838228,-0.09203912605536697,0.01448014470254742,0.09476307271114971,0.13289437634941928
68,1791274377.162909,0.07048200334821406,-1.3260098951690051,-0.5294948282047194,1.429557528740148,-0.092836365105531,-0.004779068119086037,0.08717761674291315,0.12744162208269547
69,1791274377.182909,0.32435407366071406,-1.2445792311065051,-0.4193239297672194,1.352780686466725,-0.09276818884691901,-0.021295286459064203,0.08076797438032582,0.12483145345950354
70,1791274377.2076948,0.4393150111607141,-1.2397891920440052,-0.4480641641422194,1.3895453986569604,-0.09127676353955644,-0.043311670920555566,0.0724036695129432,0.12429657983680041
71,1791274377.2276947,0.23813337053571407,-1.340380012356505,-0.2899928750797194,1.3919130530620532,-0.08923765743468677,-0.062282455505515893,0.06555969963789281,0.12704541701626942
72,1791274377.2373836,0.17586286272321405,-1.1248282545440051,-0.08402119539221935,1.1415892036896875,-0.08809716487180251,-0.07188556078392074,0.06246972974343957,0.12973477344908996
73,1791274377.2573836,0.3387241908482141,-0.8182657545440052,-0.12713154695471934,0.8946817047175758,-0.08532418617278699,-0.09164972842333405,0.05673136521217665,0.13747122340677945
74,1791274377.2976239,0.42494489397321406,-0.7655753248565051,-0.21335225007971936,0.9012230154390913,-0.07827702978293026,-0.1302307484471718,0.04588994719919731,0.15872374896874572
75,1791274377.3176239,0.24771344866071407,-0.8038956373565052,-0.15587178132971935,0.8555151434212639,-0.0742908889666106,-0.14888395921520947,0.04075602687921208,0.1713085614381969
76,1791274377.3274374,0.15670270647321405,-0.7080948561065052,-0.09360127351721935,0.7312422730289654,-0.07233070792270442,-0.1577766178135921,0.03843117498409473,0.1777699289754991
77,1791274377.3474374,0.15191266741071405,-0.8517960279815052,-0.11276142976721935,0.8725531914147441,-0.0684721684575133,-0.17552118272887304,0.03409429595159607,0.1914642119463884
78,1791274377.3575137,0.09443219866071406,-0.9859171217315053,-0.13192158601721934,0.9991763187368539,-0.06663360981693578,-0.18450895852135213,0.032052147876600365,0.19877357448960145
79,1791274377.3775136,-0.006158621651785948,-1.0050772779815051,0.006989546795280657,1.0051204490506425,-0.06339931540939638,-0.2026589774554166,0.028419384347897314,0.2142377085024219
80,1791274377.402465,0.036951729910714055,-0.8996964186065052,0.04530985929528066,0.9015941766372075,-0.0599119218251841,-0.2254704628498751,0.024664934929101188,0.23459481454111614
81,1791274377.422465,0.08485212053571406,-0.8709561842315052,-0.12234150789221936,0.8835904038432361,-0.05735317733872133,-0.243668412048124,0.02199139759608528,0.25129127232980114
82,1791274377.4478285,0.032161690848214054,-0.8709561842315052,-0.21814228914221936,0.8984348098340399,-0.05437239473278258,-0.2665984124552748,0.018461776677149024,0.27271213399980443
83,1791274377.4678285,-0.05405901227678595,-0.7751554029815052,-0.0025905313297193435,0.7770424611514687,-0.05240735532489837,-0.2844365319287862,0.01576493061188513,0.28965359418626785
84,1791274377.4777274,0.05611188616071405,-0.5883438795440051,0.05488993742028066,0.5935570483074109,-0.05157913189925158,-0.29295338049876823,0.014669185510674358,0.2978208773687349
85,1791274377.4977274,0.22376325334821406,-0.4398526686065051,-0.045700882892219345,0.4956096592343307,-0.049736961206450596,-0.30912217509705286,0.012801179476341039,0.3133594655388129
86,1791274377.5226169,0.15191266741071405,-0.3536319654815051,0.05967997648278066,0.3894800702515289,-0.047087028628738675,-0.3277067876145091,0.010851291169601924,0.3312501734848634
87,1791274377.5426168,0.05611188616071405,-0.2051407545440051,0.13153056242028066,0.25006311562082084,-0.044965037428244106,-0.34123859193611394,0.009806295671952122,0.3443280334975223
88,1791274377.5679288,0.05611188616071405,-0.14766028579400511,0.050099898357780656,0.1657169381347005,-0.04246924162682608,-0.3564653051690571,0.009026939145963954,0.3590997575938637
89,1791274377.5879288,0.07048200334821406,-0.1859805982940051,0.021359663982780656,0.20003182492601282,-0.04060312715804634,-0.3671923155377194,0.008610697756840329,0.36953072218805333
90,1791274377.6125226,0.017791573660714054,-0.1955606764190051,0.11716044523278066,0.22866370105884062,-0.03848976805230896,-0.3791083698269917,0.008431131619022137,0.38115049822606417
91,1791274377.6325226,0.013001534598214053,-0.2147208326690051,0.12674052335778066,0.24967426007697227,-0.03698276202692563,-0.3879605211563996,0.008672861290181452,0.3898157374786761
92,1791274377.64242,-0.05884905133928595,-0.3632120436065051,0.026149703045280658,0.3688766818785162,-0.03638288373089392,-0.39211312124861825,0.00888803514680422,0.3938977167396127
93,1791274377.66242,-0.14027971540178596,-0.4159024732940051,-0.012170609454719344,0.43909155033976227,-0.03565122027090736,-0.40041433495945655,0.009278588307364777,0.4021053858739102
94,1791274377.702834,-0.05405901227678595,-0.3775821607940051,0.06926005460778066,0.3876694727760807,-0.034983570342958153,-0.41707750415655864,0.010122439069464934,0.4186644938851633
95,1791274377.7228339,0.07048200334821406,-0.3105216139190051,0.05488993742028066,0.32311652810842667,-0.03467809067149097,-0.4251189776840052,0.010663627511567153,0.4266643037698599
96,1791274377.7325084,0.036951729910714055,-0.4063223951690051,-0.03133076570471934,0.40920036172872026,-0.034474534013663564,-0.42894551582585866,0.010903241602718777,0.4304667579732708
97,1791274377.7525084,0.05132184709821405,-0.4302725904815051,-0.03612080476721934,0.43482542088321957,-0.03398443683251877,-0.4369243469711075,0.011223110908210893,0.43838771098356555
98,1791274377.777427,0.0034214564732140524,-0.4446427076690051,0.12674052335778066,0.4623656606070855,-0.03336309517924871,-0.44700936745989933,0.011731223626620798,0.44840616891900215
99,1791274377.797427,0.036951729910714055,-0.3632120436065051,0.07884013273278066,0.37350259101314226,-0.03287864259856072,-0.45510136987491134,0.012386239920904506,0.45645556294180817
100,1791274377.8074791,0.10880231584821405,-0.4206925123565051,-0.07444111726721934,0.4408646207474066,-0.03256178900468383,-0.4591494253728661,0.012669391866633482,0.4604769032358616
101,1791274377.8274791,0.08964215959821406,-0.49733313735650514,0.011779585857780658,0.5054846436176641,-0.03172826935472899,-0.46737241163471166,0.013054257671147018,0.46862999037282843
102,1791274377.8530493,0.013001534598214053,-0.4638028639190051,0.16985087492028067,0.4940966061334206,-0.030625610255619204,-0.47815182846946347,0.013820827800061228,0.4793309027731253
103,1791274377.8730493,0.060901925223214054,-0.4398526686065051,0.07884013273278066,0.4509935488512895,-0.029781666639222028,-0.48667386528269313,0.014703508116187747,0.4878058957904563
104,1791274377.8835902,0.11359235491071405,-0.5069132154815051,-0.05528096101721935,0.5224176641107647,-0.029265636902116608,-0.49124015057309367,0.015117566462943016,0.4923432784695286
105,1791274377.9035902,0.06569196428571406,-0.5787638014190051,-0.06007100007971935,0.5855693785157065,-0.028164481421946184,-0.5002329614939361,0.015612313130002248,0.5012683892886426
106,1791274377.927717,-0.006158621651785948,-0.6170841139190052,0.08842021085778067,0.6234170882803807,-0.026927643084355326,-0.5116179833991614,0.01617091884609647,0.51258126918161
107,1791274377.947717,0.12796247209821407,-0.5643936842315052,0.03572978117028066,0.5798200085616003,-0.025873447709034762,-0.5214122089345612,0.016750743332762108,0.5223224237236715
108,1791274377.9729226,0.07048200334821406,-0.5643936842315052,-0.06486103914221934,0.5724638835725779,-0.024369008354173827,-0.5340380538340951,0.01731680390946364,0.5348741564225294
109,1791274377.9929225,0.017791573660714054,-0.6218741529815052,-0.03612080476721934,0.6231763111486353,-0.02322192549136903,-0.5443329843645297,0.017547112161178578,0.5451105913811609
110,1791274378.002239,0.027371651785714053,-0.6266641920440051,0.05488993742028066,0.6296587346663639,-0.022736181824646703,-0.5492816498910761,0.01765141716260394,0.5500353055930813
111,1791274378.022239,0.032161690848214054,-0.5308634107940051,0.006989546795280657,0.5318826835331868,-0.021760531469953815,-0.560047911819482,0.017934564633582624,0.5607573743356509
112,1791274378.047793,0.032161690848214054,-0.4925430982940051,-0.007380570392219343,0.49364719269392043,-0.020577653990225382,-0.5737019465147782,0.01824132570615325,0.574360609062029
113,1791274378.067793,-0.020528738839285948,-0.5404434889190051,0.10279032804528067,0.5505147094973346,-0.01977328496413754,-0.5843348912158636,0.01858851569931955,0.5849647688591442
114,1791274378.0923622,-0.020528738839285948,-0.5596036451690051,0.16027079679528067,0.5824640736647742,-0.019009023198343435,-0.5974648118270622,0.019435791332589783,0.5980830162437536
115,1791274378.1123621,0.022581612723214052,-0.5548136061065051,0.17943095304528067,0.5835439432166383,-0.018477135503222702,-0.6082212974146997,0.020531590855772577,0.6088481726902807
116,1791274378.12263,-0.01573869977678595,-0.5117032545440051,0.20338114835778068,0.5508646103072155,-0.018239761220646133,-0.6137365066754404,0.021304570879619702,0.6143769797574807
117,1791274378.1426299,-0.010948660714285949,-0.4254825514190051,0.26086161710778066,0.49920342347939606,-0.017886778657795276,-0.6242736525813124,0.023280734483027376,0.6249636171458586
118,1791274378.1678722,0.060901925223214054,-0.3201016920440051,0.4476731405452807,0.5537015247504775,-0.01741352871376781,-0.6369894237965266,0.026742142818534414,0.6377882871403512
119,1791274378.1878722,0.17107282366071405,-0.013539192044005104,0.35187235929528066,0.3914886689962831,-0.01674684666911574,-0.6460535915662076,0.030272619082473903,0.6469792357680945
120,1791274378.212703,-0.02531877790178595,0.16848229233099493,0.3470823202327807,0.38664384174808386,-0.015771850505633657,-0.6553305532191219,0.03530003998057118,0.6564700892451097
121,1791274378.232703,-0.20255022321428595,0.2115926438934949,0.4859934530452807,0.5674395794063645,-0.0154461396729622,-0.661111750307616,0.03999158791597509,0.6625003069656931
122,1791274378.257769,-0.18339006696428595,0.16848229233099493,0.5386838827327807,0.5934631622993429,-0.01582470848580005,-0.6665560022930024,0.046915902244918053,0.6683924202704158
123,1791274378.277769,-0.05405901227678595,0.15890221420599493,0.4428831014827807,0.47362192946158715,-0.016437629089082365,-0.6697572458164213,0.053084357057604135,0.672058712418705
124,1791274378.2874691,-0.23129045758928596,0.1205819017059949,0.5147336874202807,0.5770494257480677,-0.016897900429921956,-0.6708736419161281,0.05632399119556701,0.6734458957042854
125,1791274378.3074691,-0.19776018415178595,0.3121834642059949,0.5099436483577807,0.6297699026309911,-0.018348131141756076,-0.6721810510240527,0.06353867457703898,0.675426666958895
126,1791274378.332793,0.032161690848214054,0.4606746751434949,0.2656516561702807,0.53275353879894,-0.020223483866650325,-0.6721202884197213,0.07277666920059539,0.6763513251151704
127,1791274378.352793,0.12796247209821407,0.3026033860809949,0.08363017179528066,0.33902390648400893,-0.021242227418195377,-0.6709345823123126,0.07950208325620556,0.6759622971811079
128,1791274378.377898,0.022581612723214052,-0.0422794264190051,-0.016960648517219346,0.05084429889010118,-0.022045733913059445,-0.6691793197096452,0.08680338493937395,0.675145764963213
129,1791274378.397898,0.19023297991071406,-0.1428702467315051,-0.050490921954719346,0.24320737498412512,-0.022270611019438034,-0.6682684585598774,0.09164632289644838,0.6748909254995311
130,1791274378.4075496,0.4393150111607141,0.15890221420599493,0.021359663982780656,0.46765781075072776,-0.021907140923863415,-0.6678832218441237,0.09361178920227657,0.6747674324698818
131,1791274378.4275496,0.774617745535714,0.2930233079559949,-0.026540726642219344,0.82861313100566,-0.019446044311595252,-0.666526796287622,0.09706589797119274,0.6738381907830423
132,1791274378.4521835,0.6069663783482141,0.18764244858099494,-0.09360127351721935,0.6421674792129106,-0.014316887376992857,-0.6642186487892561,0.10046017904831332,0.6719253189440102
133,1791274378.4721835,0.30519391741071406,0.0966317063934949,-0.09839131257971935,0.33490575434915476,-0.00940898785781063,-0.6621993722437528,0.102514603125239,0.670153550693014
134,1791274378.4972565,0.8129380580357141,-0.07580969985650511,-0.3905836953922194,0.9050806703832832,-0.0020764785991872993,-0.6600084642978814,0.10378430197290095,0.668121744926943
135,1791274378.5172565,0.7602476283482141,-0.051859504544005106,-0.35226338289221937,0.8394970848950605,0.0052548719916562445,-0.6587144925847074,0.10353091127310184,0.6668215998374799
136,1791274378.5277202,0.8273081752232141,0.0678914720184949,-0.16545185945471935,0.8464173831869397,0.00976106422291807,-0.6581264710859844,0.1030119344866452,0.6662110693808201
137,1791274378.5477202,0.4488950892857141,-0.08538977798150511,-0.10797139070471935,0.46952746094267067,0.018996399815131803,-0.657197383218093,0.10175863891745189,0.6652999957229653
138,1791274378.5871978,0.7219273158482141,-0.2817813795440051,-0.42411396882971936,0.8834322010103696,0.037958030205893716,-0.6567256878298974,0.09808045237334274,0.6650933891195453
139,1791274378.6071978,0.8273081752232141,-0.2674112623565051,-0.20856221101721936,0.8941173278103133,0.04844720833457824,-0.6573463528019591,0.09554752477345538,0.6660185350482265
140,1791274378.6174974,0.6740269252232141,-0.3057315748565051,-0.18461201570471936,0.7628012114126842,0.05419845458084786,-0.6580607799793948,0.09413505109415218,0.6669654192464106
141,1791274378.6374974,0.46326520647321406,-0.9811270826690052,-0.39537373445471935,1.1547923595919456,0.0653970227770013,-0.6611702529876738,0.0909337364466744,0.6705906489416875
142,1791274378.6477225,0.6788169642857141,-0.8709561842315052,-0.5917653360172194,1.2528141756720144,0.0711393718234815,-0.6639418466093217,0.08878553944711436,0.6736189263354695
143,1791274378.6677225,0.8129380580357141,-0.8996964186065052,-0.5103346719547194,1.315584816443007,0.08292412112373204,-0.6712058211424071,0.08356084006436544,0.6814514496219514
144,1791274378.6927764,0.7650376674107141,-1.3260098951690051,-0.4576442422672194,1.5978182397017753,0.09843755686556267,-0.6831226752503387,0.07617872669301526,0.6943700313546154
145,1791274378.7127764,0.7698277064732141,-1.6038321607940051,-0.6444557657047194,1.8921510329783489,0.11126625123140574,-0.6956034285870148,0.0695165610149542,0.7078678271968902
146,1791274378.7385252,0.8656284877232141,-1.311639777981505,-0.7546266641422193,1.7433223993787736,0.12846329338897305,-0.7148916196591106,0.05952416152273028,0.7287770382031475
147,1791274378.7585251,1.071600167410714,-0.8422159498565052,-0.8025270547672194,1.5816776848083536,0.14272306993876016,-0.730856967632416,0.050591190072631374,0.7463787579657929
148,1791274378.7680228,1.263201729910714,-1.388280402981505,-0.8504274453922194,2.0606377477927182,0.1501421650125935,-0.7388902176806439,0.0458079566118546,0.7553805612985892
149,1791274378.7880228,1.2057212611607142,-1.8720743482940052,-0.7737868203922194,2.3573655144181838,0.1671251041047172,-0.7581595891920259,0.03481005068612016,0.7771412373144307
150,1791274378.8130581,1.0620200892857141,-1.6756827467315052,-0.7210963907047194,2.1108717020291525,0.189453064177748,-0.7853237503220024,0.020301354022328112,0.8081076669115895
151,1791274378.833058,1.3637925502232142,-1.3260098951690051,-0.7689967813297194,2.051728152515806,0.20825332062531163,-0.8082717918901873,0.008214255088060559,0.8347096555710224
152,1791274378.8581405,1.4116929408482142,-1.6852628248565051,-0.8216872110172194,2.3469464460940013,0.23351558792470217,-0.8383991591183491,-0.007662959959578448,0.8703455639971495
153,1791274378.8781404,1.4021128627232142,-1.824173957669005,-0.6492458047672194,2.3906173308707364,0.2548582185145494,-0.8640826383613827,-0.020630406515151255,0.9011199316045331
154,1791274378.8870022,1.311102120535714,-1.814593879544005,-0.5869752969547194,2.314363782422048,0.26469970205459853,-0.8761741518811947,-0.026335918225503508,0.9156640526313702
155,1791274378.9070022,1.545814034598214,-1.690052863919005,-0.8121071328922194,2.4300900616429963,0.2878644686061754,-0.904626855303986,-0.03937970040680307,0.9501402319801135
156,1791274378.932359,1.5410239955357141,-1.9199747389190052,-0.8504274453922194,2.6046659656816447,0.31869871547340356,-0.9421546997730265,-0.05659824938354174,0.9962066609805822
157,1791274378.952359,1.3781626674107141,-1.8720743482940052,-0.6875661172672194,2.4241992222172994,0.3437497498604346,-0.9730026270063034,-0.07044909971918148,1.0343408907809466
158,1791274378.9774413,1.5601841517857142,-1.781063606106505,-0.6779860391422193,2.462930617324039,0.37598172281720965,-1.0127587409462164,-0.08778296265745286,1.0838580957802928
159,1791274378.9974413,1.320682198660714,-1.852914192044005,-0.8983278360172194,2.4463207831150777,0.40214877918803427,-1.045155076320921,-0.10189574792175635,1.1244801099202915
160,1791274379.0379198,1.1386607142857141,-1.972665168606505,-1.1138795938297195,2.5354849317716806,0.45463120459117656,-1.112501694807092,-0.1322833184713294,1.209069240979384
161,1791274379.0579197,1.196141183035714,-2.116366340481505,-1.0516090860172194,2.648705700275349,0.4801747615487248,-1.1469191975627162,-0.14829359777314458,1.2521910551137085
162,1791274379.0529418,1.2919419642857142,-2.140316535794005,-0.9989186563297194,2.692193788425947,0.4801747615487248,-1.1469191975627162,-0.14829359777314458,1.2521910551137085
163,1791274379.0729418,1.1721909877232142,-2.442088996731505,-1.0851393594547194,2.918108601319425,0.5054984803410844,-1.1840867105386619,-0.1656015289892982,1.2980808596173845
164,1791274379.098125,1.0955503627232142,-2.4277188795440052,-1.0468190469547194,2.8617965812448225,0.5368853027209448,-1.2330644198232,-0.18815269899451612,1.3579746425653927
165,1791274379.118125,1.0524400111607142,-2.317547981106505,-0.9318581094547194,2.710538352058374,0.5612950395009193,-1.2732448405720203,-0.2063439365781306,1.4066919938544356
166,1791274379.1427584,0.9757993861607142,-2.422928840481505,-0.8600075235172194,2.7499784632929214,0.5905972847565413,-1.3240686169848666,-0.22869920370289093,1.4677418645730431
167,1791274379.1627584,1.1242905970982142,-2.7007511061065053,-0.9366481485172193,3.0717089116613416,0.6139694543161365,-1.3668285857497025,-0.24682198029821503,1.5185848555856596
168,1791274379.172601,1.229671456473214,-2.6720108717315054,-0.7977370157047193,3.0476414381849097,0.6254840106033681,-1.38868176868541,-0.2556832805143822,1.5443578737243222
169,1791274379.192601,1.1003404017857141,-2.6528507154815055,-0.7833668985172194,2.9769161251411114,0.6488667163204946,-1.4344133958703633,-0.27335997918953325,1.5979034651766018
170,1791274379.2323673,1.272781808035714,-2.5570499342315056,-0.6731960000797194,2.9345648317158273,0.6954628962239853,-1.527241430439863,-0.30757899484832363,1.7060890553978
171,1791274379.2523673,1.267991768973214,-2.6336905592315056,-0.6348756875797193,2.991186424589548,0.7191937857674774,-1.5747112513892572,-0.3241696312260235,1.7612612459676993
172,1791274379.2625768,1.081180245535714,-2.5666300123565056,-0.7833668985172194,2.893130491588361,0.7312895794795459,-1.5992907002187116,-0.33245439251486725,1.7897041978952437
173,1791274379.2825768,1.0141196986607142,-2.6720108717315054,-0.7881569375797194,2.9646706765032262,0.7545732855557219,-1.6480760020923693,-0.3486066683766011,1.8458228412238693
174,1791274379.2922454,1.114710518973214,-2.6336905592315056,-0.5821852578922194,2.918534765494789,0.7656846279353556,-1.6719700327083598,-0.35623758304235664,1.8731422677690976
175,1791274379.3122454,1.2488316127232142,-2.6241104811065052,-0.5726051797672194,2.9619947511577616,0.7887666713308279,-1.7218688702243308,-0.3713869709899876,1.9300035104297208
176,1791274379.3528914,1.191351143973214,-2.6528507154815055,-0.8312672891422194,3.0245561282401217,0.8360787644549776,-1.8241536929115085,-0.4018365740187444,2.046469405574972
177,1791274379.3728914,0.9374790736607141,-2.7438614576690052,-0.9653883828922194,3.0560787689875544,0.8590600131370262,-1.875028782665674,-0.41726692343966504,2.104240653393169
178,1791274379.3829408,0.8991587611607141,-2.5953702467315054,-0.7785768594547193,2.8549282165178163,0.8702595220362543,-1.90078158862547,-0.4251716148204817,2.1333291319909806
179,1791274379.4029408,1.272781808035714,-2.4851993482940054,-0.8264772500797194,2.9119158601386386,0.8924630929620087,-1.9519672020285328,-0.44095117470879464,2.1911422291972467
180,1791274379.413255,1.469173409598214,-2.4564591139190055,-0.8983278360172194,2.999942463913194,0.9043172259146398,-1.9782273768193182,-0.4492024763775277,2.221025903556078
181,1791274379.433255,1.263201729910714,-2.4564591139190055,-0.8216872110172194,2.881846606180562,0.9279538542775113,-2.0288789613473894,-0.4653823528944073,2.2790412303975733
182,1791274379.4585745,1.028489815848214,-2.317547981106505,-0.6636159219547194,2.620917022323703,0.9577406780629464,-2.0924499590182353,-0.48561378668452965,2.351900250272102
183,1791274379.4785745,1.1769810267857141,-2.2456973951690054,-0.8025270547672194,2.6594155000141964,0.9810482490984158,-2.1419774436176815,-0.5013967195242313,2.4087178552864312
184,1791274379.502694,1.2584116908482141,-2.3414981764190053,-0.7258864297672194,2.7555625202047564,1.0093457576181515,-2.201044827919949,-0.5203402302001976,2.476717817616636
185,1791274379.5226939,1.119500558035714,-2.442088996731505,-0.6252956094547194,2.7582738744734385,1.032857465416678,-2.2498524782358427,-0.5357188956371638,2.532908496735251
186,1791274379.5337589,0.9470591517857141,-2.370238410794005,-0.6109254922672194,2.6245344574012193,1.0456291439099952,-2.27679855322417,-0.5439768258449907,2.5637984994172247
187,1791274379.5537589,1.038069893973214,-2.446879035794005,-0.7737868203922194,2.7683121507507895,1.0682289046405395,-2.325423461449462,-0.5587411585128724,2.6193317754697345
188,1791274379.577323,1.0907603236607142,-2.5043595045440052,-0.8600075235172194,2.8637715607531518,1.094624302560202,-2.382870463040339,-0.5764146887959071,2.684870183238879
189,1791274379.597323,1.0524400111607142,-2.5474698561065052,-0.8312672891422194,2.8789300010353007,1.1168816830633446,-2.4318925191659364,-0.5917019147499499,2.7407365934464427
190,1791274379.6227202,0.9805894252232141,-2.5330997389190055,-0.6492458047672194,2.7927889328015754,1.1447785043723893,-2.4944837119731855,-0.6110228148824677,2.8118171515373294
191,1791274379.6427202,1.162610909598214,-2.4947794264190053,-0.6971461953922193,2.839295921764791,1.1666663692816275,-2.543921679135514,-0.6259750741030008,2.867837638393549
192,1791274379.6674743,1.3637925502232142,-2.4947794264190053,-0.6779860391422193,2.9229299642310345,1.1943838574912626,-2.6051961777040242,-0.6442585754118013,2.937459622760968
193,1791274379.6874743,1.229671456473214,-2.5330997389190055,-0.6875661172672194,2.898522613986375,1.2173091935275824,-2.6548186020047653,-0.658863200906773,2.9939946893250204
194,1791274379.6986575,1.081180245535714,-2.5666300123565056,-0.5630251016422194,2.8413971226748744,1.2301435699449363,-2.682680969533236,-0.6668535466450867,3.025677451356272
195,1791274379.7186575,1.153030831473214,-2.590580207669005,-0.6348756875797193,2.905796456975956,1.2530047717608428,-2.732771128275049,-0.680796740318898,3.082457331289107
196,1791274379.743136,1.306312081473214,-2.5666300123565056,-0.7642067422672194,2.979606151735278,1.2813031337756766,-2.7943496814401905,-0.6978708769381332,3.152324796664624
197,1791274379.763136,1.2440415736607142,-2.5810001295440053,-0.7594167032047194,2.964104389998558,1.3047815381456658,-2.8448366957399585,-0.7120140957529708,3.209753068425254
198,1791274379.7874546,0.9901695033482141,-2.5378897779815053,-0.8647975625797194,2.858180364285586,1.333122520284066,-2.9063536777003924,-0.7295941641424376,3.2796973943218966
199,1791274379.8074546,1.0620200892857141,-2.6289005201690054,-0.8504274453922194,2.960106662751807,1.3560125653011847,-2.9571073019959067,-0.7444563460084033,3.337284663298052
200,1791274379.8177326,1.224881417410714,-2.5810001295440053,-0.7642067422672194,2.957348153388594,1.3677741324589505,-2.983293285123854,-0.7521930067929622,3.3669926079451304
201,1791274379.8377326,1.119500558035714,-2.5426798170440055,-0.7594167032047194,2.880141642445999,1.3907445562336382,-3.034290908261247,-0.7672750228057454,3.4248799537023076
202,1791274379.8628037,1.071600167410714,-2.6001602857940056,-0.7642067422672194,2.914304784256738,1.4193401139227706,-3.0983003987244957,-0.786210206219168,3.4974445253770443
203,1791274379.8828037,1.0955503627232142,-2.5378897779815053,-0.7210963907047194,2.856763050575485,1.4419806185557582,-3.149410364064646,-0.8012775334034686,3.5552973759033715
204,1791274379.9081838,1.1338706752232142,-2.4181388014190053,-0.7402565469547194,2.771468514410477,1.4706456771151288,-3.2139743235170544,-0.8203117076191098,3.628407496065085
205,1791274379.9281838,1.1003404017857141,-2.5378897779815053,-0.7785768594547193,2.873641496614241,1.4931972642444624,-3.264654239667286,-0.8353393226652784,3.685837375484114
206,1791274379.9379873,1.071600167410714,-2.6001602857940056,-0.7115163125797194,2.9009336244874815,1.5041903478714853,-3.2895478842562103,-0.842696200471863,3.7140073736779207
207,1791274379.9579873,1.066810128348214,-2.5857901686065055,-0.7498366250797194,2.8959712723573996,1.5264607035418343,-3.3404940495215723,-0.8576455466412147,3.7715432727227154
208,1791274379.9828253,1.033279854910714,-2.6289005201690054,-0.7163063516422193,2.914083044958081,1.5538817677779861,-3.4039877487919097,-0.8761574983792094,3.843089005490813
209,1791274380.0028253,0.9470591517857141,-2.6815909498565054,-0.6588258828922193,2.919229796247994,1.5756202176020428,-3.4554108070919183,-0.8908904278838116,3.900785647838001
210,1791274380.0278914,1.028489815848214,-2.6049503248565054,-0.6923561563297194,2.8849461942090304,1.6024923994663156,-3.5201308882677056,-0.9091257608866166,3.97313641975598
211,1791274380.0478914,1.0859702845982142,-2.6289005201690054,-0.8312672891422194,2.963351938257258,1.6238889391217015,-3.5718751503670862,-0.9237784908993975,4.030964410244783
212,1791274380.0579405,1.038069893973214,-2.6672208326690052,-0.8312672891422194,2.9803794021894183,1.6346279833436972,-3.5979660663335915,-0.9312895104304355,4.060131600164712
213,1791274380.0779405,1.0955503627232142,-2.6384805982940054,-0.5726051797672194,2.913706772606521,1.6559955592225741,-3.650062388542102,-0.9461016441255573,4.118298805748758
214,1791274380.10261,1.023699776785714,-2.5666300123565056,-0.6348756875797193,2.8352456669572916,1.6823197158351706,-3.7143139691519007,-0.9638656982558867,4.189912286909952
215,1791274380.12261,1.038069893973214,-2.5570499342315056,-0.8743776407047193,2.8949317314042586,1.7035524823154164,-3.7662755842374533,-0.9783708793216841,4.247838557893988
216,1791274380.1476772,0.9997495814732141,-2.6672208326690052,-0.8264772500797194,2.9659114688032657,1.7300040261483776,-3.831454809992717,-0.9970216698587905,4.320533775087742
217,1791274380.1676772,1.028489815848214,-2.7199112623565056,-0.5965553750797193,2.9684317226329724,1.7509852734782563,-3.8837387062036384,-1.0118047979985252,4.3787126778603405
218,1791274380.177676,1.038069893973214,-2.6001602857940056,-0.7115163125797194,2.8887156453449974,1.7614509741390272,-3.9099462873865907,-1.0190678143649783,4.40782131157992
219,1791274380.197676,0.9757993861607142,-2.5810001295440053,-0.8456374063297194,2.8859744859790175,1.7822655874914228,-3.962276220365311,-1.0337521426080105,4.465954205225935
220,1791274380.2232494,1.004539620535714,-2.6768009107940056,-0.8073170938297194,2.9708793067446075,1.808686772691136,-4.029236812402774,-1.0528825501787316,4.54033685937513
221,1791274380.2432494,0.9422691127232141,-2.710331184231505,-0.7210963907047194,2.958673049476288,1.8291704709787728,-4.081829569349372,-1.0678921103525294,4.598650976587456
222,1791274380.2679117,0.9278989955357141,-2.5857901686065055,-0.7210963907047194,2.8402970525396847,1.8540995880135578,-4.14675057661183,-1.0862919137606482,4.670466330978564
223,1791274380.2879117,1.038069893973214,-2.590580207669005,-0.7354665078922193,2.8861056635839097,1.8742324726123256,-4.1992659399504335,-1.1011599572931674,4.728544707134342
224,1791274380.2969577,1.081180245535714,-2.5810001295440053,-0.7450465860172194,2.895791223030202,1.8834105522620161,-4.2229646155275375,-1.1078805682760593,4.754793876282466
225,1791274380.3169577,0.9183189174107141,-2.6480606764190053,-0.7546266641422193,2.902584431555003,1.903657848619743,-4.275344307910034,-1.1227598898527709,4.81280291784865
226,1791274380.3423712,0.9374790736607141,-2.6768009107940056,-0.6827760782047194,2.9172441280338512,1.9290636301277508,-4.3420675799981705,-1.141570387184516,4.88651412637367
227,1791274380.3623712,1.1290806361607142,-2.6097403639190055,-0.6157155313297193,2.9094111888046736,1.94915827853679,-4.394630904143148,-1.156101119329189,4.944549380535372
228,1791274380.4024966,1.0141196986607142,-2.5043595045440052,-0.6444557657047194,2.7776930221249523,1.9898760353281169,-4.499659096167702,-1.1846731736021903,5.060631299151378
229,1791274380.4224966,0.8129380580357141,-2.5378897779815053,-0.6588258828922193,2.745141955410431,2.0098675806459707,-4.551719935687119,-1.1987332650566855,5.118074198897149
230,1791274380.4326968,0.9997495814732141,-2.5618399732940054,-0.6300856485172194,2.821264113635989,2.019920888144433,-4.578190304489984,-1.2058145197712034,5.147222116305002
231,1791274380.4526968,1.1817710658482141,-2.5474698561065052,-0.7450465860172194,2.9053880868454107,2.0399482320231384,-4.629970367709875,-1.21967899286705,5.204385769795224
232,1791274380.4627469,1.0189097377232141,-2.5857901686065055,-0.8312672891422194,2.9009469412050786,2.0501612419021265,-4.6559562939593935,-1.2267890494601044,5.233173177044018
233,1791274380.4827468,0.8799986049107141,-2.6815909498565054,-0.7498366250797194,2.920202481217366,2.070285223000701,-4.70781335406821,-1.2411875831555328,5.290570299872926
234,1791274380.5075464,0.9422691127232141,-2.6720108717315054,-0.7115163125797194,2.9212614813656432,2.094884925946004,-4.772427366567906,-1.259081469415658,5.361892573406145
235,1791274380.5275464,1.1242905970982142,-2.6384805982940054,-0.8121071328922194,2.980793050446772,2.1148477280224434,-4.8246856579177395,-1.273633066217858,5.419623030968328
236,1791274380.5526268,1.004539620535714,-2.6336905592315056,-0.8264772500797194,2.9374292256853667,2.140130874692095,-4.890305935303327,-1.2922261332545255,5.4922764570931095
237,1791274380.5726268,0.8704185267857141,-2.7821817701690055,-0.7689967813297194,3.0148830597102805,2.16008068967012,-4.942908363365444,-1.3072220638047627,5.55041630858549
238,1791274380.597393,0.9805894252232141,-2.7390714186065055,-0.7306764688297194,2.999659307186087,2.184517345910649,-5.008531364374312,-1.3257918436317286,5.622741900100531
239,1791274380.617393,1.105130440848214,-2.5810001295440053,-0.7977370157047193,2.918777022353885,2.20441969693584,-5.061556309463199,-1.340831103065112,5.681253956746892
240,1791274380.6276312,1.1674009486607142,-2.5762100904815055,-0.7163063516422193,2.9176665667337054,2.214824653291587,-5.088588694823164,-1.3485376033060916,5.711193992278747
241,1791274380.6476312,1.042859933035714,-2.5474698561065052,-0.5678151407047194,2.8106179999630103,2.2354169648264026,-5.141160166999986,-1.3632600521006706,5.769496931192054
242,1791274380.6722794,1.0189097377232141,-2.5235196607940056,-0.6540358438297194,2.798944697034069,2.260799838031332,-5.205605666290768,-1.3809412705175126,5.840937001302066
243,1791274380.6922793,1.0907603236607142,-2.5953702467315054,-0.8360573282047193,2.9367833861788983,2.281471039012645,-5.257732387945234,-1.3953712359176424,5.898806731121817
244,1791274380.7024982,1.1674009486607142,-2.5666300123565056,-0.7402565469547194,2.915200567812173,2.2921792684008087,-5.284327354059555,-1.4028463071073376,5.928421302902926
245,1791274380.7224982,1.1290806361607142,-2.470829231106505,-0.6205055703922194,2.7865475655605128,2.313438083078329,-5.3361266361676405,-1.4173228966124995,5.986238170563961
246,1791274380.7477484,1.0189097377232141,-2.5857901686065055,-0.8216872110172194,2.8982163001471277,2.3403194362542066,-5.40129027378002,-1.4355893962414232,6.059038587097847
247,1791274380.7677484,0.9039488002232141,-2.6480606764190053,-0.8264772500797194,2.9176040554401834,2.3613019000298494,-5.453013207469681,-1.4503597705355147,6.116751030400958
248,1791274380.7926512,0.9997495814732141,-2.6432706373565056,-0.7642067422672194,2.927522985886466,2.3870646882146307,-5.51763793511522,-1.4689632434939466,6.188720321640009
249,1791274380.8126512,1.0620200892857141,-2.5474698561065052,-0.8504274453922194,2.8880298090037213,2.4077443829711758,-5.569540299011931,-1.4840849080492384,6.2465606673069844
250,1791274380.8223817,1.071600167410714,-2.6528507154815055,-0.8791676797672194,2.9931387616635288,2.417853571220952,-5.594799677486034,-1.4916007184223137,6.274764698876102
251,1791274380.8423817,1.1338706752232142,-2.6384805982940054,-0.6731960000797194,2.94965005216354,2.4388232170245003,-5.646866527208284,-1.507059896044112,6.332944796085592
252,1791274380.8675036,1.1817710658482141,-2.6097403639190055,-0.6875661172672194,2.9461966643043445,2.465575153584297,-5.712345820605333,-1.5261292685736265,6.406170943438562
253,1791274380.8875036,1.076390206473214,-2.6289005201690054,-0.8791676797672194,2.9736626625566647,2.4870654017597142,-5.764513548707183,-1.5413835929047162,6.464593888740015
254,1791274380.9123561,1.109920479910714,-2.6432706373565056,-0.8983278360172194,3.004296262854194,2.513839256944951,-5.829441820718497,-1.5608088540258753,6.537423347902818
255,1791274380.932356,1.2919419642857142,-2.5187296217315054,-0.8839577188297194,2.9655512464209424,2.535756294948821,-5.881598009091643,-1.5767698337590845,6.596169967229166
256,1791274380.9579432,1.2488316127232142,-2.6145304029815053,-0.9031178750797194,3.03495824046065,2.5644658457814993,-5.948166247253942,-1.597556087102599,6.671532974556105
257,1791274380.9779432,1.1242905970982142,-2.7965518873565056,-0.8552174844547193,3.133070179730699,2.5871000688805204,-6.0005106093382325,-1.6140039146930927,6.730841178918642
258,1791274380.9874732,1.2584116908482141,-2.710331184231505,-0.6396657266422193,3.055923322618212,2.5979706172246275,-6.025647627379011,-1.6217342248982884,6.759282695190908
259,1791274381.0074732,1.382952706473214,-2.6336905592315056,-0.7354665078922193,3.064277261338785,2.6213238287510716,-6.078503723175685,-1.6375864509935474,6.819181440049567
260,1791274381.0324905,1.143450753348214,-2.7342813795440053,-1.1426198282047193,3.176374404830175,2.6508940491214044,-6.144774051355657,-1.6579649299830297,6.894514856821669
261,1791274381.0524905,0.9614292689732141,-3.0312638014190054,-1.2384206094547194,3.4127103713842706,2.674145222811018,-6.198455047787355,-1.6753842783821309,6.9554877709887135
262,1791274381.0622442,1.1003404017857141,-2.9258829420440056,-1.1426198282047193,3.328230770567542,2.6852918392128315,-6.225065401013218,-1.6843469672535676,6.985646442150589
263,1791274381.0822442,1.196141183035714,-2.8588223951690055,-1.1330397500797194,3.2996057782914976,2.7081642851189063,-6.280122325520265,-1.7033817562468136,7.048091913859109
264,1791274381.106825,1.1386607142857141,-2.8684024732940054,-0.9893385782047194,3.240844302551568,2.736363311965456,-6.348198381839543,-1.7271799970602009,7.125339122631682
265,1791274381.126825,1.1386607142857141,-2.9929434889190056,-0.7163063516422193,3.281364615449388,2.759281502597836,-6.40407122509784,-1.746197126850536,7.1885302442520045
266,1791274381.15233,1.344632393973214,-2.8157120436065055,-0.7737868203922194,3.2148120677335963,2.7888740146598274,-6.475746096899073,-1.7696612053381633,7.269443346146066
267,1791274381.17233,1.359002511160714,-2.6815909498565054,-0.9174879922672194,3.1431834282535873,2.8126540515753495,-6.531766201520456,-1.7878378583937695,7.332895521761797
268,1791274381.1981366,1.315892159598214,-2.6576407545440053,-0.7737868203922194,3.06486094290067,2.8439128817295214,-6.603542256694407,-1.8110471888124533,7.414479262559257
269,1791274381.2181365,1.311102120535714,-2.6720108717315054,-0.6444557657047194,3.045316749219145,2.868444933515962,-6.658818766029595,-1.8284635558251228,7.477374049117908
270,1791274381.2271738,1.2488316127232142,-2.6911710279815053,-0.8695876016422194,3.091628130243637,2.879602404404434,-6.683684709064786,-1.8361791093326818,7.505684846780339
271,1791274381.2471738,1.2057212611607142,-2.8588223951690055,-1.1617799844547194,3.3130593081039827,2.90427255001689,-6.738785019655711,-1.8537398864249757,7.568512017063902
272,1791274381.2726963,1.1674009486607142,-2.9115128248565054,-0.9605983438297194,3.2806220572333906,2.935575001329013,-6.809598149558129,-1.8768507925880633,7.649235023486451
273,1791274381.2926962,1.3302622767857142,-2.7917618482940054,-0.8935377969547194,3.218997007953839,2.9601714007312068,-6.865320198200379,-1.8950256853839484,7.712740012070285
274,1791274381.3179808,1.430853097098214,-2.6959610670440055,-0.9701784219547194,3.2026228049708183,2.991838544127535,-6.935605335831095,-1.9180905459431619,7.793124571760191
275,1791274381.3379807,1.1817710658482141,-2.9354630201690055,-1.0037086953922194,3.3197826947048377,3.0170487939470165,-6.991308484094467,-1.9365589697534933,7.85692295928636
276,1791274381.3474975,1.0955503627232142,-2.8636124342315052,-0.8456374063297194,3.1805045816241657,3.028870798753585,-7.017977336451195,-1.945348701138796,7.8873598738429065
277,1791274381.3674974,1.239251534598214,-2.8779825514190054,-0.7977370157047193,3.2334056779967693,3.053490985806536,-7.0742290594896025,-1.9635151106549573,7.951346777515068
278,1791274381.3930838,1.263201729910714,-2.9546231764190054,-0.9797585000797194,3.3593754543903267,3.085065660998775,-7.146591038425853,-1.9866806310166656,8.033572899578324
279,1791274381.4130838,1.2057212611607142,-2.9977335279815054,-1.0803493203922194,3.4069524091879178,3.1097477519687455,-7.203598000073714,-2.005162325297099,8.098335086814545
280,1791274381.4377606,1.191351143973214,-2.9689932936065055,-1.0468190469547194,3.3660167621082753,3.140069870556348,-7.27442788490073,-2.028482157316588,8.17875783399587
281,1791274381.4577606,1.2967320033482141,-2.9067227857940052,-0.8839577188297194,3.3033214331397085,3.1646910668457644,-7.332036549847505,-2.0474434809027486,8.244152735385502
282,1791274381.4678574,1.3302622767857142,-3.0168936842315053,-0.9031178750797194,3.418606020483139,3.177245680218917,-7.361242942344858,-2.056933328039281,8.277304058972977
283,1791274381.4878573,1.157820870535714,-3.0839542311065054,-1.0228688516422193,3.449287398212516,3.202116030212688,-7.4195690697111285,-2.0758003808744863,8.34341054200246
284,1791274381.5129454,1.119500558035714,-3.0839542311065054,-1.1809401407047193,3.4869291382145517,3.232918913663087,-7.493364526889911,-2.1000639629371336,8.426894165919007
285,1791274381.5329454,1.162610909598214,-3.1126944654815056,-1.1138795938297195,3.50446268522098,3.2572144875228055,-7.5526641938820935,-2.1199474887151593,8.493901341444154
286,1791274381.5578392,1.234461495535714,-3.0456339186065056,-1.0324489297672195,3.4446671744457644,3.287394271599757,-7.626900198227574,-2.144991241542002,8.577736015812249
287,1791274381.5778391,1.272781808035714,-2.9546231764190054,-1.0420290078922194,3.3816558220475126,3.3117649494839823,-7.686596445890114,-2.165205369113341,8.645210598535956
288,1791274381.587306,1.3398423549107141,-3.0168936842315053,-1.0228688516422193,3.4558769835786265,3.3234253288535225,-7.714854692329744,-2.1748044946006426,8.67720654530953
289,1791274381.607306,1.263201729910714,-2.9498331373565057,-0.7210963907047194,3.2889472712987233,3.348268798659399,-7.774548989699195,-2.1946578893998185,8.744772106396695
290,1791274381.632983,1.0955503627232142,-2.6241104811065052,-0.7737868203922194,2.947020946265683,3.3799222034625602,-7.850425856903648,-2.219202149779473,8.830510654417807
291,1791274381.652983,1.0141196986607142,-2.446879035794005,-0.6205055703922194,2.720419626070153,3.4040435185214943,-7.908268235110307,-2.237543638389971,8.895775418036491
292,1791274381.6770558,1.1386607142857141,-2.5522598951690054,-0.6827760782047194,2.8769362119647997,3.4326087751613157,-7.976472469289959,-2.258661821136909,8.972651184511555
293,1791274381.6970558,1.1003404017857141,-2.5762100904815055,-0.6061354532047194,2.866183458491861,3.456139716171452,-8.032330181244761,-2.275508594628561,9.035550301031014
294,1791274381.707632,0.994959542410714,-2.5857901686065055,-0.6492458047672194,2.845659045301111,3.468378692723589,-8.061532313384092,-2.2840768590650384,9.068349413977787
295,1791274381.727632,0.9518491908482141,-2.6672208326690052,-0.8073170938297194,2.9447996098769784,3.4909715127994714,-8.116350563312539,-2.300034104754475,9.129741806469386
296,1791274381.7522023,1.066810128348214,-2.8205020826690053,-1.0851393594547194,3.2048156386482405,3.5182836592672753,-8.183706327718665,-2.320184585550406,9.205141263252584
297,1791274381.7722023,0.9662193080357141,-2.9306729811065053,-1.0516090860172194,3.260108210351717,3.5402303011958214,-8.238936107704854,-2.3373316948494227,9.266953017259532
298,1791274381.797695,0.9853794642857141,-2.8923526686065055,-0.8695876016422194,3.1769260685702214,3.567739517900891,-8.309907563575258,-2.359582781390362,9.34617354241782
299,1791274381.817695,1.0907603236607142,-2.9163028639190056,-0.7402565469547194,3.200400011417939,3.5891984594679367,-8.365948405227684,-2.3768358552196123,9.40854861192927
300,1791274381.8418217,1.200931222098214,-2.8013419264190054,-0.8983278360172194,3.1775376142363183,3.6153490472931824,-8.433758168412389,-2.3974919917379602,9.484038877370446
301,1791274381.8618217,1.2200913783482141,-2.8109220045440053,-0.9749684610172193,3.215659961365259,3.6374065669470372,-8.489956054529701,-2.414856472441251,9.546811620829562
302,1791274381.8722863,1.263201729910714,-2.8444522779815054,-0.8456374063297194,3.225165111300141,3.6491656358082354,-8.519388619579471,-2.4240082075788982,9.579781212501347
303,1791274381.8922863,1.186561104910714,-2.7678116529815053,-0.7737868203922194,3.1092530687417272,3.6719430301994715,-8.57562057550092,-2.441304449177633,9.642841971408622
304,1791274381.917827,1.076390206473214,-2.6480606764190053,-0.8168971719547193,2.972904675924835,3.7010021313617907,-8.647033364182649,-2.4631261320488274,9.72294158781252
305,1791274381.9378269,1.004539620535714,-2.7055411451690055,-0.8360573282047193,3.0046704633741887,3.7234654507435914,-8.702596578044526,-2.4801302161456564,9.785214767807203
306,1791274381.962906,1.0572300502232141,-2.7247013014190054,-0.7737868203922194,3.0233224446727647,3.751286218353058,-8.772033014511159,-2.50128217015148,9.862916606886476
307,1791274381.9829059,1.143450753348214,-2.7294913404815055,-0.7019362344547194,3.0414333923886274,3.7734457384869073,-8.82728227020351,-2.517833752714666,9.924680943257744
308,1791274381.9926264,1.239251534598214,-2.6624307936065055,-0.7019362344547194,3.0194364662944415,3.7843374667797827,-8.854038022829409,-2.525695097057553,9.95461375923158
309,1791274382.0126264,1.119500558035714,-2.6049503248565054,-0.8504274453922194,2.9601139394098706,3.806923787361139,-8.908731368374514,-2.5417720944493936,10.01592575335689
310,1791274382.0371,1.004539620535714,-2.6624307936065055,-0.9174879922672194,2.9898865857963135,3.8343152675976744,-8.975288068734729,-2.561739344465379,10.09060344860933
311,1791274382.0571,1.0141196986607142,-2.7438614576690052,-0.8168971719547193,3.037192034040784,3.856370018953768,-9.029629346055467,-2.578210640379605,10.151500675092239
312,1791274382.0827806,1.0524400111607142,-2.8157120436065055,-0.6731960000797194,3.080431324364499,3.8844213835692174,-9.099646688975293,-2.5990577893163405,10.229731215506826
313,1791274382.1027806,1.1674009486607142,-2.7726016920440055,-0.5486549844547194,3.057967856212067,3.90632056080544,-9.154379173902901,-2.6146909423257862,10.290704888744939
314,1791274382.112464,1.148240792410714,-2.7151212232940054,-0.6013454141422194,3.0086469519781476,3.9170147692593287,-9.18088945421793,-2.621959858062919,10.320194250616556
315,1791274382.132464,1.0476499720982142,-2.8109220045440053,-0.6061354532047194,3.0604334933631163,3.9390831982222125,-9.235719571559159,-2.6365322797958344,10.381049798040795
316,1791274382.1578808,1.066810128348214,-2.8205020826690053,-0.7258864297672194,3.101649070608526,3.9669526135604025,-9.305682987402696,-2.654812845524557,10.458512329439204
317,1791274382.1778808,1.066810128348214,-2.8492423170440055,-0.8504274453922194,3.1590334710251113,3.9887934148759863,-9.360982414534421,-2.6694042150655304,10.51970453649675
318,1791274382.2023435,1.196141183035714,-2.8684024732940054,-0.6348756875797193,3.1719952107834377,4.015652390078511,-9.42896551133362,-2.6872994513898365,10.594924873414737
319,1791274382.2223434,1.1338706752232142,-2.7917618482940054,-0.44327412507971936,3.045667229965595,4.037812643653713,-9.484699575977142,-2.7013526987483805,10.65648926217382
320,1791274382.232895,0.9326890345982141,-2.7582315748565054,-0.6109254922672194,2.9750596990475824,4.049385515453967,-9.514084838859787,-2.708488947448911,10.688837436889148
321,1791274382.2528949,0.8799986049107141,-2.9881534498565054,-0.8025270547672194,3.216754304911627,4.070750188645464,-9.57004850474762,-2.72210669869433,10.750195363836687
322,1791274382.2779791,0.9901695033482141,-2.8588223951690055,-0.8695876016422194,3.147933247292669,4.097045064313209,-9.640710386914014,-2.7397701189712564,10.827530435338096
323,1791274382.297979,1.306312081473214,-2.8013419264190054,-0.7498366250797194,3.1806010135235083,4.118310221850182,-9.697089260996291,-2.7541700224232892,10.88942017425815
324,1791274382.3375812,1.272781808035714,-2.9737833326690053,-0.5151247110172193,3.2754716161840283,4.161761664625837,-9.80913289375456,-2.7821634611052306,11.012710011836141
325,1791274382.3575811,0.8704185267857141,-3.0216837232940055,-0.40495381257971935,3.1705186524785796,4.183628879955774,-9.866223099969528,-2.79556033198395,11.075209543540678
326,1791274382.3526073,0.7985679408482141,-2.8923526686065055,-0.6827760782047194,3.077271175687048,4.183628879955774,-9.866223099969528,-2.79556033198395,11.075209543540678
327,1791274382.3726072,1.1721909877232142,-3.0264737623565052,-0.9510182657047194,3.3820128455752316,4.204512034322171,-9.923889394347928,-2.8090771146606692,11.137882042566332
328,1791274382.397872,1.550604073660714,-3.2659757154815057,-0.9653883828922194,3.7420509212451116,4.232094676175001,-9.997732003076743,-2.827222107171771,11.218665490901067
329,1791274382.417872,1.306312081473214,-3.0312638014190054,-1.0899293985172194,3.476054887620186,4.254939685743096,-10.05686461646525,-2.8425143725343944,11.283834702851992
330,1791274382.4427648,0.7267173549107141,-2.7007511061065053,-1.0611891641422193,2.9913704373007364,4.282904042102703,-10.130125132838051,-2.8627088063461703,11.36476149995013
331,1791274382.4627647,0.8464683314732141,-2.5570499342315056,-0.9797585000797194,2.8661716139859554,4.3043614478541254,-10.188043452087749,-2.879561560199171,11.428719597329247
332,1791274382.488097,1.105130440848214,-2.4564591139190055,-1.0516090860172194,2.8916061867825444,4.331170794834876,-10.259924721913496,-2.9015650006364457,11.508439303671054
333,1791274382.508097,1.004539620535714,-2.3414981764190053,-1.0611891641422193,2.76004275356242,4.3523265586261415,-10.315359854583669,-2.9195003008503586,11.570344740289471
334,1791274382.5177758,0.8656284877232141,-2.2552774732940053,-0.9797585000797194,2.606821029296763,4.362386585174286,-10.34150001788221,-2.928359557209018,11.599669350229933
335,1791274382.5377758,0.894368722098214,-2.240907356106505,-0.8408473672672194,2.5551096815518615,4.382696079874538,-10.39415705541267,-2.9466509236004166,11.658871192645014
336,1791274382.5626204,1.0859702845982142,-2.125946418606505,-0.7642067422672194,2.506589631100956,4.407830906169952,-10.45789451173051,-2.96895552473529,11.730781211143881
337,1791274382.5826204,0.9566392299107142,-1.8720743482940052,-0.8360573282047193,2.262479356323368,4.428093357266246,-10.507503980030354,-2.986617872807603,11.787091964907756
338,1791274382.6229122,0.6931870814732141,-1.699632942044005,-0.8121071328922194,2.0071817214435104,4.467776413792725,-10.603248644854931,-3.021843484376406,11.896278659830084
339,1791274382.6429121,0.7794077845982141,-1.622992317044005,-0.8025270547672194,1.9712002002611282,4.486728451443274,-10.648629341289364,-3.0391278875142267,11.948235742645272
340,1791274382.6373727,1.004539620535714,-1.613412238919005,-0.7498366250797194,2.0431480284674963,4.486728451443274,-10.648629341289364,-3.0391278875142267,11.948235742645272
341,1791274382.6573727,1.042859933035714,-1.531981574856505,-0.9653883828922194,2.089616978169522,4.505766925819707,-10.69026139255798,-3.0561679656438425,11.99682403243684
342,1791274382.6831634,0.6740269252232141,-1.546351692044005,-1.2719508828922195,2.112670087804415,4.529956078371343,-10.741848935708305,-3.0791733772768257,12.057741468321565
343,1791274382.7031634,0.5925962611607141,-2.020565559231505,-0.5773952188297193,2.1834011877393493,4.54780033773263,-10.781203334696523,-3.097111455075962,12.10408743446259
344,1791274382.7277374,1.143450753348214,-2.279227668606505,-0.026540726642219344,2.5501103507191094,4.569636468969209,-10.830229727862216,-3.116959029260168,12.161039717346965
345,1791274382.7477374,1.272781808035714,-1.905604621731505,0.3854026327327807,2.3237550848892172,4.588366749575946,-10.870422754717485,-3.1301510157203944,12.207253813864492
346,1791274382.7578328,1.1817710658482141,-1.618202277981505,0.01656962492028066,2.0038552884403993,4.598261504133347,-10.890335755165712,-3.135506724630966,12.230078664540201
347,1791274382.7778327,1.0620200892857141,-1.824173957669005,-0.2804127969547194,2.12934934535886,4.618289367324272,-10.929031626010175,-3.144921185089365,12.274479957338109
348,1791274382.8029633,1.2584116908482141,-2.3414981764190053,-0.5390749063297193,2.7123450091150616,4.644053603305118,-10.978212072154157,-3.156520838814743,12.330936622067046
349,1791274382.8229632,1.359002511160714,-2.590580207669005,-0.6636159219547194,2.999729942774737,4.665408399717511,-11.018879176265797,-3.1661716668431437,12.377656355757296
350,1791274382.8482764,1.2919419642857142,-2.8157120436065055,-0.5869752969547194,3.1530760141214857,4.693414870554679,-11.072892997461887,-3.178928347859389,12.439561403892354
351,1791274382.8682764,1.392532784598214,-2.7726016920440055,-0.6348756875797193,3.1669440850109685,4.716250370228605,-11.117550458838553,-3.1893283481223103,12.490586898606459
352,1791274382.8779511,1.359002511160714,-2.8300821607940057,-1.0563991250797193,3.3124359576684332,4.727636383943704,-11.139978021164698,-3.194831812726973,12.51625368880134
353,1791274382.8979511,1.1769810267857141,-2.9306729811065053,-1.4443922891422194,3.4728083080606025,4.751447208293687,-11.188027576581234,-3.208253369790517,12.57143990608539
354,1791274382.9230275,1.105130440848214,-3.0504239576690053,-1.2863210000797194,3.4901319929275587,4.781115569969195,-11.2504850967812,-3.2276930937271344,12.643199109149219
355,1791274382.9430275,1.263201729910714,-2.8109220045440053,-1.0468190469547194,3.2546568548998063,4.804781074776605,-11.301618802452559,-3.2443715315619017,12.701907548368078
356,1791274382.9678578,1.349422433035714,-2.6863809889190056,-0.9797585000797194,3.1618840014908742,4.834620483724448,-11.365817210191137,-3.2657461747040855,12.77577606858853
357,1791274382.9878578,1.2871519252232142,-2.5522598951690054,-0.9270680703922194,3.005036748233652,4.859004761344516,-11.417628321003194,-3.2832404670759585,12.835569006163617
358,1791274382.9974072,1.359002511160714,-2.437298957669005,-0.6923561563297194,2.8751819214796144,4.870796281200452,-11.442229348270772,-3.2915003455247747,12.864029049872936
359,1791274383.0174072,1.3350523158482142,-2.432508918606505,-0.5773952188297193,2.8342282130906975,4.895828843856426,-11.49332926215097,-3.3081093609297545,12.923209552600445
360,1791274383.0428543,1.2488316127232142,-2.327128059231505,-0.6252956094547194,2.714056005354865,4.9278330944342805,-11.557677959377775,-3.3283674558641834,12.99774937212379
361,1791274383.0628543,1.157820870535714,-2.394188606106505,-0.7019362344547194,2.750527717929554,4.9528235451024605,-11.607748146759663,-3.343891744705194,13.055722504244308
362,1791274383.0873578,1.196141183035714,-2.379818488919005,-0.7163063516422193,2.7581487558429116,4.983174579378874,-11.6686646423472,-3.3626651047647704,13.126205850546995
363,1791274383.1073577,1.234461495535714,-2.432508918606505,-0.8168971719547193,2.8475104587355036,5.007877379283525,-11.718145690199089,-3.377989464117314,13.18349676991498
364,1791274383.1174004,1.042859933035714,-2.5618399732940054,-0.9031178750797194,2.9096739997784615,5.020136153090183,-11.743026626685179,-3.385825627148406,13.212276735220735
365,1791274383.1374004,0.9326890345982141,-2.7007511061065053,-0.9749684610172193,3.0190278025174835,5.043850828699053,-11.793038351613443,-3.401907620691683,13.26985908759071
366,1791274383.1631157,0.9901695033482141,-2.710331184231505,-0.8312672891422194,3.0028879565472395,5.0734772035070685,-11.858132430110874,-3.4229672861337743,13.344368876289922
367,1791274383.1831157,1.1242905970982142,-2.6480606764190053,-0.6923561563297194,2.9589882966865213,5.096234386058199,-11.909202604837938,-3.4391749078426272,13.402560786933783
368,1791274383.207513,1.1674009486607142,-2.5522598951690054,-0.7929469766422194,2.9164396882479973,5.124024410320142,-11.971672287237126,-3.45869823029235,13.473646757978536
369,1791274383.227513,1.1721909877232142,-2.6624307936065055,-0.8791676797672194,3.0389974089477216,5.146897763205391,-12.023022919456443,-3.474810166258139,13.532107832787709
370,1791274383.2526171,1.344632393973214,-2.7486514967315054,-0.5678151407047194,3.1121592760364956,5.176040552449465,-12.087998092686105,-3.494724745013139,13.606035231939956
371,1791274383.272617,1.545814034598214,-2.7534415357940056,-0.4193239297672194,3.1854063914470765,5.200111162168469,-12.140251179483199,-3.5096912272786804,13.665459645057288
372,1791274383.2831125,1.397322823660714,-2.8875626295440053,-0.7354665078922193,3.291115312062678,5.213164711270744,-12.167999335017207,-3.5172761170159896,13.697026151948052
373,1791274383.3031125,1.1817710658482141,-3.0647940748565055,-0.7210963907047194,3.362963808612715,5.238176859853182,-12.221872990221508,-3.5317465991209747,13.758121610329294
374,1791274383.3282397,1.234461495535714,-3.2659757154815057,-0.5678151407047194,3.537358702773685,5.269440961528081,-12.291335557518854,-3.54962871426638,13.836321832181474
375,1791274383.3482397,1.239251534598214,-3.2755557936065056,-0.8743776407047193,3.609646295912873,5.294303498463201,-12.348143285094736,-3.5638902853315875,13.899913887825017
376,1791274383.3728025,1.028489815848214,-3.3617764967315056,-1.3006911172672193,3.7484836798121046,5.324435697489771,-12.419673471675814,-3.582785185408304,13.979780195859039
377,1791274383.3928025,0.7841978236607141,-3.5150577467315056,-1.4683424844547195,3.889296445521481,5.348009276755982,-12.479494886976811,-3.6000159269660377,14.046320177639322
378,1791274383.4178734,0.9135288783482141,-3.5485880201690057,-1.2623708047672193,3.8756408498713815,5.376319533416462,-12.556517372617508,-3.623510141225287,14.131552143972126
379,1791274383.4378734,1.105130440848214,-3.4096768873565053,-1.1426198282047193,3.762019383159674,5.398544030008115,-12.619181872343754,-3.6430484906332294,14.200698260167721
380,1791274383.447865,1.0572300502232141,-3.1797550123565053,-0.9414381875797194,3.480644075273237,5.409601974697874,-12.650730006113305,-3.6529070976116174,14.235466043513012
381,1791274383.467865,1.0189097377232141,-2.9785733717315055,-0.7306764688297194,3.231712314937183,5.431530387194148,-12.713644108591906,-3.6721888960875373,14.304657988064436
382,1791274383.4924495,0.9087388392857141,-2.8013419264190054,-0.6636159219547194,3.0188920084380464,5.457996423917269,-12.790036744095957,-3.69490621168863,14.388436217740745
383,1791274383.5124495,0.9039488002232141,-2.6432706373565056,-0.8121071328922194,2.9092131394984584,5.4790164804038115,-12.85102847917097,-3.7128286146615954,14.455229188319702
384,1791274383.5222812,0.9470591517857141,-2.7199112623565056,-0.7450465860172194,2.9748836493904682,5.48916451907677,-12.88046832293535,-3.7214656296782875,14.487466920359442
385,1791274383.5422812,0.8512583705357141,-2.4756192701690054,-0.49117451570471937,2.663566028676031,5.509409016487371,-12.939166190294424,-3.7382542648086217,14.551637514705021
386,1791274383.5677595,0.8464683314732141,-2.432508918606505,-0.48638447664221934,2.621102465453375,5.534574542504669,-13.012104918195178,-3.7583015223448073,14.631172888785068
387,1791274383.5877595,0.875208565848214,-2.312757942044005,-0.47680439851721934,2.5183688702545295,5.553948304247669,-13.06788987833765,-3.7731224796879546,14.691920939255755
388,1791274383.612628,0.856048409598214,-2.216957160794005,-0.4384840860172194,2.4166063448691437,5.577653691681919,-13.135298196342081,-3.790494061889632,14.765301373300208
389,1791274383.632628,0.559065987723214,-1.9199747389190052,-0.25646260164221935,2.016092964810187,5.5959812546514796,-13.187583603224938,-3.803411614312266,14.822054763167738
390,1791274383.642693,0.47284528459821407,-1.6325723951690052,-0.47680439851721934,1.7652812022677848,5.604600137726909,-13.212631285872826,-3.809490836582354,14.849154475398214
391,1791274383.662693,0.7075571986607141,-1.4792911451690052,-0.6013454141422194,1.7465840342399508,5.620928089626198,-13.259604776480938,-3.821375905917989,14.90016326190943
392,1791274383.703226,0.7219273158482141,-1.6038321607940051,-0.49596455476721935,1.8274127855934523,5.653401153509157,-13.34989661902079,-3.8451856033692713,14.998871179705482
393,1791274383.723226,0.5542759486607141,-1.541561652981505,-0.42411396882971936,1.692189946714996,5.668934992845373,-13.392484030672518,-3.856551751309582,15.045545648977116
394,1791274383.7483897,0.49200544084821407,-1.5224014967315052,-0.48159443757971937,1.6708407684104127,5.68752237255782,-13.443811938028592,-3.8704166680513974,15.101791792623679
395,1791274383.7683897,0.36267438616071407,-1.4840811842315051,-0.43369404695471936,1.5881184458758106,5.701361597495533,-13.482997611957908,-3.881156418472633,15.144640101835064
396,1791274383.7624168,0.3914146205357141,-1.570301887356505,-0.45285420320471936,1.6805149067963367,5.701361597495533,-13.482997611957908,-3.881156418472633,15.144640101835064
397,1791274383.7824168,0.35309430803571407,-1.867284309231505,-0.43369404695471936,1.9492349289486275,5.7134386624074756,-13.520359970451558,-3.891376057199966,15.185069071236736
398,1791274383.8076067,0.35309430803571407,-1.929554817044005,-0.35705342195471934,1.9938266044153687,5.72770217545025,-13.56753216269299,-3.9038108160833342,15.235624046429324
399,1791274383.8276067,0.4488950892857141,-1.7954337232940052,-0.18461201570471936,1.8598845803621158,5.738531227424667,-13.604954909455813,-3.913015204506825,15.27537975721571
400,1791274383.8533711,0.5638560267857141,-1.546351692044005,-0.11755146882971935,1.6501380312731277,5.752345914261942,-13.652389922239111,-3.923677806388966,15.325549961894726
401,1791274383.8733711,0.22376325334821406,-1.464921027981505,-0.040910843829719344,1.4824767481867047,5.762642588548513,-13.688205533888791,-3.9309509283426154,15.363183118819306
402,1791274383.9279788,0.20460309709821406,-1.354750129544005,-0.21814228914221936,1.387370317959083,5.788293788206815,-13.78287552065904,-3.948891553174456,15.461751100548359
403,1791274383.9479787,0.30519391741071406,-1.373910285794005,-0.34268330476721937,1.4485180868740457,5.797043996747308,-13.81644036409287,-3.955317913804112,15.496589406511951
404,1791274383.9430037,0.23813337053571407,-1.6038321607940051,-0.44327412507971936,1.680915539854712,5.797043996747308,-13.81644036409287,-3.955317913804112,15.496589406511951
405,1791274383.9630036,0.12317243303571405,-1.867284309231505,-0.49117451570471937,1.9347285454657153,5.804600722237801,-13.849694251212037,-3.962364725750857,15.530864580458296
406,1791274383.9725606,0.23813337053571407,-2.284017707669005,-0.5486549844547194,2.3610308517838736,5.80792903726152,-13.86617664314124,-3.9659722767962924,15.547727502788886
407,1791274383.9925606,0.16628278459821405,-2.4995694654815055,-0.6492458047672194,2.5878596546623367,5.814456059542809,-13.902670855525423,-3.9741862292463765,15.584810309084984
408,1791274384.0175045,0.13275251116071407,-2.4851993482940054,-0.8360573282047193,2.6254201351450854,5.821934876838435,-13.950684312396252,-3.9856726389872104,15.633365116936849
409,1791274384.0375044,0.16149274553571405,-2.4947794264190053,-0.7546266641422193,2.6114106715678824,5.827473287539275,-13.990876916058388,-3.9958870030339324,15.673901707561356
410,1791274384.0781066,0.2716636439732141,-2.3319180982940053,-0.4384840860172194,2.3882862990643083,5.838349376760482,-14.074931183068784,-4.017146082907842,15.758409624853119
411,1791274384.0981066,0.5015855189732141,-2.125946418606505,-0.4576442422672194,2.231742471726922,5.844063025000051,-14.116811163088062,-4.027391366897811,15.800547815712704
412,1791274384.0926368,0.7458775111607141,-2.164266731106505,-0.6779860391422193,2.387477500271258,5.844063025000051,-14.116811163088062,-4.027391366897811,15.800547815712704
413,1791274384.1126368,0.6452866908482141,-2.0493057936065053,-0.5294948282047194,2.212784201450872,5.851868394012664,-14.15885981796076,-4.038052731382215,15.843722571003683
414,1791274384.1382399,0.3578843470982141,-1.733163215481505,-0.36663350007971934,1.8073062996561515,5.862287975660451,-14.211877466720436,-4.0513744634617765,15.89834948923439
415,1791274384.1582398,0.26687360491071405,-1.709213020169005,-0.32352314851721936,1.7599141731743015,5.870143532659945,-14.252243822682429,-4.061255095816305,15.939850439339535
416,1791274384.1677907,0.08485212053571406,-1.7954337232940052,-0.38579365632971935,1.8383739778306902,5.8735841251934335,-14.271139338507126,-4.0657738326251565,15.959164306218211
417,1791274384.1877906,0.060901925223214054,-1.709213020169005,-0.4289040078922194,1.763257451649405,5.879926845857972,-14.310029416127916,-4.075039012895899,15.998638209538683
418,1791274384.2124193,0.008211495535714052,-1.6373624342315052,-0.27562275789221935,1.6604189454350267,5.886693549506774,-14.35691798677884,-4.086038410553692,16.045870650027645
419,1791274384.2324193,0.008211495535714052,-1.464921027981505,-0.18940205476721936,1.477137158571054,5.891388919177447,-14.393936368250472,-4.094328310622785,16.082829100796214
420,1791274384.257501,-0.10195940290178596,-1.0625577467315053,-0.012170609454719344,1.0675077558096342,5.89621769335046,-14.438151367672107,-4.103544282301706,16.12652081758499
421,1791274384.2775009,-0.24087053571428596,-0.7416251295440052,0.26086161710778066,0.8222379406391656,5.898976325052119,-14.47082595238338,-4.109417703847686,16.1582808272537
422,1791274384.2873538,-0.14506975446428597,-0.5787638014190051,0.20338114835778068,0.6303781904544568,5.899846299801364,-14.485484094576297,-4.111534127907054,16.172264798118015
423,1791274384.3073537,-0.006158621651785948,-0.45901282485650513,0.12674052335778066,0.4762287919313601,5.901120495457273,-14.512331639766524,-4.114690583977214,16.19758226792953
424,1791274384.33251,0.09443219866071406,-0.047069465481505104,0.16027079679528067,0.19188460863238957,5.902649339088848,-14.541990314574857,-4.117523774046081,16.225435388896955
425,1791274384.35251,0.15670270647321405,0.3792440110809949,0.2848118124202807,0.4994992759263593,5.904059196152043,-14.561534658936395,-4.118770751195436,16.243782783452147
426,1791274384.3777096,0.17107282366071405,0.527735222018495,0.3949827108577807,0.6810152108658962,5.906188620828122,-14.580752215355446,-4.118821452646306,16.26179846601143
427,1791274384.3977096,0.18065290178571405,0.7863973313934949,0.5386838827327807,0.9701734686448982,5.908152744043669,-14.591745409787046,-4.1174551578913565,16.272023227866846
428,1791274384.4076893,0.25729352678571404,0.9157283860809949,0.6153245077327807,1.1328648135664394,5.909313598599973,-14.595134043136326,-4.116011907924892,16.275118401102187
429,1791274384.4276893,0.3483042689732141,0.9779988938934949,0.6728049764827807,1.237119329984727,5.912199454614444,-14.598065829682088,-4.111621208286157,16.277685871133638
430,1791274384.4526303,0.3578843470982141,1.1121199876434948,0.7542356405452807,1.3905982433049568,5.916579416336727,-14.597263781312282,-4.104297718184147,16.27670979192424
431,1791274384.4726303,0.41536481584821405,1.064219597018495,0.6536448202327807,1.316184953545653,5.920724709572273,-14.59345259179537,-4.09719414396646,16.273009539998178
432,1791274384.4977086,0.26687360491071405,0.9923690110809948,0.6871750936702807,1.2362149426829747,5.926426085073138,-14.585522336472788,-4.087101040260774,16.265435219596267
433,1791274384.5177085,0.22855329241071407,1.0019490892059948,0.6632248983577806,1.2231131798137849,5.931034052229998,-14.577155129774635,-4.078233566072339,16.25738618676649
434,1791274384.5273995,0.5015855189732141,0.9779988938934949,0.6632248983577806,1.2837200376648394,5.9334626090906895,-14.572269870298221,-4.073617241297769,16.252734697117194
435,1791274384.5473995,0.5111655970982141,1.006739128268495,0.7159153280452807,1.3369176103910685,5.9392419166835895,-14.560723027993788,-4.06345056095196,16.241948162216893
436,1791274384.5723622,0.3818345424107141,1.164810417330995,0.7590256796077807,1.4417700608643735,5.947045140931994,-14.544407244264516,-4.0499032010133975,16.22679401277022
437,1791274384.5923622,0.3914146205357141,1.164810417330995,0.6775950155452807,1.4032546877112981,5.953519137398186,-14.529801499749942,-4.038522297484598,16.213241011247025
438,1791274384.6476147,0.4680552455357141,1.217500847018495,0.2656516561702807,1.3311479361026193,5.9722831997893175,-14.485631610761763,-4.007888494574914,16.172966950010505
439,1791274384.6676147,0.49200544084821407,0.9827889329559949,0.021359663982780656,1.0992723392364996,5.979496574926521,-14.46874108486225,-3.9980326368461885,16.158066494343505
440,1791274384.6625073,0.6261265345982141,0.8869881517059949,0.2943918905452807,1.124921776753215,5.979496574926521,-14.46874108486225,-3.9980326368461885,16.158066494343505
441,1791274384.6825073,0.8895786830357141,0.9779988938934949,0.2752317342952807,1.3504016355631545,5.988407411030486,-14.451356238489922,-3.989654762166687,16.14373146374486
442,1791274384.6930537,0.894368722098214,0.9875789720184949,0.23691142179528066,1.3532681400290782,5.99381253783488,-14.442009187034891,-3.9854944977621694,16.136343591061742
443,1791274384.7130537,0.8081480189732141,1.174390495455995,0.09321024992028067,1.4286302555517676,6.005078920368514,-14.423699575033371,-3.978293319369616,16.12237265434629
444,1791274384.7382739,0.717137276785714,1.0306893235809949,-0.17982197664221936,1.2684408929008057,6.020039973514096,-14.39990334329155,-3.9707385083842204,16.10480865706923
445,1791274384.7582738,0.9039488002232141,0.4415145188934949,-0.41453389070471935,1.0880702414649226,6.032556298588623,-14.381654870874705,-3.9665376197926445,16.092145693158066
446,1791274384.7831392,1.023699776785714,0.17806237045599493,-0.6252956094547194,1.2127085552460153,6.049378180897001,-14.361214798037167,-3.964037386966625,16.079585170524258
447,1791274384.8031392,0.8033579799107141,-0.008749152981505104,-0.5678151407047194,0.9838061930978262,6.063619559376557,-14.346986347351434,-3.9641176907260305,16.072265816550868
448,1791274384.8131962,0.9710093470982141,-0.14766028579400511,-0.7019362344547194,1.2072187827371383,6.071044991388861,-14.341022773622562,-3.9651097533985107,16.069991189715218
449,1791274384.8331962,1.186561104910714,-0.5260733717315051,-1.0899293985172194,1.694882456657097,6.086833056116346,-14.33195273936888,-3.9694745002102483,16.068949367782363
450,1791274384.857777,1.028489815848214,-0.8901163404815052,-1.3054811563297195,1.8853061954037231,6.107410319910066,-14.325088197947242,-3.97845042558355,16.072855392976606
451,1791274384.877777,0.9183189174107141,-1.0242374342315053,-1.2671608438297195,1.8703124230702126,6.12456159422124,-14.323212266283598,-3.9885170600198427,16.080203129453807
452,1791274384.9033682,0.9326890345982141,-1.2397891920440052,-1.5258229532047194,2.1760334925031017,6.146768441105446,-14.325517383298466,-4.004826447918834,16.094776961663886
453,1791274384.9233682,0.8416782924107141,-1.541561652981505,-1.8180153360172195,2.5278477881099346,6.164181818135636,-14.33122067615586,-4.020676394894622,16.11045816319865
454,1791274384.9324152,0.49200544084821407,-1.6804727857940052,-1.0707692422672195,2.0524631318988473,6.171782188591821,-14.335599826210379,-4.028730806207041,16.119273856769848
455,1791274384.9524152,0.7937779017857141,-1.2828995436065052,-0.7498366250797194,1.6846867841412105,6.187992471808989,-14.348273599546463,-4.0465964959184095,16.14122514926875
456,1791274384.9780014,1.397322823660714,-1.254159309231505,-1.0995094766422193,2.1758556330053804,6.209824353797412,-14.366923719742093,-4.06957267262225,16.171945999528234
457,1791274384.9980013,1.3637925502232142,-1.455340949856505,-1.2336305703922195,2.345163487814827,6.228471603293543,-14.383379514442545,-4.088338254202694,16.19845592796723
458,1791274385.0374272,0.9757993861607142,-1.4361807936065052,-0.9845485391422194,1.9960299446358303,6.266634968680335,-14.419502900323307,-4.1263408865642335,16.254829031252566
459,1791274385.0574272,0.8512583705357141,-1.579881965481505,-0.8121071328922194,1.969818731141331,6.285831167336806,-14.439602988525516,-4.145422175861514,16.284911204750923
460,1791274385.0529609,0.8512583705357141,-1.704422981106505,-1.0659792032047195,2.1831193676929517,6.285831167336806,-14.439602988525516,-4.145422175861514,16.284911204750923
461,1791274385.0729609,0.6692368861607141,-1.747533332669005,-1.0420290078922194,2.141862556719308,6.304151868350782,-14.463490716597613,-4.164764974474807,16.31809308041072
462,1791274385.097538,0.5446958705357141,-1.977455207669005,-0.8552174844547193,2.2222555288339336,6.325526005385006,-14.495308370380572,-4.188466264925743,16.36060798533013
463,1791274385.117538,0.6740269252232141,-2.2121671217315053,-0.9222780313297194,2.4896972581960917,6.34213855710657,-14.523601037273048,-4.207526664625611,16.396981100219396
464,1791274385.1429763,0.717137276785714,-2.389398567044005,-0.8791676797672194,2.645079808832779,6.362753035886397,-14.562968267865802,-4.231570348289786,16.445998254258487
465,1791274385.1629763,0.6500767299107141,-2.5043595045440052,-0.6492458047672194,2.6675712544895847,6.3785801562254525,-14.596617340460405,-4.249930946204538,16.486644159462212
466,1791274385.1730368,0.7937779017857141,-2.317547981106505,-0.47680439851721934,2.4956871672025596,6.386436864866821,-14.614643127636157,-4.258631106783745,16.507886251145507
467,1791274385.1930368,0.8799986049107141,-2.3846085279815052,-0.5007545938297193,2.590658321664301,6.4022235345772565,-14.65215573680398,-4.274798688507248,16.551375705648034
468,1791274385.2181106,0.8704185267857141,-2.4899893873565055,-0.5773952188297193,2.7001964372332727,6.422338096051378,-14.701297367209483,-4.294054943029702,16.607633147226945
469,1791274385.2381105,0.9853794642857141,-2.4660391920440055,-0.48638447664221934,2.6997947782102956,6.4387594389635545,-14.742049369527543,-4.308706328546573,16.65384619095802
470,1791274385.277028,1.239251534598214,-2.355868293606505,-0.5007545938297193,2.7086186416817744,6.4724135800676255,-14.82352732167844,-4.335820954505746,16.74599782507815
471,1791274385.297028,1.1769810267857141,-2.3750284498565053,-0.5007545938297193,2.6975543809686053,6.490738747525872,-14.866214907881911,-4.349167444005059,16.794323226374967
472,1791274385.3070695,1.1817710658482141,-2.4277188795440052,-0.5294948282047194,2.7515026046264195,6.500335654243074,-14.888049394953178,-4.355639125141322,16.81903595908075
473,1791274385.3270695,1.0859702845982142,-2.284017707669005,-0.31873310945471933,2.5490506356364473,6.519984602563316,-14.93208227113097,-4.367867871258043,16.868774404510095
474,1791274385.3372936,0.9997495814732141,-2.044515754544005,-0.007380570392219343,2.2758731003845147,6.530121904768354,-14.954534802422488,-4.373431631613273,16.894008034933464
475,1791274385.3572936,1.109920479910714,-1.7571134107940052,-0.08881123445471935,2.0802063468518557,6.550142062297039,-14.997569868671784,-4.382826982797543,16.94227361846995
476,1791274385.3820844,1.0572300502232141,-1.464921027981505,-0.42411396882971936,1.855694386442408,6.575264868589994,-15.048902731038176,-4.39367968994034,17.000235372434005
477,1791274385.4020844,0.8081480189732141,-1.4745011061065052,-0.46243428132971937,1.7438756254471166,6.595290611130626,-15.0885127853912,-4.402451631288501,17.045311868253286
478,1791274385.427575,1.0859702845982142,-1.498451301419005,-0.49117451570471937,1.9146645049805469,6.620606855619277,-15.137108380606547,-4.413777903376444,17.10105027895176
479,1791274385.447575,1.2105113002232142,-1.704422981106505,-0.21814228914221936,2.1018994659127466,6.640935172230902,-15.174321462423327,-4.4223954552497675,17.144084500764354
480,1791274385.457649,1.071600167410714,-2.020565559231505,0.15069071867028067,2.292099428611368,6.651362793685575,-15.193068301945358,-4.4261359465014865,17.165681776664574
481,1791274385.477649,0.8608384486607141,-1.8337540357940052,0.05488993742028066,2.026501814386898,6.67185834694354,-15.23048558329646,-4.432139757710248,17.208290087529246
482,1791274385.502627,0.8177280970982141,-1.929554817044005,-0.37621357820471935,2.1291777025854817,6.696760195001585,-15.277256346863556,-4.439115129617087,17.261138483053074
483,1791274385.5226269,1.148240792410714,-2.2121671217315053,-0.5965553750797193,2.562814587004363,6.716657353057203,-15.315301123834539,-4.445321722505078,17.3041272455065
484,1791274385.562087,1.3781626674107141,-2.2648575514190052,-0.7306764688297194,2.7500545754885986,6.757502993423138,-15.392354288180162,-4.459658507870282,17.391865088189956
485,1791274385.582087,1.3637925502232142,-2.193006965481505,-0.8456374063297194,2.717409114152448,6.779212780361704,-15.432236630954518,-4.468199458776817,17.43778827026545
486,1791274385.5776691,1.2440415736607142,-2.183426887356505,-1.0228688516422193,2.713162932278011,6.779212780361704,-15.432236630954518,-4.468199458776817,17.43778827026545
487,1791274385.5976691,1.153030831473214,-2.202587043606505,-1.1905202188297195,2.7564847495376092,6.8018186919404755,-15.473210586072103,-4.48007271945315,17.485881016710394
488,1791274385.622827,1.354212472098214,-2.2456973951690054,-1.1042995157047193,2.8454394442055673,6.8307200045903835,-15.525413692334388,-4.4970977321819285,17.547680590665856
489,1791274385.642827,1.4883335658482142,-2.403768684231505,-0.9462282266422194,2.981373600778172,6.85451332286008,-15.567663124625444,-4.5116778440719765,17.59806026310227
490,1791274385.6669788,1.4595933314732141,-2.389398567044005,-0.8695876016422194,2.931863025859647,6.884275866484448,-15.619712434840151,-4.529932779177585,17.66037830106784
491,1791274385.6869788,1.320682198660714,-2.432508918606505,-0.7929469766422194,2.8792474740330194,6.909395551461887,-15.66358178641832,-4.545275872480446,17.712906989631318
492,1791274385.6975968,1.4069029017857142,-2.437298957669005,-0.6827760782047194,2.895856549809762,6.922903272950618,-15.687256516016388,-4.553374850338048,17.741190187065243
493,1791274385.7175968,1.426063058035714,-2.322338020169005,-0.6109254922672194,2.792873015824137,6.948779357920463,-15.732300570310539,-4.568282330854965,17.79494364290195
494,1791274385.7420998,1.311102120535714,-2.355868293606505,-0.5869752969547194,2.759283274063892,6.980756303554402,-15.787805719699293,-4.586008067348462,17.861053664506173
495,1791274385.7620997,1.2919419642857142,-2.403768684231505,-0.5773952188297193,2.7893732566836427,7.006846219623126,-15.833454204946529,-4.600052598179654,17.915207224913843
496,1791274385.7872283,1.4116929408482142,-2.413348762356505,-0.5821852578922194,2.8558832053351524,7.039804772371193,-15.891283821982206,-4.617237086461831,17.983621188639738
497,1791274385.8072283,1.4212730189732141,-2.5762100904815055,-0.6205055703922194,3.006975654648327,7.066351312834591,-15.937891002602068,-4.630666758207178,18.038646432390323
498,1791274385.8177233,1.081180245535714,-2.7294913404815055,-0.6157155313297193,2.9996965374218827,7.080161751021612,-15.96285569795035,-4.637629926788887,18.067901477262467
499,1791274385.8377233,0.9374790736607141,-2.7965518873565056,-0.44327412507971936,2.9826265978486437,7.105560237466926,-16.01158320575798,-4.650497527996149,18.124207853064373
500,1791274385.8627622,1.191351143973214,-2.8061319654815056,-0.6252956094547194,3.1120232574880817,7.13658598402576,-16.073958312539762,-4.666197362617304,18.19550475165654
501,1791274385.8827622,1.157820870535714,-3.0216837232940055,-0.7785768594547193,3.32825834603421,7.161174401082709,-16.125049067227053,-4.678962436296879,18.25355624812545
502,1791274385.9078364,1.2153013392857142,-3.0839542311065054,-0.8600075235172194,3.4245209862600623,7.191840022592193,-16.190976324233294,-4.6956470881300545,18.32810352487966
503,1791274385.9278364,0.9901695033482141,-2.9546231764190054,-0.9031178750797194,3.2443575105530047,7.215939084956799,-16.244731932935697,-4.709603732535149,18.38862310691741
504,1791274385.937395,0.8512583705357141,-2.8827725904815056,-0.7833668985172194,3.1062328179856475,7.227049310154608,-16.27075467041663,-4.716482580542646,18.417733498149357
505,1791274385.957395,1.0524400111607142,-2.8109220045440053,-0.6731960000797194,3.076053534521951,7.249664245862464,-16.325576303956666,-4.730901364425273,18.47873104555529
506,1791274385.9827588,0.8177280970982141,-2.7390714186065055,-0.5773952188297193,2.916260742069944,7.277599763777047,-16.395229320498746,-4.748823171890905,18.55581645499215
507,1791274386.0027587,0.717137276785714,-2.5522598951690054,-0.4001637735172194,2.681128026014288,7.298625812755184,-16.449851174998862,-4.762301582619687,18.615774461409057
508,1791274386.0271502,0.7841978236607141,-2.4612491529815053,-0.2804127969547194,2.5983350354375676,7.323168648997951,-16.51564565002421,-4.777518805608369,18.687429899180138
509,1791274386.0471501,0.7650376674107141,-2.4947794264190053,-0.47680439851721934,2.652649515764594,7.3425980208326065,-16.56893619362028,-4.789260516369729,18.745143599808806
510,1791274386.0726287,0.6309165736607141,-2.236117317044005,-0.5773952188297193,2.3940888908374465,7.36630447494295,-16.63568165827112,-4.80398939406613,18.817190543521704
511,1791274386.0926287,0.2812437220982141,-2.078046027981505,-0.47201435945471937,2.1494582762084073,7.383490275192249,-16.686687202460813,-4.815390996187725,18.8719222360308
512,1791274386.1028657,0.013001534598214053,-1.852914192044005,-0.33789326570471934,1.883515835343201,7.3911932493990955,-16.711896373362343,-4.8209733395770495,18.898650798003462
513,1791274386.1228657,0.3483042689732141,-1.551141731106505,-0.3810036172672194,1.6347844781914698,7.404527110612223,-16.758865927555323,-4.831321972643254,18.948041611546866
514,1791274386.1474278,0.7889878627232141,-1.7619034498565052,-0.6109254922672194,2.024854456804919,7.420541282823026,-16.81400018391833,-4.843952109913515,19.006285990640624
515,1791274386.1674278,0.836888253348214,-1.666102668606505,-0.39537373445471935,1.9059382048814208,7.434063855482824,-16.857301819673932,-4.854203153112944,19.052485882389988
516,1791274386.1922805,0.4201548549107141,-1.1823087232940053,-0.0025905313297193435,1.2547472773968127,7.450690051760036,-16.908348183965728,-4.865772533759263,19.107086719536788
517,1791274386.2122805,0.04653180803571406,-0.5308634107940051,-0.16066182039221935,0.5565908646489438,7.462762868268107,-16.94583509261076,-4.873931194719876,19.14704577486624
518,1791274386.2223244,0.44410505022321406,-0.3584220045440051,-0.4289040078922194,0.7139007472759188,7.468285915841059,-16.962506810023232,-4.87785795064682,19.16495316945812
519,1791274386.2423244,0.7794077845982141,-0.4446427076690051,-0.15108174226721935,0.9099501772196206,7.47946935466782,-16.991929535262038,-4.885374256700613,19.197265763299693
520,1791274386.2669578,0.7075571986607141,-0.5260733717315051,-0.10797139070471935,0.8882838527364226,7.493924705715376,-17.024526202291526,-4.8937218361121495,19.233874110971062
521,1791274386.2869577,0.5111655970982141,-0.14766028579400511,-0.32352314851721936,0.6227046292457089,7.505728701263555,-17.048032382619976,-4.900129900857138,19.26090975268575
522,1791274386.3119648,0.44410505022321406,0.1062117845184949,-0.40495381257971935,0.6103260023358149,7.520065609617157,-17.073092463359366,-4.908306662403727,19.29075808068625
523,1791274386.3319647,0.30519391741071406,0.3026033860809949,-0.33310322664221936,0.5437553641957376,7.530935912694075,-17.089515303264314,-4.914972380924634,19.31122685193415
524,1791274386.3425088,0.38662458147321405,0.31697350326849494,-0.36184346101721937,0.6171559438703969,7.536354239309273,-17.09638479206908,-4.9185090100793945,19.320319331239794
525,1791274386.3625088,0.8656284877232141,0.0678914720184949,-0.4193239297672194,0.9642377760730185,7.546968478839649,-17.106883037207474,-4.925382797861213,19.33550041180117
526,1791274386.3878894,1.071600167410714,-0.0422794264190051,-0.47201435945471937,1.1717132858444677,7.562105418622138,-17.11815849922277,-4.934494098048035,19.353708191727446
527,1791274386.4078894,0.635706612723214,-0.1907706373565051,-0.5151247110172193,0.8401605807451356,7.574805128590466,-17.126060400770545,-4.942077572148942,19.367595315787113
528,1791274386.4329638,0.40578473772321405,-0.0422794264190051,-0.5103346719547194,0.6533684111330672,7.590297398266744,-17.134919463256082,-4.952087491160422,19.38404627848671
529,1791274386.4529638,0.578226143973214,0.0247811204559949,-0.5390749063297193,0.7909243529817389,7.6022768538392,-17.1409519731062,-4.960448123530959,19.396208224624583
530,1791274386.4775882,0.7219273158482141,-0.018329231106505105,-0.5917653360172194,0.93364941117763,7.617214939970767,-17.147253294958343,-4.971286289654122,19.410408197069856
531,1791274386.4975882,0.5446958705357141,-0.1764005201690051,-0.5965553750797193,0.8268549149827069,7.6294277236698935,-17.15189565152233,-4.980551145842538,19.421678134182095
532,1791274386.5071516,0.654866768973214,-0.1907706373565051,-0.6492458047672194,0.9416814940257976,7.635251967510829,-17.1540458793155,-4.98521037883278,19.427060641236004
533,1791274386.5271516,0.7794077845982141,-0.3536319654815051,-0.6348756875797193,1.0656449692005447,7.6477565544188435,-17.15868472783785,-4.995418812819972,19.4386946840694
534,1791274386.55209,0.7027671595982141,-0.1811905592315051,-0.39537373445471935,0.8264575544219064,7.663782148639533,-17.164601672870027,-5.008165488348895,19.45350428505845
535,1791274386.57209,0.7075571986607141,-0.08538977798150511,-0.22772236726721937,0.7481885324663258,7.676821968452099,-17.1690350091206,-5.017789291926256,19.46503449927298
536,1791274386.5829673,0.6644468470982141,0.019991081393494897,-0.37142353914221937,0.7614753452233175,7.68396941457826,-17.17113784281906,-5.0227270524995085,19.470982199806393
537,1791274386.6029673,0.6117564174107141,0.3026033860809949,-0.31394307039221936,0.751248943399037,7.697054290954054,-17.173940420278992,-5.031472209820179,19.480877467798507
538,1791274386.6269796,0.6213364955357141,0.41277428451849496,-0.34268330476721937,0.8208979827058541,7.712628440120714,-17.175512179100142,-5.041579394989064,19.491033293947105
539,1791274386.6469796,0.49200544084821407,0.1972225267059949,-0.5103346719547194,0.735804020282353,7.725324466578798,-17.17570994131055,-5.050014494727993,19.49841779475755
540,1791274386.6870172,0.45368512834821406,0.16369225326849493,-0.5247047891422194,0.7126994213644582,7.749767778494836,-17.174962690696553,-5.067475708407205,19.51198488372499
541,1791274386.7070172,0.535115792410714,0.48462487045599495,-0.17503193757971935,0.7428636183881582,7.7616296119032775,-17.173672933229792,-5.07593934611204,19.5177636140858
542,1791274386.7174249,0.7267173549107141,0.7768172532684949,-0.19419209382971936,1.0813296112703121,7.767861379379201,-17.17211778652998,-5.079971249911576,19.519923349840248
543,1791274386.7374249,0.4393150111607141,0.8917781907684948,-0.6300856485172194,1.1769766119294103,7.779789436626412,-17.16707470880722,-5.087793403778797,19.522274955945772
544,1791274386.7476265,0.21418317522321406,0.7049666673309949,-0.7737868203922194,1.0684561188973407,7.785461121486381,-17.163666457243906,-5.09225901405021,19.52270352681388
545,1791274386.7676265,0.26687360491071405,1.0690096360809949,-0.37142353914221937,1.1627375320600057,7.795633936722563,-17.155326023919248,-5.101418269811184,19.52182337349421
546,1791274386.7923968,0.4393150111607141,1.825835807955995,-0.050490921954719346,1.8786227428212663,7.8076551718677365,-17.141167785220716,-5.111844377494853,19.516917411917465
547,1791274386.8123968,0.4872154017857141,2.031807487643495,0.28002177335778067,2.1080874526773843,7.817295214796697,-17.12566443829745,-5.118655584258276,19.508949790255436
548,1791274386.8377748,0.559065987723214,2.285679557955995,0.5338938436702807,2.4128672687480908,7.82968407183678,-17.100725376999407,-5.124452751642458,19.493557322565373
549,1791274386.8577747,0.6117564174107141,2.443750847018495,0.7015452108577807,2.6150200380540665,7.839739242285194,-17.076925279272032,-5.126482950292507,19.477261507216728
550,1791274386.8678305,0.6740269252232141,2.4677010423309946,0.9027268514827808,2.712706489584775,7.845006247910548,-17.063049669793156,-5.126140682903752,19.46712884234614
551,1791274386.8878305,0.6213364955357141,2.5682918626434947,1.2140793905452807,2.9079496039223574,7.855853524036062,-17.032038021844794,-5.122386850164691,19.443343354768405
552,1791274386.9123254,0.7794077845982141,2.750313347018495,1.3769407186702807,3.172958515993016,7.869719234054528,-16.989982955051016,-5.113718978169219,19.409846043270406
553,1791274386.9323254,1.0141196986607142,2.6640926438934946,1.3434104452327806,3.1512822791396626,7.882032626968396,-16.952674222992087,-5.103622763672148,19.379539905719312
554,1791274386.9574425,1.076390206473214,2.6209822923309947,1.3194602499202808,3.1255622541270514,7.89911500617969,-16.90289193257017,-5.087828972909838,19.338815300389516
555,1791274386.9774425,0.7602476283482141,2.625772331393495,1.5541721639827808,3.1445361991905316,7.913431784271983,-16.86132778511017,-5.072828856527171,19.304413223117376
556,1791274386.9879851,0.8512583705357141,2.5012313157684947,1.3865207967952806,2.983829557520659,7.9211208055938185,-16.838650551505612,-5.063782672522576,19.28538830739665
557,1791274387.007985,1.0859702845982142,2.256939323580995,1.0560081014827807,2.71813533139059,7.936425186166064,-16.794946282397326,-5.045531918633446,19.248752107764588
558,1791274387.0470865,0.8225181361607141,1.959956901705995,0.8500364217952807,2.2892201858355135,7.967454988158042,-16.70995163468833,-5.009612972512279,19.178087619893464
559,1791274387.0670865,0.6644468470982141,1.476162956393495,0.5578440389827807,1.7122314850147347,7.9831761688851275,-16.66784458782608,-4.991884779700651,19.143329349963807
560,1791274387.0777593,1.0093296595982142,1.1983406907684948,0.01656962492028066,1.5668571489980059,7.991647006185283,-16.64660421729642,-4.983383568852072,19.12615919710714
561,1791274387.0977592,0.697977120535714,0.8726180345184948,-0.34747334382971934,1.1702017004048721,8.007700579999316,-16.609665451914935,-4.970338927927647,19.09734337707554
562,1791274387.107989,0.2908238002232141,0.594795768893495,-0.46243428132971937,0.807592690667028,8.015438805076943,-16.59247980399614,-4.965288926295373,19.084332301800465
563,1791274387.127989,0.3674644252232141,0.532525261080995,-0.8408473672672194,1.0609606743580193,8.029285663525714,-16.562229615260634,-4.958851725073295,19.06219002440114
564,1791274387.1525486,0.3578843470982141,0.17327233139349493,-1.1282497110172194,1.196265822104306,8.045074797757369,-16.52935503116561,-4.9557597080703095,19.039494755165215
565,1791274387.1725485,0.14233258928571407,0.22117272201849492,-0.9510182657047194,0.9867176296397356,8.056754296478347,-16.506007711716144,-4.956738325558543,19.024427329123892
566,1791274387.1981177,-0.05884905133928595,0.40319420639349496,-0.7258864297672194,0.8324301098789102,8.069606410532119,-16.47943902284943,-4.9610175648414145,19.007949742341456
567,1791274387.2181177,0.24771344866071407,0.508575065768495,-0.9558083047672193,1.1106664961322994,8.078434586093207,-16.46040686486871,-4.966385207120502,18.996607106120535
568,1791274387.227678,0.4488950892857141,0.5373153001434949,-1.0372389688297194,1.2514308656142628,8.082521093719464,-16.451923880769833,-4.969995228032184,18.991940374162073
569,1791274387.247678,0.2908238002232141,0.6235360032684949,-0.7354665078922193,1.0071179744098981,8.090897202877288,-16.43509836238945,-4.9790735381084525,18.983315016793977
570,1791274387.272437,0.16628278459821405,0.41277428451849496,-0.7258864297672194,0.8514362473689335,8.100559868756237,-16.415469174159046,-4.991339916731848,18.97367050835
571,1791274387.292437,0.5207456752232141,-0.1811905592315051,-0.9318581094547194,1.082758335536989,8.108224959669531,-16.40164406751573,-5.002248833417968,18.96786054107087
572,1791274387.3171072,0.8320982142857141,-0.6601944654815052,-0.8264772500797194,1.345848734207979,8.118764775935338,-16.388705482584268,-5.016940004621998,18.965065143358526
573,1791274387.3371072,0.7458775111607141,-0.8901163404815052,-0.6300856485172194,1.3212298383380738,8.128394639765204,-16.38211507190912,-5.029248414637371,18.96675600267922
574,1791274387.346941,0.8081480189732141,-0.8709561842315052,-1.1186696328922194,1.631897558971349,8.133565470092428,-16.38065954685395,-5.0356823298901405,18.969422526101976
575,1791274387.366941,0.8799986049107141,-1.349960090481505,-1.0228688516422193,1.9086776779219452,8.145036644891746,-16.381474711703838,-5.050017121646978,18.9788568835362
576,1791274387.3929052,1.033279854910714,-1.570301887356505,-0.9318581094547194,2.098064539559313,8.161420645493541,-16.388060914646417,-5.0696417857968425,18.996804871639522
577,1791274387.4129052,1.1242905970982142,-1.4457608717315051,-0.9366481485172193,2.057076468941793,8.175384349587484,-16.396897291545475,-5.0852937040537745,19.014609175827417
578,1791274387.4377337,0.9326890345982141,-1.4745011061065052,-0.42411396882971936,1.795531956197258,8.193949350842683,-16.41165943484264,-5.1043436755540865,19.04042267723077
579,1791274387.4577336,0.8847886439732141,-1.426600715481505,-0.0025905313297193435,1.6787040408508198,8.20938698749775,-16.426118696205428,-5.118027212679572,19.06320048370828
580,1791274387.4833646,1.267991768973214,-1.852914192044005,-0.5773952188297193,2.318292338767768,8.230341794790082,-16.448173688934833,-5.134047833782041,19.09553327142237
581,1791274387.5033646,1.272781808035714,-2.140316535794005,-1.1953102578922195,2.7621902571840113,8.248051436413142,-16.468791723168263,-5.1473327261606405,19.124499666987806
582,1791274387.511915,1.2584116908482141,-2.4181388014190053,-0.9605983438297194,2.890284488551258,8.256110193592146,-16.479207411951066,-5.153542899440326,19.138616378181858
583,1791274387.531915,1.277571847098214,-2.4995694654815055,-1.0468190469547194,2.9959752092319833,8.275936649977284,-16.507292522062393,-5.168901138244158,19.175488854793663
584,1791274387.5579817,1.2488316127232142,-2.5666300123565056,-1.3438014688297195,3.1548331817855173,8.302840316018667,-16.548310771347104,-5.190589280837898,19.228259509917606
585,1791274387.5779817,1.109920479910714,-2.7534415357940056,-1.3390114297672193,3.256733850318158,8.323924216860988,-16.583041761288417,-5.208757862134554,19.272159891694262
586,1791274387.6030529,0.8799986049107141,-2.5426798170440055,-0.8216872110172194,2.813323314053505,8.350131348837918,-16.630006973484946,-5.232179772214721,19.330223243661116
587,1791274387.6230528,0.9374790736607141,-2.394188606106505,-0.7306764688297194,2.672993489940338,8.370627825527965,-16.66925795757515,-5.250390003640383,19.377775059072505
588,1791274387.6333232,1.004539620535714,-2.4564591139190055,-0.8791676797672194,2.7957516049765685,8.381070236737035,-16.690126984281058,-5.259578623954099,19.40272775581055
589,1791274387.6533232,0.9997495814732141,-2.250487434231505,-0.5534450235172194,2.523983817568121,8.401361443555182,-16.73173080332008,-5.276936982496694,19.45198585484955
590,1791274387.6774561,0.9518491908482141,-2.010985481106505,-0.45285420320471936,2.2704969536865143,8.425705502098337,-16.782114995554775,-5.296561992913999,19.511162596752037
591,1791274387.6974561,0.8656284877232141,-1.8768643873565052,-0.5869752969547194,2.1485978233536795,8.445580399004076,-16.82343889683693,-5.3119461800142505,19.559465657604648
592,1791274387.7225494,0.7889878627232141,-1.891234504544005,-0.4193239297672194,2.09167453414191,8.469890306450498,-16.87460103099787,-5.330246761653127,19.61893810324025
593,1791274387.7425494,0.7410874720982141,-1.7140030592315052,-0.22293232820471937,1.8806158436306595,8.48865466411325,-16.914669722367968,-5.343608250591738,19.665133077585704
594,1791274387.75199,0.836888253348214,-1.6469425123565051,-0.06007100007971935,1.8483533516754742,8.497300743287774,-16.933126137367783,-5.349169640502231,19.686251460061097
595,1791274387.77199,0.9087388392857141,-1.4792911451690052,-0.15108174226721935,1.7426801952877848,8.515488346972152,-16.971050314413937,-5.359500873971291,19.729529649231047
596,1791274387.7981153,0.9326890345982141,-1.5271915357940051,-0.31873310945471933,1.8176395729966035,8.539290513199454,-17.01904922333541,-5.3718924174198985,19.78445720962456
597,1791274387.8181152,0.8033579799107141,-1.694842902981505,-0.2804127969547194,1.8964461095346126,8.55738294319989,-17.055115750062807,-5.380854464968505,19.82572497685218
598,1791274387.8443108,0.836888253348214,-1.6421524732940052,-0.22772236726721937,1.8571225513389333,8.58074797660314,-17.101825084402154,-5.391830325485174,19.878971082887748
599,1791274387.8643107,0.9614292689732141,-1.464921027981505,-0.3905836953922194,1.7952424573207377,8.598608542942397,-17.136798420817087,-5.399880734765061,19.918951803249282
600,1791274387.8728707,1.042859933035714,-1.503241340481505,-0.6396657266422193,1.9381598513808413,8.606392924319225,-17.151427194277954,-5.403470872360192,19.935870972617032
601,1791274387.8928707,0.856048409598214,-1.6421524732940052,-0.5103346719547194,1.9209177760956822,8.624701009592355,-17.185197919469584,-5.412325858778094,19.975228815655733
602,1791274387.9178452,0.9901695033482141,-1.5559317701690052,-0.2612526407047194,1.8626895235270133,8.647591732557167,-17.227033183447144,-5.423169981494454,20.024042741783255
603,1791274387.9378452,1.239251534598214,-1.575091926419005,-0.47680439851721934,2.0600974193274766,8.666517378128837,-17.260206616985766,-5.431658566569864,20.063054869840737
604,1791274387.9629664,1.119500558035714,-1.742743293606505,-0.7402565469547194,2.1996398437385265,8.69116749482971,-17.301875420327175,-5.443014479341051,20.112625191804835
605,1791274387.9829664,1.0524400111607142,-1.9582950514190052,-0.8168971719547193,2.368516513569569,8.71110658755207,-17.33562501415325,-5.453034961634482,20.152986451239354
606,1791274387.992514,1.2057212611607142,-1.9918253248565052,-0.7067262735172194,2.4332270568186276,8.720814212134522,-17.35214804232804,-5.458191958576221,20.172791122254313
607,1791274388.0125139,1.3781626674107141,-1.8337540357940052,-0.6779860391422193,2.391997339234969,8.741975181699441,-17.387306886112484,-5.469451441561718,20.21522866308727
608,1791274388.0380256,1.3685825892857142,-1.7954337232940052,-0.5055446328922194,2.313477022640055,8.770174533235476,-17.43237188190681,-5.483924081247185,20.27010049559178
609,1791274388.0580256,1.382952706473214,-1.627782356106505,-0.2995729532047194,2.156844347996635,8.793092729616092,-17.467536175743202,-5.494775733099369,20.313194238218234
610,1791274388.0820932,1.4404331752232142,-1.536771613919005,-0.13192158601721934,2.1104307689398754,8.82163161320471,-17.509217128010032,-5.506654503110576,20.36460440498466
611,1791274388.1020932,1.354212472098214,-1.426600715481505,-0.15587178132971935,1.9731642185113731,8.845981788129023,-17.54310318702568,-5.515476666225946,20.406674057332904
612,1791274388.1424997,1.239251534598214,-1.3978604811065052,-0.19898213289221936,1.878657014958738,8.895657222966049,-17.609854404282288,-5.531702138375753,20.489983360565212
613,1791274388.1624997,1.224881417410714,-1.330799934231505,-0.16545185945471935,1.816242624063669,8.920253083706964,-17.64203125323201,-5.539075240002956,20.530307750538284
614,1791274388.1580427,1.263201729910714,-1.373910285794005,-0.25646260164221935,1.8839005148630013,8.920253083706964,-17.64203125323201,-5.539075240002956,20.530307750538284
615,1791274388.1780427,1.0093296595982142,-1.579881965481505,-0.5342848672672194,1.9494188123615461,8.944604689913144,-17.673158212991442,-5.546126366425678,20.569540392352113
616,1791274388.202118,0.7889878627232141,-1.7666934889190051,-0.6492458047672194,2.040888984320604,8.972768375325366,-17.71105004428525,-5.555478115053796,20.616866955850913
617,1791274388.222118,0.8704185267857141,-1.7187930982940052,-0.41453389070471935,1.97071471122984,8.995144370674117,-17.743034377241376,-5.563677222083419,20.656291908103192
618,1791274388.247697,1.042859933035714,-1.5224014967315052,-0.4576442422672194,1.9012368105162278,9.023140221788386,-17.78402315045402,-5.574263838272946,20.70654380181824
619,1791274388.267697,1.0141196986607142,-1.469711067044005,-0.5917653360172194,1.8811367830955033,9.044831772642722,-17.815752514747807,-5.582873832027111,20.745565783715882
620,1791274388.278073,0.9039488002232141,-1.5607218092315052,-0.4480641641422194,1.8584233894417916,9.055889937788272,-17.832102789089852,-5.5874798556066,20.765667906012812
621,1791274388.298073,1.105130440848214,-1.546351692044005,-0.28520283601721935,1.9219410772573102,9.077021234271957,-17.863551658831767,-5.596126256893615,20.804216434133473
622,1791274388.3227344,1.277571847098214,-1.4361807936065052,-0.2995729532047194,1.9453917473645124,9.103576121136268,-17.902029904383216,-5.606270205012167,20.851571607491856
623,1791274388.3427343,1.2584116908482141,-1.3595401686065052,-0.46243428132971937,1.9093964801127608,9.125685397044817,-17.9327480155084,-5.614405828123985,20.889785498095236
624,1791274388.3677137,1.071600167410714,-1.3212198561065052,-0.4576442422672194,1.7616432895013399,9.153522288345771,-17.970381358362197,-5.624766519375052,20.937038349434644
625,1791274388.3877137,1.109920479910714,-1.4026505201690052,-0.47680439851721934,1.851133271242505,9.175739280326127,-18.000078961089905,-5.633219277696608,20.97451294730354
626,1791274388.3978002,1.162610909598214,-1.5559317701690052,-0.5486549844547194,2.0183186300743126,9.18698236838883,-18.015047814752734,-5.637618540975857,20.993459353295474
627,1791274388.4178002,1.1290806361607142,-1.828963996731505,-0.6157155313297193,2.2358528573709413,9.209369153893357,-18.04535386035446,-5.64677967243761,21.03172358194037
628,1791274388.4422581,1.0141196986607142,-1.9966153639190052,-0.7115163125797194,2.3497163951669062,9.236570759450645,-18.083873307735562,-5.658736931286965,21.07989603537172
629,1791274388.462258,1.1338706752232142,-2.183426887356505,-0.6013454141422194,2.532712377604757,9.258699772286674,-18.116917092113297,-5.669017358467259,21.12069989859359
630,1791274388.4876251,1.200931222098214,-2.4516690748565053,-0.5055446328922194,2.776417192833993,9.286999071487372,-18.161359971135283,-5.682206569076024,21.174768457969336
631,1791274388.507625,1.263201729910714,-2.6768009107940056,-0.6396657266422193,3.028219603713997,9.309660348744563,-18.198836544706186,-5.6927632750789146,21.21968381234761
632,1791274388.5176423,1.2967320033482141,-2.7678116529815053,-0.6875661172672194,3.1328968065516625,9.32123116865744,-18.218881895192055,-5.6982547085888795,21.243425211920584
633,1791274388.5376422,1.263201729910714,-2.7199112623565056,-0.6157155313297193,3.061486812165589,9.344707750810826,-18.26113217051831,-5.709529068271661,21.292985541690527
634,1791274388.5625432,1.2153013392857142,-2.7917618482940054,-0.6731960000797194,3.1183464235685787,9.374181552998344,-18.316138633913162,-5.7238677389385835,21.356939765288534
635,1791274388.5825431,1.071600167410714,-2.7869718092315052,-0.8312672891422194,3.0994425450786554,9.3977338209923,-18.36205992685647,-5.735913517226389,21.40988906101083
636,1791274388.6230226,0.9470591517857141,-2.5378897779815053,-0.6540358438297194,2.786676954219513,9.444381164670588,-18.457227914563997,-5.761146113735645,21.51874537275713
637,1791274388.6430225,0.9614292689732141,-2.370238410794005,-0.6588258828922193,2.641292847680918,9.466834196374663,-18.50455742602658,-5.773712238949111,21.572560076471103
638,1791274388.637541,0.8656284877232141,-2.3846085279815052,-0.9414381875797194,2.705915071008971,9.466834196374663,-18.50455742602658,-5.773712238949111,21.572560076471103
639,1791274388.657541,0.7219273158482141,-2.470829231106505,-0.9558083047672193,2.745859729505525,9.487767339633402,-18.552098571816522,-5.787677466184363,21.626264147142685
640,1791274388.6824973,0.6644468470982141,-2.0493057936065053,-0.7019362344547194,2.265801916666242,9.51256478197124,-18.61098305616178,-5.805592382212076,21.692452188637855
641,1791274388.7024972,0.9805894252232141,-1.469711067044005,-0.7306764688297194,1.9119347121574757,9.531924155402933,-18.656373220912315,-5.819944798166902,21.743725470030153
642,1791274388.7275453,1.1338706752232142,-1.3691202467315051,-1.0755592813297195,2.0777345176407374,9.556505244370308,-18.710025978972013,-5.838616741145308,21.805533932226176
643,1791274388.7475452,0.8033579799107141,-1.5271915357940051,-1.0372389688297194,2.0133461474237397,9.576094165943204,-18.750784343008085,-5.854458504410715,21.853333323154057
644,1791274388.757532,0.47284528459821407,-1.4840811842315051,-0.6540358438297194,1.6893319713930728,9.585364215736687,-18.770338956953474,-5.8624490259278845,21.87631459567295
645,1791274388.7775319,0.5542759486607141,-1.1775186842315053,-0.37142353914221937,1.3534132866227382,9.602685049564153,-18.807618640021303,-5.877589260824329,21.919948325408004
646,1791274388.8027709,0.7410874720982141,-0.9284366529815052,-0.6348756875797193,1.3469492932476126,9.623716407717474,-18.851593409246316,-5.895734405163554,21.971758594612744
647,1791274388.8227708,0.6596568080357141,-0.8901163404815052,-0.7019362344547194,1.311552012396201,9.639983411360628,-18.8839408976458,-5.909961471137438,22.010455437982575
648,1791274388.847085,0.6644468470982141,-0.6937247389190052,-0.4480641641422194,1.0599552449020975,9.659207554040778,-18.920255504933266,-5.926760149951859,22.054542498520647
649,1791274388.867085,1.042859933035714,-0.4206925123565051,-0.34747334382971934,1.1769778054646096,9.675209652451109,-18.94731758503501,-5.939698759351808,22.088244539548754
650,1791274388.8920152,1.200931222098214,-0.4733829420440051,-0.49117451570471937,1.3811515539238672,9.696359822977897,-18.977662550953752,-5.954975760672911,22.127648000289916
651,1791274388.9120152,0.836888253348214,-0.6122940748565051,-0.5247047891422194,1.1621536466601088,9.713838896371898,-18.999983362916762,-5.966916998469583,22.15766531840407
652,1791274388.9222279,0.5255357142857141,-0.5691837232940051,-0.2899928750797194,0.8271963282375134,9.722469034356829,-19.010576406013342,-5.972723972155495,22.17209622612304
653,1791274388.9422278,0.6740269252232141,-0.3584220045440051,-0.15587178132971935,0.7791499480087918,9.738634096029385,-19.029600982677465,-5.983059051341654,22.198281537725087
654,1791274388.9673152,0.6692368861607141,-0.3488419264190051,-0.2804127969547194,0.8051087107476728,9.75839692614118,-19.05121600008224,-5.994899346068647,22.228674270396905
655,1791274388.9873152,0.3483042689732141,-0.5212833326690051,-0.33789326570471934,0.7121966271417394,9.77331515320289,-19.067168204017964,-6.003850161296961,22.251310279699133
656,1791274389.0119112,0.14233258928571407,-0.6649845045440052,-0.28520283601721935,0.7374304136179065,9.789814699998768,-19.086031827038482,-6.014356140977095,22.277557374037816
657,1791274389.0319111,0.19502301897321406,-0.6122940748565051,-0.24688252351721934,0.6883959561560777,9.80172471337835,-19.100985700474006,-6.022415679029751,22.297779097874024
658,1791274389.0419648,0.14233258928571407,-0.4015323561065051,-0.2899928750797194,0.5153471321063295,9.807067996216313,-19.1081396377583,-6.026264173663426,22.307295734563155
659,1791274389.0619648,-0.17860002790178595,-0.3871622389190051,-0.24688252351721934,0.4926901152139404,9.816048707767346,-19.121419479546496,-6.033577017716764,22.324595108865047
660,1791274389.0873523,-0.14027971540178596,-0.2961514967315051,-0.24209248445471934,0.40742223625984786,9.825131466307381,-19.13704911530034,-6.042398403305653,22.344360264637512
661,1791274389.1073523,0.09443219866071406,0.1014217454559949,-0.07923115632971935,0.1596289031741483,9.8311446879085,-19.147807119522753,-6.048787360676312,22.357946057178758
662,1791274389.132766,0.27645368303571405,0.6762264329559948,0.26086161710778066,0.7757303724700264,9.838346401331918,-19.157944461780378,-6.055341787364865,22.371568118374476
663,1791274389.152766,0.09922223772321406,1.3420418626434951,0.6775950155452807,1.5066706403983032,9.843727346330647,-19.16169821979292,-6.058318546842019,22.377955008229033
664,1791274389.1768954,-0.11153948102678596,1.586333854830995,0.8931467733577807,1.8238989318408254,9.849223215307648,-19.16024820480914,-6.058528635758796,22.379188511765932
665,1791274389.1968954,0.08006208147321406,1.514483268893495,0.7254954061702807,1.6811939486633691,9.853048027544693,-19.154575398244305,-6.056248689656301,22.37539859558019
666,1791274389.2069464,0.32435407366071406,1.322881706393495,0.5817942342952807,1.4811165063120786,9.854986725914442,-19.150013275217994,-6.054289299890565,22.37181688499494
667,1791274389.2269464,0.22855329241071407,1.246241081393495,0.5338938436702807,1.3749167526558221,9.859095143119925,-19.13844335507494,-6.049301715608554,22.362375149857577
668,1791274389.2526953,0.20939313616071406,1.284561393893495,0.46204325773278065,1.3810964601247586,9.864436866460622,-19.12089460261923,-6.041920315132939,22.34771859030082
669,1791274389.2726953,0.4105747767857141,1.231870964205995,0.4764133749202807,1.3831295758494135,9.868893530038047,-19.10553392029981,-6.035639283289385,22.33484782676926
670,1791274389.28245,0.4680552455357141,1.021109245455995,0.5338938436702807,1.2436970854425264,9.87138394912158,-19.097517511965414,-6.032296194794272,22.328188318189415
671,1791274389.30245,0.3818345424107141,0.7384969407684949,0.5530539999202807,0.9985209442621857,9.876998974232514,-19.08090746519959,-6.024839588601575,22.314453399106156
672,1791274389.3271346,0.3195640345982141,0.40798424545599493,0.5099436483577807,0.7270590356012571,9.884188227859516,-19.061359337529478,-6.015048886950882,22.298282665501123
673,1791274389.3471346,0.4776353236607141,0.15411217514349493,0.25128153898278066,0.5612739765653572,9.890335163731983,-19.047053672795965,-6.00716433157557,22.286655347357023
674,1791274389.3722546,0.5303257533482141,0.0295711595184949,0.11716044523278066,0.5439176666249795,9.89879664410442,-19.031434858777658,-5.998052620308132,22.274611624475423
