imu_index,t_imu,ax,ay,az,mag,vx,vy,vz,velocity
0,1790595471.0075607,0.030055147058823423,0.007138097426470563,0.005635340073528643,0.03140097701253268,0.0,0.0,0.0,0.0
1,1790595471.0275607,0.015685029871323423,-0.012022058823529438,0.024795496323528645,0.03170751800994257,0.00010693047591827435,1.7751304302637402e-06,5.283126280546846e-05,0.00011928294135279182
2,1790595471.036103,-0.008265165441176578,-0.012022058823529438,0.005635340073528643,0.015639690402010503,0.0001505050810029113,-1.2984815549451414e-05,9.150774891766762e-05,0.00017661838226675348
3,1790595471.056103,0.025265107996323425,0.011928136488970564,-0.04705508961397136,0.05472465240405162,0.0002627225574943381,-4.249938794498901e-05,0.00010634805063971798,0.00028659945580362234
4,1790595471.0670884,0.034845186121323424,-0.0024419806985294373,0.005635340073528643,0.03538230240255683,0.0003646395816156294,-4.846344483166335e-05,7.915081440427949e-05,0.000376265307179168
5,1790595471.0870883,0.0013149126838234227,-0.012022058823529438,0.07269588694852865,0.07369498539897908,0.0005765973567707734,-7.938892488128714e-05,0.0001545595305774762,0.0006022090681160314
6,1790595471.1275811,-0.0034751263786765773,0.016718175551470565,0.08227596507352865,0.08402921114647018,0.000934804445112646,-0.00011834805039380875,0.0007549767481839863,0.001207416871644936
7,1790595471.147581,0.025265107996323425,0.05982852711397057,0.039165613511028645,0.07584011880520934,0.0011178746090836301,-1.9884222114483356e-05,0.0011892106626648475,0.0016322564210683144
8,1790595471.1573012,0.020475068933823424,0.050248448988970566,0.000845301011028643,0.054266468536668604,0.0012268465308584175,0.00010103842267983648,0.001397762688250963,0.0018625524706175453
9,1790595471.1773012,-0.0034751263786765773,-0.0024419806985294373,-0.03747501148897136,0.03771493416643199,0.0014429332838104274,0.0003842361833444384,0.001707566045510654,0.002268364103467505
10,1790595471.1875703,0.0013149126838234227,-0.026392176011029438,-0.03747501148897136,0.045854688266978465,0.0015355784019038053,0.00048562729074220416,0.0017850510395119416,0.0024042134072435667
11,1790595471.2075703,0.006104951746323423,-0.026392176011029438,0.010425379136028643,0.029025952534792662,0.0017000765971083927,0.0005742977055536776,0.0018727483671349245,0.002593697117484306
12,1790595471.2473319,0.0013149126838234227,0.021508214613970563,0.029585535386028646,0.03660104090493397,0.0020001835963099953,0.0007095743930354481,0.002140262382866079,0.003014125628720674
13,1790595471.2673318,0.0013149126838234227,0.045458409926470565,0.015215418198528645,0.04795523933174804,0.002132438594761151,0.0008678615639082028,0.0023218389357272037,0.003269772789964914
14,1790595471.3074121,-0.0034751263786765773,0.045458409926470565,0.015215418198528645,0.048063005392369386,0.0023512300579121128,0.0014107883329298812,0.0027226149139826525,0.003864096074815071
15,1790595471.3274121,-0.0034751263786765773,0.026298253676470564,0.010425379136028643,0.028501985543286503,0.0024336046552652004,0.0017487045414047065,0.0029310644121515327,0.0041918418123110405
16,1790595471.3074121,-0.008265165441176578,0.007138097426470563,0.010425379136028643,0.015098143090120275,0.0024336046552652004,0.0017487045414047065,0.0029310644121515327,0.0041918418123110405
17,1790595471.3274121,0.0013149126838234227,0.011928136488970564,-0.018314855238971358,0.021896195055079032,0.0024677260748643087,0.0020640796326262915,0.0030964196631538318,0.004465188847154572
18,1790595471.3976018,0.015685029871323423,0.040668370863970564,-0.03268497242647136,0.054481592977013354,0.002659004095083959,0.0032817442898179514,0.003321210491600418,0.005373135722363868
19,1790595471.4176018,-0.008265165441176578,0.016718175551470565,0.010425379136028643,0.021365834495047205,0.002716461512862325,0.003662743013677674,0.0033422655840955424,0.005653811879584993
20,1790595471.3976018,-0.013055204503676579,0.031088292738970565,0.029585535386028646,0.04485782221792204,0.002716461512862325,0.003662743013677674,0.0033422655840955424,0.005653811879584993
21,1790595471.4176018,0.015685029871323423,0.040668370863970564,0.024795496323528645,0.050147314870528016,0.0027347357857411604,0.004106602673362771,0.003490063225559877,0.006043468098127845
22,1790595471.4266531,0.020475068933823424,0.05982852711397057,-0.008734777113971358,0.06383554993655723,0.0027663128169980304,0.004345569554567201,0.003557821064237989,0.006260555253346504
23,1790595471.4466531,-0.0034751263786765773,0.050248448988970566,-0.027894933363971357,0.05757699572333862,0.002851119950675338,0.004959506888101922,0.003630137744341677,0.00677521170068976
24,1790595471.4873703,-0.0034751263786765773,0.016718175551470565,-0.03268497242647136,0.03687656870746999,0.002976652380343145,0.006226414465007424,0.0035702823044278832,0.007770174529363357
25,1790595471.5073702,-0.0034751263786765773,-0.0024419806985294373,-0.008734777113971358,0.009712677504711144,0.003018638601416815,0.006776780825205427,0.003483162234521959,0.008195691338187134
26,1790595471.5167696,0.0013149126838234227,0.011928136488970564,0.024795496323528645,0.027546797879167615,0.0030338882114523003,0.007003326013325219,0.003459682004147794,0.008379764465564115
27,1790595471.5367696,-0.0034751263786765773,0.045458409926470565,0.039165613511028645,0.06010398337952386,0.0030582286688916986,0.007499140283197591,0.003513156724358897,0.008827918086854684
28,1790595471.5772128,-0.02263528262867658,0.06461856617647056,0.04874569163602865,0.08404794802645552,0.003020866842913059,0.008685253871157563,0.0038717270137651554,0.009977451646497104
29,1790595471.5972128,-0.0034751263786765773,0.05982852711397057,0.015215418198528645,0.06183072141687336,0.0029659965075174125,0.009370498153737849,0.004118390879540499,0.010656665255533378
30,1790595471.6067603,-0.02263528262867658,0.011928136488970564,-0.008734777113971358,0.027035768733482252,0.002925035254255847,0.009699930424700102,0.004223119700396563,0.010976302723892951
31,1790595471.6267602,-0.03700539981617658,-0.0024419806985294373,-0.013524816176471357,0.039475100226527775,0.002762639758846072,0.010300738297822293,0.004376207794828961,0.011527731024833194
32,1790595471.6369412,-0.017845243566176578,0.021508214613970563,0.000845301011028643,0.027960160006981892,0.002650490347880954,0.010575260762174696,0.004432765890659367,0.011769054877669447
33,1790595471.6569412,-0.013055204503676579,0.03587833180147056,0.020005457261028644,0.04310349611936455,0.002416874470928361,0.01111973361309542,0.004558481780049136,0.01225844663786849
34,1790595471.6973588,-0.017845243566176578,0.045458409926470565,0.020005457261028644,0.052774407350552485,0.0019219108646033422,0.012301561429714915,0.004895716683075177,0.01337872179326077
35,1790595471.7173588,-0.0034751263786765773,0.045458409926470565,0.010425379136028643,0.04676785291758381,0.0016817448353707136,0.012935022411029949,0.005083206491588172,0.013999359224666936
36,1790595471.726945,-0.013055204503676579,0.03587833180147056,0.005635340073528643,0.03859339470989238,0.001572014322810036,0.013251578042579263,0.0051711385827998176,0.014311401884239352
37,1790595471.746945,-0.02742532169117658,0.021508214613970563,0.015215418198528645,0.038029732009327306,0.0013166974835298426,0.013899037585913378,0.005358353474494692,0.01495422649405164
38,1790595471.7870965,-0.008265165441176578,0.031088292738970565,0.010425379136028643,0.03381543191094697,0.0007735362257946802,0.015162278865771503,0.0057550392096308465,0.016236179815474643
39,1790595471.8070965,0.0013149126838234227,0.040668370863970564,0.020005457261028644,0.04534163323390958,0.0005331391125246805,0.01580476376150716,0.005968640165368343,0.016902646547035223
40,1790595471.817664,0.0013149126838234227,0.040668370863970564,0.034375574448528644,0.05326655144423999,0.00042725719413741844,0.01615777805205539,0.006107671852916548,0.01727888873024924
41,1790595471.837664,-0.008265165441176578,0.031088292738970565,0.005635340073528643,0.03265810715485923,0.00024649793475228397,0.016833312528783038,0.006391350607289802,0.01800751327942936
42,1790595471.8773398,-0.02263528262867658,0.026298253676470564,-0.013524816176471357,0.037240768234817694,-0.00015025401525360903,0.01814318364441712,0.006846221413703806,0.01939248402525064
43,1790595471.8973398,-0.05137551700367658,0.016718175551470565,-0.02310489430147136,0.05876033765940265,-0.00043126670745073436,0.01876894966306065,0.006986175727982625,0.020031627835243784
44,1790595471.8783407,-0.013055204503676579,0.031088292738970565,-0.07100528492647136,0.0786045214828392,-0.00043126670745073436,0.01876894966306065,0.006986175727982625,0.020031627835243784
45,1790595471.8983407,-0.02742532169117658,-0.0072320197610294375,-0.003944738051471357,0.028635840095641806,-0.0007771682005259017,0.01931780317581161,0.006854877428715237,0.020512699834834405
46,1790595471.9374206,-0.04179543887867658,0.007138097426470563,0.08706600413602865,0.09684162442950826,-0.0015545606888952438,0.020229117332462323,0.006880432243972932,0.02142368303653432
47,1790595471.9574206,-0.02263528262867658,0.07898868336397057,0.09185604319852865,0.1232440700047821,-0.0019893768932928296,0.020754734292542844,0.007159931550991812,0.022044982100072327
48,1790595471.9670262,0.0013149126838234227,0.09814883961397057,0.015215418198528645,0.09932991827184352,-0.002182246107445548,0.021096926371492214,0.007351171238601267,0.02244732097549423
49,1790595471.9870262,-0.02263528262867658,0.05503848805147057,-0.03747501148897136,0.0703275740571966,-0.0025555647852965584,0.02193231552392153,0.007656236112918685,0.02337039424206313
50,1790595471.9975827,-0.04658547794117658,-0.0024419806985294373,-0.03747501148897136,0.05983766799298227,-0.0027778586540422134,0.022348755295510322,0.007733762938852442,0.023811645284499045
51,1790595472.0175827,-0.03700539981617658,-0.03118221507352944,0.005635340073528643,0.048718448355743495,-0.003261223981406523,0.02296894819550329,0.007810851660808088,0.024478920865343784
52,1790595472.0569046,-0.0034751263786765773,-0.01681209788602944,0.039165613511028645,0.04276293278497721,-0.004188398408493042,0.023863861538256648,0.008071805364211933,0.025537827052885147
53,1790595472.0769045,0.034845186121323424,0.050248448988970566,0.029585535386028646,0.06792935687686731,-0.0045421874344517745,0.024300912696659408,0.008287749752166439,0.02607398359543261
54,1790595472.1168442,0.034845186121323424,0.06940860523897056,0.034375574448528644,0.08493186443093816,-0.004933966167047452,0.025401208735095594,0.008845895403967076,0.02734621167254052
55,1790595472.1368442,0.010894990808823423,0.06940860523897056,0.04874569163602865,0.08551255907186027,-0.005032113398468835,0.026077766412824343,0.009208147341751642,0.028109821127219697
56,1790595472.1178458,0.020475068933823424,0.031088292738970565,0.015215418198528645,0.040214665785318515,-0.005032113398468835,0.026077766412824343,0.009208147341751642,0.028109821127219697
57,1790595472.1378458,-0.013055204503676579,0.011928136488970564,-0.02310489430147136,0.029095617288768628,-0.005051898199111836,0.026759237340013984,0.009539590501199088,0.028854501301598612
58,1790595472.177507,0.025265107996323425,0.016718175551470565,-0.08058536305147136,0.08609194976287342,-0.005048928056152292,0.02799313658234366,0.009789835757119475,0.030082357859471782
59,1790595472.197507,0.039635225183823425,0.002348058363970563,-0.07100528492647136,0.08135241201674591,-0.004950304555580633,0.028550622663856388,0.009669712732661087,0.030547453478466914
60,1790595472.2368133,0.020475068933823424,0.011928136488970564,-0.027894933363971357,0.03660104090493513,-0.004608347706989763,0.029524002307410178,0.009177488493078248,0.031259076695850485
61,1790595472.2568133,0.025265107996323425,0.03587833180147056,0.015215418198528645,0.046444475730472154,-0.0043918414759535635,0.03001669776642966,0.008945582695232988,0.031627738871255744
62,1790595472.2377603,0.05400534237132343,0.08377872242647057,0.043955652573528646,0.10893828862810458,-0.0043918414759535635,0.03001669776642966,0.008945582695232988,0.031627738871255744
63,1790595472.2577603,0.07795553768382342,0.08377872242647057,0.024795496323528645,0.11709294096962351,-0.003936404864887688,0.030776568761803257,0.008956600424572279,0.032294166023846535
64,1790595472.2975297,0.06837545955882343,0.045458409926470565,-0.008734777113971358,0.08257098058127986,-0.002730162865053139,0.032446380269455184,0.0090231270089886,0.033788137014048966
65,1790595472.3175297,0.039635225183823425,0.016718175551470565,-0.03268497242647136,0.054025511489123094,-0.0020525221973991675,0.03325342903949128,0.0089894351508404,0.03450816330357881
66,1790595472.3568442,0.034845186121323424,-0.0024419806985294373,-0.008734777113971358,0.03600620219896037,-0.0007006618964725641,0.03464399578560117,0.008811010714430542,0.0357537589757459
67,1790595472.3768442,0.05879538143382342,0.007138097426470563,0.029585535386028646,0.06620538661541465,2.435663713698565e-05,0.03525233482140489,0.008765134324198951,0.036325683521820466
68,1790595472.3568442,0.06837545955882343,0.07419864430147056,0.06311580882352864,0.11901364463583437,2.435663713698565e-05,0.03525233482140489,0.008765134324198951,0.036325683521820466
69,1790595472.3768442,0.06837545955882343,0.18436954273897058,0.16370662913602865,0.2558655744384903,0.0009154513783567763,0.03618341593225194,0.009190416065872262,0.03734355884508494
70,1790595472.4171276,0.18333639705882343,0.27059024586397057,0.18286678538602866,0.3745284726701756,0.003201534746923565,0.039152022344924965,0.010965606519240017,0.04078449711309509
71,1790595472.4371276,0.20728659237132344,0.14125919117647057,0.010425379136028643,0.2510589153941277,0.00475221693393172,0.0410225751911846,0.012004691229980375,0.043006369907616124
72,1790595472.447961,0.006104951746323423,0.16041934742647057,0.13975643382352865,0.21284618450803847,0.005639571968147449,0.042128940737616326,0.012605135666266117,0.04433443204578668
73,1790595472.467961,0.030055147058823423,0.19873965992647058,0.2547173713235287,0.3244714217714483,0.00708625390402093,0.04440379293618457,0.014139066142109457,0.04713623884955982
74,1790595472.4778306,0.11148581112132343,0.24664005055147056,0.27866756663602865,0.38847910279995346,0.007797846475848754,0.04568767458196941,0.015177305786785236,0.04877007924244562
75,1790595472.4978306,0.17854635799632343,0.2322699333639706,0.2738775275735287,0.4010449152008333,0.009458586562874585,0.04861747817552861,0.01779445255381144,0.05262857195103473
76,1790595472.5378025,0.17854635799632343,0.09335880055147057,0.2547173713235287,0.32477008305588884,0.013350382672312972,0.05457083939744075,0.023825140659851335,0.06102332797791486
77,1790595472.5578024,0.39888815487132345,0.03587833180147056,-0.09016544117647136,0.41052262004919177,0.01587171110715309,0.057296654247240376,0.02663681471221177,0.0651485817144889
78,1790595472.5675023,0.006104951746323423,0.2849603630514706,-0.16680606617647137,0.3302483045520752,0.01720573767762806,0.05865375766338238,0.027608963781449104,0.06707127237611872
79,1790595472.5875022,-0.1423862591911766,0.39034122242647057,-0.13327579273897136,0.4363514107483205,0.019339341424077047,0.06204517925037143,0.02886263756576248,0.07111024006555108
80,1790595472.5975664,0.044425264246323426,0.4478216911764706,-0.03747501148897136,0.45157751015479985,0.020177996751316048,0.06412843072948281,0.029269981782968694,0.07332352292612185
81,1790595472.6175663,0.32703756893382346,0.4478216911764706,0.2930376838235287,0.6271912967531978,0.022151819027073305,0.068990853314076,0.03034139766728282,0.07855597583644897
82,1790595472.6581953,0.2647670611213234,0.5292523552389706,0.5085894416360287,0.7803030644079694,0.027363406087551917,0.0803642548582456,0.034634136693795003,0.0916880192618305
83,1790595472.6781952,0.08753561580882342,0.7400140739889707,0.4415288947610287,0.8661588068279853,0.03007249637693323,0.08702702122487731,0.037855484425887015,0.09955448338841642
84,1790595472.6878421,0.034845186121323424,0.8932953239889707,0.47026912913602864,1.0101206743130984,0.031271749893891775,0.09094043797583656,0.039835916808332233,0.10409123819334394
85,1790595472.707842,0.09232565487132342,0.9555658318014707,0.5756499885110287,1.1193761631938581,0.03357585908119326,0.10061004326102074,0.04489475909682184,0.11517490400424166
86,1790595472.7174335,0.26955710018382345,0.9747259880514707,0.4415288947610287,1.1034942441858604,0.03477540916613692,0.10594024403006203,0.04768861524523959,0.12127187807496768
87,1790595472.7374334,0.27913717830882345,0.9555658318014707,0.2738775275735287,1.0324885100234469,0.03772456875945725,0.118283088540286,0.05371363924812679,0.13527448822299815
88,1790595472.777565,0.27913717830882345,0.7974945427389707,0.14933651194852865,0.8580305960824502,0.04443496755373223,0.144611441245695,0.06526369810538538,0.16476129876596998
89,1790595472.797565,0.33182760799632344,0.7016937614889707,-0.008734777113971358,0.7762473785284771,0.04819398079123406,0.1580130765619997,0.07036727773438078,0.17956153798862856
90,1790595472.8071346,0.39888815487132345,0.6585834099264707,-0.10932559742647137,0.7776862826228077,0.05024726196218811,0.1644399623609668,0.07235822143279463,0.18655026337395045
91,1790595472.8271346,0.45636862362132347,0.6825336052389707,-0.22907657398897135,0.8524086576619532,0.05517769467972107,0.17786866922080824,0.07538742810772349,0.20091069109743012
92,1790595472.8387516,0.46115866268382344,0.6394232536764707,-0.2913470818014714,0.840483510596591,0.05841136591952469,0.18565048156455197,0.07642957999578988,0.20909201245400913
93,1790595472.8587515,0.44199850643382343,0.5627826286764706,-0.3536175896139714,0.7982057169139569,0.06449818419402778,0.1988415227622514,0.07698719620560057,0.22276668359145924
94,1790595472.8979406,0.5425893267463234,0.7495941521139706,-0.4829486443014714,1.0438074359838219,0.07752989680625638,0.2246690226426696,0.07545710653596165,0.24936084207585724
95,1790595472.9179406,0.6383901079963235,0.6346332146139707,-0.3919379021139714,0.9817925270607435,0.08495443876240433,0.2379491677776895,0.07348103474842972,0.2631283443098255
96,1790595472.9280384,0.5809096392463234,0.6537933708639707,-0.3009271599264714,0.9249102315016194,0.08906412704254439,0.24462416607977683,0.07210826679983996,0.27013515783206304
97,1790595472.9480383,0.5809096392463234,0.6346332146139707,-0.22428653492647138,0.8891117903896445,0.09772569155674987,0.2577944513047783,0.06900933303077009,0.2842016501696084
98,1790595472.9871552,0.7533510454963235,0.6490033318014706,-0.3823578239889714,1.0653359226109833,0.11603967293139135,0.28345551778698225,0.06207770280143661,0.31251540352919244
99,1790595473.0071552,0.8299916704963235,0.5196722771139706,-0.4733685661764714,1.0876687216878425,0.1263738458525768,0.29636069563947653,0.057781663972184656,0.32732053331082017
100,1790595473.0177078,0.8108315142463235,0.5053021599264705,-0.4206781364889714,1.0439100113712751,0.13230722343756832,0.30295972516561304,0.05514735105368858,0.33515821155749886
101,1790595473.0377078,0.9257924517463235,0.5005121208639706,-0.4446283318014714,1.1424965646700116,0.1444706444032662,0.31509927730732146,0.049605596076153224,0.3501714391779571
102,1790595473.0476851,1.0263832720588235,0.38076114430147057,-0.46857852711397135,1.1908012034946223,0.15108920378333213,0.32090635851236954,0.04657233159537576,0.3577398782688063
103,1790595473.0676851,1.0024330767463234,0.3855511833639706,-0.49731876148897136,1.1835741374655764,0.16540951872614476,0.3319502746715486,0.039955231438211974,0.37302508529455825
104,1790595473.1078103,0.9305824908088235,0.3951312614889706,-0.5979095818014714,1.1745673050173966,0.1956474219927825,0.35313305661784905,0.025374996447430402,0.40450557456405223
105,1790595473.1278102,0.9162123736213235,0.3951312614889706,-0.7224505974264714,1.2318720278927315,0.21122863169196063,0.3632930478647718,0.017217188397858935,0.4205898299408352
106,1790595473.1373224,1.0551235064338236,0.3472308708639706,-0.7416107536764714,1.335605256607933,0.21893399925940277,0.36793002168381805,0.012874763468555149,0.4283343978976498
107,1790595473.1573224,1.0934438189338236,0.21310977711397058,-0.6074896599264714,1.2688888245956502,0.23592772203161472,0.37705763634619904,0.003090422019785797,0.44479647239863507
108,1790595473.1972795,1.0503334673713234,0.12688907398897056,-0.5068988396139714,1.173135824779056,0.2712104814826565,0.39357683462352844,-0.016864688227767603,0.4782700782270938
109,1790595473.2172794,1.0838637408088234,0.05503848805147057,-0.5116888786764714,1.1998397194493409,0.289423052378202,0.4008779254216497,-0.026882599026728064,0.49516814161324335
110,1790595473.2273579,1.0982338579963236,0.10772891773897057,-0.6026996208639714,1.2573662789960107,0.2988735189632621,0.4041282615863157,-0.0320159542360687,0.5036566821515496
111,1790595473.2473578,1.0742836626838235,0.13646915211397057,-0.5356390739889714,1.2081466943098589,0.31807304639369094,0.40997712468787784,-0.04238224518408084,0.5206226659648486
112,1790595473.257865,1.0647035845588235,0.15562930836397057,-0.4446283318014714,1.1642630965700214,0.32833223523225424,0.4128191321464312,-0.04778382102305507,0.5296272142840701
113,1790595473.277865,1.0359633501838235,0.06940860523897056,-0.39672794117647137,1.111499292269425,0.34808209733719037,0.41775491746773163,-0.05778533918933256,0.5468267211652652
114,1790595473.287938,1.0120131548713234,-0.012022058823529438,-0.40630801930147137,1.0905967917061055,0.35808444945880197,0.41991133521636537,-0.06267378155882153,0.5554079629266103
115,1790595473.307938,1.0455434283088234,-0.012022058823529438,-0.3727777458639714,1.1100760506332652,0.37805122431476973,0.42351454174583114,-0.0720923758403841,0.5722627070938564
116,1790595473.3477983,1.1269740923713234,-0.08387264476102944,-0.4302582146139714,1.2092259328422377,0.4183709640764161,0.4293319186487001,-0.0904487511723959,0.6062517105472363
117,1790595473.3677983,1.0742836626838235,-0.23236385569852944,-0.5835394646139714,1.2444262357031928,0.4388687995907387,0.4313386154374611,-0.0997982504825876,0.6233927455634267
118,1790595473.4074626,1.0024330767463234,-0.2898443244485295,-0.5308490349264714,1.1707615058808907,0.47960053650283585,0.4331678950626152,-0.11887411552624821,0.6571013280072813
119,1790595473.4274626,1.0407533892463234,-0.31858455882352943,-0.47815860523897136,1.1888226907796513,0.5001228107557426,0.433039276243235,-0.12856348277660323,0.673924632070337
120,1790595473.4084642,0.9593227251838234,-0.21320369944852946,-0.49731876148897136,1.10139995416814,0.5001228107557426,0.433039276243235,-0.12856348277660323,0.673924632070337
121,1790595473.4284642,1.0551235064338236,-0.03597225413602944,-0.4637884880514714,1.1531172440588615,0.5205219149831422,0.431894556189628,-0.13824944257088173,0.6903541699845904
122,1790595473.4678419,1.1317641314338234,0.08856876148897057,-0.4398382927389714,1.2174531606888948,0.5611194987507034,0.4301341407284617,-0.15712811855815245,0.7242649491312398
123,1790595473.4878418,1.0024330767463234,0.040668370863970564,-0.4254681755514714,1.089747290958288,0.5818474233934448,0.4295679964863059,-0.1665763060208801,0.7421743416761397
124,1790595473.4968805,0.8539418658088235,0.06940860523897056,-0.2530267693014714,0.8933402546876604,0.5910683821166761,0.4294251366072097,-0.17066572851867245,0.7502630013395002
125,1790595473.5168805,1.1317641314338234,0.09814883961397057,-0.18596622242647137,1.151132781134,0.6113897396208725,0.42940778133052354,-0.1790156130497825,0.7682675615281895
126,1790595473.5270998,1.1700844439338234,0.3041205193014706,-0.19075626148897137,1.2239178271000752,0.6219800080421325,0.42970856296619964,-0.18293089207371266,0.7777996469306552
127,1790595473.5470998,1.0215932329963235,0.3951312614889706,-0.29613712086397137,1.1346711602324915,0.6428845563537856,0.43125779339317577,-0.19017434373338474,0.7971512517552604
128,1790595473.6174247,0.9449526079963235,0.2945404411764706,-0.31050723805147135,1.0373544465272402,0.7157365855523372,0.4395257322419009,-0.2150233169600671,0.867004472905075
129,1790595473.6374247,0.9928529986213235,0.24664005055147056,-0.26739688648897136,1.057397506291452,0.7362541709014541,0.4423361517711208,-0.2218970369642696,0.8871131665954429
130,1790595473.6184256,0.9641127642463234,0.3663910271139706,-0.24344669117647136,1.0597273698348502,0.7362541709014541,0.4423361517711208,-0.2218970369642696,0.8871131665954429
131,1790595473.6384256,0.9210024126838234,0.5148822380514706,-0.18596622242647137,1.0714161652289398,0.756400925353021,0.44647020239667645,-0.2281587433638012,0.9074879688879541
132,1790595473.647734,0.8156215533088235,0.5963129021139706,-0.14764590992647136,1.0210910391182069,0.7655834583326993,0.4488814059679247,-0.23086880724499323,0.9170130612238424
133,1790595473.667734,0.8539418658088235,0.5867328239889706,-0.12369571461397136,1.0434427376435125,0.7848580246093223,0.45505959689425274,-0.23622525723040758,0.9374879880151956
134,1790595473.7076004,0.8443617876838234,0.6106830193014706,-0.17159610523897137,1.0560898644987398,0.8225933163068572,0.46910771782693894,-0.2461837454257608,0.978431526203734
135,1790595473.7276003,0.7916713579963235,0.5723627068014706,-0.23865665211397136,1.005633931809731,0.84113857291305,0.47687273141222064,-0.2510456558006377,0.9989722829503962
136,1790595473.7373543,0.7485610064338235,0.5436224724264705,-0.19554630055147137,0.9455724871947437,0.8499531286591262,0.4809080572038772,-0.25337876577284046,1.0089071708267379
137,1790595473.7573543,0.7773012408088235,0.6202630974264707,-0.14764590992647136,1.0053471259769093,0.8676046621370275,0.48968698595562143,-0.2579598920801515,1.0291134533656676
138,1790595473.7663393,0.7916713579963235,0.6537933708639707,-0.15722598805147137,1.0387055993765404,0.8754024556246786,0.4938979075874644,-0.2599147089053643,1.03818122615387
139,1790595473.7863393,0.7629311236213234,0.5340423943014706,-0.17638614430147137,0.9478276479417985,0.8924880282167202,0.5036468560070358,-0.2641137016829075,1.0582774132960548
140,1790595473.827109,0.7773012408088235,0.4957220818014706,-0.19554630055147137,0.942430876514499,0.926802145400099,0.5236877903734157,-0.27252664673192056,1.0988548091915336
141,1790595473.847109,0.8491518267463235,0.5292523552389706,-0.16680606617647137,1.014392007118493,0.9435499432643484,0.5335818142507839,-0.27657816046038014,1.1187008209422933
142,1790595473.856795,0.9641127642463234,0.6394232536764707,-0.26739688648897136,1.1873822528692632,0.9517615048617417,0.5385037234722113,-0.27856141327635536,1.1284647461470134
143,1790595473.876795,0.8970522173713235,0.6011029411764706,-0.3440375114889714,1.1333089763578756,0.9689654437773747,0.5490030032216362,-0.2829593909041564,1.14907107947329
144,1790595473.9167302,0.8874721392463235,0.6011029411764706,-0.38714786305147136,1.1396556548777224,1.0035096122932456,0.5704236084978942,-0.29261382924799967,1.1908137923973994
145,1790595473.9367301,0.9545326861213235,0.6681634880514706,-0.3440375114889714,1.21488143658162,1.0209777291476552,0.5814460469831915,-0.29782040556339284,1.2120940652184657
146,1790595473.9467747,0.9162123736213235,0.7352240349264707,-0.26739688648897136,1.2047823828452904,1.0298440908757176,0.587208701339267,-0.30050368598054245,1.222986253286632
147,1790595473.9667747,0.9210024126838234,0.7112738396139706,-0.26739688648897136,1.1940087997969782,1.0476058225307974,0.5991314752728423,-0.30584720537680987,1.2449815248026155
148,1790595474.0063071,1.0072231158088234,0.5963129021139706,-0.22428653492647138,1.1918019684480066,1.0831648903327447,0.623040185857345,-0.31628281815462944,1.2889763666966652
149,1790595474.026307,1.0982338579963236,0.4861420036764706,-0.18117618336397137,1.2146095932464875,1.101614409106599,0.6349452423403377,-0.32137860018029896,1.3114854066194406
150,1790595474.0073078,1.0886537798713234,0.3855511833639706,-0.06142520680147136,1.1565421840348415,1.101614409106599,0.6349452423403377,-0.32137860018029896,1.3114854066194406
151,1790595474.0273077,1.0599135454963236,0.3280707146139706,-0.018314855238971358,1.1096767780017445,1.1209553134143784,0.645728485228977,-0.32548922915031026,1.333960017991881
152,1790595474.0669122,1.1557143267463235,0.17478946461397057,-0.13327579273897136,1.1764307879841243,1.160090874226757,0.6653723900760512,-0.33285847197414903,1.378160373942265
153,1790595474.0869122,1.2227748736213235,0.031088292738970565,-0.25781680836397136,1.2500457512347507,1.1804573308302735,0.6741132455216825,-0.3366083176390217,1.4004332676720026
154,1790595474.0966563,1.2610951861213235,-0.14614315257352944,-0.40630801930147137,1.3329685277797036,1.190706884128451,0.6776489906555312,-0.3386465826320696,1.411266291801701
155,1790595474.1166563,1.2084047564338234,-0.36648494944852944,-0.5116888786764714,1.362489920001379,1.2122928267116242,0.6830486224888972,-0.3435795985064429,1.433267685706438
156,1790595474.1270154,1.1461342486213235,-0.4095953010110295,-0.6170697380514714,1.3646124314588348,1.2236255625424315,0.684822905385115,-0.3466283729773549,1.4444352384237655
157,1790595474.1470153,1.1030238970588235,-0.5006060431985294,-0.5931195427389714,1.3487249237515442,1.2455971744283274,0.6863693372947881,-0.3534469250004169,1.4654487083874923
158,1790595474.1864197,1.2323549517463235,-0.6538872931985295,-0.5021088005514713,1.4826936861305575,1.2892945888842098,0.6855472205501172,-0.3681026346167206,1.50590672956258
159,1790595474.2064197,1.3952162798713235,-0.7784283088235294,-0.6218597771139713,1.7144353828558467,1.3120880367529835,0.6830440686506491,-0.37611140451800024,1.526297482313862
160,1790595474.2173367,1.3760561236213236,-0.9029693244485294,-0.7176605583639714,1.7955279817597007,1.3249325675852563,0.6805059995665769,-0.38092400003428656,1.5374127025285977
161,1790595474.2373366,1.2802553423713234,-1.1328911994485293,-0.49731876148897136,1.7803994388864444,1.348918666014317,0.6734999045077354,-0.3902406903286637,1.557392527682718
162,1790595474.2465072,1.1030238970588235,-0.9891900275735295,-0.17159610523897137,1.49151059381653,1.3599063951269414,0.6693097469605599,-0.39433192455732385,1.5661476966137788
163,1790595474.2665071,0.9736928423713235,-0.8550689338235294,-0.16201602711397137,1.3059363789699134,1.3833901015126773,0.6587758064925441,-0.4024165166580261,1.5842009938963986
164,1790595474.3071132,0.9880629595588235,-0.8263286994485294,-0.5356390739889714,1.3949898742170863,1.4298917181411193,0.6354761637457255,-0.4184932375952865,1.6197397538526155
165,1790595474.3271132,0.9353725298713235,-0.8263286994485294,-0.8661517693014714,1.5191970828810353,1.4522450827495559,0.6232426280854318,-0.4273265490533048,1.637087393317445
166,1790595474.337146,0.7246108111213234,-0.7496880744485294,-0.6697601677389714,1.2392222233538184,1.4630256025526975,0.6168403684720971,-0.43224878119479687,1.645531817603617
167,1790595474.357146,0.7725112017463235,-0.6395171760110294,-0.34882755055147135,1.061808097191018,1.4835380661012785,0.6039084135987345,-0.4421170146957072,1.6616431687550446
168,1790595474.397184,0.7964613970588235,-0.6826275275735294,-0.4206781364889714,1.1301775050521383,1.5231536761920592,0.5779330660738292,-0.4612196131802521,1.6931412468370803
169,1790595474.4171839,0.5138490923713235,-0.6299370978860294,-0.3919379021139714,0.9024837705673199,1.5419398331213483,0.5649351507278455,-0.47054945359541556,1.7082584587155214
170,1790595474.4267404,0.6048598345588234,-0.2706841681985295,-0.23386661305147136,0.702722513568495,1.5503717103082273,0.5590104973129383,-0.4747873352687077,1.7151000524639013
171,1790595474.4467404,0.8539418658088235,-0.021602136948529436,-0.3823578239889714,0.9358850720400337,1.5675592616749163,0.5480327834167023,-0.48325038073860627,1.7294834202866112
172,1790595474.4562917,0.6958705767463235,-0.07429256663602944,-0.4254681755514714,0.8190106308502518,1.5756464083570967,0.5435079053914955,-0.4872644687227858,1.7365163718984535
173,1790595474.4762917,0.31745749080882346,-0.01681209788602944,-0.19075626148897137,0.37074230457719887,1.591560413851072,0.5353175846045396,-0.4953333320159824,1.7507097352590146
174,1790595474.5166428,0.2743471392463234,0.07898868336397057,-0.056635167738971356,0.29105516167392836,1.6206427493956703,0.5214599609713986,-0.5099195220430769,1.7771947926509604
175,1790595474.5366428,0.6000697954963234,0.13167911305147056,-0.21470645680147138,0.6507856873604886,1.6342067927000423,0.515937730666965,-0.5164717115925186,1.7898510027675607
176,1790595474.5466833,0.5042690142463234,0.045458409926470565,-0.4398382927389714,0.6706798263862831,1.6408264865254563,0.513714661811583,-0.5197605765979494,1.7962086097191203
177,1790595474.5666833,0.2743471392463234,-0.06950252757352944,-0.3823578239889714,0.47570417248257557,1.6532024615689027,0.5099146344009637,-0.5265623703061323,1.8084134602286503
178,1790595474.5772223,0.19291647518382343,0.15083926930147057,-0.07579532398897136,0.25634777685664734,1.6591151265233497,0.5082768540674585,-0.5299711010761519,1.8143532543072125
179,1790595474.5972223,0.48031881893382344,0.38076114430147057,0.07748592601102865,0.617810072402138,1.6696623810105817,0.5064324383700329,-0.5354670058362869,1.8250948456271034
180,1790595474.637225,0.5090590533088234,0.38076114430147057,0.024795496323528645,0.6361878538634409,1.690562214636315,0.5055814405793273,-0.5445037924137619,1.8466449508682712
181,1790595474.657225,0.23123678768382344,0.4526117302389706,0.10143612132352865,0.5182828542768997,1.700554504289918,0.506469848349606,-0.5481548276679556,1.8571136326147863
182,1790595474.6960895,-0.02263528262867658,0.6202630974264707,0.26908748851102865,0.6764959294200761,1.7176672860930078,0.5110645385999883,-0.5531053971814746,1.875498186807925
183,1790595474.7160895,0.19291647518382343,0.7543841911764707,0.33614803538602867,0.8481201424257152,1.725408103578279,0.515136296281198,-0.5543630005805738,1.8840692301644864
184,1790595474.6975424,0.3461977251838234,0.8645550896139707,0.24992733226102865,0.9642468767442234,1.725408103578279,0.515136296281198,-0.5543630005805738,1.8840692301644864
185,1790595474.7175424,0.039635225183823425,1.0369964958639706,0.27866756663602865,1.0745177039976457,1.7322669630349412,0.5229946114783808,-0.5537314820631178,1.8923241659624648
186,1790595474.7560859,-0.3004575482536766,1.3243988396139708,0.3936285041360287,1.4139485223804331,1.7427484773327664,0.5426935341036672,-0.5507535459899653,1.9065723158653398
187,1790595474.7760859,-0.2573471966911766,1.3675091911764707,0.3840484260110287,1.443538070546974,1.7465347488259626,0.5554198012104438,-0.5482735829055924,1.912976399787868
188,1790595474.786935,0.09232565487132342,1.2573382927389707,0.2547173713235287,1.2861977096034407,1.7481462953832498,0.5634236138044116,-0.5466103300748213,1.9163101240663287
189,1790595474.806935,0.16896627987132343,1.1567474724264706,0.23076717601102867,1.1915820610527366,1.7510634118002522,0.5795861443337774,-0.5432759050049472,1.9228343349878527
190,1790595474.816539,-0.09448586856617658,1.1184271599264708,0.30740780101102866,1.1637467282627834,1.752307737630351,0.5878219994499188,-0.5415272481409907,1.9259721885000451
191,1790595474.836539,-0.1471762982536766,1.2381781364889708,0.12059627757352864,1.2527128252762272,1.7541478237709567,0.6059351772206438,-0.5377899480810772,1.9322034196457794
192,1790595474.8768284,0.020475068933823424,1.1280072380514707,-0.003944738051471357,1.1281999461543362,1.7569157517541059,0.6441003081186383,-0.5310380780774596,1.9451528490194343
193,1790595474.8968284,0.12585592830882342,1.0322064568014706,-0.06621524586397136,1.041956977488969,1.7583031663639068,0.6634442799854682,-0.5282943880886306,1.9521483801127204
194,1790595474.9071155,0.19291647518382343,0.8501849724264706,-0.08058536305147136,0.8755142799950705,1.7591556858678599,0.6733537809668865,-0.5272081079774397,1.9560118687218577
195,1790595474.9271154,0.2551869829963234,0.7016937614889707,-0.08537540211397136,0.7515207851346685,1.7612366818965408,0.6920576633049643,-0.5256619034687173,1.963980370511737
196,1790595474.9361615,0.32703756893382346,0.5723627068014706,-0.20512637867647138,0.6903835679245087,1.7624317525036157,0.7001129240725439,-0.5252645443662839,1.9677974057952952
197,1790595474.9561615,0.42283835018382343,0.4669818474264706,-0.2817670036764714,0.6901137301726677,1.765802420536072,0.7168099148542535,-0.5252481404030315,1.9768055674246914
198,1790595474.9976232,0.46594870174632347,0.4526117302389706,-0.2721869255514714,0.7043090894274766,1.7745057532895105,0.7490916801531415,-0.5269418252105831,1.9969167986895424
199,1790595475.0176232,0.5330092486213235,0.4190814568014706,-0.24823673023897136,0.722045428481094,1.7795726988499947,0.763635275219878,-0.5284168986725406,2.0072972482557483
200,1790595475.026669,0.6048598345588234,0.32328067555147055,-0.24344669117647136,0.7277582744925094,1.7822926522254483,0.7697301857122922,-0.5293175651990034,2.0122695499862098
201,1790595475.046669,0.5761196001838235,0.21789981617647058,-0.19075626148897137,0.6448116584731988,1.7891757695530877,0.7819962139275224,-0.5316615053475833,2.023692656808667
202,1790595475.0866635,0.6144399126838235,0.16041934742647057,-0.17159610523897137,0.6578115206203243,1.8044466503579448,0.8039804040581034,-0.5367325643727283,2.047069625038573
203,1790595475.1066635,0.7054506548713234,0.10293887867647057,-0.14764590992647136,0.7280496919301346,1.8129174985216419,0.813720002879607,-0.5393669225231273,2.0590596826329306
204,1790595475.1166596,0.6958705767463235,0.06940860523897056,-0.12848575367647136,0.711028834127204,1.8175668246569368,0.8179869645290013,-0.540693117190584,2.065187856639231
205,1790595475.1366596,0.6479701861213235,0.06940860523897056,-0.12848575367647136,0.6642224819148571,1.827489454543527,0.8254517931271038,-0.5433339653830117,2.07757073698668
206,1790595475.147366,0.6336000689338235,0.045458409926470565,-0.09495548023897137,0.6422865852665791,1.833033561826246,0.8289407015739015,-0.5447150325850664,2.0841950945704184
207,1790595475.167366,0.5665395220588234,0.040668370863970564,-0.06621524586397136,0.5718438643792514,1.8436368701058725,0.8346096855886761,-0.5471496885642455,2.09641193895383
208,1790595475.1771786,0.45636862362132347,0.040668370863970564,-0.08058536305147136,0.4652098856998721,1.848811630979418,0.8370337131792378,-0.5482730639315719,2.1022210246490047
209,1790595475.1971786,0.39888815487132345,0.10293887867647057,-0.12848575367647136,0.4315284020057416,1.8590596117976852,0.8414486690455942,-0.5505328798504093,2.1135810735934277
210,1790595475.237121,0.3749379595588234,0.15562930836397057,-0.12848575367647136,0.4258022358299597,1.8787742949630397,0.8497179022192706,-0.5551388548212858,2.135413897327184
211,1790595475.257121,0.37972799862132345,0.14604923023897057,-0.10453555836397137,0.4200612021513281,1.888297086316926,0.8536898993331373,-0.5574487418167812,2.1459733060244544
212,1790595475.2668366,0.31266745174632343,0.11251895680147057,-0.07579532398897136,0.34083189721594986,1.8927336826150198,0.8555183929481817,-0.5585339220074949,2.150886481432976
213,1790595475.2868366,0.23602682674632344,0.12688907398897056,-0.013524816176471357,0.26831403372601437,1.9013197433583393,0.8590769466907346,-0.5605667170999444,2.160385384865373
214,1790595475.2966552,0.21686667049632344,0.19394962086397058,-0.003944738051471357,0.29096936121133715,1.9052361184844187,0.860798154711001,-0.5614278444408218,2.164740020151359
215,1790595475.3166552,0.25039694393382345,0.25143008961397056,-0.03747501148897136,0.35681941648512644,1.9127178807829817,0.8644463476644102,-0.5629809421205747,2.1731784833851657
216,1790595475.3571284,0.2647670611213234,0.3089105583639706,-0.04226505055147136,0.40903992986220933,1.927151137977826,0.8724225633918087,-0.5658944968687115,2.1898103158288977
217,1790595475.3771284,0.25997702205882345,0.3184906364889706,-0.05184512867647136,0.4143817743303914,1.934000660092695,0.8767139173402558,-0.567259443558692,2.197901072023851
218,1790595475.386101,0.22644674862132344,0.28017032398897057,-0.03747501148897136,0.3621849208503194,1.936939979646279,0.8787532405881398,-0.5678400571246621,2.2014509018080832
219,1790595475.406101,0.21207663143382344,0.2658002068014706,0.000845301011028643,0.3400396477909915,1.9431667335331995,0.8834359908277382,-0.5689950586915942,2.2090974358355773
220,1790595475.417009,0.27913717830882345,0.2658002068014706,0.000845301011028643,0.3854452344804845,1.9464552973751386,0.8860418016782966,-0.5695291295068889,2.213170063135216
221,1790595475.437009,0.29350729549632343,0.2658002068014706,-0.04226505055147136,0.3982243299239627,1.9524393899601098,0.8909002784673027,-0.5704235921885341,2.2206093650541496
222,1790595475.476703,0.26955710018382345,0.2274798943014706,-0.06621524586397136,0.3588768470600273,1.9642107550139278,0.900564991051386,-0.5722554912306737,2.2353115085963804
223,1790595475.496703,0.24081686580882344,0.16041934742647057,-0.07579532398897136,0.2991188075419409,1.9700177285453053,0.9052860203682503,-0.5732530684158187,2.242572565136999
224,1790595475.5066621,0.25997702205882345,0.12688907398897056,-0.09974551930147137,0.30600336226432645,1.9728496942738023,0.9074988802618117,-0.5738064289613279,2.246095267745789
225,1790595475.526662,0.2743471392463234,0.11730899586397057,-0.10453555836397137,0.31615729674597404,1.978485229725922,0.9116424385866538,-0.5750574141636161,2.2530394514212126
226,1790595475.536635,0.29350729549632343,0.11730899586397057,-0.07100528492647136,0.3239593855835459,1.9812985553262648,0.9135741495505754,-0.5757189354832608,2.256460499264053
227,1790595475.556635,0.28871725643382345,0.13167911305147056,-0.02310489430147136,0.3181680045469348,1.9869675793992605,0.9172404899016395,-0.5769877517878793,2.263246593637553
228,1790595475.5966473,0.25997702205882345,0.17478946461397057,-0.018314855238971358,0.3138070153152044,1.998254498823071,0.9243948901341867,-0.5792697056956453,2.2766379481396593
229,1790595475.6166472,0.2647670611213234,0.20831973805147058,-0.013524816176471357,0.337167066258351,2.00383706862783,0.9280092313576643,-0.5802869950676086,2.2832645768146564
230,1790595475.6267138,0.28871725643382345,0.22268985523897059,-0.02310489430147136,0.365352243635796,2.0066433171294373,0.9298809514588291,-0.5807498739785697,2.286605869447626
231,1790595475.6467137,0.33182760799632344,0.25143008961397056,-0.03747501148897136,0.4180084064680392,2.0123132320542063,0.9337530289392028,-0.5816224381581587,2.293378277459395
232,1790595475.657274,0.3461977251838234,0.2897504021139706,-0.08537540211397136,0.45945306586612744,2.01539496835897,0.9359194901562418,-0.5821113555543407,2.2970885487517205
233,1790595475.677274,0.32703756893382346,0.2753802849264706,-0.10453555836397137,0.44013129380083477,2.0213658153455913,0.9402547658268594,-0.5831832834711065,2.3043657535703854
234,1790595475.7175,0.28871725643382345,0.2753802849264706,-0.08058536305147136,0.4070453982383239,2.0334313112642586,0.9493279950494198,-0.5855743580784428,2.319259336222108
235,1790595475.7375,0.31266745174632343,0.2753802849264706,-0.07579532398897136,0.4234857351155016,2.039432411067701,0.9539885908452247,-0.5868194257548721,2.326743610546626
236,1790595475.7466404,0.32224752987132343,0.28017032398897057,-0.07579532398897136,0.4336863060909894,2.0421989234851723,0.9561799487807027,-0.5874070197392282,2.330215342918587
237,1790595475.7666404,0.29350729549632343,0.32328067555147055,-0.10453555836397137,0.44898174869035445,2.048267865279914,0.9611607312300927,-0.5887703550928599,2.337922524429173
238,1790595475.8078418,0.32703756893382346,0.3280707146139706,-0.13327579273897136,0.4820232382486014,2.060812488099744,0.9718951179345701,-0.5918924971813045,2.354116598555057
239,1790595475.8278418,0.3557778033088234,0.2945404411764706,-0.12369571461397136,0.4781553582566474,2.06701271457564,0.9772581213277478,-0.5935661730512254,2.3621803063502735
240,1790595475.8374858,0.2743471392463234,0.26101016773897057,-0.09016544117647136,0.3892588692095722,2.0700097829927224,0.9798580958791079,-0.5944068517562564,2.3660900014919535
241,1790595475.8574858,0.23602682674632344,0.27059024586397057,-0.07100528492647136,0.3660184347654533,2.0760584153760173,0.9852385920414766,-0.5961305111444637,2.374044063116523
242,1790595475.8667865,0.2839272173713234,0.3041205193014706,-0.08058536305147136,0.42378999016323676,2.0788120173925324,0.987766288562377,-0.5969175826239823,2.377698939084081
243,1790595475.8867865,0.30308737362132343,0.2897504021139706,-0.06621524586397136,0.4245017200892189,2.0847256161102408,0.9932772580990475,-0.5985764051271828,2.385576307456537
244,1790595475.9268334,0.24560690487132344,0.28017032398897057,-0.027894933363971357,0.3736258683120542,2.0964385525432285,1.0043686752665366,-0.6016823764443661,2.401214843067972
245,1790595475.9468334,0.24081686580882344,0.2849603630514706,-0.04705508961397136,0.376044349548015,2.10214034711486,1.0099246942117106,-0.6031132909942623,2.4088768272206718
246,1790595475.9574292,0.29829733455882346,0.2753802849264706,-0.09974551930147137,0.4180487648011928,2.105136415789783,1.0128719852717185,-0.6038743233288809,2.4129179816165407
247,1790595475.9774292,0.29350729549632343,0.2658002068014706,-0.09495548023897137,0.4072012103035603,2.110831038416227,1.018412412567868,-0.6053873809098368,2.42059195152312
248,1790595475.9872522,0.24560690487132344,0.25143008961397056,-0.07100528492647136,0.3585827549830722,2.1136056201019287,1.0211064980046929,-0.6061413228909888,2.4243338262108014
249,1790595476.0072522,0.24081686580882344,0.2753802849264706,-0.13806583180147136,0.39101053450668205,2.119136989859661,1.0265591395333746,-0.6077597131430311,2.4318587783156054
250,1790595476.0466547,0.2551869829963234,0.2945404411764706,-0.17638614430147137,0.42776925985948927,2.129865645321555,1.0373743942837463,-0.6113991453124961,2.4466880095192813
251,1790595476.0666547,0.2647670611213234,0.24185001148897056,-0.09974551930147137,0.372212564716397,2.135274394598011,1.0428451609326992,-0.6133835552571697,2.4542131439152906
252,1790595476.077121,0.22165670955882344,0.2897504021139706,0.000845301011028643,0.3648118788518975,2.1380621437686864,1.0456959592042308,-0.6143438942309007,2.4580903543384234
253,1790595476.097121,0.20728659237132344,0.3376507927389706,0.020005457261028644,0.3967064500791402,2.1432335691763704,1.0512674788838263,-0.6158724519664107,2.4653422320834806
254,1790595476.1061149,0.2647670611213234,0.3663910271139706,-0.056635167738971356,0.4555782299773271,2.1455287116678288,1.0538720384969382,-0.6164814354417705,2.4686006332254418
255,1790595476.1261148,0.28871725643382345,0.3041205193014706,-0.10932559742647137,0.43335785521382353,2.150697160043664,1.0598008802901384,-0.6178814621523359,2.475975299019589
