imu_index,t_imu,ax,ay,az,mag,vx,vy,vz,velocity
0,1791286203.2721071,-0.13210927734374994,0.020740869140624993,0.027111621093749306,0.1364481029964411,0.0,0.0,0.0,0.0
1,1791286203.292107,-0.11773916015624993,-0.03673959960937501,-0.011208691406250698,0.12384644838184426,-0.0005432114668159627,2.4465101179957524e-06,5.842165571049257e-05,0.0005463494970694697
2,1791286203.3028178,-0.10336904296874994,-0.03194956054687501,-0.011208691406250698,0.10877301239946544,-0.0009681015594580264,-5.161808188268048e-05,6.700756962224879e-05,0.0009717896223921051
3,1791286203.3228178,-0.07941884765624993,0.006370751953124992,-0.030368847656250697,0.0852655073958013,-0.0019166661088211106,-0.00017579725029995613,1.826883092860985e-05,0.0019247980143640997
4,1791286203.3481705,-0.055468652343749925,-0.06068979492187501,-0.011208691406250698,0.08297986119253031,-0.0031952186661660985,-0.0004128843928819109,-0.0001133045114683113,0.003223776319601098
5,1791286203.3681705,-0.03630849609374993,-0.06547983398437501,0.017531542968749304,0.07689779285568779,-0.004190203542934513,-0.0007611148186724098,-0.00019204529362474383,0.004263095459079834
6,1791286203.4077466,-0.031518457031249926,-0.02236948242187501,0.04627177734374931,0.060290001293770386,-0.006065076304405555,-0.001607587476622496,-0.00013510474820424507,0.006275965373250761
7,1791286203.4277465,-0.002778222656249924,-0.03194956054687501,0.05106181640624931,0.06029761218300144,-0.006921877131101416,-0.002052670217604174,3.5354443893668785e-05,0.007219909139110199
8,1791286203.4522521,-0.031518457031249926,-0.04152963867187501,0.05585185546874931,0.07640388590346243,-0.007877260908968686,-0.002651268255376076,0.00040938482459594485,0.008321541847791221
9,1791286203.4722521,-0.050678613281249923,-0.06068979492187501,0.041481738281249306,0.0892877800295415,-0.00866332321904038,-0.0032198554295578856,0.0008148566439154367,0.009278180292220599
10,1791286203.4677017,-0.06504873046874993,-0.04152963867187501,0.036691699218749305,0.08545366589779364,-0.00866332321904038,-0.0032198554295578856,0.0008148566439154367,0.009278180292220599
11,1791286203.4877017,-0.03630849609374993,-0.027159521484375008,0.017531542968749304,0.04861379942686217,-0.009530841155482604,-0.0038640229584178554,0.0012888158568467461,0.010364779441313783
12,1791286203.5137813,-0.07462880859374993,-0.01757944335937501,0.027111621093749306,0.08132364907749202,-0.010709376716874247,-0.004665517731407774,0.0019014666665931814,0.01183526006685842
13,1791286203.5337813,-0.14647939453124992,0.059061181640624995,0.003161425781249303,0.15796971485699027,-0.01180926534292747,-0.005125748348703448,0.0023462317048391205,0.013085749779309411
14,1791286203.5428205,-0.17042958984374992,-0.02236948242187501,0.012741503906249304,0.17236294485742684,-0.012446648269243943,-0.005277678090087639,0.0025278759739440207,0.013753657553556719
15,1791286203.5628204,-0.15126943359374992,-0.03194956054687501,0.036691699218749305,0.15890090229596404,-0.014127924446266978,-0.005644891325943681,0.002943644664064081,0.015496066957438435
16,1791286203.5874624,-0.13210927734374994,-0.02236948242187501,0.04627177734374931,0.14175447888042172,-0.016412426945407777,-0.006129858161897327,0.0035324021180459225,0.017872346909315013
17,1791286203.6074624,-0.13210927734374994,0.015950830078124992,0.05585185546874931,0.14431465587309947,-0.018384783949245784,-0.006474054407873731,0.004091758631526396,0.019916228308473106
18,1791286203.6325748,-0.055468652343749925,-0.012789404296875008,0.04627177734374931,0.0733581463346112,-0.020843126194668934,-0.006835453034411618,0.004881089958213535,0.022471857220370425
19,1791286203.6525748,-0.04588857421874993,-0.027159521484375008,0.05585185546874931,0.07721936680905905,-0.022659351457062007,-0.007140027339627041,0.005568617849993159,0.024401551254470324
20,1791286203.662624,-0.06504873046874993,0.015950830078124992,0.05585185546874931,0.0872077753132102,-0.0235186498476266,-0.0072785549730491296,0.005946441491331996,0.025327147876553324
21,1791286203.6826239,-0.050678613281249923,0.035110986328124996,0.041481738281249306,0.07430906953985042,-0.02514590837836534,-0.007436308324916344,0.006731602740151835,0.027072677465067693
22,1791286203.7074645,0.016381933593750078,-0.0032093261718750083,0.007951464843749303,0.01849035737645166,-0.026927744122452673,-0.0075434184628505275,0.00765261431756859,0.028992569246677924
23,1791286203.7274644,0.021171972656250076,-0.05110971679687501,0.003161425781249303,0.055411643092261,-0.028090835830156743,-0.007698199168414819,0.008299589913758128,0.030285978947525473
24,1791286203.752396,-0.050678613281249923,-0.007999365234375009,0.027111621093749306,0.058028886656513075,-0.029378417995031342,-0.007972730938565206,0.009041730103508127,0.031755452536127105
25,1791286203.772396,-0.09378896484374993,-0.012789404296875008,0.027111621093749306,0.09846308337169885,-0.03047307384529123,-0.008191107130610765,0.009629102855424919,0.03299124258657238
26,1791286203.7825577,-0.09378896484374993,-0.06547983398437501,-0.0064186523437506976,0.11456516784343053,-0.031088780338866553,-0.008345068041419641,0.009898542132783746,0.033676899499934874
27,1791286203.8025577,-0.11294912109374992,-0.08463999023437502,-0.0351588867187507,0.14545645127675716,-0.032428937656113405,-0.008827817545390857,0.010286936206921971,0.03514807842036436
28,1791286203.8430536,-0.17521962890624992,-0.012789404296875008,0.022321582031249305,0.17709810908276422,-0.03561067392105977,-0.009954577863479622,0.01091640267384043,0.03855361934876615
29,1791286203.8630536,-0.14168935546874994,0.04948110351562499,0.017531542968749304,0.15110131719193873,-0.03742171541184679,-0.010372549243318156,0.011240429475027704,0.040426746306787824
30,1791286203.8723261,-0.07941884765624993,0.030320947265624995,0.012741503906249304,0.08595963662047679,-0.03828918757482019,-0.010481767633399038,0.011389176704879505,0.04129942716158792
31,1791286203.892326,-0.07462880859374993,0.020740869140624993,0.027111621093749306,0.08206511270425532,-0.040110649006053094,-0.010605411786055511,0.011721663797182529,0.043113064435421115
32,1791286203.9023838,-0.08899892578124993,0.04948110351562499,0.04627177734374931,0.11184929938935667,-0.0410126653376542,-0.01060529344277665,0.011919141163569144,0.04400655511606097
33,1791286203.9223838,-0.08420888671874993,0.054271142578124994,0.07501201171874931,0.1251530879412898,-0.04279710785506169,-0.010449465192597724,0.012434852341632361,0.04577564108046215
34,1791286203.9480565,-0.08899892578124993,0.030320947265624995,0.06543193359374931,0.11454914476816519,-0.04507759777400129,-0.010116564707873683,0.013267957366294351,0.048066343684922054
35,1791286203.9680564,-0.10336904296874994,-0.0032093261718750083,0.0606418945312493,0.11988702261334175,-0.046876248921096715,-0.00985545659256995,0.014008735113785227,0.049907488386502184
36,1791286203.9927924,-0.09857900390624993,-0.04152963867187501,0.05106181640624931,0.11853202096509806,-0.049141784086167956,-0.00966395887954873,0.014994730524734974,0.052279527426197896
37,1791286204.0127923,-0.07462880859374993,-0.05110971679687501,0.04627177734374931,0.10160088386293124,-0.05095860452512861,-0.009671309292699364,0.015818364794306195,0.05422669327323267
38,1791286204.0373547,-0.060258691406249926,-0.04631967773437501,0.04627177734374931,0.08898145769743,-0.05310367228532439,-0.009858464579524188,0.01684863923533088,0.05657796371499414
39,1791286204.0573547,-0.012358300781249925,-0.04152963867187501,-0.0255788085937507,0.05031613991049068,-0.05469723183536087,-0.010119771461524998,0.01759274733831919,0.05834125216169642
40,1791286204.0837612,-0.021938378906249924,-0.03194956054687501,-0.0255788085937507,0.04643643329594079,-0.05655357358982726,-0.010558555325818484,0.01832652670297349,0.06037922951929063
41,1791286204.1037612,-0.08420888671874993,-0.03673959960937501,-0.011208691406250698,0.09255576451474541,-0.057907869336220275,-0.010944069079695808,0.018743737710297744,0.061841908787119045
42,1791286204.113052,-0.11294912109374992,-0.06068979492187501,-0.015998730468750697,0.1292157673820094,-0.05857999979935921,-0.011164180093511554,0.01888951734035064,0.06255452948432026
43,1791286204.1330519,-0.12252919921874993,-0.06547983398437501,-0.0255788085937507,0.1412631897165187,-0.06016307183997214,-0.011756190403119749,0.019093896614217634,0.06420576386844475
44,1791286204.1576164,-0.10815908203124992,-0.06547983398437501,-0.0686891601562507,0.14388952848430292,-0.06224079283705956,-0.012615516644707522,0.019133593584896594,0.06632617851701282
45,1791286204.1776164,-0.13689931640624994,-0.094220068359375,-0.0591090820312507,0.17638800325623327,-0.06404627691159165,-0.01344976713588427,0.01896936888426854,0.06813705877210467
46,1791286204.1882734,-0.14168935546874994,-0.07505991210937502,0.007951464843749303,0.16053999393353127,-0.06508669804864618,-0.013962923040869945,0.0188540979673787,0.06918611488502888
47,1791286204.2082734,-0.12731923828124994,-0.02236948242187501,0.0606418945312493,0.14278662946046258,-0.06714987301619571,-0.014927644742432399,0.018773109662404103,0.07130476611029678
48,1791286204.232425,-0.12252919921874993,-0.04631967773437501,0.0798020507812493,0.15338606362866725,-0.06972017063417983,-0.016042297330443354,0.01894437539581483,0.07400774862158054
49,1791286204.252425,-0.10815908203124992,-0.027159521484375008,0.05585185546874931,0.12472151535482938,-0.07187540309412023,-0.016937106049215195,0.019268407870293977,0.0763165163848602
50,1791286204.277789,-0.07462880859374993,0.011160791015624992,0.031901660156249304,0.08192519910834421,-0.07454641555462363,-0.017932124606437755,0.01978464227010714,0.07918434968287327
51,1791286204.297789,-0.031518457031249926,-0.0032093261718750083,0.012741503906249304,0.03414760357479271,-0.07649584609181191,-0.018587095081753692,0.020197606040868836,0.08127138403314213
52,1791286204.3074334,-0.10815908203124992,-0.08463999023437502,0.031901660156249304,0.14099656341004405,-0.07739591390500161,-0.018919098789832785,0.020399163705179364,0.08224466954204741
53,1791286204.3274333,-0.10815908203124992,-0.094220068359375,0.0606418945312493,0.1557345423463501,-0.0793069430972342,-0.019772612561876738,0.02089326520909783,0.08436276407306559
54,1791286204.3530025,-0.06504873046874993,-0.06547983398437501,0.07022197265624931,0.11597444303790562,-0.08171580224020761,-0.02100637411148354,0.021681157723913817,0.08711379161373677
55,1791286204.3730025,-0.11773916015624993,0.015950830078124992,0.003161425781249303,0.11885677695213948,-0.08359154215638108,-0.021900948428096482,0.0223150723247175,0.08924774459329239
56,1791286204.397519,-0.13210927734374994,0.011160791015624992,-0.001628613281250697,0.132589881957871,-0.0860053873836265,-0.02278320395849742,0.022978401737004803,0.09189128352574762
57,1791286204.417519,-0.060258691406249926,-0.03673959960937501,0.012741503906249304,0.07171648339986988,-0.08796771760501534,-0.02343333479462155,0.023455028690199543,0.09400839798172625
58,1791286204.4280891,-0.04588857421874993,-0.07026987304687501,0.017531542968749304,0.08573780555110304,-0.0889333989870008,-0.023810223614805597,0.0236931417056229,0.0950654572799755
59,1791286204.4480891,-0.09378896484374993,-0.06547983398437501,0.007951464843749303,0.11466125927376192,-0.09069603631534139,-0.024620004457780825,0.02411432725252669,0.09702276228626365
60,1791286204.4726064,-0.10815908203124992,-0.08463999023437502,0.012741503906249304,0.13792991297942123,-0.09290402152475158,-0.025739824811051408,0.024591246933787354,0.09949082984141618
61,1791286204.4926064,-0.08420888671874993,-0.094220068359375,0.04627177734374931,0.13457204487785,-0.09472356218662804,-0.026784583895473262,0.025010456838876108,0.10156520131948206
62,1791286204.5179589,-0.08420888671874993,-0.10380014648437501,0.022321582031249305,0.13551332051487322,-0.09700431889649178,-0.028286815053563272,0.02559257356344362,0.10423512657471587
63,1791286204.5379589,-0.13210927734374994,-0.094220068359375,0.012741503906249304,0.1627655625853519,-0.09885814641769344,-0.029591159064199617,0.02603550374841642,0.10642564194468683
64,1791286204.5479608,-0.15126943359374992,-0.11338022460937501,0.05106181640624931,0.1958183494133064,-0.0998587477580661,-0.030301340770667814,0.026271646553747984,0.10761105969627036
65,1791286204.5679607,-0.06983876953124993,-0.166070654296875,0.017531542968749304,0.18100903553993186,-0.10189110764239927,-0.03192759535806101,0.026775902709147505,0.11008232432063199
66,1791286204.6078215,-0.031518457031249926,-0.20918100585937502,-0.0207887695312507,0.21256123655218534,-0.10563710578799415,-0.035804439959711026,0.027620416553886914,0.11490884844389769
67,1791286204.6278214,-0.13689931640624994,-0.132540380859375,0.007951464843749303,0.19071340064087816,-0.10748734256428097,-0.03797043590076205,0.027961332727589112,0.11737597259204251
68,1791286204.6375208,-0.13689931640624994,-0.10859018554687501,0.012741503906249304,0.17520159003672384,-0.10844922691553241,-0.03903871888437934,0.028116919176335645,0.11864155062489207
69,1791286204.6575208,-0.060258691406249926,-0.137330419921875,-0.0064186523437506976,0.15010647295777127,-0.11043085263999626,-0.041279972687168515,0.028399098890129267,0.12126631097556026
70,1791286204.6830997,-0.07462880859374993,-0.12775034179687503,-0.001628613281250697,0.14796033685606702,-0.11284386413940498,-0.04422499358914029,0.02869042051332303,0.1245501022123358
71,1791286204.7030997,-0.031518457031249926,-0.11817026367187501,-0.001628613281250697,0.12231221006559843,-0.11460679087040833,-0.04655115766693684,0.028879149267467746,0.12702650139304872
72,1791286204.7121475,-0.002778222656249924,-0.166070654296875,-0.001628613281250697,0.16610187572974527,-0.11530796145574992,-0.047638517094774756,0.028949510767693944,0.12807586993559203
73,1791286204.7321475,-0.026728417968749925,-0.12775034179687503,0.031901660156249304,0.1343587513973519,-0.11666966416252679,-0.05012230853960083,0.029127123859663442,0.13027833931038538
74,1791286204.7577229,-0.03630849609374993,-0.10859018554687501,0.027111621093749306,0.11766552291995148,-0.11827068899312182,-0.053275417092425656,0.029433378006649642,0.13301334400037462
75,1791286204.7777228,-0.026728417968749925,-0.12296030273437501,0.022321582031249305,0.12779631215343867,-0.11942944646846775,-0.05571861569748736,0.02971109506140779,0.13509517381741248
76,1791286204.8022933,-0.021938378906249924,-0.11338022460937501,0.007951464843749303,0.1157566136109203,-0.1207291564889228,-0.058705440237502134,0.03005688663200443,0.13756916214768086
77,1791286204.8222933,-0.012358300781249925,-0.151700537109375,-0.0255788085937507,0.1543374744077032,-0.12167985384216966,-0.06116960587802489,0.030269694311613877,0.13951330369553727
78,1791286204.832124,-0.04109853515624993,-0.12296030273437501,-0.0207887695312507,0.13130307909238884,-0.12211647453921884,-0.06240165675648575,0.030324419598396556,0.1404491742368803
79,1791286204.852124,-0.08420888671874993,-0.08463999023437502,0.022321582031249305,0.12146323548162279,-0.12305947173131877,-0.06484360881107308,0.03042135375774225,0.1423860454921353
80,1791286204.8776522,-0.07941884765624993,-0.10380014648437501,0.036691699218749305,0.13575015493465747,-0.12439585981918372,-0.0678537929867975,0.030639510078379607,0.1449732621578624
81,1791286204.8976521,-0.06983876953124993,-0.10859018554687501,0.031901660156249304,0.13299247364970926,-0.12550968666510992,-0.07017694948564242,0.030887676811283227,0.14707662718692852
82,1791286204.9223213,-0.06504873046874993,-0.11338022460937501,0.031901660156249304,0.13455158337527368,-0.12692703531277352,-0.07302332834681718,0.03126591304808983,0.14973455210761424
83,1791286204.9423213,-0.07941884765624993,-0.132540380859375,0.017531542968749304,0.15550453665491537,-0.12812045776796577,-0.0753537014766912,0.03160071240240319,0.15195932695708675
84,1791286204.9672275,-0.08420888671874993,-0.12775034179687503,0.027111621093749306,0.15539088271182672,-0.12968936101605147,-0.07830664428030058,0.03203849351428409,0.15484742802467882
85,1791286204.9872274,-0.06504873046874993,-0.11338022460937501,0.041481738281249306,0.13713915297573653,-0.13098412011456187,-0.08068390472619406,0.03244019596861091,0.15722308519595146
86,1791286204.9977856,-0.07462880859374993,-0.07984995117187502,0.012741503906249304,0.11003553833224225,-0.13167571056460162,-0.08190364230771668,0.03266338544498205,0.15847269835744768
87,1791286205.0177855,-0.08420888671874993,-0.12775034179687503,0.007951464843749303,0.15321394265794167,-0.1330275190214909,-0.08417898136151906,0.033053789459613785,0.16085700083526538
88,1791286205.0418556,-0.07462880859374993,-0.156490576171875,0.022321582031249305,0.17480564214894714,-0.13469713004471262,-0.08701972735738797,0.033507814267178825,0.16382467277122856
89,1791286205.0618556,-0.055468652343749925,-0.11338022460937501,0.05106181640624931,0.13615856866172482,-0.13607147552850263,-0.08943087246367053,0.03393855425838628,0.16632844876107822
90,1791286205.0726426,-0.031518457031249926,-0.05589975585937501,0.031901660156249304,0.0716652758279301,-0.13677191678858375,-0.09067320987406909,0.03420314589547334,0.16762470999240325
91,1791286205.0926425,-0.031518457031249926,-0.10380014648437501,-0.001628613281250697,0.10849210074944776,-0.13797034514022322,-0.09287064360768556,0.034665543397866296,0.16988958909034838
92,1791286205.117854,-0.06504873046874993,-0.137330419921875,-0.0064186523437506976,0.1520926713205621,-0.13943704836117923,-0.09568112422159422,0.0351457827032211,0.17272172425554352
93,1791286205.137854,-0.055468652343749925,-0.146910498046875,0.012741503906249304,0.15754939463865172,-0.1406068117936991,-0.09800257224344429,0.03547908891311192,0.17502441383768363
94,1791286205.1619432,-0.06504873046874993,-0.132540380859375,0.007951464843749303,0.1478564022526777,-0.14202213776625344,-0.10088412100609687,0.03585770931262994,0.1778585640446322
95,1791286205.1819432,-0.07462880859374993,-0.12775034179687503,0.007951464843749303,0.14816489022201695,-0.14323046747157714,-0.10330810244433049,0.036148760931052924,0.18026165360282598
96,1791286205.1926966,-0.09378896484374993,-0.12775034179687503,0.017531542968749304,0.15944865867904207,-0.14391852757553947,-0.104621972030442,0.03630232939875612,0.1815933884557081
97,1791286205.2126966,-0.09378896484374993,-0.07984995117187502,0.05106181640624931,0.1333405179355416,-0.1452876448701825,-0.10701046182295419,0.036647994937980904,0.1841271686212018
98,1791286205.2381475,-0.08420888671874993,-0.094220068359375,0.04627177734374931,0.13457204487785,-0.1471083387711476,-0.10992627896196051,0.037207682059611884,0.1873741224040253
99,1791286205.2581475,-0.11294912109374992,-0.156490576171875,0.027111621093749306,0.19488931316207936,-0.14862020979051754,-0.11224996750844754,0.03769160061806219,0.1900228373669241
100,1791286205.2823777,-0.12252919921874993,-0.132540380859375,0.04627177734374931,0.18633688469566564,-0.15060504103699246,-0.1151681167881336,0.03832329061080658,0.19342763017087217
101,1791286205.3023777,-0.10815908203124992,-0.09901010742187501,0.04627177734374931,0.15376106716618285,-0.15234363451243219,-0.11756282128292879,0.03890530071271195,0.19632427854956178
102,1791286205.3121924,-0.09857900390624993,-0.11817026367187501,0.012741503906249304,0.15441624639014467,-0.1532210295014951,-0.1187215843946886,0.0391915127302773,0.1977560951090274
103,1791286205.3321924,-0.08420888671874993,-0.166070654296875,0.012741503906249304,0.1866358613525182,-0.15501493567014793,-0.12115502407158872,0.03972548136600639,0.20071443398113714
104,1791286205.356696,-0.10815908203124992,-0.137330419921875,0.04627177734374931,0.18082894856828285,-0.1572366329642271,-0.12424678279023513,0.040390007733350414,0.2044308550692655
105,1791286205.3766959,-0.07941884765624993,-0.146910498046875,0.0606418945312493,0.1776724153372342,-0.15905936572352697,-0.12681813992785168,0.04101141228937339,0.20752026016054395
106,1791286205.402726,-0.060258691406249926,-0.12296030273437501,0.041481738281249306,0.14307718388812687,-0.16134850240116536,-0.13018963427038935,0.0418982303001255,0.21151392814857126
107,1791286205.422726,-0.07462880859374993,-0.132540380859375,0.041481738281249306,0.15766149257604029,-0.16304584656926732,-0.13277477540506208,0.04260184769567591,0.21454138643730097
108,1791286205.446798,-0.06504873046874993,-0.161280615234375,0.06543193359374931,0.18580665251758724,-0.16503452104444225,-0.13595001930073966,0.04351471959462452,0.21820250160261392
109,1791286205.466798,-0.055468652343749925,-0.170860693359375,0.0845920898437493,0.19855973809463773,-0.16661971680017906,-0.13869061667105176,0.04438443378509542,0.22128532518355576
110,1791286205.477068,-0.08899892578124993,-0.166070654296875,0.05585185546874931,0.19651895778298506,-0.1674228825679022,-0.14014632445192385,0.04487221391174114,0.22290116519675382
111,1791286205.497068,-0.11294912109374992,-0.10380014648437501,0.06543193359374931,0.16677323616169687,-0.16905530426929177,-0.14296079892566813,0.04586157378395503,0.2260990267139363
112,1791286205.5226972,-0.11294912109374992,-0.12775034179687503,0.06543193359374931,0.1826444407007391,-0.17126763303168502,-0.1464715381047897,0.047190775617738615,0.2302465697952144
113,1791286205.5426972,-0.11773916015624993,-0.175650732421875,0.003161425781249303,0.21148447755712604,-0.1730811097869233,-0.14925532368038763,0.048175329337894195,0.23357029898688925
114,1791286205.5830255,-0.16084951171874992,-0.19481088867187502,-0.015998730468750697,0.2531398963851761,-0.17703194828440227,-0.1551471065029913,0.04982398004074526,0.2406103995190615
115,1791286205.6030254,-0.16084951171874992,-0.170860693359375,-0.0255788085937507,0.23605130248418962,-0.17917993353291903,-0.15817923654774765,0.05045658630657382,0.2442785020369216
116,1791286205.597045,-0.17521962890624992,-0.12775034179687503,0.027111621093749306,0.2185339977705834,-0.17917993353291903,-0.15817923654774765,0.05045658630657382,0.2442785020369216
117,1791286205.617045,-0.21832998046874993,-0.06547983398437501,0.05585185546874931,0.23468067408589083,-0.18175066447171637,-0.1610405241990707,0.051040043763872195,0.24813794658947244
118,1791286205.642342,-0.29018056640624995,0.059061181640624995,0.04627177734374931,0.2997233085283633,-0.18547932643695272,-0.1641289599484301,0.05186109457026521,0.25304242561136864
119,1791286205.662342,-0.21353994140624993,-0.03194956054687501,0.0798020507812493,0.23019219861632187,-0.18874060991032457,-0.16616375665758748,0.05260196065266099,0.25690538748805436
120,1791286205.7024307,-0.14647939453124992,-0.08943002929687502,0.18518291015624933,0.2524809960694448,-0.19537953668393768,-0.1699955268531057,0.05466094238674144,0.26468747822196237
121,1791286205.7224307,-0.16563955078124992,-0.08943002929687502,0.2091331054687493,0.2813731449979852,-0.19866301618048815,-0.1718887161369623,0.056125547093627194,0.26863134919383674
122,1791286205.7330077,-0.21353994140624993,-0.094220068359375,0.2187131835937493,0.31986275890628946,-0.20043980296760536,-0.17288542971298804,0.05712331680550366,0.2707924661869287
123,1791286205.7530077,-0.24228017578124994,-0.11338022460937501,0.25224345703124934,0.36767039658387163,-0.20397929981906995,-0.17479881276425813,0.059433431491778745,0.27512635729308116
124,1791286205.762077,-0.24228017578124994,-0.07984995117187502,0.2714036132812493,0.3724723071328419,-0.20567320677001835,-0.1756677662355752,0.060680058123194325,0.27720516144381885
125,1791286205.782077,-0.17042958984374992,-0.10380014648437501,0.2426633789062493,0.31417547798433354,-0.20946737116230138,-0.17757202861305446,0.06378786511485836,0.2819171805039773
126,1791286205.8222346,-0.21832998046874993,-0.03673959960937501,0.3384641601562493,0.4044450101821224,-0.21711373569049985,-0.18124530894577248,0.07084220205944154,0.2915593487318894
127,1791286205.8422346,-0.28060048828124995,0.126121728515625,0.3767844726562493,0.48642559889698733,-0.22109908243276574,-0.18266625345338638,0.0749014014426577,0.29641522285702854
128,1791286205.8522844,-0.27102041015624995,0.197972314453125,0.3145139648437493,0.45996101366629344,-0.2232170715895053,-0.1830288825732144,0.07715621443246325,0.29879510426133504
129,1791286205.8722844,-0.29976064453124995,0.221922509765625,0.3001438476562493,0.47874040317938704,-0.2276559713510876,-0.18301245383359374,0.08189237649355056,0.30335978783906403
130,1791286205.8968868,-0.28060048828124995,0.298563134765625,0.3049338867187493,0.5107457828843579,-0.2333681720605111,-0.18203488566902767,0.08796100232405935,0.30876292080049617
131,1791286205.9168868,-0.26144033203124994,0.360833642578125,0.2905637695312493,0.5319579579186848,-0.23812829733198213,-0.18037030311801003,0.09304759842129677,0.3128839845838751
132,1791286205.927395,-0.33808095703124996,0.370413720703125,0.3001438476562493,0.584458199769835,-0.24072668033465866,-0.17905058290551182,0.09578483806361127,0.3149336137452157
133,1791286205.947395,-0.3859813476562499,0.447054345703125,0.2666135742187493,0.6480138784843119,-0.2460163521791242,-0.17568938158315514,0.10106319055957695,0.3187547220460832
134,1791286205.9577937,-0.35724111328124997,0.533275048828125,0.2330833007812493,0.6828845552684204,-0.2489337174957639,-0.17343936948372682,0.10378562851254328,0.32065661895385406
135,1791286205.9777937,-0.34766103515624996,0.5093248535156251,0.26182353515624934,0.6699489274089062,-0.2547604653516612,-0.16819708438024886,0.10897871064484102,0.32414427848417054
136,1791286206.0026271,-0.22312001953124994,0.451844384765625,0.25224345703124934,0.5635358487043458,-0.261973228937958,-0.16087407464323009,0.11541705893547205,0.32837712780553024
137,1791286206.022627,-0.10336904296874994,0.37520375976562503,0.2378733398437493,0.4561214160669898,-0.26740053254124146,-0.1546204630121827,0.12055967006021912,0.33157980401476533
138,1791286206.0476966,-0.20395986328124993,0.37520375976562503,0.1947629882812493,0.46937203663640753,-0.27376091638493266,-0.1465466050917085,0.12685233159379866,0.33542877162611784
139,1791286206.0676966,-0.22791005859374994,0.245872705078125,0.10854228515624931,0.35238871942441874,-0.27872179148509946,-0.1401399882045124,0.13157443640000482,0.3385806929767305
140,1791286206.092865,-0.16084951171874992,0.17402211914062501,0.05585185546874931,0.24346599994589843,-0.284762070082563,-0.13249448726579577,0.13693579301212314,0.34263046729879654
141,1791286206.112865,-0.08899892578124993,0.159652001953125,-0.011208691406250698,0.18312620042172456,-0.2892167426207146,-0.12682983047016644,0.14062408074624258,0.3456982241709575
142,1791286206.122255,-0.07941884765624993,0.193182275390625,-0.1453297851562507,0.25445528357986186,-0.29111312435007725,-0.12432069093732032,0.14198576013872066,0.3469329062602257
143,1791286206.142255,-0.15605947265624992,0.015950830078124992,-0.1357497070312507,0.2074535392443292,-0.2948995748588539,-0.11946441376885247,0.14402934282315155,0.34925915450154954
144,1791286206.1672175,-0.11773916015624993,-0.151700537109375,-0.07347919921875071,0.2056082574008174,-0.2994292365104252,-0.11456651763063645,0.14580567346964238,0.352196889615969
145,1791286206.1872175,0.021171972656250076,-0.26187143554687503,-0.07347919921875071,0.27280779662496263,-0.30265889057004053,-0.11185129545518542,0.14679495797065306,0.3544881888324303
146,1791286206.2124763,-0.060258691406249926,-0.12775034179687503,-0.1309596679687507,0.1926180011154136,-0.30619996768034796,-0.1096746095408938,0.14746966332471187,0.35711936629997754
147,1791286206.2324762,-0.12252919921874993,-0.161280615234375,-0.1644899414062507,0.2609248595580697,-0.3088574098317567,-0.10864317483357382,0.1474805880781939,0.35909158010985176
148,1791286206.2425234,-0.017148339843749926,-0.22834116210937502,-0.0974293945312507,0.24884983180943226,-0.3100974069419703,-0.10849634123785973,0.14728788637250678,0.36003552508914516
149,1791286206.2625234,0.1361329101562501,-0.38162241210937503,-0.1501198242187507,0.43209234692974596,-0.3120170209035691,-0.1091628414429479,0.14659050919805106,0.3616074178890421
150,1791286206.2876177,0.07865244140625008,-0.38162241210937503,-0.2076002929687507,0.44149717281546935,-0.31366006250148065,-0.11131014934271705,0.14517349678641273,0.3631087004249902
151,1791286206.3076177,0.04991220703125008,-0.47742319335937505,-0.2602907226562507,0.5460543876475189,-0.3145802857379155,-0.11405339914304478,0.1435117132093047,0.36409414422550246
152,1791286206.3330991,-0.031518457031249926,-0.47742319335937505,-0.1884401367187507,0.5142334137506774,-0.3155417011540571,-0.11884905387086467,0.14085448887693444,0.36541982678828255
153,1791286206.353099,0.07865244140625008,-0.5636438964843751,-0.1261696289062507,0.5829231714742462,-0.3161124095243601,-0.12361007897914417,0.13860980474401358,0.3666322204221836
154,1791286206.3621619,0.016381933593750078,-0.5253235839843751,-0.1453297851562507,0.5453017349064835,-0.3162676325265304,-0.12618405272971694,0.13756068412675562,0.36724729047966237
155,1791286206.3821619,0.06907236328125008,-0.6402845214843751,-0.1644899414062507,0.6646745072932796,-0.31643061928843574,-0.1327607360747205,0.1351280092712731,0.3687998491810725
156,1791286206.4072545,0.1457129882812501,-0.6546546386718751,-0.1884401367187507,0.6966452870830582,-0.31620022008837,-0.1422113563014968,0.1318695207447966,0.3709396440750264
157,1791286206.4272544,0.09781259765625008,-0.9037366699218751,-0.23634052734375072,0.9392359222723893,-0.31567883893122933,-0.15095164060649355,0.12902475735280092,0.3729435817395309
158,1791286206.4524183,-0.03630849609374993,-1.009117529296875,-0.2602907226562507,1.0427788620430183,-0.3150051631759319,-0.1639091939145659,0.12504509075389536,0.37647144831828644
159,1791286206.4724183,0.04033212890625008,-1.076178076171875,-0.2076002929687507,1.096760600083637,-0.3145440121917277,-0.17579087652818787,0.12165470910918563,0.38031596880049473
160,1791286206.4829645,0.1505030273437501,-0.9899573730468751,-0.2555006835937507,1.0334153864765017,-0.3141863737166923,-0.18275065788470823,0.11976879484442844,0.3826949759338702
161,1791286206.5029645,0.22235361328125008,-1.162398779296875,-0.3465114257812507,1.233159446157328,-0.31305059311086725,-0.19719802490806357,0.11582577362123178,0.38768975316567733
162,1791286206.5278878,0.1600831054687501,-1.2150892089843752,-0.3513014648437507,1.2749435695936344,-0.31113265665834533,-0.216945405117699,0.11034477244403257,0.3950250721747769
163,1791286206.5478878,0.27504404296875007,-1.243829443359375,-0.34172138671875074,1.318914104815501,-0.30917175871904673,-0.23410329654726583,0.10556669573725444,0.40191523620361497
164,1791286206.5728269,0.2463038085937501,-1.3444202636718752,-0.45189228515625074,1.4395617558420615,-0.3061182368768836,-0.25713027425402796,0.09901796090740948,0.41186030334183066
165,1791286206.5928268,0.2463038085937501,-1.478541357421875,-0.5045827148437507,1.5815668900978541,-0.30329785951782273,-0.2770613044345737,0.09311923288835255,0.42121698628711035
166,1791286206.6023684,0.3612647460937501,-1.445011083984375,-0.5189528320312508,1.5773019024527728,-0.30171937106708807,-0.2872357619046949,0.08999475667889319,0.4261901195755047
167,1791286206.6223683,0.3804249023437501,-1.483331396484375,-0.4471022460937507,1.595272878407207,-0.29779446584504304,-0.3097559665497588,0.08297883787217675,0.43762517093481584
168,1791286206.6472783,0.17445322265625007,-1.5887122558593751,-0.3369313476562507,1.6333901223670948,-0.2926026173866903,-0.33933688060176975,0.07408649177130366,0.4541526378884758
169,1791286206.6672783,0.18882333984375008,-1.5312317871093752,-0.3465114257812507,1.5812638008001303,-0.2885144901050047,-0.3642044919804994,0.06699268537226996,0.4694396051386296
170,1791286206.69285,0.2510938476562501,-1.5743421386718752,-0.3465114257812507,1.6314629809240875,-0.2832277876509284,-0.3971868385712981,0.05795397228088189,0.4912575977377195
171,1791286206.71285,0.12176279296875009,-1.679722998046875,-0.2794508789062507,1.7071579662235739,-0.2791539373831968,-0.4239943838217267,0.05100615130292342,0.5101958307744627
172,1791286206.7230732,0.12176279296875009,-1.7515735839843751,-0.2602907226562507,1.7749894248035205,-0.2771971935016542,-0.4382727408969666,0.04757359270614041,0.5207538057676611
173,1791286206.7430732,0.19840341796875008,-1.9288050292968753,-0.3800416992187507,1.975875616137736,-0.27346309299885424,-0.4675366539653564,0.04090512444705417,0.5431811992693141
174,1791286206.7671597,0.22714365234375009,-2.015025732421875,-0.3992018554687507,2.0667087512593705,-0.26887183858482805,-0.504617898383284,0.03267108003428584,0.5727116974738292
175,1791286206.7871597,0.16966318359375007,-2.024605810546875,-0.33214130859375074,2.0586724199934543,-0.2650361692880746,-0.53684889653666,0.025762563432479832,0.5992617278102608
176,1791286206.8130016,0.1600831054687501,-2.077296240234375,-0.4279420898437507,2.126951034370144,-0.2601844185769308,-0.580197771987696,0.016701897452246976,0.63608516699276
177,1791286206.8330016,0.3660547851562501,-2.264107763671875,-0.5860133789062507,2.3671906876109854,-0.2562035153091305,-0.6152266880760421,0.00922045704599607,0.6665051656258251
178,1791286206.8576627,0.39479501953125007,-2.393438818359375,-0.5572731445312508,2.4889688311210225,-0.25062389318072703,-0.6605548669505288,-0.0007354120796181189,0.706502377148175
179,1791286206.8776627,0.4283252929687501,-2.3311683105468752,-0.5764333007812508,2.4392793195827953,-0.24554292870264152,-0.6988885289879306,-0.009298999746544068,0.7408258750766407
180,1791286206.8880684,0.39479501953125007,-2.3551185058593753,-0.6051735351562507,2.4634693608286446,-0.2426535017646962,-0.7194987734535785,-0.014008377806328028,0.7594441661956711
181,1791286206.9080684,0.3277344726562501,-2.412598974609375,-0.5812233398437507,2.503170842677863,-0.236849234327008,-0.7603214236687288,-0.023481710790091183,0.7967042223012013
182,1791286206.932949,0.4187452148437501,-2.359908544921875,-0.6482838867187507,2.482899090403996,-0.2293186689629321,-0.8123941896915716,-0.035793403606252924,0.8448979459800315
183,1791286206.952949,0.4474854492187501,-2.350328466796875,-0.6339137695312508,2.4751027849969334,-0.22287398028836963,-0.8550388445358924,-0.04612880155606497,0.8848119026594597
184,1791286206.978009,0.4331153320312501,-2.5036097167968747,-0.49021259765625075,2.587655095985776,-0.21435498983134224,-0.9095804203065768,-0.059249290911983915,0.9363733663150916
185,1791286206.998009,0.4474854492187501,-2.517979833984375,-0.3513014648437507,2.5814488937059847,-0.20725503742646473,-0.9541123258563389,-0.06941214557197735,0.9788273733618933
186,1791286207.0225997,0.4426954101562501,-2.369488623046875,-0.4471022460937507,2.4516027368609423,-0.1981930622813063,-1.009666915833609,-0.08150591642215674,1.0321584109414645
187,1791286207.0425997,0.3995850585937501,-2.1491468261718754,-0.4950026367187507,2.241322803581521,-0.19066494765724787,-1.0548506806430524,-0.09127969865116739,1.0758229706155655
188,1791286207.0523825,0.2942041992187501,-2.0629261230468754,-0.46147236328125074,2.1342860731540982,-0.18702595116340048,-1.0767271274953931,-0.09604510914535808,1.0970618380400436
189,1791286207.0723825,0.2319336914062501,-2.110826513671875,-0.4997926757812507,2.181553237212898,-0.1799131018041186,-1.1210034084433411,-0.10576806745130017,1.1402649911466853
190,1791286207.0973952,0.2367237304687501,-2.0820862792968753,-0.5093727539062507,2.1565208094116284,-0.17147266327913283,-1.1759366744916466,-0.11799713031218877,1.1942165881566138
191,1791286207.1173952,0.16487314453125007,-2.000655615234375,-0.2794508789062507,2.0267952137001743,-0.16513369723600682,-1.2193963531906535,-0.12749188670480166,1.2371138934281871
192,1791286207.1275697,0.07386240234375008,-1.919224951171875,-0.23155048828125072,1.9345530998925726,-0.16221044288930928,-1.2411802818041042,-0.13198752201365524,1.258674471691933
193,1791286207.1475697,0.035542089843750076,-1.8282142089843751,-0.33214130859375074,1.8584801002316906,-0.1571620458093951,-1.2831988959994653,-0.14034454651808273,1.3003829847681827
194,1791286207.1726496,0.10260263671875008,-1.8473743652343753,-0.2794508789062507,1.871206065645424,-0.15152111173854604,-1.3349002907593133,-0.1504026985378163,1.3518647880979966
195,1791286207.1926496,0.06907236328125008,-1.9479651855468751,-0.2890309570312507,1.9705020298376577,-0.1474399982354989,-1.3756381143752099,-0.15807314997835792,1.392517825934572
196,1791286207.2170827,0.011591894531250077,-2.0485560058593753,-0.3656715820312507,2.0809689538930125,-0.14305431608461455,-1.4252642139769456,-0.1672379505697411,1.4421550364314248
197,1791286207.2370827,0.030752050781250078,-2.0293958496093754,-0.31298115234375073,2.0536188557669197,-0.13993934889063928,-1.465909773148611,-0.17463257480750352,1.4828927879534808
198,1791286207.2471342,0.035542089843750076,-1.919224951171875,-0.2794508789062507,1.939788763518498,-0.13855869354105807,-1.486249809961948,-0.17823808640697317,1.5032983152434354
199,1791286207.2671342,0.06907236328125008,-2.010235693359375,-0.3465114257812507,2.0410508818797877,-0.13606668326468807,-1.5265448985288654,-0.18527499509982656,1.543755256939518
200,1791286207.2919059,0.1361329101562501,-2.077296240234375,-0.34172138671875074,2.1096126054469018,-0.13306185410459984,-1.5765616115811918,-0.19396208916493077,1.5940116888412277
201,1791286207.3119059,0.12176279296875009,-2.019815771484375,-0.2602907226562507,2.0401551874280264,-0.1306128970200412,-1.6170320734725618,-0.20082676899748592,1.6346815734732285
202,1791286207.337214,0.06907236328125008,-1.9527552246093751,-0.30340107421875073,1.977391253759751,-0.1276165808990814,-1.6681023428134114,-0.20928034456853917,1.6860159193918338
203,1791286207.357214,0.09781259765625008,-1.9383851074218752,-0.3800416992187507,1.9777097416153497,-0.12535356761063673,-1.7082439796512847,-0.21598394528564696,1.726400902325044
204,1791286207.368041,0.09302255859375008,-1.9000647949218752,-0.3752516601562507,1.9389979963266741,-0.1241572766644365,-1.7298321170205986,-0.21968193246334947,1.7481402500587666
205,1791286207.388041,0.08823251953125008,-1.8952747558593752,-0.28424091796875073,1.9185005283158942,-0.12200705261345955,-1.7694214724910409,-0.22647752002005134,1.7880240868831212
206,1791286207.4120474,0.07865244140625008,-1.8713245605468751,-0.3081911132812507,1.8981632120949599,-0.11951276755068001,-1.8165950432560103,-0.23447752527633564,1.835560013360948
207,1791286207.4320474,0.05949228515625008,-2.015025732421875,-0.3656715820312507,2.0488005613579534,-0.11753923565934893,-1.8558302820118682,-0.24115348048453822,1.8751203984548408
208,1791286207.457391,0.07386240234375008,-2.0054456542968753,-0.3177711914062507,2.031808666411766,-0.11516005461423076,-1.905732818410995,-0.249643265185323,1.9254612884189222
209,1791286207.477391,0.08823251953125008,-1.9048548339843752,-0.3896217773437507,1.9462944395535269,-0.1133210086073983,-1.94507181968023,-0.2563991199695516,1.965168324451399
210,1791286207.5030336,0.006801855468750077,-1.9479651855468751,-0.3992018554687507,1.9884608999802291,-0.11113402256113437,-1.9953537069742455,-0.2652788017170619,2.0159761976637824
211,1791286207.5230336,-0.031518457031249926,-2.019815771484375,-0.34172138671875074,2.048761252564983,-0.10972121797561489,-2.034640141990983,-0.272277039774727,2.0557076736403035
212,1791286207.532462,-0.002778222656249924,-1.9910755371093751,-0.2219704101562507,2.0034121832467346,-0.10917935685007549,-2.0532184575636583,-0.27547984216922833,2.0744915786485776
213,1791286207.5524619,0.016381933593750078,-1.9814954589843752,-0.2123903320312507,1.9929130123676535,-0.10818192821499072,-2.092675639216058,-0.28190631601341776,2.1143476137023702
214,1791286207.5773678,0.021171972656250076,-2.053346044921875,-0.28424091796875073,2.073034281450787,-0.10705599880684354,-2.141978026992286,-0.2896364347197156,2.1641210962687474
215,1791286207.5973678,-0.002778222656249924,-2.043765966796875,-0.3465114257812507,2.072934445117657,-0.1062598848345016,-2.181775920904134,-0.2958588939253478,2.2043071059352988
216,1791286207.6231427,0.030752050781250078,-2.043765966796875,-0.29382099609375073,2.0650074560180025,-0.10533371558678552,-2.23327368965039,-0.30391304436762623,2.2563177309636124
217,1791286207.6431427,0.04512216796875008,-2.0389759277343753,-0.28424091796875073,2.05918715598417,-0.10460904542533739,-2.273363373248248,-0.31009228624715324,2.296798054945502
218,1791286207.6521947,0.002011816406250076,-2.1060364746093754,-0.34172138671875074,2.1335808365120186,-0.10429825672836837,-2.2916004160000862,-0.31289448228951666,2.3152134998776184
219,1791286207.6721947,0.04033212890625008,-2.015025732421875,-0.3513014648437507,2.045817221099136,-0.10365107090656057,-2.3320316855877823,-0.3191966190107888,2.35605641033346
220,1791286207.69811,0.04512216796875008,-1.9335950683593752,-0.3704616210937507,1.9692810137533208,-0.1027721637116087,-2.384237635241018,-0.32754068074830056,2.4088242186757234
221,1791286207.71811,0.04033212890625008,-1.9814954589843752,-0.34172138671875074,2.011150029395817,-0.10206743650767465,-2.424356344428293,-0.33408249507930593,2.449394325110471
222,1791286207.7425892,0.11697275390625009,-2.053346044921875,-0.2746608398437507,2.074934018781415,-0.10104546131487173,-2.473502153313044,-0.34202000760078644,2.4990799853737857
223,1791286207.7625892,0.12176279296875009,-2.019815771484375,-0.2219704101562507,2.0356209842388404,-0.09997762939691734,-2.513742075610131,-0.3482773012088877,2.539722785583085
224,1791286207.7721455,0.05470224609375008,-1.9910755371093751,-0.2602907226562507,2.0087621537912352,-0.09941746070940602,-2.5329599268470018,-0.3511643035033855,2.5591182447401084
225,1791286207.7921455,-0.017148339843749926,-1.9383851074218752,-0.2650807617187507,1.9565016484704798,-0.09836462863279556,-2.5730413375937804,-0.35708813696818914,2.5995632830719604
226,1791286207.817502,-0.021938378906249924,-1.957545263671875,-0.2076002929687507,1.9686448723510128,-0.09730437312395043,-2.62364426021485,-0.36437089382642984,2.6506119092494935
227,1791286207.837502,-0.021938378906249924,-2.034185888671875,-0.24592060546875072,2.0491145566646436,-0.09665935254143126,-2.6635579769836437,-0.36993381197361713,2.690861414571226
228,1791286207.8619606,-0.017148339843749926,-1.9767054199218752,-0.3177711914062507,2.002158063888978,-0.0960605584704838,-2.712405598329785,-0.3767504645043954,2.7401300467767395
229,1791286207.8819606,-0.031518457031249926,-1.914434912109375,-0.3992018554687507,1.9558672161592552,-0.09571736674418714,-2.752193845168439,-0.3825638377660157,2.7803035563847596
230,1791286207.8922412,-0.017148339843749926,-1.957545263671875,-0.4566823242187507,2.0101831434318185,-0.09560494157512084,-2.7725638504382335,-0.385763779266779,2.8009041938282455
231,1791286207.9122412,0.10260263671875008,-2.0629261230468754,-0.43273212890625073,2.1103195458504826,-0.09529085433664233,-2.8122783301239545,-0.3923893131440719,2.8411193438633764
232,1791286207.9375162,0.07386240234375008,-2.0629261230468754,-0.33214130859375074,2.0907983385548143,-0.09461895410268481,-2.862760221119761,-0.4009562960979264,2.8922508157975715
233,1791286207.9575162,0.002011816406250076,-1.9814954589843752,-0.23634052734375072,1.9955413165970968,-0.09405322214306332,-2.902781015877152,-0.4075711789677332,2.9327628442575158
234,1791286207.9828687,0.10739267578125009,-1.914434912109375,-0.31298115234375073,1.942820480959862,-0.09323563088719952,-2.9533105372741155,-0.41574309178696517,2.9838864473719244
235,1791286208.0028687,0.1265528320312501,-1.9719153808593752,-0.3656715820312507,2.0095227280302512,-0.09233648102480564,-2.9930223878522626,-0.42224070726480484,3.024069485773167
236,1791286208.0128891,0.1265528320312501,-2.101246435546875,-0.34172138671875074,2.132610069453524,-0.0917633405025918,-3.0129956622346223,-0.4255394880491459,3.044281069020069
237,1791286208.0328891,0.11218271484375009,-2.077296240234375,-0.32256123046875074,2.1051817922932687,-0.09043289233429394,-3.0531485586767713,-0.43213236338241495,3.0849039869740618
238,1791286208.0578022,0.09781259765625008,-2.000655615234375,-0.3656715820312507,2.0361497736989627,-0.08863183290511292,-3.1032822835179177,-0.44039889281412314,3.135628759561981
239,1791286208.0778022,0.07865244140625008,-2.0293958496093754,-0.40399189453125073,2.0707107890282197,-0.08713814302926233,-3.1435372062868003,-0.44719423535533265,3.1763818894168017
240,1791286208.1028845,0.1313428710937501,-2.086876318359375,-0.3704616210937507,2.123569054827212,-0.08515083011297005,-3.194192422841435,-0.4558949600461535,3.227685875763323
241,1791286208.1228845,0.1265528320312501,-2.0389759277343753,-0.3608815429687507,2.0745298120853537,-0.08341705222380635,-3.234713619018056,-0.4628890360228133,3.2687301603730963
242,1791286208.148161,0.05470224609375008,-1.9335950683593752,-0.3656715820312507,1.9686284387909863,-0.08121093209837857,-3.2857744014282715,-0.4717797647938432,3.320464542657027
243,1791286208.168161,0.05949228515625008,-1.9767054199218752,-0.3656715820312507,2.0111239034546995,-0.07955588593572437,-3.3259814339942047,-0.4788563527378127,3.3612177919347217
244,1791286208.1779048,0.07865244140625008,-2.000655615234375,-0.33214130859375074,2.0295632402520423,-0.07876954713608346,-3.3455384989577803,-0.4822968486909344,3.3810416649047537
245,1791286208.1979048,0.07865244140625008,-1.9671253417968753,-0.3177711914062507,1.994178238514899,-0.07716168482598128,-3.3856108762298707,-0.489274261887797,3.4216522666976297
246,1791286208.2230613,0.09781259765625008,-1.9479651855468751,-0.3081911132812507,1.9746182999933104,-0.07510969214803846,-3.4358410933707244,-0.49791520489483954,3.472544461344589
247,1791286208.2430613,0.1361329101562501,-1.9671253417968753,-0.32256123046875074,1.9980390454064199,-0.0733721009916979,-3.475657751802112,-0.5047006147202465,3.512876738993989
248,1791286208.2680542,0.16487314453125007,-2.024605810546875,-0.3369313476562507,2.0590615762820814,-0.07096220275135569,-3.525433432616609,-0.5131442839031217,3.563289712910346
249,1791286208.2880542,0.10739267578125009,-2.053346044921875,-0.3369313476562507,2.083575268628715,-0.06891461244618742,-3.565407342648486,-0.5198983878161881,3.6037720622251097
250,1791286208.2975633,0.09302255859375008,-2.077296240234375,-0.32256123046875074,2.1042477547809604,-0.0679441738944773,-3.584508159033039,-0.5230983060832447,3.6231128868374762
251,1791286208.3175633,0.1265528320312501,-2.0485560058593753,-0.3513014648437507,2.082308826192458,-0.06587989794702456,-3.624844645389115,-0.529829791474645,3.6639539396796073
252,1791286208.3423722,0.1313428710937501,-2.034185888671875,-0.3944118164062507,2.0762282775214804,-0.06322351180597771,-3.674971191997179,-0.5383148489108461,3.714726551310628
253,1791286208.3623722,0.08823251953125008,-2.0725062011718753,-0.3656715820312507,2.106367165834093,-0.0610738929542107,-3.7154798266007187,-0.5452692546433362,3.7557740776485464
254,1791286208.3878775,0.07865244140625008,-2.043765966796875,-0.3513014648437507,2.0752296867522144,-0.058424522824746146,-3.7672642413425588,-0.5541791629888471,3.8082552217067387
255,1791286208.4078774,0.09302255859375008,-2.0054456542968753,-0.3752516601562507,2.042370994015429,-0.05640113282765345,-3.807853783491855,-0.5612076895417017,3.849400679981003
256,1791286208.4181488,0.12176279296875009,-2.0054456542968753,-0.3800416992187507,2.0447665253604987,-0.055352400582055004,-3.828662165355925,-0.5648576991122587,3.870501528862185
257,1791286208.4381487,0.016381933593750078,-2.0629261230468754,-0.30340107421875073,2.0851821907772408,-0.05340943335485218,-3.8692045429464295,-0.5719239708439954,3.9116100765739086
258,1791286208.4623194,-0.002778222656249924,-2.019815771484375,-0.31298115234375073,2.043922863265777,-0.051388853552603385,-3.9182530097559005,-0.5803001964220166,3.9613250031647307
259,1791286208.4823194,0.06428232421875008,-2.010235693359375,-0.3513014648437507,2.041713123645038,-0.04987545895168383,-3.9587954399484504,-0.5871878873131003,4.002416583986418
260,1791286208.5082405,0.04991220703125008,-2.0485560058593753,-0.3369313476562507,2.076679000372158,-0.04798622706634726,-4.011349557766269,-0.596113680383902,4.055684833973239
261,1791286208.5282404,0.035542089843750076,-2.019815771484375,-0.30340107421875073,2.0427851582397434,-0.04661902025562308,-4.0519189699078275,-0.6029280307686109,4.096796661055442
262,1791286208.537468,0.04033212890625008,-2.034185888671875,-0.3608815429687507,2.066343243110738,-0.04603033334663018,-4.070634692189578,-0.606060138521036,4.11576171326153
263,1791286208.557468,0.06907236328125008,-2.0629261230468754,-0.4375221679687507,2.1099433234052865,-0.044781680307456946,-4.111260601805764,-0.6130280706274586,4.156954720733517
264,1791286208.5832229,0.11218271484375009,-2.096456396484375,-0.4087819335937507,2.1388821971073138,-0.043064806915616885,-4.163763478740046,-0.6222898057656977,4.210228673937319
265,1791286208.6032228,0.07386240234375008,-2.019815771484375,-0.3081911132812507,2.0445276147615488,-0.04165248768095762,-4.204593308456183,-0.6294786319577039,4.2516565203854215
266,1791286208.6273913,0.10739267578125009,-2.010235693359375,-0.31298115234375073,2.0372869045350304,-0.03987325759113185,-4.253837172195799,-0.6379886797987495,4.301598554000249
267,1791286208.6473913,0.1457129882812501,-2.024605810546875,-0.3752516601562507,2.0642370918826267,-0.03824209880585231,-4.294527291367077,-0.645006948840066,4.342863235063901
268,1791286208.6574388,0.16487314453125007,-2.086876318359375,-0.3369313476562507,2.120320413274904,-0.03731152264308649,-4.315000879614866,-0.6485405359867586,4.363625736428022
269,1791286208.6774387,0.16966318359375007,-2.024605810546875,-0.2794508789062507,2.05083082619918,-0.03523520946540911,-4.355808842743013,-0.6554438402962046,4.404987948029658
270,1791286208.7023993,0.1552930664062501,-1.9910755371093751,-0.3560915039062507,2.028619947181694,-0.032424277924522286,-4.406616380955736,-0.6639567844594875,4.456473703987957
271,1791286208.7223992,0.09302255859375008,-2.053346044921875,-0.3992018554687507,2.093858948929781,-0.03013734974774433,-4.4472867497387325,-0.6708876765469767,4.497705856188699
272,1791286208.7476096,0.1457129882812501,-2.058136083984375,-0.2986110351562507,2.084784153208547,-0.027235642352245844,-4.498636601137066,-0.6796331364206232,4.5497663950389065
273,1791286208.7676096,0.18403330078125008,-2.024605810546875,-0.2746608398437507,2.051422804016833,-0.024784330250657093,-4.53938718429923,-0.6863903235333141,4.59105455731537
274,1791286208.778246,0.1552930664062501,-2.053346044921875,-0.3608815429687507,2.0905935532105873,-0.023405539208778872,-4.561061341913653,-0.6899518602779995,4.613010075153305
275,1791286208.798246,0.1457129882812501,-2.086876318359375,-0.4087819335937507,2.1315223931067853,-0.020750316858377027,-4.601913349527803,-0.6967987378460578,4.654413554173693
276,1791286208.822672,0.16487314453125007,-2.1251966308593753,-0.40399189453125073,2.169528364518568,-0.017424938621596164,-4.652038336369781,-0.7053954776446029,4.705246762011695
277,1791286208.8426719,0.16487314453125007,-2.134776708984375,-0.3992018554687507,2.178030503096657,-0.014615924569859464,-4.693314253675477,-0.7125834218061265,4.747124123302166
278,1791286208.8680878,0.11697275390625009,-2.1060364746093754,-0.3848317382812507,2.144100679616064,-0.01104444064799642,-4.7459833419610105,-0.7218421901841711,4.8005766330067585
279,1791286208.8880877,0.08344248046875008,-2.086876318359375,-0.3608815429687507,2.11949307706618,-0.008354952252948857,-4.787501587058348,-0.7291536905746931,4.842716836218286
280,1791286208.9123378,0.09781259765625008,-2.0916663574218752,-0.3560915039062507,2.1240142688280077,-0.0052534340558928055,-4.837891157123905,-0.7379931187040423,4.89385862995669
281,1791286208.9323378,0.1409229492187501,-2.086876318359375,-0.4087819335937507,2.1312002991221486,-0.0027210757074573547,-4.879483534073736,-0.7453371265612574,4.93608087411261
282,1791286208.9426606,0.11218271484375009,-2.067716162109375,-0.41357197265625073,2.1116526383675938,-0.0014141228222419378,-4.900947463712713,-0.749195763480995,4.957880830943126
283,1791286208.9626606,0.10739267578125009,-2.0725062011718753,-0.3752516601562507,2.1089402431452053,0.001067578270254774,-4.9425053840421365,-0.7567335437091706,5.000100625705798
284,1791286208.9882903,0.1265528320312501,-2.0629261230468754,-0.3704616210937507,2.099743227432286,0.004220507890473412,-4.995722264916893,-0.7663776237057525,5.054165947314166
285,1791286209.0082903,0.17924326171875007,-2.0820862792968753,-0.4087819335937507,2.1293928924791046,0.00677051087098093,-5.037238046213892,-0.7739433176647788,5.096351757188682
286,1791286209.0334094,0.1361329101562501,-2.0293958496093754,-0.3560915039062507,2.064892453081657,0.010086942073962987,-5.089304433440783,-0.783461127985089,5.149265258432904
287,1791286209.0534093,0.08823251953125008,-1.9862854980468752,-0.33214130859375074,2.01579584931821,0.012667971286617374,-5.130565236419933,-0.7909349028074869,5.191188509689889
288,1791286209.0624547,0.07386240234375008,-1.9910755371093751,-0.3369313476562507,2.020732585472119,0.013770157435299395,-5.149125306016781,-0.79426193349777,5.210041559652074
289,1791286209.0824547,0.07386240234375008,-1.9862854980468752,-0.3177711914062507,2.012899467017432,0.01606320886544519,-5.1899734025159034,-0.8014968555021568,5.251521603771749
290,1791286209.1080818,0.05470224609375008,-1.9383851074218752,-0.2602907226562507,1.9565480880120296,0.018807801538041295,-5.242006638748594,-0.8104878574761464,5.304326338113003
291,1791286209.1280818,0.04512216796875008,-1.9048548339843752,-0.2794508789062507,1.9257727649744445,0.020778187445047,-5.28228819313335,-0.8172617284920971,5.345176986896447
292,1791286209.1523786,0.06907236328125008,-1.9335950683593752,-0.31298115234375073,1.9599791023057813,0.023020925944296708,-5.330878104644282,-0.825336081294297,5.3944388935915635
293,1791286209.1723785,-0.017148339843749926,-1.9479651855468751,-0.30340107421875073,1.9715259677465982,0.02466801361147732,-5.370697881473695,-0.8319101256809084,5.434802544911084
294,1791286209.1974478,-0.021938378906249924,-1.9814954589843752,-0.3273512695312507,2.0084731514532264,0.026349402023714864,-5.420511750422929,-0.8401003350433164,5.485290375212597
295,1791286209.2174478,0.04033212890625008,-2.019815771484375,-0.3513014648437507,2.0505353326779074,0.027517177943061036,-5.460293557847771,-0.8466722687147127,5.525614614100981
296,1791286209.227667,0.07386240234375008,-2.024605810546875,-0.34172138671875074,2.0545699911955166,0.02811189333816623,-5.480671526582976,-0.8500577727231275,5.546273422561444
297,1791286209.247667,0.04512216796875008,-2.0629261230468754,-0.33214130859375074,2.0899803941821515,0.029279686013644446,-5.520701807099891,-0.8567003911727834,5.586854329867985
298,1791286209.2732875,0.05949228515625008,-2.077296240234375,-0.3369313476562507,2.1052842408374315,0.030752281421560567,-5.572245183336526,-0.8652189893944087,5.639101522905793
299,1791286209.2932875,0.10739267578125009,-2.0725062011718753,-0.33214130859375074,2.1016976446629294,0.031979722132799,-5.61267053721471,-0.871874956074714,5.680075633385178
300,1791286209.3032906,0.16966318359375007,-2.0389759277343753,-0.40399189453125073,2.0855258043463216,0.03270940222165805,-5.632941202102194,-0.8752568891762671,5.700629010327257
301,1791286209.3232906,0.1457129882812501,-2.0293958496093754,-0.4471022460937507,2.08316590981796,0.034422537826012366,-5.673493206840407,-0.8822810340351197,5.741788040514271
302,1791286209.3478918,0.08823251953125008,-1.9335950683593752,-0.41357197265625073,1.9792970071349354,0.03664536260056811,-5.723204553899689,-0.8912131717699308,5.7922943783887995
303,1791286209.3678918,0.09781259765625008,-1.8904847167968752,-0.3896217773437507,1.9326936896682123,0.03846045072235414,-5.763292300132063,-0.8985902644888564,5.833050814665121
304,1791286209.3932667,0.05949228515625008,-1.8904847167968752,-0.4087819335937507,1.9350902990993262,0.04071727270156965,-5.813719907794376,-0.9080654262588794,5.884350421324993
305,1791286209.4132667,0.021171972656250076,-1.876114599609375,-0.3273512695312507,1.904576881345913,0.042350233675201125,-5.853153929464133,-0.9155175382605822,5.924472704566752
306,1791286209.4229188,0.002011816406250076,-1.8234241699218752,-0.28424091796875073,1.845446463679792,0.0430368837798669,-5.872008540130447,-0.9190172535729644,5.943646118427239
307,1791286209.4429188,0.016381933593750078,-1.8042640136718753,-0.3177711914062507,1.8321068551990527,0.04427384798486788,-5.910658055305541,-0.9260842010924782,5.982931619856337
308,1791286209.4679935,0.002011816406250076,-1.8473743652343753,-0.2986110351562507,1.8713536926640701,0.04562664319381932,-5.958713226334639,-0.9347744528261359,6.031761631722602
309,1791286209.4879935,-0.031518457031249926,-1.880904638671875,-0.2746608398437507,1.9011139497291272,0.04649954192208902,-5.99688574871411,-0.9415261159907993,6.070524879911298
310,1791286209.5125134,-0.017148339843749926,-1.9479651855468751,-0.2555006835937507,1.964724670018408,0.047319689650694045,-6.043706511736028,-0.9495369719036828,6.118026480331801
311,1791286209.5325134,0.035542089843750076,-1.914434912109375,-0.2650807617187507,1.9330266638324172,0.04791589947371646,-6.081961558146696,-0.9558718752611641,6.156804639592835
312,1791286209.543226,0.06907236328125008,-1.8856946777343753,-0.3273512695312507,1.9151434052489982,0.04827139816229839,-6.102431782896542,-0.9592320616089788,6.177550480635915
313,1791286209.563226,0.10260263671875008,-1.9814954589843752,-0.3704616210937507,2.018438348758948,0.049093055314379054,-6.140716994207609,-0.9656110977419522,6.216367116179083
314,1791286209.5874345,0.17445322265625007,-2.058136083984375,-0.40399189453125073,2.1046537762636017,0.05044146287765401,-6.187441796830703,-0.9735803889747362,6.263771954991736
315,1791286209.6074345,0.1265528320312501,-2.0485560058593753,-0.33214130859375074,2.0791621334835857,0.0518398647052922,-6.226413419568401,-0.980280868623187,6.303321507296195
316,1791286209.633183,0.1552930664062501,-2.010235693359375,-0.3081911132812507,2.0396434104115944,0.053914435498394954,-6.27689861320437,-0.9888498529283984,6.354540659909146
317,1791286209.653183,0.21277353515625008,-1.9767054199218752,-0.3848317382812507,2.025026508764755,0.05583623337248539,-6.316210971080191,-0.9955469058196589,6.394431355315193
318,1791286209.6771464,0.19840341796875008,-2.010235693359375,-0.4183620117187507,2.062871356136172,0.05853247533055565,-6.3634141149931525,-1.0038110507117801,6.442367722747088
319,1791286209.6971464,0.1457129882812501,-2.0054456542968753,-0.3896217773437507,2.0481332175111504,0.06096139852696855,-6.402924154907013,-1.0108857170080983,6.482518334602149
320,1791286209.7073984,0.10739267578125009,-1.9910755371093751,-0.3608815429687507,2.0263638541343827,0.06221431847298921,-6.423212013785292,-1.0145452844105924,6.503139651705054
321,1791286209.7273984,0.10260263671875008,-2.034185888671875,-0.3848317382812507,2.0728084806662666,0.06460691756466654,-6.462891463663079,-1.0217321904856413,6.543475895421401
322,1791286209.7525468,0.06907236328125008,-2.058136083984375,-0.3273512695312507,2.0851508303313495,0.0674879470804082,-6.513019812638647,-1.0307568800990605,6.594425027907758
323,1791286209.7725468,0.030752050781250078,-1.9719153808593752,-0.2890309570312507,1.9932222284580885,0.06958522181869325,-6.5529509921467195,-1.0377820246653782,6.63498307000785
324,1791286209.7969177,0.016381933593750078,-1.9767054199218752,-0.31298115234375073,2.001396983763893,0.07184365712056603,-6.6015276554693125,-1.0461587894442872,6.684293314160155
325,1791286209.8169177,0.025962011718750077,-2.058136083984375,-0.34172138671875074,2.0864735014833067,0.07348254974913851,-6.641464675867598,-1.0529840739729315,6.724821795851201
326,1791286209.8273976,0.08344248046875008,-2.024605810546875,-0.3704616210937507,2.0599109564130087,0.07429849947415681,-6.662461530714485,-1.056583809392254,6.7461309846121695
327,1791286209.8473976,0.07865244140625008,-1.995865576171875,-0.33214130859375074,2.0248415872757612,0.07586523214374462,-6.702552220232174,-1.063477013322642,6.786821432471397
328,1791286209.87199,0.011591894531250077,-2.000655615234375,-0.28424091796875073,2.020779592690746,0.07766919598778557,-6.751825429564928,-1.0718185121313613,6.836810225410129
329,1791286209.89199,0.09781259765625008,-2.034185888671875,-0.3177711914062507,2.061178804475681,0.07908032834192871,-6.791938768884964,-1.0784877558633306,6.877486588729955
330,1791286209.9180567,0.12176279296875009,-2.043765966796875,-0.3608815429687507,2.078951897674456,0.08107290785140205,-6.8443503296097115,-1.0872029774418823,6.930635942319762
331,1791286209.9380567,0.09781259765625008,-2.067716162109375,-0.33214130859375074,2.096505492523918,0.08270177210516039,-6.8846988182374735,-1.0939263207353274,6.971555937963012
332,1791286209.94728,0.1313428710937501,-2.0629261230468754,-0.3608815429687507,2.098368563191859,0.08349878266579892,-6.903372252502966,-1.0970411789974748,6.990494964718215
333,1791286209.96728,0.17924326171875007,-2.110826513671875,-0.42315205078125073,2.1602718291391287,0.08543368878807919,-6.944051222411984,-1.1039584470891164,7.031775774835309
334,1791286209.992818,0.1409229492187501,-2.0725062011718753,-0.43273212890625073,2.1218855593316346,0.08814702242376185,-6.9962157619913015,-1.113105606515065,7.084758921597331
335,1791286210.012818,0.06428232421875008,-2.0820862792968753,-0.3369313476562507,2.1101512326553107,0.0902610112433612,-7.037171944652844,-1.1203490781135097,7.126367804540371
336,1791286210.0377474,0.09781259765625008,-2.015025732421875,-0.3273512695312507,2.0437844456415406,0.09280384143749373,-7.08822519649153,-1.1292655113857757,7.178216323319346
337,1791286210.0577474,0.11697275390625009,-1.9910755371093751,-0.3752516601562507,2.029501965527952,0.09486004690803887,-7.129048997471139,-1.1363997825342913,7.219677451423133
338,1791286210.0669498,0.10260263671875008,-2.034185888671875,-0.33214130859375074,2.0636756963262894,0.09581578863140716,-7.147793601435965,-1.1396782700027002,7.238715396615365
339,1791286210.0869498,0.08823251953125008,-2.034185888671875,-0.24113056640625072,2.0503270854256446,0.09786760790131667,-7.188523552913311,-1.1465946130749434,7.280050009869314
340,1791286210.1120222,0.1265528320312501,-1.9671253417968753,-0.22676044921875071,1.9841920348001836,0.10045786363563448,-7.2394485498942185,-1.1548443315142731,7.331669149584043
341,1791286210.1320221,0.1552930664062501,-1.9719153808593752,-0.3273512695312507,2.004925200451965,0.10263692256469378,-7.279886162239256,-1.1612691166454276,7.372640153588849
342,1791286210.1578357,0.16487314453125007,-2.0629261230468754,-0.33214130859375074,2.0959878796909117,0.10564736826017755,-7.332060911957056,-1.1695943980181809,7.42551207924035
343,1791286210.1778357,0.17924326171875007,-2.101246435546875,-0.29382099609375073,2.129247638842309,0.1081461239831795,-7.372667757768716,-1.1760161000722344,7.466655162668495
344,1791286210.1870506,0.18403330078125008,-2.077296240234375,-0.3081911132812507,2.108081992663912,0.10937578460611497,-7.391458583205946,-1.178947108649196,7.485688968591959
345,1791286210.2070506,0.22235361328125008,-2.173097021484375,-0.3992018554687507,2.220620164623654,0.1122538925812034,-7.432500249947998,-1.1854154415318867,7.527275115929996
346,1791286210.2324564,0.17445322265625007,-2.297638037109375,-0.3800416992187507,2.335381375624129,0.11611762493368759,-7.48533375753086,-1.1938844338569423,7.580835363326209
347,1791286210.2524564,0.19840341796875008,-2.297638037109375,-0.33214130859375074,2.3299833292768155,0.11926227060657986,-7.5275794510533105,-1.2006196124423363,7.62365813339577
348,1791286210.2777367,0.20798349609375008,-2.307218115234375,-0.32256123046875074,2.3389224684274073,0.12341142965916976,-7.58169958251991,-1.209097290773449,7.678496936191926
349,1791286210.2977366,0.1409229492187501,-2.527559912109375,-0.3704616210937507,2.558448787766187,0.12672493814797822,-7.625345442209724,-1.2158377355285919,7.722707667788061
350,1791286210.3220325,0.09781259765625008,-2.594620458984375,-0.34172138671875074,2.6188539738942183,0.13058139726676438,-7.679746531653435,-1.224095464851753,7.777786831665273
351,1791286210.3420324,0.10260263671875008,-2.455709326171875,-0.1740700195312507,2.46400811025629,0.13358041724677347,-7.725386926477412,-1.2306471550278661,7.823933749197914
352,1791286210.3523548,0.10739267578125009,-2.273687841796875,-0.1070094726562507,2.2787366271652716,0.13505865905238468,-7.749070727618114,-1.2337389832204324,7.8478309017033965
353,1791286210.3723547,0.08344248046875008,-2.1587269042968753,-0.1596999023437507,2.166233725545457,0.13777944721742127,-7.7947245042954805,-1.239231019064408,7.893820798102233
354,1791286210.397175,0.025962011718750077,-2.101246435546875,-0.1644899414062507,2.1078348013482375,0.14085317040188977,-7.850813117587216,-1.2456278624654247,7.950263831763192
355,1791286210.417175,-0.04588857421874993,-2.024605810546875,-0.1357497070312507,2.0296705230906493,0.14292854063039423,-7.895418204532126,-1.2504595590624445,7.995105146340145
356,1791286210.4426718,-0.11294912109374992,-1.9671253417968753,-0.0878493164062507,1.9723227719337344,0.14487369803214115,-7.95138600230073,-1.2561228201126378,8.051296310854124
357,1791286210.4626718,-0.33329091796874993,-1.919224951171875,-0.0591090820312507,1.9488461028977417,0.1455012757336062,-7.994532149863965,-1.2601192467744162,8.094542323846358
358,1791286210.4727771,-0.46741201171874996,-1.9096448730468751,-0.1117995117187507,1.9691918801055766,0.145163951946339,-8.015964412504857,-1.2619651590030019,8.11599125788258
359,1791286210.492777,-0.5488426757812499,-1.794683935546875,-0.2171803710937507,1.8892554154632353,0.14307210099641243,-8.057575796403324,-1.2655639548689637,8.157612975909789
360,1791286210.5172784,-0.63985341796875,-1.684513037109375,-0.2076002929687507,1.813861750607927,0.138709494352636,-8.107299401995697,-1.2700919837379723,8.207355089465716
361,1791286210.5372784,-0.78834462890625,-1.6126624511718752,-0.1549098632812507,1.8017115476920353,0.1335402509399009,-8.146745357287774,-1.273777473297104,8.246805561342534
362,1791286210.5622237,-0.91288564453125,-1.679722998046875,-0.0878493164062507,1.9137782140446327,0.12487712852653576,-8.19472465971189,-1.27813891222849,8.294742046903677
363,1791286210.5822237,-0.95599599609375,-1.6318226074218751,-0.1261696289062507,1.8954398280870721,0.116169963843306,-8.232389463525841,-1.281432224205697,8.33233462391564
364,1791286210.606759,-0.87456533203125,-1.4929114746093752,-0.1309596679687507,1.7351655902667489,0.1037219945406688,-8.277414671913514,-1.2853395039220805,8.377257877330937
365,1791286210.626759,-1.04700673828125,-1.2965198730468752,-0.1788600585937507,1.6760602052945435,0.0922147492328812,-8.312795667855383,-1.2885114905131188,8.41257019208016
366,1791286210.6370943,-1.10448720703125,-1.2294593261718751,-0.1405397460937507,1.6586782826813609,0.08549251937979001,-8.330294642963777,-1.2901523549376759,8.430042165280796
367,1791286210.6570942,-1.06137685546875,-1.128868505859375,-0.0495290039062507,1.5502638662736918,0.07118658948525969,-8.362615521313787,-1.2931364524654128,8.46230510987022
368,1791286210.6829433,-0.97515615234375,-1.1528187011718751,-0.1596999023437507,1.5183624527872386,0.05152207557762867,-8.402546317005875,-1.2968203745753066,8.502186907944006
369,1791286210.7029433,-0.91288564453125,-0.9660071777343752,-0.1740700195312507,1.3404590404503893,0.035757404125713786,-8.431985535815693,-1.2997438060455073,8.531646536836165
370,1791286210.7124639,-0.98473623046875,-0.6546546386718751,-0.1357497070312507,1.1902546460701076,0.028023678855397745,-8.445054536144573,-1.301147917100172,8.54474793936057
371,1791286210.7324638,-1.01347646484375,-0.362462255859375,-0.0255788085937507,1.0766465098461646,0.01121692196364607,-8.469916387466766,-1.303897108654694,8.569699942236861
372,1791286210.7574651,-1.08532705078125,-0.304981787109375,0.0798020507812493,1.130184526940113,-0.010576653132323803,-8.497585012086061,-1.3067166040800355,8.597474698223868
373,1791286210.777465,-1.07574697265625,-0.367252294921875,0.10854228515624931,1.1418788136100133,-0.02863711486074319,-8.517407040170971,-1.308351244175843,8.617356076572328
374,1791286210.80238,-0.93683583984375,-0.19960092773437502,0.15165263671874932,0.9697940211157813,-0.05152187439501771,-8.539455576298076,-1.3095959380527042,8.639444285605043
375,1791286210.82238,-0.8649852539062499,-0.04631967773437501,0.07022197265624931,0.8690662388244126,-0.06983932769566807,-8.554868609315465,-1.310112405716246,8.6548858438431
376,1791286210.832754,-1.07574697265625,0.159652001953125,0.07501201171874931,1.0901133486059242,-0.07942523932630827,-8.56157585737345,-1.3102271127714247,8.661615589325313
377,1791286210.8527539,-1.22902822265625,0.097381494140625,0.0606418945312493,1.2343706764416353,-0.09859119006105296,-8.572181725276486,-1.3102116068395302,8.67229348030951
378,1791286210.8770814,-1.01826650390625,-0.05589975585937501,0.07022197265624931,1.022214547502788,-0.12250759074588431,-8.583071662805994,-1.3099568054724418,8.683323909129337
379,1791286210.8970814,-0.91288564453125,-0.01757944335937501,-0.001628613281250697,0.9130563450309521,-0.14211701365566173,-8.590791731893784,-1.3096758612241668,8.69121111743457
380,1791286210.9229174,-0.92725576171875,0.269822900390625,-0.0686891601562507,0.9681558996043972,-0.1672144019962061,-8.598779832479938,-1.3095036305272536,8.699527287276172
381,1791286210.9429173,-1.09969716796875,0.490164697265625,-0.0686891601562507,1.20594920805437,-0.18676881459894898,-8.60289599198555,-1.3095963706674536,8.704007392752668
382,1791286210.9529245,-1.22423818359375,0.40394399414062504,-0.0207887695312507,1.2893262013586122,-0.19682958069078393,-8.603975550505659,-1.3097029698015232,8.705312115406375
383,1791286210.9729245,-1.08532705078125,0.408734033203125,-0.1022194335937507,1.164236715475099,-0.21738500309145703,-8.604590472375628,-1.3100685709330928,8.70646386872496
384,1791286210.9972508,-0.6877538085937499,0.38478383789062504,-0.1836500976562507,0.8091917334638297,-0.2418715735584961,-8.603778468521424,-1.3109681165158085,8.706442625780609
385,1791286211.0172508,-0.8218749023437499,0.542855126953125,-0.07347919921875071,0.9877090850446152,-0.26124798308959996,-8.601819558131432,-1.3119824402155986,8.705219591874457
386,1791286211.0424263,-1.10448720703125,0.710506494140625,0.0606418945312493,1.3146820558918542,-0.28561731563264275,-8.597357039744992,-1.31309196783439,8.701743264187536
387,1791286211.0624263,-0.97994619140625,0.681766259765625,0.14686259765624932,1.2027752880720346,-0.30519952798183814,-8.592255285306136,-1.3135299278139119,8.69743401877901
388,1791286211.0878105,-0.73565419921875,0.480584619140625,0.007951464843749303,0.8787558834943191,-0.32959157084125396,-8.584538464669732,-1.3137076745517378,8.690728341694953
389,1791286211.1078105,-0.75960439453125,0.518904931640625,-0.001628613281250697,0.9199259843342661,-0.34816999342717675,-8.577871218234005,-1.3138172286271999,8.68488414955364
390,1791286211.1170127,-0.9033055664062499,0.6721861816406249,0.13728251953124931,1.1343022962411595,-0.35658362123032616,-8.574441633990359,-1.3137664507454752,8.681830653770053
391,1791286211.1370127,-0.83624501953125,0.849417626953125,0.16123271484374932,1.2028349953361785,-0.3747360631173199,-8.565823505183182,-1.313224872574941,8.674002478953925
392,1791286211.1620014,-0.53926259765625,0.763196923828125,0.11333232421874931,0.9413383607845284,-0.3965922017203417,-8.553648611600739,-1.3121351306836149,8.662787573661191
393,1791286211.1820014,-0.45783193359374996,0.648235986328125,0.16123271484374932,0.8098246487511198,-0.41295675189360104,-8.543248784599978,-1.310981923198627,8.653109653613381
394,1791286211.2079477,-0.51052236328125,0.6147057128906249,0.17560283203124932,0.818127466528315,-0.4328867003390723,-8.52932300777311,-1.3090547810655522,8.640044345145965
395,1791286211.2279477,-0.45304189453124993,0.542855126953125,0.07022197265624931,0.7105418865228795,-0.44739008339864117,-8.51846254403035,-1.3074233868895768,8.629815636116293
396,1791286211.237172,-0.04109853515624993,0.370413720703125,-0.1932301757812507,0.4198015184698303,-0.4534176666710698,-8.513573128077656,-1.3068689336061325,8.625220078189322
397,1791286211.2571719,0.20798349609375008,0.37520375976562503,-0.23634052734375072,0.4897875466513639,-0.464276062175942,-8.503443601199137,-1.3064914420635865,8.61574287156189
398,1791286211.2826827,0.05949228515625008,0.471004541015625,-0.2507106445312507,0.5368802817497839,-0.4755370741352511,-8.490842013659476,-1.307014041576509,8.604000192624369
399,1791286211.3026826,0.002011816406250076,0.499744775390625,-0.31298115234375073,0.5896660831842889,-0.48294897752729915,-8.480988393349243,-1.3082078304778826,8.594871236425995
400,1791286211.3278983,0.4331153320312501,0.169232080078125,-0.3608815429687507,0.5886118210022758,-0.49006915559264697,-8.469163461934784,-1.3107615626160256,8.583996353462998
401,1791286211.3478982,0.7253077148437501,-0.012789404296875008,-0.2698708007812507,0.7739929581000367,-0.493131836295055,-8.46095661279347,-1.313429376827745,8.576483110194728
402,1791286211.3575373,0.7540479492187501,-0.11817026367187501,-0.1357497070312507,0.7752293234239489,-0.4933170248931967,-8.457689277918837,-1.3148155047329684,8.573482922381016
403,1791286211.3775373,0.7732081054687501,-0.295401708984375,-0.0974293945312507,0.8334299196406313,-0.49135275313053284,-8.452547160199025,-1.317609934473967,8.568726682700413
404,1791286211.4030576,1.2043116210937501,-0.6211243652343751,-0.2171803710937507,1.3723444434170604,-0.4854372539226864,-8.448724196266031,-1.3212429851778995,8.565177925644562
405,1791286211.4230576,1.3959131835937502,-0.7648255371093751,-0.3177711914062507,1.6231174475167318,-0.4775963988399497,-8.44825650871456,-1.3244655143128934,8.56477350872905
406,1791286211.4479702,1.2330518554687502,-0.8941565917968751,-0.3800416992187507,1.5698294754761764,-0.4643825329259514,-8.450861043863693,-1.329181308889979,8.567346524536179
407,1791286211.4679701,1.2330518554687502,-1.157608740234375,-0.45189228515625074,1.750623177935698,-0.4516664358619028,-8.455715984867869,-1.3336471965635355,8.57214968551856
408,1791286211.477511,1.5012940429687502,-1.516861669921875,-0.44231220703125074,2.179539680212428,-0.44455367126495143,-8.459598330176322,-1.336097900298784,8.57598912509455
409,1791286211.497511,1.5635645507812501,-1.6701429199218751,-0.30340107421875073,2.307848281248581,-0.4272827199341451,-8.471296473898525,-1.341583182638297,8.587507199844305
410,1791286211.5229824,1.60667490234375,-1.641402685546875,-0.3513014648437507,2.323579079167128,-0.40252997113135264,-8.490286394301435,-1.3487719237454465,8.606170991631707
411,1791286211.5429823,1.7791163085937503,-1.641402685546875,-0.46147236328125074,2.464226929017928,-0.38093097537392195,-8.507884723121627,-1.354788944756479,8.623494880543507
412,1791286211.5670521,1.9467676757812502,-1.559972021484375,-0.3800416992187507,2.5234596855162663,-0.35210982571204086,-8.531666461036913,-1.362463287748415,8.646942820570013
413,1791286211.587052,1.9132374023437502,-1.286939794921875,-0.29382099609375073,2.3244401844801565,-0.32596405163224496,-8.552733366120373,-1.3688943079143476,8.667720128219734
414,1791286211.597724,1.8413868164062501,-1.2150892089843752,-0.3513014648437507,2.233956112511252,-0.3111003651277236,-8.564290946620488,-1.3723274732578297,8.679121242925834
415,1791286211.617724,1.8270166992187502,-1.3444202636718752,-0.47105244140625074,2.316753389368519,-0.2819203020157987,-8.586541130028541,-1.3790299453639727,8.701143098729675
416,1791286211.6422114,1.7839063476562502,-1.2917298339843752,-0.42315205078125073,2.2427539943769896,-0.24492035530600764,-8.614538784355627,-1.387647601235161,8.729022299938535
417,1791286211.6622114,1.6306250976562502,-1.1336585449218752,-0.48063251953125075,2.043312879715634,-0.21411204493008076,-8.637613709135884,-1.3949859225346888,8.752154036584724
418,1791286211.6874228,1.49650400390625,-1.2581995605468752,-0.45189228515625074,2.0066880687469903,-0.17518854025621305,-8.666860737513854,-1.4046120716386132,8.781691245989535
419,1791286211.7074227,1.3863331054687502,-1.3300501464843753,-0.1644899414062507,1.9282141510489876,-0.14461819866736772,-8.690464357701744,-1.4120275492277112,8.805617921284583
420,1791286211.7325714,1.5108741210937502,-1.1432386230468752,-0.1980202148437507,1.9049795706263342,-0.10647951394052599,-8.720357313948705,-1.4206370912111959,8.835959445060434
421,1791286211.7525713,1.3623829101562501,-1.277359716796875,-0.030368847656250697,1.8677947710841185,-0.07638862501488515,-8.744195263755323,-1.426799557044786,8.860166082455558
422,1791286211.7630396,1.4677637695312502,-1.124078466796875,0.1037522460937493,1.8516607170954662,-0.060779163857040595,-8.756686200282191,-1.429483628481599,8.872805123582317
423,1791286211.7830396,1.4629737304687502,-0.6977649902343751,-0.1884401367187507,1.6317713696363871,-0.031033960975390854,-8.779703712360941,-1.43396947801738,8.896090649687858
424,1791286211.8073826,1.2378418945312502,-0.568433935546875,-0.3848317382812507,1.4154381518549628,0.004670752801264898,-8.805828880978666,-1.439657081451181,8.922738178899023
425,1791286211.8273826,1.1947315429687502,-0.7217151855468751,-0.3800416992187507,1.446612581847167,0.033254055197542036,-8.826008657382387,-1.4447763377464364,8.943540312342083
426,1791286211.852313,1.17078134765625,-0.6307044433593751,-0.2698708007812507,1.3569625300675616,0.06796238955792634,-8.849918799582422,-1.4514156239110043,8.968405039856851
427,1791286211.872313,1.16599130859375,-0.5253235839843751,-0.0447389648437507,1.2796492388860492,0.09513500724006901,-8.867957061803816,-1.4564148384299598,8.987260834158409
428,1791286211.8828971,1.3240625976562501,-0.6019642089843751,-0.0638991210937507,1.45587972342737,0.10933456617372868,-8.876965980425243,-1.4587498497494111,8.996689957374958
429,1791286211.9028971,1.3096924804687502,-0.8941565917968751,-0.0830592773437507,1.5879890577718279,0.13609222700137308,-8.89368009450648,-1.4627207330542604,9.0141898504845
430,1791286211.9273267,1.2282618164062502,-1.1384485839843752,-0.2698708007812507,1.69632618241066,0.16852364604312264,-8.914757818804988,-1.4674901760257664,9.036306469125119
431,1791286211.9473267,1.3432227539062502,-1.243829443359375,-0.7728249023437508,1.9871128252974999,0.19494916781055507,-8.932998748989428,-1.4723731666970887,9.055625575822265
