imu_index,t_imu,ax,ay,az,mag
0,1788017083.5461473,-0.323183935546875,-0.6809998535156254,-0.3414339843749999,0.8275178683086291
1,1788017083.5661473,-0.36150424804687503,-0.6091492675781254,-0.3893343749999999,0.8082879481370137
2,1788017083.575272,-0.289653662109375,-0.5372986816406253,-0.35580410156249986,0.7065307324913925
3,1788017083.595272,-0.227383154296875,-0.5468787597656254,-0.13546230468749987,0.6075602955526588
4,1788017083.6063783,-0.241753271484375,-0.4271277832031254,-0.2600033203124999,0.5554138223261449
5,1788017083.6263783,-0.260913427734375,-0.3888074707031254,-0.2983236328124999,0.5551973126205763
6,1788017083.6660452,-0.083681982421875,-0.34569711914062534,-0.2504232421874999,0.4349953707706347
7,1788017083.6860452,-0.040571630859375,-0.3073768066406254,-0.25521328124999987,0.40157238129329725
8,1788017083.6961296,-0.126792333984375,-0.3792273925781254,-0.14983242187499987,0.42701225495732187
9,1788017083.7161295,-0.107632177734375,-0.37443735351562535,-0.20252285156249988,0.43909397945842515
10,1788017083.7261999,-0.088472021484375,-0.36485727539062535,-0.2456332031249999,0.4486466320707755
11,1788017083.7461998,-0.035781591796875,-0.3983875488281254,-0.17857265624999988,0.4380424122536319
12,1788017083.7874048,-0.145952490234375,-0.35527719726562534,-0.21210292968749989,0.43876151732410845
13,1788017083.8074048,-0.145952490234375,-0.39359750976562535,-0.20252285156249988,0.46608650967853943
14,1788017083.8169663,-0.232173193359375,-0.43191782226562536,-0.2216830078124999,0.5381456613763294
15,1788017083.8369663,-0.284863623046875,-0.4175477050781254,-0.2408431640624999,0.5599096350546555
16,1788017083.8471136,-0.318393896484375,-0.4798182128906254,-0.16420253906249987,0.5988010225230316
17,1788017083.8671136,-0.232173193359375,-0.38401743164062535,-0.19294277343749988,0.4884676993827806
18,1788017083.9062886,-0.193852880859375,-0.23552622070312537,-0.2264730468749999,0.3799231251411557
19,1788017083.9262886,-0.122002294921875,-0.2594764160156254,-0.13067226562499987,0.31509968492222995
20,1788017083.936891,-0.208222998046875,-0.23552622070312537,-0.18336269531249988,0.3639385876581252
21,1788017083.956891,-0.232173193359375,-0.22115610351562537,-0.15941249999999987,0.3580876414973766
22,1788017083.9670513,-0.198642919921875,-0.21636606445312537,-0.14983242187499987,0.32973176693632417
23,1788017083.9870512,-0.256123388671875,-0.20199594726562536,-0.16420253906249987,0.3651903979721721
24,1788017084.02623,-0.07410190429687499,-0.23552622070312537,-0.01092128906249987,0.24714968625087755
25,1788017084.04623,0.016908837890625007,-0.19720590820312536,-0.07319179687499987,0.21102871406238105
26,1788017084.0564086,0.20851040039062502,-0.15888559570312535,-0.19294277343749988,0.32549674870073614
27,1788017084.0764086,0.136659814453125,-0.26426645507812535,-0.10672207031249988,0.316073194778848
28,1788017084.0859988,0.11749965820312501,-0.25468637695312535,-0.19294277343749988,0.34043829706000334
29,1788017084.1059988,-0.145952490234375,-0.32653696289062534,-0.2983236328124999,0.4657526247203511
30,1788017084.146063,-0.347134130859375,-0.5277186035156254,-0.16420253906249987,0.6526496021132222
31,1788017084.166063,-0.6441165527343751,-0.39359750976562535,-0.3797542968749999,0.844996129692404
32,1788017084.1760852,-0.936308935546875,-0.47023813476562537,-0.3031136718749999,1.0907227989962995
33,1788017084.1960852,-1.166230810546875,-0.6714197753906254,-0.044451562499999875,1.3464303768346546
34,1788017084.206181,-1.218921240234375,-0.5804090332031254,-0.16899257812499988,1.3605888898486669
35,1788017084.226181,-1.175810888671875,-0.4462879394531254,-0.14025234374999987,1.2654544206521343
36,1788017084.2661448,-1.118330419921875,-0.24989633789062535,-0.15941249999999987,1.156945743312984
37,1788017084.2861447,-0.893198583984375,-0.09661508789062535,-0.04924160156249987,0.8997571455477561
38,1788017084.2957811,-0.509995458984375,0.09019643554687466,0.04176914062500013,0.519591595658163
39,1788017084.315781,-0.203432958984375,0.27221791992187466,0.08966953125000013,0.3514657729599361
40,1788017084.326354,0.07438930664062501,0.39196889648437466,0.17589023437500015,0.43601692547668813
41,1788017084.346354,0.031278955078125004,0.5596202636718747,0.07529941406250014,0.5655291454037659
42,1788017084.3859806,0.06959926757812501,0.4973497558593747,0.19026035156250015,0.5370287134571831
43,1788017084.4059806,-0.059731787109375,0.30095815429687467,0.36270175781250014,0.4750750068666406
44,1788017084.4161158,-0.112422216796875,0.3967589355468747,0.15194003906250014,0.4394794457493168
45,1788017084.4361157,-0.011831396484374996,0.4350792480468747,-0.07798183593749987,0.44217089542391586
46,1788017084.4459746,-0.193852880859375,0.21473745117187465,-0.06361171874999988,0.2962052719240516
47,1788017084.4659746,-0.342344091796875,-0.09182504882812535,0.00823886718750013,0.35454082376088664
48,1788017084.5073366,-0.418984716796875,-0.3792273925781254,0.08487949218750014,0.571459654205762
49,1788017084.5273366,-0.40940463867187504,-0.3983875488281254,-0.06361171874999988,0.5747793037241856
50,1788017084.5371752,-0.35192416992187503,-0.36485727539062535,-0.14983242187499987,0.5286030717141165
51,1788017084.5571752,-0.246543310546875,-0.40317758789062536,-0.09714199218749987,0.4824648567500767
52,1788017084.5958967,0.0025387207031250057,-0.34569711914062534,-0.16899257812499988,0.3848005129236061
53,1788017084.6158967,-0.021411474609374995,-0.41275766601562536,-0.0013412109374998694,0.41331482062272257
54,1788017084.6264234,0.04564907226562501,-0.2977967285156254,-0.05403164062499987,0.30608192939464834
55,1788017084.6464233,0.05522915039062501,-0.13493540039062535,-0.01092128906249987,0.1462090827761235
56,1788017084.6560168,0.251620751953125,0.032715966796874656,0.04176914062500013,0.2571536474667651
57,1788017084.6760168,0.39532192382812503,0.061456201171874655,0.04176914062500013,0.4022448871399099
58,1788017084.7160664,0.5486031738281251,0.008765771484374652,0.15194003906250014,0.5693224539347823
59,1788017084.7360663,0.486332666015625,0.12372670898437466,0.03697910156250013,0.5031850698325014
60,1788017084.7461004,0.476752587890625,0.07582631835937466,0.10403964843750013,0.4938288256707419
61,1788017084.7661004,0.261200830078125,-0.04392465820312535,0.14235996093750014,0.30070185850754144
62,1788017084.7761629,0.016908837890625007,-0.005604345703125349,-0.05403164062499987,0.056892316512871154
63,1788017084.7961628,-0.045361669921875,-0.09661508789062535,0.04655917968750013,0.11644704169444291
64,1788017084.8357878,-0.160322607421875,-0.06787485351562535,-0.0013412109374998694,0.1741037996055661
65,1788017084.8557878,-0.122002294921875,-0.03434458007812535,-0.10672207031249988,0.1656916124573996
66,1788017084.8663208,-0.184272802734375,-0.21157602539062537,-0.01092128906249987,0.2807848908015941
67,1788017084.8863208,-0.16511264648437501,-0.23552622070312537,-0.02529140624999987,0.28874632793833765
68,1788017084.8968482,-0.136372412109375,-0.21157602539062537,-0.0013412109374998694,0.2517213700729492
69,1788017084.9168482,0.040859033203125006,-0.16367563476562536,0.02260898437500013,0.17020675716520028
70,1788017084.9572928,0.151029931640625,-0.04871469726562535,0.017818945312500133,0.15968931333405895
71,1788017084.9772928,0.43364223632812504,0.013555810546874653,0.11361972656250013,0.4484849957260304
72,1788017084.9868736,0.663564111328125,0.11893666992187465,0.04176914062500013,0.6754316563526914
73,1788017085.0068736,0.663564111328125,0.12372670898437466,0.013028906250000132,0.675126196171397
74,1788017085.017441,0.32347133789062504,-0.0008143066406253486,0.11840976562500014,0.3444637021914259
75,1788017085.037441,0.22767055664062502,0.003975732421874652,0.11840976562500014,0.2566526084120515
76,1788017085.080161,-0.078891943359375,-0.05350473632812535,0.17589023437500015,0.200060166162716
77,1788017085.100161,0.131869775390625,-0.02476450195312535,0.29085117187500015,0.32030816786279603
78,1788017085.1061754,-0.107632177734375,0.013555810546874653,0.31959140625000015,0.3375012779713278
79,1788017085.1261754,-0.792607763671875,0.027925927734374655,0.11840976562500014,0.8018901402736686
80,1788017085.1362064,-0.308813818359375,-0.02955454101562535,0.38665195312500017,0.49572086718204494
81,1788017085.1562064,-0.270493505859375,0.17162709960937467,0.5495132812500002,0.6360718861123825
82,1788017085.196771,-0.40940463867187504,1.0242540527343746,-0.0013412109374998694,1.1030459290327028
83,1788017085.216771,-0.289653662109375,1.3643468261718747,0.051349218750000133,1.395699913421533
84,1788017085.226301,-0.519575537109375,1.0194640136718747,0.47766269531250016,1.2399303466032543
85,1788017085.246301,-0.773447607421875,0.6745812011718747,0.46329257812500013,1.126019987099173
86,1788017085.256341,-0.792607763671875,0.08540639648437466,0.5686734375000002,0.9792399083531286
87,1788017085.276341,-0.677646826171875,-0.37443735351562535,0.6788443359375002,1.0296786805421516
88,1788017085.3165238,-0.232173193359375,-0.5133484863281254,0.6596841796875001,0.8675334443466933
89,1788017085.3365238,0.012118798828125006,-0.6905799316406254,0.5926236328125002,0.9100825662750014
90,1788017085.3460934,0.49112270507812505,-0.6330994628906254,0.17110019531250015,0.8193239397159277
91,1788017085.3660934,0.9892867675781251,-0.5851990722656254,-0.02529140624999987,1.1496894876077741
92,1788017085.3761525,1.022817041015625,-0.5899891113281254,-0.15941249999999987,1.1914924238256657
93,1788017085.3961525,1.4826607910156249,-0.4798182128906254,-0.3270638671874999,1.5923188474222978
94,1788017085.4358542,1.990404931640625,-0.6330994628906254,-0.044451562499999875,2.089139215854322
95,1788017085.4558542,2.555629541015625,-0.48460825195312535,-0.17857265624999988,2.607292791830825
96,1788017085.4664237,2.593949853515625,-0.2690564941406254,-0.3893343749999999,2.636768570646582
97,1788017085.4864237,2.239486962890625,-0.29300668945312536,-0.4276546874999999,2.2987047023839486
98,1788017085.4960403,1.870653955078125,-0.01997446289062535,-0.916238671875,2.0830838923712274
99,1788017085.5160403,1.578461572265625,-0.12056528320312536,-0.9401888671874999,1.841203961709955
100,1788017085.5578117,0.7497848144531251,-0.6330994628906254,-0.6815267578124999,1.1947681446671248
101,1788017085.5778117,0.146239892578125,-0.8342811035156253,-0.8683382812499999,1.2130220264070701
102,1788017085.5864007,-0.16990268554687502,-0.9396619628906254,-0.9497689453124999,1.346808292423061
103,1788017085.6064007,0.10791958007812501,-0.7720105957031254,-1.1174203125,1.3624518892165443
104,1788017085.616085,0.04564907226562501,-0.6857898925781254,-0.8922884765624999,1.1263082792767067
105,1788017085.636085,0.11270961914062501,-0.5420887207031254,-0.5330355468749999,0.7685639424229489
106,1788017085.6762397,0.179770166015625,-0.2786365722656254,-0.2695833984374999,0.4273533206918302
107,1788017085.6962397,0.639613916015625,0.21473745117187465,-0.08277187499999987,0.6797568078273669
108,1788017085.706341,0.9892867675781251,0.8661827636718747,-0.11630214843749988,1.320032983799496
109,1788017085.726341,0.7689449707031251,1.1248448730468747,0.30043125000000015,1.3952817967586448
110,1788017085.7358716,0.28515102539062503,1.5415782714843747,0.5255630859375001,1.653478524715161
111,1788017085.7558715,0.08396938476562502,2.097222802734375,0.4345523437500001,2.143415517659971
112,1788017085.7959318,-0.208222998046875,2.1451231933593746,0.9901968750000002,2.3717926095811404
113,1788017085.8159318,-0.47167514648437503,2.643287255859375,0.9327164062500002,2.8424293931930054
114,1788017085.8264651,-0.730337255859375,3.194141748046875,0.6213638671875001,3.3349703251091087
115,1788017085.846465,-0.878828466796875,3.242042138671875,0.5878335937500001,3.410091646410356
116,1788017085.8865342,-1.094380224609375,3.1797716308593746,0.6069937500000001,3.4171709224112883
117,1788017085.9065342,-1.156650732421875,2.873209130859375,0.8273355468750002,3.2058783092295786
118,1788017085.9160883,-1.003369482421875,2.6576573730468747,0.7985953125000002,2.9508723293143215
119,1788017085.9360883,-0.797397802734375,2.466055810546875,0.7123746093750002,2.687889897413917
120,1788017085.9461818,-0.749497412109375,2.1355431152343747,0.8991861328125001,2.435328821581572
121,1788017085.9661818,-0.787817724609375,1.9056212402343748,1.0380972656250003,2.3086132225514073
122,1788017086.0059822,-0.629746435546875,2.020582177734375,0.6405240234375001,2.21124488346776
123,1788017086.0259821,-0.327973974609375,1.8625108886718746,0.6261539062500001,1.9921301294730978
124,1788017086.036029,-0.438144873046875,1.3308165527343747,1.0620474609375001,1.7581207114680317
125,1788017086.056029,-0.495625341796875,1.2302257324218746,0.9614566406250001,1.6381387926381932
126,1788017086.066176,-0.696806982421875,1.2445958496093747,0.7746451171875002,1.6231555246491927
127,1788017086.086176,-0.553105810546875,1.3068663574218746,0.6405240234375001,1.5569511034141046
128,1788017086.1264133,-0.557895849609375,1.5272081542968747,0.5447232421875001,1.7147407781182247
129,1788017086.1464133,-0.658486669921875,1.4745177246093748,0.7363248046875002,1.7748187041639194
130,1788017086.1569943,-0.988999365234375,1.4457774902343747,0.6740542968750002,1.8768967714922562
131,1788017086.1769943,-1.4536331542968752,1.4218272949218747,0.8752359375000002,2.2137479870453736
132,1788017086.1865532,-1.7075052246093751,1.7523399902343748,0.8943960937500002,2.60503625808897
133,1788017086.2065532,-1.7122952636718751,2.3415147949218746,0.6740542968750002,2.9780859289091737
134,1788017086.2467945,-1.199761083984375,2.557066552734375,0.8225455078125001,2.9418696650563474
135,1788017086.2667944,-0.9602591308593751,2.466055810546875,1.1386880859375001,2.8809962541084317
136,1788017086.2758713,-0.835718115234375,2.389415185546875,1.0428873046875002,2.737762522084642
137,1788017086.2958713,-0.926728857421875,2.183443505859375,0.7459048828125001,2.4864886914404942
138,1788017086.3084145,-0.869248388671875,1.8385606933593748,0.6165738281250002,2.1251026963192796
139,1788017086.3284144,-0.893198583984375,1.5415782714843747,0.49682285156250017,1.8496216433041486
140,1788017086.3660636,-0.692016943359375,1.3499767089843748,0.34354160156250013,1.5554245069114936
141,1788017086.3860636,-1.5254837402343753,0.3488585449218747,0.7267447265625002,1.725387151821547
142,1788017086.3961742,-2.833164404296875,-1.7970789550781254,1.7613931640625002,3.7893032593031744
143,1788017086.4161742,-2.8283743652343754,-2.5299549316406256,0.8752359375000002,3.8944077152166776
144,1788017086.429754,-2.344580419921875,-2.1180115722656256,-0.8491781249999999,3.27171726371804
145,1788017086.449754,-1.5302737792968752,-1.9072498535156255,-1.1892708984375,2.7191368323806833
146,1788017086.4858909,-0.577056005859375,-1.1121033691406255,-1.6203744140625,2.048262868701353
147,1788017086.5058908,-0.083681982421875,-1.4953064941406253,-0.6767367187499999,1.6434466137072112
148,1788017086.5164552,0.29473110351562504,-2.1084314941406253,0.07050937500000014,2.130098908695673
149,1788017086.5364552,0.10791958007812501,-1.6246375488281255,-0.6623666015624999,1.757789326310737
150,1788017086.5460544,-0.7063870605468751,-1.5623670410156254,-0.3989144531249999,1.7604278431881248
151,1788017086.5660543,-1.4201028808593752,-0.9061316894531254,-0.37496425781249987,1.7257940275401207
152,1788017086.605782,-1.6643948730468752,-0.14930551757812535,-0.26479335937499987,1.6919272898600262
153,1788017086.625782,-2.0859183105468753,0.07582631835937466,0.25253085937500014,2.102516745181199
154,1788017086.635936,-2.1194485839843753,0.6458409667968746,0.17110019531250015,2.2222619403172237
155,1788017086.655936,-1.7362454589843752,1.0098839355468747,0.49682285156250017,2.069117397093312
156,1788017086.6666293,-0.778237646484375,1.2206456542968747,0.9422964843750001,1.7272962433308505
157,1788017086.6866293,-0.294443701171875,1.3164464355468748,1.1770083984375002,1.7902729067983667
158,1788017086.7258902,-0.083681982421875,1.3260265136718747,1.4021402343750002,1.9316692848404518
159,1788017086.7458901,0.299521142578125,1.5224181152343748,1.268019140625,2.003831922451695
160,1788017086.756522,0.33305141601562505,1.5559483886718748,1.1578482421875003,1.967869707540949
161,1788017086.776522,0.5102828613281251,1.4601476074218747,0.8369156250000002,1.758649310520487
162,1788017086.7861176,0.390531884765625,1.1008946777343747,0.5495132812500002,1.2909101791962931
163,1788017086.8061175,-0.026201513671874996,0.5596202636718747,0.31959140625000015,0.64498063984877
164,1788017086.8463032,-0.466885107421875,0.056666162109374654,0.07529941406250014,0.47630112242015293
165,1788017086.8663032,-0.720757177734375,-0.4175477050781254,0.02260898437500013,0.8332755615317777
166,1788017086.876902,-1.056059912109375,-0.6139393066406253,-0.16899257812499988,1.2331838880167738
167,1788017086.896902,-1.3243020996093753,-0.6905799316406254,-0.2216830078124999,1.5099072981369974
168,1788017086.9074898,-1.2285013183593751,-0.5468787597656254,-0.18336269531249988,1.3571712291106734
169,1788017086.9274898,-1.046479833984375,-0.3169568847656254,-0.14025234374999987,1.1023848827263838
170,1788017086.9662895,-0.773447607421875,-0.18283579101562536,0.051349218750000133,0.7964212893746423
171,1788017086.9862895,-0.557895849609375,0.07582631835937466,0.17110019531250015,0.5884493915395608
172,1788017086.9958389,-0.39024448242187504,0.3584386230468747,0.22379062500000013,0.5751967023465514
173,1788017087.0158389,-0.347134130859375,0.48297963867187466,0.33875156250000016,0.6844881717570435
174,1788017087.0264435,-0.486045263671875,0.5931505371093747,0.26211093750000014,0.8104132905919863
175,1788017087.0464435,-0.778237646484375,0.5644103027343746,0.30043125000000015,1.0072098888587275
176,1788017087.0873623,-0.677646826171875,0.5069298339843746,0.43934238281250015,0.9535223159106485
177,1788017087.1073623,-0.816557958984375,0.41112905273437467,0.42976230468750015,1.0101928711455572
178,1788017087.1460667,-0.917148779296875,0.4494493652343747,0.37228183593750014,1.0870880280107613
179,1788017087.1660666,-0.768657568359375,0.4686095214843747,0.37707187500000017,0.9760187190510117
180,1788017087.147084,-0.792607763671875,0.4973497558593747,0.4153921875000002,1.023784409005307
181,1788017087.167084,-0.8596683105468751,0.4781895996093747,0.42976230468750015,1.0734945439374177
182,1788017087.206308,-0.711177099609375,0.5165099121093747,0.28127109375000015,0.9228590274225844
183,1788017087.2263079,-0.634536474609375,0.4781895996093747,0.4058121093750002,0.8921800821020694
184,1788017087.2358956,-0.6249563964843751,0.5692003417968747,0.24295078125000014,0.8795365874813849
185,1788017087.2558956,-0.711177099609375,0.5165099121093747,0.20463046875000013,0.9024571929221251
186,1788017087.2967057,-0.639326513671875,0.3775987792968747,0.34354160156250013,0.8181320560975787
187,1788017087.3167057,-0.715967138671875,0.44465932617187465,0.16631015625000015,0.8590634016657426
188,1788017087.3560245,-0.620166357421875,0.3488585449218747,0.23337070312500013,0.748846099221984
189,1788017087.3760245,-0.553105810546875,0.3488585449218747,0.19026035156250015,0.6810486938555931
190,1788017087.356548,-0.6441165527343751,0.3392784667968747,0.21900058593750013,0.7602350085200111
191,1788017087.376548,-0.653696630859375,0.40154897460937466,0.30043125000000015,0.8239052131060349
192,1788017087.4166873,-0.620166357421875,0.49255971679687466,0.26211093750000014,0.8342203120555524
193,1788017087.4366872,-0.514785498046875,0.45423940429687465,0.43934238281250015,0.8150823729849114
194,1788017087.4468787,-0.610586279296875,0.5883604980468747,0.3052212890625001,0.9011901660718132
195,1788017087.4668787,-0.7015970214843751,0.6458409667968746,0.23816074218750014,0.9828883324509297
196,1788017087.4764411,-0.778237646484375,0.5548302246093747,0.38665195312500017,1.031014134433183
197,1788017087.4964411,-0.759077490234375,0.6027306152343747,0.3052212890625001,1.0161903689852112
198,1788017087.5360982,-0.7447073730468751,0.5260899902343746,0.41060214843750015,0.9999769365323746
199,1788017087.5560982,-0.8452981933593751,0.5979405761718747,0.26690097656250017,1.0692511864007415
200,1788017087.5678718,-0.854878271484375,0.5548302246093747,0.27648105468750017,1.055980686753936
201,1788017087.5878718,-0.850088232421875,0.39196889648437466,0.4345523437500001,1.0320491064731099
202,1788017087.5964706,-0.797397802734375,0.49255971679687466,0.24295078125000014,0.9682372707795399
203,1788017087.6164706,-0.672856787109375,0.3871788574218747,0.36270175781250014,0.8568525478248499
204,1788017087.6565993,-0.6249563964843751,0.3680187011718747,0.35312167968750013,0.8066617522755684
205,1788017087.6765993,-0.692016943359375,0.47339956054687465,0.21421054687500013,0.865378964509141
206,1788017087.686186,-0.878828466796875,0.4159190917968747,0.31001132812500015,1.020507319199382
207,1788017087.706186,-0.988999365234375,0.5212999511718747,0.25253085937500014,1.14614362907206
208,1788017087.7162826,-1.027319677734375,0.5883604980468747,0.26690097656250017,1.213585566497988
209,1788017087.7362826,-1.012949560546875,0.5356700683593747,0.46329257812500013,1.2359810869483212
210,1788017087.776001,-1.060849951171875,0.7991222167968747,0.24774082031250014,1.3510641917869155
211,1788017087.796001,-1.1087503417968751,0.8087022949218747,0.3148013671875001,1.4079867268656028
212,1788017087.8070242,-1.056059912109375,0.7416417480468747,0.45371250000000013,1.3678998695323918
213,1788017087.8270242,-0.9027786621093751,0.7799620605468747,0.37228183593750014,1.2497775378128364
214,1788017087.8671978,-0.816557958984375,0.6314708496093747,0.46329257812500013,1.1314425956418748
215,1788017087.8871977,-0.634536474609375,0.6123106933593747,0.37707187500000017,0.9590329096167388
216,1788017087.8957207,-0.8644583496093751,0.5452501464843746,0.31001132812500015,1.068032295399546
217,1788017087.9157207,-0.8213479980468751,0.41112905273437467,0.39144199218750014,0.9984320032659173
218,1788017087.9262576,-0.806977880859375,0.4350792480468747,0.22379062500000013,0.9437104938036942
219,1788017087.9462576,-0.936308935546875,0.30574819335937464,0.31959140625000015,1.035516802121673
220,1788017087.9567995,-0.792607763671875,0.37280874023437466,0.26690097656250017,0.9156689112982316
221,1788017087.9767995,-0.8452981933593751,0.4686095214843747,0.17589023437500015,0.9823753324829214
222,1788017088.017042,-0.749497412109375,0.4063390136718747,0.37707187500000017,0.932223666137316
223,1788017088.037042,-0.715967138671875,0.5596202636718747,0.3148013671875001,0.961708731349201
224,1788017088.04605,-0.778237646484375,0.5356700683593747,0.39144199218750014,1.0226549221459775
225,1788017088.06605,-0.931518896484375,0.5212999511718747,0.4058121093750002,1.1420002459345855
226,1788017088.0760787,-1.003369482421875,0.5787804199218747,0.3148013671875001,1.2003486966392733
227,1788017088.0960786,-1.008159521484375,0.5356700683593747,0.38665195312500017,1.205333055943924
228,1788017088.136146,-0.931518896484375,0.6506310058593747,0.31001132812500015,1.1777755235438017
229,1788017088.156146,-0.8213479980468751,0.6362608886718747,0.3243814453125001,1.0884226083705537
230,1788017088.1667283,-0.653696630859375,0.5356700683593747,0.34354160156250013,0.9122952040524837
231,1788017088.1867282,-0.768657568359375,0.4686095214843747,0.31001132812500015,0.9521220324032988
232,1788017088.1963723,-0.792607763671875,0.41112905273437467,0.32917148437500016,0.9516343999461327
233,1788017088.2163723,-0.9794192871093751,0.3967589355468747,0.2860611328125001,1.0947651641352572
234,1788017088.256082,-0.9794192871093751,0.36322866210937466,0.35312167968750013,1.1026749845738426
235,1788017088.276082,-0.974629248046875,0.4686095214843747,0.22858066406250013,1.1053262752497495
236,1788017088.286162,-0.850088232421875,0.5165099121093747,0.28127109375000015,1.0337049484203427
237,1788017088.3061619,-0.768657568359375,0.5500401855468747,0.33396152343750013,1.0024514762567232
238,1788017088.315919,-0.677646826171875,0.5644103027343746,0.35312167968750013,0.9499784900295613
239,1788017088.335919,-0.711177099609375,0.5356700683593747,0.38186191406250014,0.9687795469333652
240,1788017088.3760047,-0.8021878417968751,0.6027306152343747,0.3052212890625001,1.0487848031719902
241,1788017088.3960047,-0.8836185058593751,0.5835704589843747,0.2860611328125001,1.0968897466028018
242,1788017088.4061923,-0.897988623046875,0.42070913085937467,0.37228183593750014,1.0592325076578177
243,1788017088.4261923,-1.003369482421875,0.29137807617187467,0.4058121093750002,1.1208634928681331
244,1788017088.437257,-1.008159521484375,0.33448842773437465,0.32917148437500016,1.1120350692192487
245,1788017088.457257,-0.974629248046875,0.4973497558593747,0.30043125000000015,1.1346884536199173
246,1788017088.4961228,-0.711177099609375,0.6458409667968746,0.23337070312500013,0.9886077616926653
247,1788017088.5161228,-0.668066748046875,0.6266808105468746,0.20463046875000013,0.9385710665125254
248,1788017088.5258906,-0.653696630859375,0.5500401855468747,0.23816074218750014,0.8868957266965712
249,1788017088.5458906,-0.739917333984375,0.5117198730468747,0.26211093750000014,0.9370363030100721
250,1788017088.5570736,-0.7447073730468751,0.45423940429687465,0.3148013671875001,0.927373931415735
251,1788017088.5770736,-0.768657568359375,0.4350792480468747,0.31959140625000015,0.9392907305121423
252,1788017088.6162074,-0.878828466796875,0.4494493652343747,0.27648105468750017,1.025078523608431
253,1788017088.6362073,-0.917148779296875,0.4781895996093747,0.27169101562500014,1.0694125417778053
254,1788017088.645731,-0.912358740234375,0.5069298339843746,0.3148013671875001,1.090172568104977
255,1788017088.665731,-0.878828466796875,0.5212999511718747,0.34833164062500016,1.079549927055182
256,1788017088.706478,-0.874038427734375,0.4973497558593747,0.34833164062500016,1.064253205149161
257,1788017088.726478,-0.797397802734375,0.4686095214843747,0.30043125000000015,0.9724695755693267
258,1788017088.736003,-0.816557958984375,0.42070913085937467,0.31959140625000015,0.9725747992406709
259,1788017088.756003,-0.7638675292968751,0.4350792480468747,0.2956412109375001,0.9274649750797804
260,1788017088.7665415,-0.8405081542968751,0.4350792480468747,0.26690097656250017,0.983353466872716
261,1788017088.7865415,-0.759077490234375,0.39196889648437466,0.3148013671875001,0.9104604070330655
262,1788017088.8267076,-0.792607763671875,0.38238881835937466,0.29085117187500015,0.9268455532721029
263,1788017088.8467076,-0.792607763671875,0.40154897460937466,0.27648105468750017,0.9305430778012824
264,1788017088.8559117,-0.768657568359375,0.4398692871093747,0.32917148437500016,0.9448139040381962
265,1788017088.8759117,-0.759077490234375,0.4973497558593747,0.3243814453125001,0.963731673183425
266,1788017088.886149,-0.830928076171875,0.5404601074218747,0.24295078125000014,1.020570270777639
267,1788017088.906149,-0.811767919921875,0.5308800292968747,0.29085117187500015,1.0126179760904894
268,1788017088.9461963,-0.907568701171875,0.46381948242187465,0.37228183593750014,1.0850821282234333
269,1788017088.9661963,-0.974629248046875,0.4398692871093747,0.35791171875000016,1.1276027488921379
270,1788017088.975742,-1.017739599609375,0.4686095214843747,0.3148013671875001,1.163825019932973
271,1788017088.995742,-0.907568701171875,0.5021397949218747,0.31959140625000015,1.0853404940109068
272,1788017089.0074112,-0.787817724609375,0.5548302246093747,0.28127109375000015,1.0037961812679423
273,1788017089.0274112,-0.648906591796875,0.5787804199218747,0.24774082031250014,0.9041250208967166
274,1788017089.0662334,-0.591426123046875,0.5404601074218747,0.22858066406250013,0.8331453094868717
275,1788017089.0862334,-0.629746435546875,0.4398692871093747,0.26690097656250017,0.8132045831868634
276,1788017089.0968494,-0.7447073730468751,0.3488585449218747,0.31001132812500015,0.8788619797221926
277,1788017089.1168494,-0.8644583496093751,0.32490834960937465,0.2956412109375001,0.9696687060330675
278,1788017089.126027,-0.917148779296875,0.31053823242187467,0.32917148437500016,1.0227168441397116
279,1788017089.146027,-0.9458890136718751,0.38238881835937466,0.29085117187500015,1.0609060461570066
280,1788017089.1863298,-0.8596683105468751,0.5021397949218747,0.2860611328125001,1.0358595220920024
281,1788017089.2063298,-0.878828466796875,0.5500401855468747,0.30043125000000015,1.079417720692758
282,1788017089.2159216,-0.806977880859375,0.5931505371093747,0.2860611328125001,1.0415718081704202
283,1788017089.2359216,-0.7830276855468751,0.5787804199218747,0.31001132812500015,1.0218738446519042
284,1788017089.2460248,-0.739917333984375,0.5308800292968747,0.34833164062500016,0.9750108709636524
285,1788017089.2660248,-0.7638675292968751,0.44465932617187465,0.31959140625000015,0.9398692385723615
286,1788017089.3072624,-0.792607763671875,0.37280874023437466,0.2860611328125001,0.921436050702404
287,1788017089.3272624,-0.7063870605468751,0.40154897460937466,0.24774082031250014,0.8494702892785628
288,1788017089.3357787,-0.854878271484375,0.39196889648437466,0.26211093750000014,0.9762984269291948
289,1788017089.3557787,-0.8021878417968751,0.40154897460937466,0.35312167968750013,0.9640756366602622
290,1788017089.3660336,-0.835718115234375,0.4973497558593747,0.22379062500000013,0.9979297528494511
291,1788017089.3860335,-0.7830276855468751,0.47339956054687465,0.29085117187500015,0.9601218175002226
292,1788017089.4260864,-0.850088232421875,0.4781895996093747,0.3243814453125001,1.0278806439172539
293,1788017089.4460864,-0.8261380371093751,0.4590294433593747,0.34354160156250013,1.005600774777882
294,1788017089.4562895,-0.749497412109375,0.47339956054687465,0.34833164062500016,0.9524644069702178
295,1788017089.4762895,-0.749497412109375,0.5452501464843746,0.22858066406250013,0.9546167885508487
296,1788017089.4859238,-0.8836185058593751,0.4590294433593747,0.3148013671875001,1.0443129772970798
297,1788017089.5059237,-0.893198583984375,0.4590294433593747,0.34354160156250013,1.0613823874111712
298,1788017089.546029,-0.8021878417968751,0.4877696777343747,0.28127109375000015,0.9800704159513974
299,1788017089.566029,-0.759077490234375,0.4494493652343747,0.25253085937500014,0.9175920678748134
300,1788017089.5768514,-0.792607763671875,0.44465932617187465,0.27169101562500014,0.9485594295329631
301,1788017089.5968513,-0.7638675292968751,0.4350792480468747,0.3243814453125001,0.9370223457624545
302,1788017089.6109178,-0.850088232421875,0.40154897460937466,0.28127109375000015,0.9813281867404551
303,1788017089.6309178,-0.835718115234375,0.44465932617187465,0.20463046875000013,0.9685144878747899
304,1788017089.6672587,-0.993789404296875,0.42070913085937467,0.4441324218750001,1.1669906430823433
305,1788017089.6872587,-1.2811917480468753,0.21952749023437465,0.8943960937500002,1.5778431438984266
306,1788017089.6958027,-1.5206937011718753,0.3967589355468747,0.6788443359375002,1.711945273119013
307,1788017089.7158027,-1.4488431152343753,0.6650011230468746,0.26690097656250017,1.6163567049094298
308,1788017089.7265632,-1.166230810546875,0.8374425292968747,0.003448828125000131,1.4357632770618574
309,1788017089.7465632,-0.5866360839843751,0.9476134277343747,-0.09235195312499987,1.118321057076641
310,1788017089.786384,0.031278955078125004,0.7560118652343747,0.07050937500000014,0.7599367640592396
311,1788017089.806384,0.19893032226562501,0.30095815429687467,0.26211093750000014,0.44592737896614487
312,1788017089.8159988,0.280360986328125,-0.10619516601562536,0.34833164062500016,0.4595809262800944
313,1788017089.8359988,-0.045361669921875,-0.35527719726562534,0.25732089843750017,0.44101429995829106
314,1788017089.8466303,-0.49083530273437503,-0.34569711914062534,0.21421054687500013,0.6374260356974446
315,1788017089.8666303,-0.8452981933593751,0.08540639648437466,0.14235996093750014,0.8614462529578941
316,1788017089.9075477,-1.065639990234375,0.5883604980468747,0.16631015625000015,1.2285828146773765
317,1788017089.9275477,-1.123120458984375,0.9092931152343747,0.30043125000000015,1.4759649287088328
318,1788017089.936157,-1.0704300292968751,1.1535851074218748,0.35312167968750013,1.612846542096107
319,1788017089.956157,-0.816557958984375,1.2302257324218746,0.47766269531250016,1.5518968727292637
320,1788017089.9672568,-0.830928076171875,1.1631651855468748,0.5207730468750001,1.5213807159913852
321,1788017089.9872568,-0.739917333984375,0.9667735839843747,0.5399332031250001,1.3317870278904809
322,1788017090.0258977,-0.634536474609375,0.7081114746093747,0.5207730468750001,1.0840954590969507
323,1788017090.0458977,-0.577056005859375,0.5165099121093747,0.38186191406250014,0.8634782247498111
324,1788017090.0560927,-0.596216162109375,0.2770079589843747,0.36749179687500017,0.7531648837217106
325,1788017090.0760927,-0.591426123046875,0.14767690429687466,0.29085117187500015,0.6754167093476637
326,1788017090.1157835,-0.5866360839843751,0.16204702148437466,0.12319980468750014,0.6209503394632443
327,1788017090.1357834,-0.615376318359375,0.17641713867187467,0.13277988281250014,0.653790117158719
328,1788017090.1458087,-0.648906591796875,0.29616811523437464,0.15673007812500014,0.730314750465843
329,1788017090.1658087,-0.778237646484375,0.43028920898437467,0.17589023437500015,0.9064987657589118
330,1788017090.1763556,-0.711177099609375,0.5117198730468747,0.27648105468750017,0.9187338401740871
331,1788017090.1963556,-0.687226904296875,0.6266808105468746,0.31001132812500015,0.9803655848013947
332,1788017090.2359002,-0.806977880859375,0.6745812011718747,0.37707187500000017,1.1173434100968211
333,1788017090.2559001,-0.969839208984375,0.7081114746093747,0.48245273437500014,1.2941292797332173
334,1788017090.2665865,-1.171020849609375,0.8087022949218747,0.43934238281250015,1.4893995304709664
335,1788017090.2865865,-1.103960302734375,0.8278624511718747,0.39144199218750014,1.4343330928767544
336,1788017090.2962303,-1.056059912109375,0.7129015136718747,0.38186191406250014,1.3301539864134482
337,1788017090.3162303,-1.0321097167968751,0.6075206542968746,0.4058121093750002,1.2645217598045577
338,1788017090.35692,-0.8452981933593751,0.5548302246093747,0.41060214843750015,1.0913110180595647
339,1788017090.37692,-0.677646826171875,0.4973497558593747,0.4441324218750001,0.950692173542387
340,1788017090.3860705,-0.5435257324218751,0.4686095214843747,0.35791171875000016,0.8019450753319267
341,1788017090.4060705,-0.567475927734375,0.37280874023437466,0.34354160156250013,0.7609442274945376
342,1788017090.4161642,-0.538735693359375,0.3488585449218747,0.2956412109375001,0.7066414630270471
343,1788017090.4361641,-0.615376318359375,0.35364858398437465,0.23816074218750014,0.7486493660392648
344,1788017090.4761364,-0.672856787109375,0.31532827148437464,0.3148013671875001,0.8070118187112215
345,1788017090.4961364,-0.773447607421875,0.3296983886718747,0.33396152343750013,0.9046836618709047
346,1788017090.505846,-0.778237646484375,0.35364858398437465,0.36749179687500017,0.9304683638523712
347,1788017090.525846,-0.754287451171875,0.4781895996093747,0.31001132812500015,0.9453686454160432
348,1788017090.5363967,-0.739917333984375,0.6075206542968746,0.29085117187500015,1.0005765391557553
349,1788017090.5563967,-0.850088232421875,0.5979405761718747,0.36749179687500017,1.1023761410268809
350,1788017090.5962842,-0.869248388671875,0.5787804199218747,0.4058121093750002,1.120385203315797
351,1788017090.6162841,-0.8452981933593751,0.6506310058593747,0.45371250000000013,1.1591828044525399
352,1788017090.6259706,-0.893198583984375,0.7272716308593747,0.5159830078125002,1.2621276479959473
353,1788017090.6459706,-0.816557958984375,0.8661827636718747,0.6453140625000001,1.3540567638482626
354,1788017090.656252,-1.123120458984375,1.2398058105468748,0.7985953125000002,1.8537185564162753
355,1788017090.676252,-1.6596048339843752,1.2158556152343747,1.2967593750000002,2.4319082957076437
356,1788017090.7167287,-1.7266653808593753,1.2637560058593746,1.1530582031250003,2.430636912333421
357,1788017090.7367287,-1.3530423339843751,1.7954503417968748,0.48245273437500014,2.2993751604116963
358,1788017090.7459223,-0.835718115234375,1.4122472167968747,0.33875156250000016,1.6755952943887156
359,1788017090.7659223,-0.955469091796875,0.6985313964843747,-0.4420248046874999,1.2634291532225217
360,1788017090.7765806,-0.462095068359375,-0.44149790039062536,-0.7102669921874999,0.9554744624753003
361,1788017090.7965806,0.05522915039062501,-1.5000965332031255,-0.9689291015624999,1.786662663133592
362,1788017090.8368409,0.543813134765625,-2.1323816894531253,-1.6682748046875,2.7615077800023844
363,1788017090.8568408,0.792895166015625,-3.3203113769531254,-1.44314296875,3.706185641932669
364,1788017090.8659258,0.7689449707031251,-3.9142762207031256,-0.8827083984374999,4.085585492509448
365,1788017090.8859258,0.653984033203125,-3.3730018066406253,-0.61925625,3.4911766793517645
366,1788017090.8965445,0.9222262207031251,-2.4533143066406256,-0.3031136718749999,2.6383953811734675
367,1788017090.9165444,0.577343408203125,-1.1216834472656254,-0.3941244140624999,1.3216781834567015
368,1788017090.9561985,-0.155532568359375,0.4254991699218747,-0.4228646484374999,0.6197212553421404
369,1788017090.9761984,-0.572265966796875,1.5415782714843747,0.26690097656250017,1.6658895627131862
370,1788017090.985786,-0.830928076171875,2.719927880859375,0.5159830078125002,2.890447648582845
371,1788017091.005786,-1.199761083984375,3.2372520996093748,0.44892246093750016,3.4814880713572536
372,1788017091.0163577,-1.8559964355468752,3.165401513671875,0.15673007812500014,3.6727447268913167
373,1788017091.0363576,-2.243989599609375,2.8205187011718746,0.02260898437500013,3.604348239694632
374,1788017091.0769606,-1.5733841308593752,1.8194005371093747,-0.01092128906249987,2.4053846287504164
375,1788017091.0969605,-0.749497412109375,-0.3073768066406254,0.35791171875000016,0.8856227585365103
376,1788017091.106539,-1.0704300292968751,-1.3084949707031255,-1.5006234375,2.2604977852566455
377,1788017091.126539,-1.8703665527343751,-2.3575135253906256,-1.5293636718749999,3.3756620542995988
378,1788017091.1361032,-3.216367529296875,-3.2005604003906254,-0.9593490234375,4.637775060180729
379,1788017091.1561031,-1.7506155761718751,-2.1371717285156255,-2.314930078125,3.604311190686769
380,1788017091.1967838,-0.040571630859375,-3.1766102050781253,-0.4228646484374999,3.204888915880744
381,1788017091.2167838,-0.797397802734375,-3.5598133300781254,0.6836343750000001,3.711532050176741
382,1788017091.2263684,-0.36150424804687503,-1.0210926269531253,-2.525691796875,2.748169304641844
383,1788017091.2463684,-1.1901810058593751,-2.4964246582031255,0.6165738281250002,2.833519046401796
384,1788017091.2564251,-0.16511264648437501,-1.0833631347656254,1.6081119140625002,1.9460117666519992
385,1788017091.2764251,-1.209341162109375,1.1823253417968747,1.4883609375000002,2.2529131231592197
386,1788017091.3161469,-0.327973974609375,4.137779443359375,1.6895425781250002,4.481443938420491
387,1788017091.3361468,0.37616176757812503,5.737652490234375,2.12064609375,6.128563749282319
388,1788017091.3462386,1.214418603515625,5.114947412109375,3.1600845703125002,6.133810729451666
389,1788017091.3662386,2.335287744140625,4.669473779296875,1.0955777343750002,5.334589468322067
390,1788017091.3773005,3.2501852050781253,3.242042138671875,0.17110019531250015,4.593889024896968
391,1788017091.3973005,2.569999658203125,0.10456655273437465,1.8619839843750001,3.175345141112054
392,1788017091.435941,1.928134423828125,0.7272716308593747,-0.7677474609374999,2.199104941829709
393,1788017091.455941,1.4012301269531249,0.20515737304687467,-0.8827083984374999,1.6687448975408616
394,1788017091.4664905,2.292177392578125,-0.11098520507812536,-0.05882167968749987,2.2956164541999917
395,1788017091.4864905,0.601293603515625,1.5128380371093748,-1.2132210937499999,2.0303049885358844
396,1788017091.5266817,-0.39024448242187504,1.0865245605468747,0.5111929687500002,1.2625944036117598
397,1788017091.5466816,-0.500415380859375,0.9763536621093747,0.8896060546875002,1.412473348227031
398,1788017091.555801,-0.730337255859375,0.30095815429687467,0.5782535156250002,0.9789511970811701
399,1788017091.575801,-1.1135403808593751,0.07103627929687466,0.46808261718750016,1.210008127780093
400,1788017091.5863943,-1.8176761230468752,-0.3696473144531254,1.1770083984375002,2.1968009457776407
401,1788017091.6063943,-0.950679052734375,-0.08224497070312535,0.7842251953125001,1.235137260986331
402,1788017091.6465344,-1.3865726074218752,1.0769444824218748,-0.5905160156249999,1.8523234540925195
403,1788017091.6665344,-1.5925442871093751,0.6314708496093747,0.24295078125000014,1.7303114813296128
404,1788017091.6786897,-1.1135403808593751,0.7033214355468747,0.43934238281250015,1.3884001407517663
405,1788017091.6986897,-1.4632132324218752,0.9140831542968747,0.6980044921875002,1.8611155922235798
406,1788017091.7092948,-1.6452347167968753,1.3499767089843748,0.47287265625000013,2.180101588729963
407,1788017091.7292948,-1.7122952636718751,1.3930870605468748,0.5686734375000002,2.279481543416032
408,1788017091.76698,-1.6021243652343753,1.6134288574218747,0.5016128906250001,2.3284266472621535
409,1788017091.78698,-1.5350638183593752,1.9056212402343748,0.6405240234375001,2.529443468881846
410,1788017091.797512,-1.8559964355468752,1.8577208496093747,0.7794351562500001,2.7392277536989407
411,1788017091.817512,-1.8559964355468752,1.6565392089843747,0.6117837890625002,2.5618595442031857
412,1788017091.8270748,-1.5973343261718753,1.3356065917968747,0.6357339843750002,2.177034592400299
413,1788017091.8470747,-1.4057327636718753,1.0769444824218748,0.6022037109375001,1.87043934158432
414,1788017091.8868427,-1.5494339355468751,0.46381948242187465,0.8369156250000002,1.821071606573315
415,1788017091.9068427,-1.9278470214843753,0.3296983886718747,0.30043125000000015,1.9787759099290578
416,1788017091.9163892,-2.028437841796875,0.6075206542968746,-0.6671566406249999,2.2200764416030596
417,1788017091.9363892,-1.9613772949218753,0.15246694335937466,-0.11151210937499988,1.9704522355006897
418,1788017091.9459455,-2.1290286621093752,0.061456201171874655,0.03697910156250013,2.1302364569920598
419,1788017091.9659455,-2.3493704589843754,0.09977651367187465,-0.2791634765624999,2.368001088022434
420,1788017092.0075707,-2.3589505371093753,-0.14930551757812535,-0.2408431640624999,2.3759093425009965
421,1788017092.0275707,-2.2918899902343752,-0.2786365722656254,-0.2983236328124999,2.3279594190266524
422,1788017092.0661883,-2.335000341796875,-0.5660389160156254,-0.14025234374999987,2.4067192130705726
423,1788017092.0861883,-2.2918899902343752,-0.7576404785156254,-0.07319179687499987,2.4149815446813876
424,1788017092.0661883,-2.081128271484375,-0.6618396972656254,-0.3605941406249999,2.213403443003846
425,1788017092.0861883,-2.0428079589843753,-0.9731922363281253,-0.13067226562499987,2.26654863771833
426,1788017092.1263235,-2.387690771484375,-2.3431434082031255,0.31001132812500015,3.359686782306237
427,1788017092.1463234,-2.8810647949218753,-1.8928797363281253,-0.20252285156249988,3.453193240197378
428,1788017092.1563988,-2.440381201171875,-0.35527719726562534,-0.9832992187499999,2.6549123615525168
429,1788017092.1763988,-2.018857763671875,0.17641713867187467,-0.3031136718749999,2.049094330389141
430,1788017092.1870098,-1.9422171386718752,0.5260899902343746,0.13277988281250014,2.0165833949666627
431,1788017092.2070098,-2.047597998046875,0.5883604980468747,0.17589023437500015,2.1377004027262636
432,1788017092.2462144,-1.5973343261718753,-0.3696473144531254,0.5543033203125002,1.7307132222176003
433,1788017092.2662144,-0.874038427734375,-0.6043592285156254,-0.4611849609374999,1.1583975217701838
434,1788017092.2763705,-0.988999365234375,0.018345849609374652,-1.6682748046875,1.93948372991036
435,1788017092.2963705,-1.209341162109375,-0.3983875488281254,-0.6527865234374999,1.4308560132364658
436,1788017092.3070054,-1.4967435058593752,0.35364858398437465,-0.7102669921874999,1.6940447584044065
437,1788017092.3270054,-2.0092776855468752,0.14767690429687466,-0.20252285156249988,2.024850807122422
438,1788017092.366797,-2.200879248046875,-0.20199594726562536,0.3148013671875001,2.2324362763533108
439,1788017092.386797,-2.1290286621093752,0.25305776367187466,-0.4372347656249999,2.1881443087943255
440,1788017092.3963854,-1.9374270996093752,0.10456655273437465,-0.2935335937499999,1.962325126198851
441,1788017092.4163854,-1.9182669433593753,-0.18762583007812536,0.15194003906250014,1.9334004483210767
442,1788017092.426995,-1.9230569824218753,-0.06787485351562535,-0.06840175781249987,1.92546980081567
443,1788017092.446995,-1.7075052246093751,-0.11577524414062536,-0.10193203124999987,1.7144585554100995
444,1788017092.4866612,-1.4536331542968752,-0.15409555664062535,-0.11630214843749988,1.4663972782225987
445,1788017092.5066612,-1.3769925292968752,-0.2977967285156254,0.060929296875000136,1.4101431475108108
446,1788017092.516246,-1.3003519042968752,-0.36485727539062535,0.09924960937500013,1.354210615589418
447,1788017092.536246,-1.132700537109375,-0.24989633789062535,-0.09235195312499987,1.1636097153706713
448,1788017092.5467947,-1.008159521484375,-0.28342661132812536,-0.07798183593749987,1.0501416244986823
449,1788017092.5667946,-1.017739599609375,-0.30258676757812536,-0.039661523437499874,1.0625091439455063
450,1788017092.6063886,-0.9410989746093751,-0.16846567382812536,-0.18336269531249988,0.9734833544038882
451,1788017092.6263885,-0.8644583496093751,-0.10140512695312535,-0.25521328124999987,0.9070309018485179
452,1788017092.6359446,-0.8405081542968751,-0.12056528320312536,-0.2168929687499999,0.8763746372679767
453,1788017092.6559446,-0.8213479980468751,-0.12056528320312536,-0.19773281249999988,0.8533737672020505
454,1788017092.6670542,-0.854878271484375,-0.16846567382812536,-0.2887435546874999,0.9179163266268067
455,1788017092.6870542,-0.548315771484375,-0.5995691894531254,-0.13067226562499987,0.8229268735456109
456,1788017092.726234,-0.265703466796875,-0.27384653320312535,-0.02529140624999987,0.38240019775799156
457,1788017092.746234,-0.950679052734375,0.12851674804687466,-0.4420248046874999,1.0562637662040173
458,1788017092.7583468,-1.056059912109375,-0.3696473144531254,0.22379062500000013,1.1410450994087655
459,1788017092.7783468,-0.893198583984375,0.14767690429687466,-0.3174837890624999,0.9593790360498206
460,1788017092.7859733,-1.065639990234375,0.04229604492187465,-0.2312630859374999,1.0912653935317878
461,1788017092.8059733,-1.123120458984375,-0.19241586914062536,0.056139257812500135,1.140865920410525
462,1788017092.8471148,-1.171020849609375,0.023135888671874653,-0.2839535156249999,1.205178284985378
463,1788017092.8671148,-1.2285013183593751,-0.27384653320312535,-0.01571132812499987,1.2587510710182315
464,1788017092.8761766,-1.276401708984375,-0.19720590820312536,-0.25521328124999987,1.3165201524681818
465,1788017092.8961766,-1.2620315917968752,-0.32174692382812536,-0.20252285156249988,1.3180517163947787
466,1788017092.9358864,-1.1470706542968752,-0.6714197753906254,-0.2791634765624999,1.3581265947551135
467,1788017092.9558864,-1.180600927734375,-1.2510145019531254,-0.16899257812499988,1.7284138179630557
468,1788017092.9659445,-1.319512060546875,-1.4138758300781253,-0.3941244140624999,1.9736998238252637
469,1788017092.9859445,-1.1901810058593751,-1.1168934082031254,-0.4755550781249999,1.7000395125780172
470,1788017092.9964983,-1.2332913574218751,-0.4367078613281254,-0.3605941406249999,1.3571107039185708
471,1788017093.0164983,-1.099170263671875,-0.01997446289062535,0.17589023437500015,1.1133335628897392
472,1788017093.085993,-0.9985794433593751,0.7464317871093747,-0.2743734374999999,1.2765586945819534
473,1788017093.105993,-0.917148779296875,0.3967589355468747,-0.03008144531249987,0.9997421815918972
474,1788017093.085993,-1.118330419921875,-0.12535532226562535,0.08487949218750014,1.1285306434195592
475,1788017093.105993,-1.1949710449218751,-0.19720590820312536,-0.2935335937499999,1.2461973917047362
476,1788017093.116053,-0.993789404296875,-0.5468787597656254,-0.13546230468749987,1.1423851338173021
477,1788017093.136053,-1.3243020996093753,-0.46065805664062537,-0.01571132812499987,1.4022227861538867
478,1788017093.1762679,-1.3386722167968752,-0.005604345703125349,-0.14025234374999987,1.3460109333292907
479,1788017093.1962678,-1.2811917480468753,0.5021397949218747,0.03697910156250013,1.3765769585678673
480,1788017093.2058163,-1.180600927734375,0.9045030761718746,-0.5042953124999999,1.5704324651449115
481,1788017093.2258162,-1.209341162109375,-0.25468637695312535,0.24295078125000014,1.2595222423949284
482,1788017093.2364535,-1.4536331542968752,-0.34090708007812537,-0.3989144531249999,1.5454448309242534
483,1788017093.2564535,-1.1901810058593751,-0.5181385253906253,-0.15462246093749987,1.3072514921118943
484,1788017093.296139,-0.687226904296875,-0.14930551757812535,-0.039661523437499874,0.7043763142029419
485,1788017093.316139,-0.548315771484375,0.15725698242187466,-0.3797542968749999,0.685268757330994
486,1788017093.3267791,-0.854878271484375,-0.4367078613281254,-0.0013412109374998694,0.9599647983382916
487,1788017093.346779,-1.2668216308593752,-1.3180750488281254,0.5782535156250002,1.9174295311925142
488,1788017093.3568196,-1.017739599609375,-1.4713562988281255,-0.03487148437499987,1.7893851656747262
489,1788017093.3768196,-1.185390966796875,-1.0306727050781255,-0.7006869140624999,1.7200000350857902
490,1788017093.416925,-0.9602591308593751,-0.6762098144531253,-0.6144662109374999,1.3254908660362095
491,1788017093.436925,-0.601006201171875,-0.08703500976562535,-0.6623666015624999,0.8986173054406454
492,1788017093.446475,-0.601006201171875,-0.22594614257812537,-0.19773281249999988,0.6718321057616575
493,1788017093.466475,-0.787817724609375,-0.19720590820312536,-0.4276546874999999,0.9178428346833869
494,1788017093.4765668,-1.156650732421875,-0.7815906738281254,-0.10672207031249988,1.4000408917310057
495,1788017093.4965668,-1.4248929199218752,-0.7911707519531254,-0.07798183593749987,1.6316715842122593
496,1788017093.5367565,-1.185390966796875,-0.2594764160156254,-0.15941249999999987,1.223884022196627
497,1788017093.5567565,-0.8261380371093751,0.15725698242187466,-0.2168929687499999,0.868490860500301
498,1788017093.5657852,-0.773447607421875,0.018345849609374652,0.07529941406250014,0.7773208947292415
499,1788017093.5857852,-0.754287451171875,0.27221791992187466,-0.13067226562499987,0.8124822434524501
500,1788017093.5963202,-0.591426123046875,0.32490834960937465,-0.02050136718749987,0.6751078437736461
501,1788017093.6163201,-0.687226904296875,0.18120717773437467,-0.03008144531249987,0.7113520595345264
502,1788017093.6558971,-1.094380224609375,-0.01039438476562535,-0.17378261718749988,1.1081410186827572
503,1788017093.6758971,-1.218921240234375,-0.3792273925781254,0.003448828125000131,1.276555639050467
504,1788017093.6864293,-1.214131201171875,-0.13014536132812535,-0.2456332031249999,1.2455472930450036
505,1788017093.7064292,-1.5781741699218752,-0.2594764160156254,0.08966953125000013,1.6018746348923527
506,1788017093.7171223,-1.4488431152343753,0.08540639648437466,0.07050937500000014,1.4530699216092067
507,1788017093.7371223,-1.123120458984375,0.20515737304687467,-0.4611849609374999,1.2313328880930985
508,1788017093.775945,-1.6260745605468752,-0.8534412597656253,0.07050937500000014,1.8377845445783196
509,1788017093.795945,-1.5925442871093751,-0.25468637695312535,-0.4899251953124999,1.6855530706602533
510,1788017093.8056214,-1.051269873046875,-0.5229285644531254,0.14235996093750014,1.1827463751688803
511,1788017093.8256214,-1.4536331542968752,-0.45107797851562537,-0.02529140624999987,1.522222173404043
512,1788017093.8362212,-1.3722024902343752,-0.32653696289062534,-0.16420253906249987,1.4200452584948926
513,1788017093.8562212,-0.7638675292968751,-0.22594614257812537,-0.2743734374999999,0.842511747612823
514,1788017093.8961442,-0.874038427734375,-0.6187293457031254,-0.16420253906249987,1.0833889653421656
515,1788017093.9161441,-0.912358740234375,-0.46065805664062537,-0.26479335937499987,1.0558029357787708
516,1788017093.9267943,-0.9794192871093751,-0.4798182128906254,0.14715000000000014,1.1005184141500723
517,1788017093.9467943,-1.046479833984375,-0.2786365722656254,-0.0061312499999998694,1.0829570511181248
518,1788017093.956267,-1.2859817871093753,-0.5708289550781254,0.09924960937500013,1.4104769894236833
519,1788017093.976267,-0.974629248046875,-0.4462879394531254,0.06571933593750014,1.0739618834790179
520,1788017094.0162065,-0.452514990234375,0.023135888671874653,-0.07319179687499987,0.45897943838612765
521,1788017094.0362065,-0.438144873046875,0.16683706054687467,-0.20252285156249988,0.5107064126816797
522,1788017094.0458045,-0.519575537109375,0.24347768554687466,-0.20731289062499988,0.6100973338255556
523,1788017094.0658045,-0.749497412109375,0.40154897460937466,0.056139257812500135,0.8521382317653803
524,1788017094.075934,-0.8405081542968751,0.4973497558593747,0.17589023437500015,0.9923447544283245
525,1788017094.095934,-0.878828466796875,0.3201183105468747,0.23816074218750014,0.9651609948186013
526,1788017094.1360033,-0.8836185058593751,0.40154897460937466,0.2956412109375001,1.0146068048813717
527,1788017094.1560032,-1.0321097167968751,0.38238881835937466,0.47287265625000013,1.197948339846813
528,1788017094.1662385,-0.7638675292968751,0.45423940429687465,0.43934238281250015,0.9913872946863185
529,1788017094.1862385,-0.9027786621093751,0.31053823242187467,0.3148013671875001,1.0052577815360668
530,1788017094.1978416,-0.8644583496093751,0.28179799804687466,0.48245273437500014,1.0293002432810872
531,1788017094.2178416,-0.759077490234375,0.3967589355468747,0.6644742187500001,1.084039794703234
532,1788017094.2566454,-0.778237646484375,0.6602110839843747,0.34833164062500016,1.0783633161796011
533,1788017094.2766454,-0.754287451171875,0.9619835449218747,0.15194003906250014,1.2318472612974931
534,1788017094.2863493,-0.601006201171875,0.8949229980468747,-0.14025234374999987,1.0870907718344511
535,1788017094.3063493,-0.500415380859375,0.8374425292968747,0.22858066406250013,1.0019853608007623
536,1788017094.3460834,-0.6249563964843751,0.8087022949218747,0.5830435546875001,1.1766518966887693
537,1788017094.3660834,-0.735127294921875,0.6314708496093747,0.6980044921875002,1.1943106148567335
538,1788017094.3757703,-0.715967138671875,0.6697911621093747,0.6932144531250002,1.200739531505152
539,1788017094.3957703,-0.572265966796875,0.8757628417968747,0.5064029296875001,1.1622791484932453
540,1788017094.4063685,-0.648906591796875,0.8949229980468747,0.6548941406250002,1.2848553508997036
541,1788017094.4263685,-0.806977880859375,0.9428233886718747,0.8848160156250002,1.5241484914303807
542,1788017094.4661012,-0.519575537109375,1.1296349121093747,0.7315347656250002,1.4426284645524206
543,1788017094.4861012,-0.577056005859375,1.1919054199218748,0.48724277343750017,1.411041347446836
544,1788017094.4967704,-0.7015970214843751,1.2445958496093747,0.35312167968750013,1.4717174083654612
545,1788017094.5167704,-0.720757177734375,1.0913145996093747,0.7794351562500001,1.5224906000940215
546,1788017094.5262892,-0.620166357421875,1.2254356933593746,0.7123746093750002,1.5471834194817602
547,1788017094.5462892,-0.572265966796875,1.2158556152343747,0.6884244140625002,1.509874626493279
548,1788017094.5863483,-0.553105810546875,1.2541759277343747,0.5926236328125002,1.4933472689019724
549,1788017094.6063483,-0.577056005859375,1.4218272949218747,0.5543033203125002,1.631514223472383
550,1788017094.6158757,-0.610586279296875,1.4793077636718748,0.9470865234375002,1.859607471216013
551,1788017094.6358757,-0.778237646484375,1.5990587402343748,0.8991861328125001,1.9927815712134092
552,1788017094.6464226,-0.610586279296875,1.5607384277343748,0.8656558593750002,1.886287388268988
553,1788017094.6664226,-0.433354833984375,1.9008312011718747,0.6165738281250002,2.0447784606198427
554,1788017094.7066216,-0.6249563964843751,1.6900694824218747,0.9039761718750001,2.015955920212111
555,1788017094.7266216,-0.715967138671875,2.1259630371093747,0.49203281250000014,2.2966114315203536
556,1788017094.737194,-0.596216162109375,1.8912511230468747,0.7219546875000001,2.1103371989304742
557,1788017094.757194,-0.48125522460937503,1.8673009277343748,0.47766269531250016,1.9866003615283772
558,1788017094.7664492,-0.466885107421875,1.7379698730468747,0.5159830078125002,1.8721002770957917
559,1788017094.7864492,-0.509995458984375,1.7762901855468747,0.5782535156250002,1.9364088720586636
560,1788017094.8266742,-0.6824368652343751,1.4793077636718748,1.0189371093750001,1.9215369805320648
561,1788017094.8466742,-1.9757474121093752,1.7858702636718748,0.6117837890625002,2.732615933438875
562,1788017094.8558588,-0.672856787109375,1.3403966308593747,0.9422964843750001,1.7712487257423217
563,1788017094.8758588,0.28515102539062503,1.3164464355468748,1.5937417968750003,2.0867091891425003
564,1788017094.8874505,-0.500415380859375,1.6086388183593747,0.9997769531250001,1.9590018778278868
565,1788017094.9074504,-0.739917333984375,1.5367882324218747,0.42976230468750015,1.758946096664479
566,1788017094.9465675,-0.236963232421875,1.3068663574218746,0.6692642578125002,1.4872679302890448
567,1788017094.9665675,-0.519575537109375,2.1020128417968746,0.27169101562500014,2.182254048870757
568,1788017094.9760966,-0.9842093261718751,2.1355431152343747,0.7411148437500001,2.4654540365570035
569,1788017094.9960966,-1.103960302734375,1.7523399902343748,1.2967593750000002,2.443564746029532
570,1788017095.0061283,-1.1518606933593751,1.8529308105468747,1.1099478515625,2.447880691285514
571,1788017095.0261283,-1.127910498046875,1.9774718261718747,0.9710367187500002,2.4749725703669214
572,1788017095.0661898,-0.8596683105468751,1.9343614746093747,0.9375064453125002,2.315103076239577
573,1788017095.0861897,-0.687226904296875,1.9774718261718747,0.7985953125000002,2.2406316329196034
574,1788017095.095786,-0.653696630859375,2.011002099609375,0.6022037109375001,2.198658236128823
575,1788017095.115786,-0.739917333984375,1.8433507324218747,0.6069937500000001,2.076983629302328
576,1788017095.1263595,-0.677646826171875,1.4457774902343747,0.9135562500000002,1.8395822336072083
577,1788017095.1463594,-0.6824368652343751,1.2637560058593746,0.8369156250000002,1.6622957260204039
578,1788017095.1860023,-0.806977880859375,1.1152647949218748,0.7123746093750002,1.5500020796987994
579,1788017095.2060022,-0.787817724609375,1.0721544433593746,0.6261539062500001,1.4704559265534203
580,1788017095.2171426,-0.7255472167968751,1.0961046386718747,0.8273355468750002,1.5531736058286107
581,1788017095.2371426,-0.696806982421875,1.1104747558593746,0.9997769531250001,1.6487110450751294
582,1788017095.2457385,-0.7255472167968751,1.3882970214843746,0.7459048828125001,1.7349816938133977
583,1788017095.2657385,-0.519575537109375,1.2541759277343747,0.8943960937500002,1.6256876603413504
584,1788017095.3067899,-0.356714208984375,1.5224181152343748,0.46808261718750016,1.632208099783307
585,1788017095.3267899,-0.217803076171875,1.3835069824218746,0.7075845703125002,1.5691416999571257
586,1788017095.336393,-0.217803076171875,1.2493858886718747,0.45850253906250016,1.3485651104522545
587,1788017095.356393,-0.730337255859375,0.5596202636718747,0.7267447265625002,1.1724867779189596
588,1788017095.3716142,-1.012949560546875,0.8613927246093747,0.48245273437500014,1.4145051711209768
589,1788017095.3916142,-0.601006201171875,0.6697911621093747,0.5878335937500001,1.0748846396836802
590,1788017095.4264128,-0.385454443359375,0.33448842773437465,0.47766269531250016,0.6990130804834069
591,1788017095.4464128,-0.466885107421875,0.5212999511718747,0.9183462890625002,1.1545974403483665
592,1788017095.4569397,-0.35192416992187503,1.0098839355468747,0.5064029296875001,1.1832836142898828
593,1788017095.4769397,-0.457305029296875,0.9476134277343747,-0.01571132812499987,1.0523050622676668
594,1788017095.4865537,-1.8464163574218753,0.3296983886718747,-0.9114486328124999,2.085352009302907
595,1788017095.5065536,-0.648906591796875,0.9140831542968747,0.49682285156250017,1.2261568919520267
596,1788017095.5467477,-0.538735693359375,0.6602110839843747,3.2463052734375,3.356279599655451
597,1788017095.5667477,-1.2716116699218751,1.8194005371093747,1.9817349609375001,2.9756491743680633
598,1788017095.575835,-1.3817825683593752,2.935479638671875,0.23337070312500013,3.2528181105552227
599,1788017095.595835,-0.653696630859375,3.2037218261718747,0.5782535156250002,3.320471345008058
600,1788017095.6064076,-0.36150424804687503,3.131871240234375,1.1530582031250003,3.3569101874427614
601,1788017095.6264076,-0.572265966796875,3.155821435546875,0.8848160156250002,3.327100336827491
602,1788017095.666471,-0.907568701171875,2.935479638671875,0.36749179687500017,3.094474410489507
603,1788017095.686471,-0.423774755859375,2.1594933105468748,-0.6719466796874999,2.3009799526165864
604,1788017095.6960478,-1.9470071777343751,2.379835107421875,-2.3772005859375,3.886583938942842
605,1788017095.7160478,-0.907568701171875,0.4350792480468747,2.3314078125,2.5393773425022665
606,1788017095.756727,-2.7613138183593753,-1.1600037597656254,4.87970859375,5.725558373298662
607,1788017095.776727,-1.3626224121093753,2.0253722167968746,-2.3867806640625,3.4140290556610804
608,1788017095.787271,0.9078561035156251,-0.7241102050781254,1.7853433593750003,2.1297861875440147
609,1788017095.807271,1.6790523925781249,-0.17325571289062536,1.5171011718750003,2.269544105051952
610,1788017095.815904,2.253857080078125,0.6075206542968746,0.45371250000000013,2.3779840444106943
611,1788017095.835904,1.2862691894531249,-0.5995691894531254,1.7470230468750003,2.2507912313207297
612,1788017095.8771224,0.7641549316406251,0.6793712402343747,0.08008945312500014,1.0256180390916212
613,1788017095.8971224,0.562973291015625,-0.14451547851562535,1.9386246093750001,2.0238796965239647
614,1788017095.905661,-0.304023779296875,1.0817345214843748,0.22379062500000013,1.1457147451206495
615,1788017095.925661,-1.6452347167968753,-0.7959607910156253,1.8236636718750001,2.5818791688040945
616,1788017095.9362478,-0.936308935546875,-0.33611704101562534,0.34354160156250013,1.0524589873482715
617,1788017095.9562478,-1.9805374511718752,-0.9731922363281253,0.7171646484375002,2.3203355053337025
618,1788017095.9969454,-2.2631497558593754,-0.22594614257812537,0.37228183593750014,2.3046674905854165
619,1788017096.0169454,-0.768657568359375,0.8949229980468747,0.9135562500000002,1.4920813153925012
620,1788017096.0260046,-2.081128271484375,1.4936778808593747,1.5266812500000002,2.9821006242649926
621,1788017096.0460045,-1.3865726074218752,3.174981591796875,1.8140835937500002,3.9107532508475438
622,1788017096.0557349,-2.047597998046875,4.2335802246093746,0.9518765625000002,4.798117138007987
623,1788017096.0757349,-2.780473974609375,4.458712060546875,-0.4851351562499999,5.276978764612942
624,1788017096.116221,-3.4079690917968755,3.673145654296875,0.7985953125000002,5.073855220783286
625,1788017096.136221,-3.053506201171875,4.195259912109375,1.1386880859375001,5.312317423479423
626,1788017096.147465,-1.103960302734375,4.726954248046875,1.50752109375,5.082857922590692
627,1788017096.167465,-1.2285013183593751,5.201168115234375,0.30043125000000015,5.352721194693218
628,1788017096.1759937,-1.2428714355468753,3.744996240234375,1.0812076171875002,4.091300056966273
629,1788017096.1959937,-1.080010107421875,3.3857433105468746,1.1961685546875003,3.749733164942474
630,1788017096.2356718,-0.0022513183593749946,3.912647607421875,0.9806167968750001,4.033661571154905
631,1788017096.2556717,1.003656884765625,3.6587755371093746,0.5447232421875001,3.8328434593479934
632,1788017096.2657034,1.214418603515625,2.988170068359375,-0.6863167968749999,3.297727042627463
633,1788017096.2857034,0.328261376953125,0.16204702148437466,0.5159830078125002,0.6326556987195749
634,1788017096.2962182,0.467172509765625,-0.06308481445312535,-1.4096126953124999,1.486350496512
635,1788017096.3162181,0.9892867675781251,-0.34090708007812537,-1.5820541015625,1.8967870534204143
636,1788017096.3569658,1.4826607910156249,-0.6857898925781254,-1.3856625,2.1421137602572946
637,1788017096.3769658,2.732860986328125,-1.2845447753906254,-0.916238671875,3.1556422095061647
638,1788017096.386723,2.215536767578125,-1.9551502441406254,-0.8683382812499999,3.079809574687675
639,1788017096.406723,2.047885400390625,-1.2845447753906254,-1.462303125,2.8252823438554224
640,1788017096.4159057,1.535351220703125,-1.7204383300781254,-0.6144662109374999,2.386373848101021
641,1788017096.4359057,0.46238247070312505,-1.7539686035156254,-0.8491781249999999,2.0028247300526814
642,1788017096.476732,0.6444039550781251,-2.1036414550781255,0.16152011718750015,2.2060490876451064
643,1788017096.496732,0.11270961914062501,-0.5995691894531254,-1.0503597656249999,1.2146778619996774
644,1788017096.5058606,-1.515903662109375,-0.8582312988281254,-0.18815273437499988,1.7521205228344352
645,1788017096.5258605,-0.969839208984375,-1.0067225097656254,0.5351431640625002,1.4968154558912938
646,1788017096.5358987,-1.4632132324218752,-1.1743738769531253,0.5495132812500002,1.955022202603983
647,1788017096.5558987,-2.124238623046875,-2.4389441894531254,1.4069302734375002,3.5270797100754847
648,1788017096.5964553,-1.8991067871093752,-1.4857264160156254,0.43934238281250015,2.450920500837776
649,1788017096.6164553,-0.533945654296875,-0.14451547851562535,0.5207730468750001,0.7597284064878641
650,1788017096.6269817,0.8455855957031251,1.5032579589843746,0.32917148437500016,1.7558910436117947
651,1788017096.6469817,1.204838525390625,2.466055810546875,-0.06840175781249987,2.7454955715625005
652,1788017096.6565022,0.41448208007812504,2.4181554199218747,0.9566666015625002,2.6333404671915424
653,1788017096.6765022,0.7066744628906251,3.5965050292968748,0.5638833984375001,3.70839611008491
654,1788017096.716551,0.970126611328125,3.586924951171875,1.2057486328125002,3.906533759341593
655,1788017096.736551,2.253857080078125,4.065928857421875,0.7842251953125001,4.714515708744344
656,1788017096.7770524,1.846703759765625,4.156939599609375,1.1817984375000001,4.699692453555922
657,1788017096.7970524,1.463500634765625,3.8360069824218748,1.0907876953125002,4.248129173341357
658,1788017096.778063,0.11749965820312501,3.189351708984375,0.5207730468750001,3.2337246418999372
659,1788017096.798063,-0.9410989746093751,2.260084130859375,0.6261539062500001,2.5269974817726526
660,1788017096.8363159,-0.418984716796875,1.2302257324218746,0.46808261718750016,1.3813416963718264
661,1788017096.8563159,-2.6655130371093754,-0.22594614257812537,0.6213638671875001,2.746289217433624
662,1788017096.866842,-5.098852880859376,-1.7252283691406254,1.7182828125000003,5.650416750122816
663,1788017096.886842,-3.8438626464843755,-1.1504236816406255,0.7746451171875002,4.086420163162359
664,1788017096.8963637,-3.2451077636718755,-0.8294910644531254,-0.3126937499999999,3.3640090970656016
665,1788017096.9163637,-3.475029638671875,-1.1312635253906254,-0.7629574218749999,3.7333218694778187
666,1788017096.955908,-2.243989599609375,-1.7348084472656253,0.13756992187500014,2.8397139213772764
667,1788017096.975908,-2.138608740234375,-1.1504236816406255,0.13277988281250014,2.4320264160502316
668,1788017096.9866104,-1.6691849121093751,-0.8390711425781254,-0.08277187499999987,1.8700454102539752
669,1788017097.0066104,-1.4680032714843751,-0.8773914550781254,-0.03487148437499987,1.7105745791854425
670,1788017097.0169332,-1.5590140136718753,-0.03913461914062535,-0.5521957031249999,1.654380943975808
671,1788017097.0369332,-0.955469091796875,-0.14451547851562535,0.43934238281250015,1.061521379080568
672,1788017097.0761526,-1.199761083984375,0.4494493652343747,0.36749179687500017,1.3328471822843613
673,1788017097.0961525,-1.4536331542968752,1.1966954589843748,0.00823886718750013,1.8828694186686024
674,1788017097.1067395,0.48154262695312505,1.7331798339843747,0.4345523437500001,1.8505759584414903
675,1788017097.1267395,-0.0022513183593749946,1.6996495605468747,1.4596207031250001,2.240380836842848
676,1788017097.16678,0.721044580078125,2.2457140136718747,-0.18815273437499988,2.366123024932362
677,1788017097.18678,-0.375874365234375,1.3882970214843746,0.3052212890625001,1.4703095570660298
678,1788017097.1963043,-1.171020849609375,0.032715966796874656,1.3925601562500003,1.8197757975856097
679,1788017097.2163043,-1.7937259277343751,1.0434142089843748,-1.0743099609375,2.336730152907384
680,1788017097.2268298,-1.8464163574218753,0.27221791992187466,1.5410513671875001,2.4203708966173183
681,1788017097.2468297,-1.209341162109375,1.9822618652343746,0.6596841796875001,2.4139286165221385
682,1788017097.2868738,0.06480922851562501,2.1547032714843746,1.0668375,2.405221128223454
683,1788017097.3068738,0.558183251953125,2.1355431152343747,0.36749179687500017,2.237669135631164
684,1788017097.3158917,0.6060836425781251,1.5176280761718748,-0.18815273437499988,1.6449722826961868
685,1788017097.3358917,-0.634536474609375,1.1344249511718747,-0.14504238281249987,1.3078967085603252
686,1788017097.345567,0.41448208007812504,1.7379698730468747,-0.19773281249999988,1.7976186857795005
687,1788017097.365567,1.2431588378906249,2.207393701171875,-0.10193203124999987,2.535433096572179
688,1788017097.406304,2.617900048828125,2.2792442871093748,0.40102207031250015,3.494162830615189
689,1788017097.4263039,2.924462548828125,2.1451231933593746,0.5543033203125002,3.668962644276455
690,1788017097.4369242,2.215536767578125,2.1020128417968746,0.26211093750000014,3.065250935751693
691,1788017097.4569242,1.693422509765625,2.0014220214843745,0.6548941406250002,2.7022687209247835
692,1788017097.4671006,1.137777978515625,1.8337706542968748,2.0583755859375,2.982308433703502
693,1788017097.4871006,-0.294443701171875,1.6996495605468747,3.0738638671875003,3.5247900357082083
694,1788017097.5263345,-1.036899755859375,1.6948595214843747,2.7002408203125,3.352463331484686
695,1788017097.5463345,-1.4105228027343752,1.3643468261718747,2.2835074218750004,3.0108840869215
696,1788017097.555854,-1.3913626464843751,1.6421690917968748,1.4308804687500003,2.584575062933015
697,1788017097.575854,-2.0140677246093754,1.6421690917968748,1.0812076171875002,2.814639947991649
698,1788017097.586993,-1.9613772949218753,1.6661192871093748,0.7123746093750002,2.6702868677344553
699,1788017097.606993,-1.6500247558593752,1.3308165527343747,0.8321255859375002,2.2772982638979076
700,1788017097.6457546,-1.199761083984375,1.2254356933593746,0.5399332031250001,1.797956384632107
701,1788017097.6657546,-0.677646826171875,1.1631651855468748,0.47287265625000013,1.4268030764327786
702,1788017097.6758668,0.0025387207031250057,1.3643468261718747,0.42018222656250015,1.4275860081645155
703,1788017097.6958668,0.697094384765625,1.6134288574218747,0.25253085937500014,1.7756309003196857
704,1788017097.7055714,0.8839059082031251,1.4840978027343747,0.6165738281250002,1.8341208324879001
705,1788017097.7255714,1.477870751953125,1.6804894042968748,0.7554849609375002,2.361970390084367
706,1788017097.7668116,1.4395504394531249,1.8625108886718746,0.9039761718750001,2.5215917983426186
707,1788017097.7868116,0.7449947753906251,1.7092296386718748,1.1817984375000001,2.2075168674216643
708,1788017097.7958174,0.194140283203125,1.5798985839843747,0.8321255859375002,1.7961634045959876
709,1788017097.8158174,0.194140283203125,1.3835069824218746,0.6501041015625002,1.5409144566914337
710,1788017097.8275766,0.572553369140625,1.4840978027343747,0.5974136718750002,1.6991959109939176
711,1788017097.8475766,1.018027001953125,1.8194005371093747,0.5734634765625002,2.1622806594174353
712,1788017097.8860621,0.9605465332031251,1.9487315917968748,0.6692642578125002,2.2733497544594936
713,1788017097.9060621,1.137777978515625,1.7523399902343748,0.5878335937500001,2.1704337132727067
714,1788017097.9187546,1.065927392578125,1.3260265136718747,0.8225455078125001,1.8897430072980057
715,1788017097.9387546,1.137777978515625,1.4314073730468748,0.49203281250000014,1.8935580489081176
716,1788017097.945837,0.821635400390625,1.1392149902343747,0.6788443359375002,1.5600401140945686
717,1788017097.965837,0.44322231445312504,1.1871153808593746,0.6213638671875001,1.4113050708292267
718,1788017098.0059786,0.476752587890625,1.2398058105468748,0.6836343750000001,1.4939101166428461
719,1788017098.0259786,0.43364223632812504,1.2733360839843748,0.5495132812500002,1.453064079170104
720,1788017098.0358107,0.428852197265625,1.2972862792968747,0.5495132812500002,1.472695061382914
721,1788017098.0558107,0.438432275390625,1.1392149902343747,0.9854068359375002,1.5687766846786264
722,1788017098.0658438,0.543813134765625,1.4170372558593747,0.7219546875000001,1.6807575318410166
723,1788017098.0858438,0.299521142578125,1.2350157714843748,0.8656558593750002,1.5376400546085942
724,1788017098.125888,0.730624658203125,1.6517491699218747,0.49682285156250017,1.8732113221275195
725,1788017098.145888,0.859955712890625,1.2493858886718747,1.0668375,1.8543546527975396
726,1788017098.1559553,0.859955712890625,1.3835069824218746,1.0572574218750002,1.9420114970445146
727,1788017098.1759553,0.615663720703125,1.6852794433593747,0.7938052734375002,1.9619723319498885
728,1788017098.1861677,0.49591274414062503,1.7379698730468747,0.8225455078125001,1.985711419577925
729,1788017098.2061677,0.165400048828125,2.0349522949218746,0.5016128906250001,2.1023804391216445
730,1788017098.246047,0.05522915039062501,2.054112451171875,0.8417056640625001,2.2205622364678486
731,1788017098.266047,-0.098052099609375,2.4085753417968747,0.49682285156250017,2.461235936919586
732,1788017098.2760592,0.280360986328125,2.2552940917968747,0.9854068359375002,2.4770911076222295
733,1788017098.2960591,0.730624658203125,2.6049669433593747,0.5638833984375001,2.763626178447972
734,1788017098.305883,1.209628564453125,2.6480772949218747,0.9135562500000002,3.051245589220203
735,1788017098.325883,1.013236962890625,2.739088037109375,0.9087662109375002,3.058612176158528
736,1788017098.3664362,1.089877587890625,2.988170068359375,0.38665195312500017,3.2041368957771663
737,1788017098.3864362,0.42406215820312504,2.3846251464843746,0.5543033203125002,2.4846565102997595
738,1788017098.3970327,0.040859033203125006,2.327144677734375,0.11840976562500014,2.3305133950048624
739,1788017098.4170327,0.299521142578125,1.8529308105468747,0.7650650390625001,2.026916381482203
740,1788017098.4266212,0.347421533203125,1.6613292480468747,1.0476773437500002,1.9945787547139522
741,1788017098.4466212,0.48154262695312505,1.4840978027343747,1.0141470703125002,1.8608932988963507
742,1788017098.5156827,0.146239892578125,1.0817345214843748,0.9949869140625002,1.4770019093785587
743,1788017098.5356827,0.33305141601562505,1.0673644042968746,0.6501041015625002,1.293377501017557
744,1788017098.516979,1.003656884765625,1.0194640136718747,0.6117837890625002,1.5559284758847616
745,1788017098.536979,1.2431588378906249,1.0194640136718747,0.36270175781250014,1.648121153470768
746,1788017098.5760934,1.223998681640625,0.6027306152343747,0.5638833984375001,1.4762863727042326
747,1788017098.5960934,1.065927392578125,0.3967589355468747,0.6069937500000001,1.2892091652341569
748,1788017098.6057308,0.9222262207031251,0.18599721679687467,0.7363248046875002,1.1946842197026954
749,1788017098.6257308,0.931806298828125,0.023135888671874653,0.7746451171875002,1.2119708352360803
750,1788017098.6356478,0.9461764160156251,0.20036733398437467,0.46808261718750016,1.0744757862629009
751,1788017098.6556478,0.879115869140625,0.17641713867187467,0.5686734375000002,1.0617707835074925
752,1788017098.6960447,1.041977197265625,0.42070913085937467,0.36270175781250014,1.1807900819071337
753,1788017098.7160447,1.008446923828125,0.41112905273437467,0.5399332031250001,1.2155328708091342
754,1788017098.726184,0.9222262207031251,0.7081114746093747,0.39623203125000017,1.2283822227687657
755,1788017098.7461839,0.893485986328125,0.9332433105468747,0.43934238281250015,1.3646545400871968
756,1788017098.755905,0.7258346191406251,1.1152647949218748,0.48724277343750017,1.4170592709559522
757,1788017098.775905,0.816845361328125,1.4361974121093748,0.38665195312500017,1.6968792189570587
758,1788017098.815991,0.8455855957031251,1.5607384277343748,0.5351431640625002,1.853995050023112
759,1788017098.835991,0.859955712890625,1.7571300292968748,0.40102207031250015,1.996959806522851
760,1788017098.8460596,0.682724267578125,1.6421690917968748,0.6117837890625002,1.8807209139456946
761,1788017098.8660595,0.711464501953125,1.7331798339843747,0.6548941406250002,1.984686476472914
762,1788017098.8773112,0.390531884765625,1.6756993652343748,0.8273355468750002,1.9091798298715692
763,1788017098.8973112,0.562973291015625,1.7283897949218747,0.8512857421875002,2.007226351072237
764,1788017098.93577,0.38574184570312503,1.6852794433593747,0.9854068359375002,1.989972413388812
765,1788017098.95577,0.697094384765625,1.8385606933593748,0.8129654296875002,2.1277121032472537
766,1788017098.9669774,0.562973291015625,1.7475499511718748,0.7985953125000002,2.002154896950972
767,1788017098.9869773,0.572553369140625,1.7906603027343748,0.6548941406250002,1.9907707089788118
768,1788017098.9966419,0.270780908203125,1.7619200683593748,0.6069937500000001,1.8831160453020084
769,1788017099.0166419,0.347421533203125,1.5415782714843747,0.8656558593750002,1.8018116870850385
770,1788017099.0557628,0.562973291015625,1.5607384277343748,0.7698550781250002,1.8290763263239131
771,1788017099.0757627,0.7497848144531251,1.3164464355468748,0.9039761718750001,1.7641942650871414
772,1788017099.0859993,0.5294430175781251,1.0961046386718747,1.0045669921875002,1.5782617430492552
773,1788017099.1059992,0.562973291015625,1.0913145996093747,1.0476773437500002,1.6141667504705297
774,1788017099.1177008,0.721044580078125,1.2493858886718747,1.0859976562500002,1.8056193659387196
775,1788017099.1377008,0.9653365722656251,1.4840978027343747,0.7794351562500001,1.9344095090318925
776,1788017099.1764646,0.912646142578125,1.1487950683593746,0.6644742187500001,1.6106455469882175
777,1788017099.1964645,0.6060836425781251,0.6650011230468746,0.6501041015625002,1.1100446920384597
778,1788017099.205653,0.5869234863281251,0.4254991699218747,0.8943960937500002,1.1512919242846378
779,1788017099.225653,0.7641549316406251,0.7081114746093747,0.9231363281250001,1.3919537709019862
780,1788017099.2367823,0.850375634765625,0.9428233886718747,0.8081753906250002,1.5050588441790667
781,1788017099.2567823,0.8264254394531251,1.0242540527343746,0.7171646484375002,1.498799687912486
782,1788017099.2965138,0.831215478515625,1.2924962402343747,0.5590933593750002,1.635252606553855
783,1788017099.3165138,0.754574853515625,1.4505675292968747,0.6309439453125002,1.7526036713230602
784,1788017099.3287475,0.6444039550781251,1.5942687011718748,0.6261539062500001,1.8300322027682248
785,1788017099.3487475,0.735414697265625,1.6900694824218747,0.7123746093750002,1.976018020274668
786,1788017099.355885,0.553393212890625,2.0349522949218746,0.37228183593750014,2.141464138399289
787,1788017099.375885,0.558183251953125,2.2888243652343747,0.16631015625000015,2.361767259008263
788,1788017099.4156172,0.721044580078125,2.4181554199218747,0.04176914062500013,2.523712658458987
789,1788017099.4356172,1.147358056640625,2.5474864746093746,0.08008945312500014,2.7950907264269103
790,1788017099.4462173,1.8419137207031249,2.5187462402343748,0.38186191406250014,3.143651904810821
791,1788017099.4662173,2.086205712890625,2.3175645996093746,0.8656558593750002,3.2361582187418323
792,1788017099.4757445,1.808383447265625,2.193023583984375,1.1291080078125002,3.05851075289303
793,1788017099.4957445,1.8419137207031249,1.9199913574218748,1.1243179687500002,2.8884431553941385
794,1788017099.5360608,0.5294430175781251,1.4697276855468748,1.0189371093750001,1.8651118495647077
795,1788017099.5560608,-1.2859817871093753,0.9715636230468747,0.6836343750000001,1.7507258463524873
796,1788017099.566074,-2.4691214355468754,1.1104747558593746,0.9327164062500002,2.8635074194710786
797,1788017099.5860739,-0.888408544921875,1.1823253417968747,1.6176919921875001,2.1918235189295836
798,1788017099.5958579,-0.49083530273437503,1.6134288574218747,2.0966958984375004,2.6907630261501363
799,1788017099.6158578,-0.639326513671875,1.9104112792968748,1.1099478515625,2.3000856245663477
800,1788017099.655771,-0.299233740234375,2.2888243652343747,0.9854068359375002,2.5098375322911934
801,1788017099.675771,-0.136372412109375,2.8444688964843747,0.8464957031250002,2.9708846684549464
802,1788017099.6858938,-0.136372412109375,3.5725548339843747,0.33396152343750013,3.5907207877731664
803,1788017099.7058938,0.031278955078125004,3.088760888671875,0.9901968750000002,3.2437496900469394
804,1788017099.715967,0.012118798828125006,3.500704248046875,0.44892246093750016,3.529392082712355
805,1788017099.735967,0.270780908203125,3.0935509277343747,0.9806167968750001,3.2565302002356598
806,1788017099.775623,0.721044580078125,3.021700341796875,0.8081753906250002,3.2099416979265
807,1788017099.795623,0.438432275390625,1.9199913574218748,1.4979410156250001,2.474351826028496
808,1788017099.806418,0.35221157226562505,1.9774718261718747,0.5159830078125002,2.0738096053622153
809,1788017099.826418,0.280360986328125,1.9822618652343746,0.13277988281250014,2.0063885172859823
810,1788017099.835662,-0.213013037109375,1.1727452636718747,1.0189371093750001,1.5681003922915318
811,1788017099.8556619,-0.337554052734375,1.7331798339843747,0.12798984375000014,1.7703774952113054
812,1788017099.8960469,-0.519575537109375,0.9428233886718747,0.7363248046875002,1.3042426534151141
813,1788017099.9160469,-0.811767919921875,0.7703819824218747,0.9806167968750001,1.487973406001576
814,1788017099.9259365,0.879115869140625,1.6373790527343748,0.19026035156250015,1.8681685885071724
815,1788017099.9459364,-0.145952490234375,0.20994741210937468,0.8321255859375002,0.8705245752009916
816,1788017099.9858716,-0.5243655761718751,0.6410509277343747,-0.5569857421874999,0.998067465867576
817,1788017100.0058715,0.5102828613281251,-0.4893982910156254,2.27392734375,2.3813115819791757
818,1788017100.0169282,1.2479488769531248,0.12851674804687466,-0.0013412109374998694,1.2545496215231537
819,1788017100.0369282,2.119735986328125,1.6900694824218747,-1.2275912109375,2.9760033078474915
820,1788017100.0465765,2.023935205078125,-0.7480604003906254,1.7853433593750003,2.8005997550259885
821,1788017100.0665765,3.168754541015625,0.6123106933593747,-0.858758203125,3.3396699504358005
822,1788017100.105845,3.504057275390625,0.20994741210937468,0.12319980468750014,3.5125024550801998
823,1788017100.125845,3.283715478515625,-0.22115610351562537,0.5111929687500002,3.3306179032222762
824,1788017100.1359985,3.513637353515625,-0.01997446289062535,-0.4516048828124999,3.5425969854568757
825,1788017100.1559985,3.355566064453125,-0.29300668945312536,-0.4420248046874999,3.3972139262832326
826,1788017100.1665263,2.622690087890625,-1.3851355957031255,0.4441324218750001,2.9990594398517914
827,1788017100.1865263,2.531679345703125,-1.2414344238281254,-0.01092128906249987,2.819694843893583
828,1788017100.2255719,3.786669580078125,-1.2989148925781253,-0.10193203124999987,4.004551978167474
829,1788017100.2455719,1.396440087890625,-1.5288367675781254,-0.9449789062499999,2.276043038746006
830,1788017100.255815,0.610873681640625,-1.7922889160156255,-0.4228646484374999,1.9401754364726422
831,1788017100.275815,0.07438930664062501,-1.7970789550781254,-0.36538417968749987,1.835356133967756
832,1788017100.286068,-0.8261380371093751,-2.0701111816406255,0.6644742187500001,2.3258096113172937
833,1788017100.306068,-0.332764013671875,-1.0019324707031254,0.02739902343750013,1.0561019226995156
834,1788017100.3458543,0.7497848144531251,-0.5420887207031254,-0.05403164062499987,0.9267992594336097
835,1788017100.3658543,2.301757470703125,-0.43191782226562536,-0.2743734374999999,2.357948524106049
836,1788017100.3765254,2.253857080078125,-0.04871469726562535,-0.3126937499999999,2.275966221286475
837,1788017100.3965254,1.554511376953125,0.42070913085937467,0.40102207031250015,1.6596145621025609
838,1788017100.4081848,0.040859033203125006,1.6756993652343748,-0.17857265624999988,1.6856826560184337
839,1788017100.4281847,-0.102842138671875,2.054112451171875,1.1770083984375002,2.369663106337764
840,1788017100.4667304,0.740204736328125,2.825308740234375,1.2201187500000001,3.1652744420395686
841,1788017100.4867303,0.6444039550781251,3.697095849609375,0.19026035156250015,3.7576552768842277
842,1788017100.4963524,-0.366294287109375,3.744996240234375,0.5016128906250001,3.796153821459259
843,1788017100.5163524,-1.6117044433593752,3.0696007324218746,1.8236636718750001,3.917370171090022
844,1788017100.5260484,-0.059731787109375,3.673145654296875,1.3781900390625001,3.9236430352215264
845,1788017100.5460484,-0.098052099609375,4.588043115234375,1.0093570312500002,4.698782337799993
846,1788017100.585935,0.151029931640625,4.956876123046875,1.1099478515625,5.0818712274783
847,1788017100.605935,0.917436181640625,6.063375146484375,0.34354160156250013,6.142005221944366
848,1788017100.616955,-0.35192416992187503,5.6370616699218745,0.6357339843750002,5.683702366483216
849,1788017100.636955,-0.500415380859375,6.240606591796875,-0.2935335937499999,6.267515309725142
850,1788017100.6464713,1.099457666015625,5.3640294433593745,2.0104751953125004,5.832977759219869
851,1788017100.6664712,1.257528955078125,5.766392724609375,2.1781265625,6.291017362045338
852,1788017100.7092433,1.041977197265625,6.0298448730468746,2.2308169921875,6.513162835770627
853,1788017100.7292433,1.477870751953125,5.689752099609375,3.2654654296875,6.724629758356364
854,1788017100.7388477,1.142568017578125,5.1245274902343745,3.0068033203125,6.050380969823512
855,1788017100.7588477,2.220326806640625,4.061138818359375,1.9098843750000003,5.0070308523257046
856,1788017100.76587,1.310219384765625,2.8109386230468747,1.3781900390625001,3.3937381399458872
857,1788017100.78587,0.036068994140625005,0.9140831542968747,0.4249722656250002,1.008687469862735
858,1788017100.826922,1.817963525390625,-0.3073768066406254,-2.3484603515624998,2.9857558345873425
859,1788017100.846922,8.380317041015624,-0.7480604003906254,-1.835926171875,8.61161616533999
860,1788017100.8564382,4.265673486328125,0.4590294433593747,-2.008367578125,4.73711079147377
861,1788017100.8764381,2.143686181640625,2.044532373046875,-1.0551498046874999,3.1446532686650395
862,1788017100.886464,1.372489892578125,-0.10140512695312535,2.5373794921875,2.8865734344331497
863,1788017100.906464,0.840795556640625,0.7560118652343747,1.2728091796875003,1.7025082426639069
864,1788017100.947644,0.35221157226562505,1.8577208496093747,1.4404605468750002,2.376995232181719
865,1788017100.967644,-0.342344091796875,3.0169103027343747,0.8656558593750002,3.1572626306348535
866,1788017100.9757206,-1.2428714355468753,3.2228819824218746,1.2728091796875003,3.681268923321776
867,1788017100.9957206,-1.3434622558593752,3.591714990234375,0.48245273437500014,3.8649796952764177
868,1788017101.005847,-2.3589505371093753,2.7007677246093746,0.34833164062500016,3.6027945917968753
869,1788017101.025847,-2.1721390136718752,1.8194005371093747,1.9434146484375003,3.435879320481259
870,1788017101.0658782,-3.5037698730468754,3.6060851074218747,-0.2983236328124999,5.036789663578895
871,1788017101.0858781,-4.183955419921875,4.429971826171875,0.00823886718750013,6.093455605442838
872,1788017101.095649,-3.5277200683593755,4.271900537109375,0.8273355468750002,5.6016450429122875
873,1788017101.115649,-2.5888724121093754,5.033516748046875,0.09924960937500013,5.661130779624376
874,1788017101.125917,-0.8836185058593751,4.659893701171875,1.268019140625,4.909507461152272
875,1788017101.145917,-1.3243020996093753,5.402349755859375,-0.5426156249999999,5.588702054337643
876,1788017101.187384,-1.3482522949218751,4.540142724609375,0.7794351562500001,4.799812431062697
877,1788017101.2073839,1.0371871582031251,5.483780419921875,0.19026035156250015,5.584246045478002
878,1788017101.2159429,3.944740869140625,5.167637841796875,-0.3031136718749999,6.508251630562309
879,1788017101.2359428,3.264555322265625,2.2552940917968747,2.1398062500000004,4.508042111622935
880,1788017101.2468438,0.716254541015625,2.3942052246093746,-0.2312630859374999,2.509725451118043
881,1788017101.2668438,0.41448208007812504,0.5596202636718747,0.5974136718750002,0.9175365548909963
882,1788017101.3059506,1.1186178222656251,-0.14451547851562535,1.4596207031250001,1.844636319931929
883,1788017101.3259506,0.328261376953125,0.6171007324218747,-0.4707650390624999,0.8427268641489322
884,1788017101.3360977,0.879115869140625,-0.9205018066406254,0.8991861328125001,1.5584299755991062
885,1788017101.3560977,3.523217431640625,-0.6762098144531253,0.6548941406250002,3.646807798500498
886,1788017101.3968768,4.016591455078125,-0.22594614257812537,0.5351431640625002,4.058378590323403
887,1788017101.4168768,4.979389306640625,-0.4558680175781254,1.6416421875000002,5.262805581466734
888,1788017101.4259212,3.317245751953125,-0.21636606445312537,1.1434781250000001,3.515462398469297
889,1788017101.4459212,1.185678369140625,-1.4521961425781253,1.7901333984375003,2.5921582543834303
890,1788017101.4559329,-0.601006201171875,-1.6342176269531254,1.4596207031250001,2.2720845721676985
891,1788017101.4759328,-1.3147220214843751,-0.4798182128906254,0.6453140625000001,1.5411520854405543
892,1788017101.516117,-1.2524515136718752,0.4350792480468747,0.6980044921875002,1.4983787963308663
893,1788017101.536117,-1.4105228027343752,1.9391515136718747,-0.2839535156249999,2.4146454748151656
894,1788017101.5458426,-1.6500247558593752,1.8481407714843747,0.8656558593750002,2.62441728256806
895,1788017101.5658426,-2.0092776855468752,2.4181554199218747,0.7027945312500001,3.221582313970738
896,1788017101.5759976,-2.8379544433593753,2.988170068359375,0.7123746093750002,4.182179260159024
897,1788017101.5959976,-1.9278470214843753,3.6060851074218747,0.9135562500000002,4.1898721892356185
898,1788017101.635904,-1.4584231933593752,4.041978662109375,0.9375064453125002,4.398125515589401
899,1788017101.655904,-0.217803076171875,3.9653380371093747,1.6512222656250002,4.300916053474204
900,1788017101.6662307,0.553393212890625,4.018028466796875,1.8907242187500002,4.475001103846931
901,1788017101.6862307,-0.016621435546874997,3.8216368652343746,1.3877701171875,4.065844377247691
902,1788017101.695978,-0.203432958984375,3.515074365234375,1.1291080078125002,3.6975691548955907
903,1788017101.715978,-0.533945654296875,3.395323388671875,0.8752359375000002,3.546738899566232
904,1788017101.7559597,0.007328759765625006,2.9306895996093747,1.2057486328125002,3.169041654113665
905,1788017101.7759597,0.22767055664062502,2.542696435546875,1.2201187500000001,2.829457334862181
906,1788017101.7861655,0.45280239257812505,2.466055810546875,0.7794351562500001,2.6256390517843347
907,1788017101.8061655,0.534233056640625,1.9104112792968748,1.0141470703125002,2.2279072007369907
908,1788017101.8158758,0.44322231445312504,1.7188097167968748,0.6069937500000001,1.8759515652392522
909,1788017101.8358757,0.9461764160156251,1.3068663574218746,0.6596841796875001,1.7430813817246922
910,1788017101.875733,1.3245895019531249,0.9715636230468747,0.8225455078125001,1.837132095069628
911,1788017101.8957329,1.468290673828125,0.9715636230468747,0.8081753906250002,1.9372560074730678
912,1788017101.9058957,1.219208642578125,0.7895421386718747,0.9327164062500002,1.7262115737544073
913,1788017101.9258957,1.3676998535156248,0.9524034667968747,0.6022037109375001,1.772096092862987
914,1788017101.936004,1.741322900390625,0.7416417480468747,1.0716275390625,2.1749996570914654
915,1788017101.956004,1.5640914550781249,0.8613927246093747,0.8896060546875002,1.9949382041544614
916,1788017101.9958646,1.511401025390625,0.8039122558593746,1.1003677734375001,2.035047225862963
917,1788017102.0158646,1.4060201660156249,1.0434142089843748,0.9231363281250001,1.9793399402470515
918,1788017102.026571,1.214418603515625,1.3930870605468748,0.6692642578125002,1.965558126744994
919,1788017102.046571,1.262318994140625,1.4601476074218747,0.9710367187500002,2.1606463356108954
920,1788017102.0592625,0.6444039550781251,1.8960411621093747,0.5064029296875001,2.06559252344926
921,1788017102.0792625,0.49112270507812505,1.8146104980468747,0.9279263671875002,2.0964398665325397
922,1788017102.1159332,0.184560205078125,2.164283349609375,0.6357339843750002,2.2632592837728884
923,1788017102.1359332,0.151029931640625,2.149913232421875,0.5782535156250002,2.231437670096729
924,1788017102.145666,0.37616176757812503,2.011002099609375,0.7506949218750002,2.179259045122843
925,1788017102.1656659,0.5486031738281251,2.2792442871093748,0.6261539062500001,2.426517808912011
926,1788017102.1762953,0.7689449707031251,2.389415185546875,0.6548941406250002,2.594121745854769
927,1788017102.1962953,0.7258346191406251,2.293614404296875,0.6692642578125002,2.4970818121812592
928,1788017102.2366219,1.061137353515625,2.2313438964843746,0.5447232421875001,2.5301445567365275
929,1788017102.2566218,0.898276025390625,1.9774718261718747,0.6261539062500001,2.260390089211869
930,1788017102.2662659,0.9892867675781251,1.8816710449218748,0.5878335937500001,2.2056569460692645
931,1788017102.2862659,0.9653365722656251,1.7810802246093747,0.5926236328125002,2.110763898311702
932,1788017102.2960372,1.008446923828125,1.4745177246093748,0.8033853515625001,1.9587229874259449
933,1788017102.3160372,0.716254541015625,1.3116563964843748,0.8848160156250002,1.7367678173752472
934,1788017102.3569517,0.47196254882812505,1.2445958496093747,0.9566666015625002,1.6392005560352783
935,1788017102.3769517,0.400111962890625,1.1871153808593746,1.1386880859375001,1.6929096453671397
936,1788017102.3866646,0.48154262695312505,1.2972862792968747,1.2392789062500003,1.8575917741799575
937,1788017102.4066646,0.582133447265625,1.3787169433593747,1.3638199218750002,2.0247825907081256
938,1788017102.4156325,0.716254541015625,1.6517491699218747,1.1674283203125002,2.145736416927944
939,1788017102.4356325,0.8455855957031251,1.8529308105468747,1.0285171875,2.281713214520488
940,1788017102.476362,0.792895166015625,1.9966319824218748,0.7985953125000002,2.2919372789559107
941,1788017102.496362,0.821635400390625,2.030162255859375,0.6309439453125002,2.2791958622324655
942,1788017102.5061786,0.677934228515625,1.8864610839843747,0.6548941406250002,2.1088424727811073
943,1788017102.5261786,0.759364892578125,1.8289806152343748,0.5830435546875001,2.0643994084590163
944,1788017102.5367496,0.792895166015625,1.5846886230468746,0.7746451171875002,1.9339068834583482
945,1788017102.5567496,0.8072652832031251,1.5080479980468748,0.7027945312500001,1.8492717904713512
946,1788017102.5957675,0.735414697265625,1.3787169433593747,0.6596841796875001,1.6961363163939618
947,1788017102.6157675,0.7641549316406251,1.2781261230468748,0.7459048828125001,1.6655069018677326
948,1788017102.6259391,0.7449947753906251,1.3739269042968747,0.7411148437500001,1.7297235517089742
949,1788017102.645939,0.697094384765625,1.4218272949218747,0.8560757812500002,1.8001108802236097
950,1788017102.6556275,0.634823876953125,1.4745177246093748,0.8991861328125001,1.840037927973036
951,1788017102.6756275,0.8264254394531251,1.5846886230468746,0.8560757812500002,1.981686852717222
952,1788017102.7157178,0.7881051269531251,1.6709093261718748,0.7985953125000002,2.0126604633084346
953,1788017102.7357178,0.7258346191406251,1.7475499511718748,0.7602750000000001,2.0393098837128307
954,1788017102.7463934,0.692304345703125,1.7810802246093747,0.8321255859375002,2.084218094237223
955,1788017102.7663934,0.754574853515625,1.8816710449218748,0.9901968750000002,2.256226713367979
956,1788017102.8064327,0.519862939453125,1.9343614746093747,0.9901968750000002,2.234390664483175
957,1788017102.8264327,0.730624658203125,2.0589024902343747,1.0141470703125002,2.4086066793254495
958,1788017102.835953,0.615663720703125,2.140333154296875,1.0428873046875002,2.4592034805299834
959,1788017102.855953,0.515072900390625,2.0014220214843745,1.1243179687500002,2.3526753060406653
960,1788017102.8669786,0.7449947753906251,2.0397423339843748,0.9662466796875002,2.3768042936713303
961,1788017102.8869786,1.271899072265625,2.0493224121093747,1.0907876953125002,2.647124363351503
962,1788017102.9270217,1.434760400390625,1.9726817871093747,1.3494498046875003,2.787655935565441
963,1788017102.9470217,1.568881494140625,1.8241905761718746,1.6895425781250002,2.940002470092239
964,1788017102.956041,1.008446923828125,1.3643468261718747,1.7613931640625002,2.4455905909758857
965,1788017102.976041,0.539023095703125,0.9811437011718747,1.2919693359375002,1.7094951374758016
966,1788017102.9861412,0.7258346191406251,0.8757628417968747,1.0093570312500002,1.5207228761181202
967,1788017103.0061412,0.615663720703125,0.9859337402343747,0.9854068359375002,1.5238549108871602
968,1788017103.0461454,0.318681298828125,1.0769444824218748,1.2536490234375002,1.6831527151175256
969,1788017103.0661454,0.174980126953125,1.2302257324218746,1.2919693359375002,1.7925563206059258
970,1788017103.075681,0.29473110351562504,1.3739269042968747,1.2632291015625001,1.889520924669725
971,1788017103.095681,0.515072900390625,1.8002403808593748,1.2249087890625001,2.237535935603287
972,1788017103.106353,0.49112270507812505,2.0780626464843746,1.5027310546875001,2.6110814803217277
973,1788017103.126353,0.38574184570312503,2.5618565917968747,1.2775992187500003,2.8886269631453216
974,1788017103.1661768,0.428852197265625,2.935479638671875,1.0716275390625,3.1542575193908733
975,1788017103.1861768,0.6683541503906251,2.992960107421875,1.3398697265625001,3.346604003930224
976,1788017103.195785,0.539023095703125,3.184561669921875,1.3877701171875,3.515378333180596
977,1788017103.215785,0.6875143066406251,3.2037218261718747,1.6751724609375003,3.6800424230175652
978,1788017103.2262564,0.879115869140625,3.3665831542968747,1.7087027343750003,3.876389025966173
979,1788017103.2462564,0.778525048828125,3.491124169921875,1.4596207031250001,3.863229454544042
980,1788017103.2858026,0.6875143066406251,3.251622216796875,1.50752109375,3.649430477581914
981,1788017103.3058026,0.6444039550781251,3.1175011230468748,1.3925601562500003,3.474664515934435
982,1788017103.3155854,0.692304345703125,3.1031310058593746,1.3686099609375002,3.4614737571997556
983,1788017103.3355854,0.711464501953125,3.304312646484375,1.3159195312500003,3.6271625295788996
984,1788017103.3460388,0.8839059082031251,3.6060851074218747,1.1578482421875003,3.8891839771940475
985,1788017103.3660388,1.089877587890625,3.5198644042968747,1.3734000000000002,3.932366481041979
986,1788017103.4195993,1.056347314453125,3.5390245605468746,1.3973501953125003,3.9488165388184613
987,1788017103.4395993,0.9461764160156251,3.6396153808593747,1.4213003906250001,4.020217000511675
988,1788017103.4356084,0.8264254394531251,3.864747216796875,1.2967593750000002,4.159427236214726
989,1788017103.4556084,0.773735009765625,4.061138818359375,1.1817984375000001,4.299786263781007
990,1788017103.4658558,0.697094384765625,4.209630029296875,1.0285171875,4.389165429761412
991,1788017103.4858558,0.539023095703125,3.936597802734375,1.1482681640625,4.135924072658244
992,1788017103.526105,0.778525048828125,4.085089013671875,1.0333072265625003,4.28506444826
993,1788017103.546105,0.620453759765625,4.003658349609375,1.2344888671875003,4.235351911189204
994,1788017103.5582705,0.615663720703125,3.893487451171875,1.1770083984375002,4.113834600395997
995,1788017103.5782704,0.347421533203125,3.754576318359375,1.1099478515625,3.9305889234701787
996,1788017103.5868416,0.22288051757812502,3.869537255859375,0.9614566406250001,3.9934187322896038
997,1788017103.6068416,0.730624658203125,4.027608544921875,0.9087662109375002,4.193005963320805
998,1788017103.6468396,1.300639306640625,4.008448388671875,0.8704458984375002,4.303138058757983
999,1788017103.6668396,1.568881494140625,4.037188623046875,0.5926236328125002,4.37166831894689
1000,1788017103.6765382,1.338959619140625,4.171309716796875,0.40102207031250015,4.399256336701802
1001,1788017103.6965382,1.549721337890625,4.137779443359375,0.35791171875000016,4.4329398535756726
1002,1788017103.7057343,1.554511376953125,3.917437646484375,0.4345523437500001,4.236939824286906
1003,1788017103.7257342,1.161728173828125,3.807266748046875,0.6357339843750002,4.03101105673735
1004,1788017103.7660546,0.8886959472656251,3.783316552734375,0.9231363281250001,3.994426780551168
1005,1788017103.7860546,0.8839059082031251,3.764156396484375,1.0333072265625003,4.002235232494076
1006,1788017103.7961822,0.831215478515625,3.591714990234375,0.9758267578125002,3.8136037555127738
1007,1788017103.8161821,0.917436181640625,3.505494287109375,0.9806167968750001,3.7539031216392864
1008,1788017103.825911,1.137777978515625,3.620455224609375,0.9758267578125002,3.918478355568559
1009,1788017103.845911,1.468290673828125,3.807266748046875,0.6548941406250002,4.132800978641366
1010,1788017103.885956,1.894604150390625,3.524654443359375,0.6501041015625002,4.054053425232424
1011,1788017103.905956,1.837123681640625,3.318682763671875,0.6022037109375001,3.8407457631304487
1012,1788017103.9161344,1.928134423828125,3.232462060546875,0.6548941406250002,3.8203926060878772
1013,1788017103.9361343,1.908974267578125,3.0408604980468747,0.5974136718750002,3.6397690061596624
1014,1788017103.9458902,1.664682275390625,2.542696435546875,0.6788443359375002,3.1140491122936576
1015,1788017103.9658902,1.209628564453125,2.269664208984375,0.7075845703125002,2.667443122098374
1016,1788017104.0058866,1.1569381347656251,2.4612657714843746,0.2956412109375001,2.7356422959078786
1017,1788017104.0258865,1.4874508300781248,2.250504052734375,0.17110019531250015,2.7030637691534256
1018,1788017104.03586,1.420390283203125,2.2026036621093747,-0.08277187499999987,2.62217898554742
1019,1788017104.05586,0.836005517578125,2.2744542480468746,-0.2408431640624999,2.4351699697465015
1020,1788017104.0671227,0.146239892578125,2.1978136230468746,-0.2743734374999999,2.219696288017182
1021,1788017104.0871227,0.419272119140625,2.2026036621093747,-0.37496425781249987,2.273290609856817
1022,1788017104.1261325,-0.241753271484375,1.0146739746093747,1.2440689453125002,1.6234886694134765
1023,1788017104.1461325,0.06480922851562501,1.1008946777343747,1.9050943359375003,2.2012618554787635
1024,1788017104.1564872,-0.198642919921875,1.3835069824218746,1.8284537109375003,2.301476385515673
1025,1788017104.1764872,-0.102842138671875,1.0242540527343746,2.2164468750000004,2.4438309310847717
1026,1788017104.2157788,0.026488916015625006,1.2014854980468748,1.5697916015625002,1.9769963927697969
1027,1788017104.2357788,0.21330043945312502,1.1248448730468747,1.9146744140625003,2.230863325655858
1028,1788017104.2460854,0.32347133789062504,1.6852794433593747,1.54584140625,2.3096376689696183
1029,1788017104.2660854,0.677934228515625,1.8864610839843747,1.6320621093750003,2.584948155851129
1030,1788017104.275571,0.931806298828125,2.1115929199218746,1.4308804687500003,2.7156042704801777
1031,1788017104.295571,0.850375634765625,2.2792442871093748,1.0620474609375001,2.6544374262369708
1032,1788017104.3358898,0.48154262695312505,2.183443505859375,1.0716275390625,2.4794544616365806
1033,1788017104.3558898,0.31389125976562504,2.355884912109375,0.9470865234375002,2.55845545689949
1034,1788017104.3657677,0.32347133789062504,2.480425927734375,1.1291080078125002,2.7444546603505766
1035,1788017104.3857677,0.184560205078125,2.6911876464843747,1.0812076171875002,2.9061251400022092
1036,1788017104.395951,-0.093262060546875,2.6384972167968748,1.1338980468750002,2.8733412877152693
1037,1788017104.415951,-0.16990268554687502,2.705557763671875,1.0524673828125002,2.9080229240852606
1038,1788017104.4579277,-0.117212255859375,2.959429833984375,1.0285171875,3.135252981847452
1039,1788017104.4779277,0.23246059570312502,3.2037218261718747,1.1338980468750002,3.406405179768203
1040,1788017104.4912555,0.438432275390625,3.2037218261718747,1.2249087890625001,3.457811148850789
1041,1788017104.5112555,0.37616176757812503,3.036070458984375,1.2536490234375002,3.3061847167499416
1042,1788017104.515771,0.318681298828125,2.969009912109375,1.2249087890625001,3.2275345342767534
1043,1788017104.535771,0.347421533203125,2.916319482421875,1.2440689453125002,3.189565579507272
1044,1788017104.5766222,0.6300338378906251,2.9737999511718747,1.1195279296875003,3.239409139307262
1045,1788017104.5966222,0.730624658203125,2.8875792480468747,1.1243179687500002,3.183711230589155
1046,1788017104.606123,0.716254541015625,2.858839013671875,1.1434781250000001,3.161253437478779
1047,1788017104.626123,0.663564111328125,2.7534581542968746,1.2105386718750002,3.080138473090378
1048,1788017104.6357753,0.582133447265625,2.7007677246093746,1.0812076171875002,2.966822469272695
1049,1788017104.6557753,0.6875143066406251,2.6049669433593747,1.1434781250000001,2.9267850826776023
1050,1788017104.6979897,0.543813134765625,2.600176904296875,1.0524673828125002,2.857330966315714
1051,1788017104.7179897,0.658774072265625,2.475635888671875,1.1003677734375001,2.788111469864399
1052,1788017104.7259858,0.658774072265625,2.432525537109375,0.9854068359375002,2.7059546188528443
1053,1788017104.7459857,0.773735009765625,2.4373155761718746,1.0428873046875002,2.76166381253501
1054,1788017104.7557473,0.9222262207031251,2.6049669433593747,1.0237271484375001,2.946925729059935
1055,1788017104.7757473,0.9030660644531251,2.576226708984375,1.0333072265625003,2.9189375117185374
1056,1788017104.8156533,0.8264254394531251,2.480425927734375,0.9327164062500002,2.7758695366389503
1057,1788017104.8356533,0.8886959472656251,2.5139562011718746,0.9279263671875002,2.823261165924729
1058,1788017104.8475251,0.855165673828125,2.662447412109375,1.1147378906250003,3.0104111208831417
1059,1788017104.867525,0.6252437988281251,2.8013585449218747,1.268019140625,3.1378993046576866
1060,1788017104.8759496,0.22288051757812502,2.6576573730468747,1.4835708984375002,3.051852068550663
1061,1788017104.8959496,-0.112422216796875,2.533116357421875,1.4021402343750002,2.897466906095904
1062,1788017104.966181,0.016908837890625007,2.533116357421875,1.3542398437500003,2.872443201081112
1063,1788017104.986181,0.289941064453125,2.7582481933593748,1.0955777343750002,2.9819942134559425
1064,1788017104.966181,0.558183251953125,2.9977501464843748,0.9901968750000002,3.2060200147172853
1065,1788017104.986181,0.998866845703125,3.198931787109375,1.0285171875,3.5055309382469586
1066,1788017104.9959936,1.257528955078125,3.309102685546875,0.9997769531250001,3.6784634852548597
1067,1788017105.0159936,1.252738916015625,3.270782373046875,0.8991861328125001,3.616062475259028
1068,1788017105.0556595,1.0707174316406252,3.242042138671875,0.8321255859375002,3.5142148537212448
1069,1788017105.0756595,0.912646142578125,3.1606114746093747,1.0141470703125002,3.4425110247054556
1070,1788017105.0857413,0.663564111328125,2.992960107421875,1.0716275390625,3.2475395481715994
1071,1788017105.1057413,0.371371728515625,2.7007677246093746,1.0955777343750002,2.938086764391181
1072,1788017105.117461,0.155819970703125,2.5474864746093746,1.1338980468750002,2.792792864194293
1073,1788017105.137461,0.05522915039062501,2.499586083984375,1.2249087890625001,2.784130455245187
1074,1788017105.1756306,0.103129541015625,2.490006005859375,1.3925601562500003,2.854818628253094
1075,1788017105.1956306,0.32347133789062504,2.6480772949218747,1.2536490234375002,2.947640232505199
1076,1788017105.2058125,0.5869234863281251,2.695977685546875,1.1386880859375001,2.9848593629895284
1077,1788017105.2258124,0.639613916015625,2.662447412109375,1.0955777343750002,2.949241047433561
1078,1788017105.235896,0.692304345703125,2.782198388671875,1.0476773437500002,3.0524647414204256
1079,1788017105.255896,0.682724267578125,2.7678282714843747,1.2009585937500002,3.0934264675065815
1080,1788017105.2965798,0.711464501953125,2.839678857421875,1.1051578125000001,3.1291103434295824
1081,1788017105.3165798,0.6060836425781251,2.719927880859375,1.1530582031250003,3.0157732472238017
1082,1788017105.3271825,0.519862939453125,2.7247179199218747,1.1195279296875003,2.991268627908669
1083,1788017105.3471825,0.428852197265625,2.705557763671875,1.1147378906250003,2.957464722437072
1084,1788017105.3568535,0.28515102539062503,2.552276513671875,1.2153287109375002,2.841205797747039
1085,1788017105.3768535,0.289941064453125,2.6241270996093746,1.2009585937500002,2.9004155563750684
1086,1788017105.4156146,0.361791650390625,2.6480772949218747,1.2249087890625001,2.9400013774989437
1087,1788017105.4356146,0.40490200195312503,2.6480772949218747,1.1291080078125002,2.9070851181850035
1088,1788017105.4461942,0.467172509765625,2.6337071777343746,1.0572574218750002,2.876187912505031
1089,1788017105.4661942,0.45280239257812505,2.619337060546875,1.0476773437500002,2.8571987085405652
1090,1788017105.4757195,0.438432275390625,2.6145470214843747,1.1003677734375001,2.8703463596710446
1091,1788017105.4957194,0.380951806640625,2.5714366699218747,1.2392789062500003,2.8797956583545736
1092,1788017105.5385315,0.5054928222656251,2.6816075683593747,1.1386880859375001,2.956882260270157
1093,1788017105.5585315,0.428852197265625,2.6049669433593747,1.1578482421875003,2.8827728899501124
1094,1788017105.5662196,0.357001611328125,2.6480772949218747,1.1003677734375001,2.8897357573299733
1095,1788017105.5862195,0.37616176757812503,2.715137841796875,1.1674283203125002,2.979322080341861
1096,1788017105.6270778,0.515072900390625,2.676817529296875,1.2967593750000002,3.0186482164237405
1097,1788017105.6470778,0.553393212890625,2.7007677246093746,1.1770083984375002,2.9976222444393352
1098,1788017105.6567478,0.380951806640625,2.628917138671875,1.1722183593750002,2.9035194993389126
1099,1788017105.6767478,-0.088472021484375,2.557066552734375,1.1099478515625,2.7889784665512574
1100,1788017105.686507,-0.059731787109375,2.5187462402343748,1.1961685546875003,2.788990806781059
1101,1788017105.706507,0.37616176757812503,2.628917138671875,1.2488589843750002,2.9346808617368216
1102,1788017105.745862,0.836005517578125,2.8300987792968746,1.1578482421875003,3.1700121258341287
1103,1788017105.765862,1.1138277832031251,2.8636290527343746,1.1434781250000001,3.2784944570111865
1104,1788017105.775573,1.252738916015625,2.916319482421875,0.9997769531250001,3.3277361781327115
1105,1788017105.795573,0.8647457519531251,2.7774083496093747,1.0380972656250003,3.088596491757858
1106,1788017105.805747,0.49591274414062503,2.6049669433593747,1.1434781250000001,2.8877888510328598
1107,1788017105.825747,0.45280239257812505,2.585806787109375,1.2105386718750002,2.8908183310423143
1108,1788017105.8676357,0.476752587890625,2.4612657714843746,1.4596207031250001,2.9009679117377534
1109,1788017105.8876357,0.49591274414062503,2.6816075683593747,1.0812076171875002,2.9335914016692297
1110,1788017105.8961112,0.409692041015625,2.557066552734375,1.2201187500000001,2.8627131689510863
1111,1788017105.9161112,0.289941064453125,2.672027490234375,1.1626382812500002,2.928399648690796
1112,1788017105.9266975,0.21330043945312502,2.705557763671875,1.0716275390625,2.917863168915431
1113,1788017105.9466975,0.47196254882812505,2.5905968261718746,1.4835708984375002,3.022403542540073
1114,1788017105.9854844,0.697094384765625,2.806148583984375,1.3686099609375002,3.198984789249024
1115,1788017106.0054843,0.620453759765625,2.6911876464843747,1.5697916015625002,3.1767435352784723
1116,1788017106.0161076,0.428852197265625,2.6672374511718746,1.4835708984375002,3.0820532829144995
1117,1788017106.0361075,0.318681298828125,2.475635888671875,1.4596207031250001,2.8915088484205067
1118,1788017106.0459988,0.141449853515625,2.293614404296875,1.2488589843750002,2.615401280781184
1119,1788017106.0659988,-0.112422216796875,2.0014220214843745,1.1386880859375001,2.305415238079277
1120,1788017106.1055613,-0.16990268554687502,1.9726817871093747,0.7890152343750002,2.131404559398547
1121,1788017106.1255612,-0.260913427734375,1.9295714355468747,0.6596841796875001,2.055846530891958
1122,1788017106.1355665,0.32347133789062504,2.1786534667968747,0.5495132812500002,2.2700505459334894
1123,1788017106.1555665,0.879115869140625,2.4277354980468746,0.46329257812500013,2.623239290037699
1124,1788017106.165778,1.391650048828125,2.475635888671875,0.36749179687500017,2.8636538080665273
1125,1788017106.185778,1.592831689453125,2.226553857421875,0.3243814453125001,2.756787658306195
1126,1788017106.226579,1.6790523925781249,1.8577208496093747,0.4249722656250002,2.5398710830760973
1127,1788017106.246579,1.204838525390625,1.6230089355468746,0.28127109375000015,2.0408104530577496
1128,1788017106.2557392,0.797685205078125,1.4170372558593747,0.16152011718750015,1.6341312735365727
1129,1788017106.2757392,0.7641549316406251,1.0098839355468747,0.36270175781250014,1.317327175741323
1130,1788017106.2870052,0.831215478515625,1.0769444824218748,0.21900058593750013,1.3779295506606453
1131,1788017106.3070052,1.0323971191406252,1.2062755371093747,-0.0013412109374998694,1.5877488094422088
1132,1788017106.3454547,1.453920556640625,1.1871153808593746,0.06571933593750014,1.8781498725104844
1133,1788017106.3654547,1.703002587890625,1.0961046386718747,0.18547031250000015,2.0337311597403955
1134,1788017106.3772287,1.616781884765625,1.1631651855468748,0.15673007812500014,1.9978741775105986
1135,1788017106.3972287,1.391650048828125,1.3835069824218746,0.02260898437500013,1.962471043095381
1136,1788017106.4067523,1.334169580078125,1.4074571777343747,0.12319980468750014,1.9432247341563171
1137,1788017106.4267523,0.9222262207031251,1.6038487792968747,-0.14025234374999987,1.8553982938797298
1138,1788017106.4660218,1.104247705078125,1.6804894042968748,0.003448828125000131,2.0108255833213895
1139,1788017106.4860218,1.669472314453125,1.8002403808593748,0.21900058593750013,2.4649471585093155
1140,1788017106.4955454,1.3676998535156248,2.207393701171875,0.056139257812500135,2.5973720290993487
1141,1788017106.5155454,0.893485986328125,2.3175645996093746,0.13277988281250014,2.487378816828471
1142,1788017106.5260658,0.7641549316406251,2.3510948730468746,0.36749179687500017,2.499325925602422
1143,1788017106.5460658,1.506610986328125,2.3510948730468746,0.6644742187500001,2.8703744970953404
1144,1788017106.5856576,1.4443404785156249,1.9678917480468747,1.0045669921875002,2.639672743296481
1145,1788017106.6056576,0.855165673828125,1.7762901855468747,0.8704458984375002,2.155038564636542
1146,1788017106.6381202,0.409692041015625,1.4074571777343747,1.1626382812500002,1.8709652718999128
1147,1788017106.6581202,0.419272119140625,1.3835069824218746,1.0380972656250003,1.7797546497191274
1148,1788017106.6465983,0.160610009765625,1.6038487792968747,0.8177554687500002,1.8074430803650559
1149,1788017106.6665983,0.06001918945312501,1.8529308105468747,0.6548941406250002,1.96617426165675
1150,1788017106.706667,-0.323183935546875,2.097222802734375,0.6405240234375001,2.2165428859160734
1151,1788017106.726667,-0.773447607421875,2.207393701171875,0.8512857421875002,2.4890752435897983
1152,1788017106.7371671,-1.0321097167968751,2.4373155761718746,1.2536490234375002,2.928718757293428
1153,1788017106.757167,-0.835718115234375,3.021700341796875,1.9865250000000003,3.711519809912275
1154,1788017106.765839,-0.854878271484375,4.343751123046875,1.8428238281250002,4.795309201660762
1155,1788017106.785839,-0.6824368652343751,5.258648583984375,1.7661832031250002,5.589141983513451
1156,1788017106.8257833,-0.720757177734375,6.125645654296875,1.2919693359375002,6.30176248015304
1157,1788017106.8457832,-0.553105810546875,6.120855615234375,2.0104751953125004,6.466282549593216
1158,1788017106.8557603,-0.538735693359375,6.154385888671875,2.015265234375,6.4983071471625165
1159,1788017106.8757603,-0.811767919921875,5.843033349609375,1.5027310546875001,6.087545195165606
1160,1788017106.915694,-0.7638675292968751,4.980826318359375,1.3734000000000002,5.222868175243898
1161,1788017106.935694,-0.356714208984375,4.482662255859375,1.1291080078125002,4.636420043557736
1162,1788017106.945867,-0.189062841796875,3.7593663574218747,1.6176919921875001,4.097012026959561
1163,1788017106.965867,-0.17469272460937502,3.4528038574218747,0.9087662109375002,3.574664746798016
1164,1788017106.9754753,-0.639326513671875,1.9535216308593748,0.7123746093750002,2.175422427346351
1165,1788017106.9954753,-2.6224026855468754,-1.9647303222656254,3.1313443359375004,4.532381099885723
1166,1788017107.0359676,-3.5708304199218754,-3.5214930175781256,3.1313443359375004,5.912449603243887
1167,1788017107.0559676,-1.8559964355468752,-3.1143396972656254,1.8524039062500002,4.071269427416651
1168,1788017107.0659554,-0.131582373046875,-2.2138123535156256,0.9470865234375002,2.4114833485537424
1169,1788017107.0859554,0.7497848144531251,-0.6378895019531253,-0.2983236328124999,1.0286288322718553
1170,1788017107.095767,1.8035934082031249,-0.07745493164062535,0.051349218750000133,1.8059859331720867
1171,1788017107.115767,2.3783980957031248,-0.18283579101562536,0.7938052734375002,2.514027295050264
1172,1788017107.1556246,2.795131494140625,-0.015184423828125349,1.0764175781250003,2.99527385037834
1173,1788017107.1756246,2.890932275390625,0.4781895996093747,0.7650650390625001,3.028445018167821
1174,1788017107.1862853,2.522099267578125,1.0529942871093747,0.4249722656250002,2.765932593313427
1175,1788017107.2062852,1.789223291015625,1.4361974121093748,0.6740542968750002,2.3913034493342953
1176,1788017107.2181444,0.697094384765625,1.7667101074218747,0.7459048828125001,2.040485059769345
1177,1788017107.2381444,-0.17948276367187502,1.8337706542968748,0.9806167968750001,2.0872321809825247
1178,1788017107.2766347,-0.830928076171875,1.9966319824218748,1.0237271484375001,2.3926968080909403
1179,1788017107.2966347,-1.2955618652343752,2.030162255859375,1.1386880859375001,2.663953807561536
1180,1788017107.3055515,-1.6931351074218752,1.9056212402343748,1.1817984375000001,2.809759126703626
1181,1788017107.3255515,-1.4248929199218752,1.8625108886718746,1.1243179687500002,2.600645600330601
1182,1788017107.336175,-0.629746435546875,1.4505675292968747,1.4260904296875,2.129427304178453
1183,1788017107.356175,-0.308813818359375,0.9907237792968747,1.4117203125000002,1.7520998322010872
1184,1788017107.396066,0.11749965820312501,0.7751720214843747,1.2536490234375002,1.478625614053747
1185,1788017107.416066,0.467172509765625,0.6937413574218747,1.1482681640625,1.4205798117239745
1186,1788017107.425863,0.572553369140625,0.5931505371093747,1.3350796875000002,1.5691025116806483
1187,1788017107.445863,0.20851040039062502,0.6266808105468746,1.5218912109375002,1.6590232919725862
1188,1788017107.455677,-0.045361669921875,0.7272716308593747,1.6464322265625002,1.8004779317765902
1189,1788017107.475677,-0.083681982421875,0.7943321777343747,1.7805533203125001,1.951495941385008
1190,1788017107.5160985,-0.36150424804687503,0.9236632324218746,1.8619839843750001,2.1096974774485946
1191,1788017107.5360985,-0.366294287109375,1.3547667480468748,1.6703824218750003,2.1816832679588165
1192,1788017107.5457134,0.06480922851562501,1.9008312011718747,1.4787808593750003,2.4091808403486787
1193,1788017107.5657134,0.601293603515625,2.2984044433593747,1.4500406250000002,2.7833136361239124
1194,1788017107.5758426,1.137777978515625,2.6576573730468747,1.5362613281250002,3.273802118210248
1195,1788017107.5958426,1.161728173828125,2.945059716796875,1.6991226562500001,3.593049802931734
1196,1788017107.6361659,0.9605465332031251,3.491124169921875,1.4356705078125003,3.895092735643639
1197,1788017107.6561658,1.0707174316406252,3.903067529296875,1.1626382812500002,4.210949979481906
1198,1788017107.6658263,1.041977197265625,4.152149560546875,0.9518765625000002,4.385445409876624
1199,1788017107.6858263,0.9270162597656251,4.238370263671875,0.9566666015625002,4.442786583259767
1200,1788017107.6969392,0.816845361328125,4.2527403808593744,0.9758267578125002,4.439062395661731
1201,1788017107.7169392,0.740204736328125,4.156939599609375,1.1003677734375001,4.363354113901706
1202,1788017107.7569485,0.697094384765625,4.137779443359375,1.1530582031250003,4.351632167699039
1203,1788017107.7769485,0.840795556640625,4.109039208984375,1.2009585937500002,4.362733309857426
1204,1788017107.785551,0.8839059082031251,4.027608544921875,1.0524673828125002,4.2556559820512145
1205,1788017107.805551,1.0371871582031251,3.792896630859375,0.9135562500000002,4.036880859703434
1206,1788017107.8160753,0.994076806640625,3.534234521484375,1.0141470703125002,3.808870781554047
1207,1788017107.8360753,0.979706689453125,3.744996240234375,0.6884244140625002,3.9317617184420146
1208,1788017107.876959,1.1090377441406252,3.543814599609375,0.8225455078125001,3.8033101039430908
