imu_index,t_imu,ax,ay,az,mag,vx,vy,vz,velocity
0,1790598174.3324974,-0.0026298253676471177,0.009814883961397118,-0.04066837086397063,0.04191854383646296,0.0,0.0,0.0,0.0
1,1790598174.3524973,-0.0074198644301471176,0.009814883961397118,-0.026298253676470634,0.02903419504256066,-1.8427544466548796e-05,4.1958588920105906e-05,-0.00015230196441561413,0.00015904711862868833
2,1790598174.3775737,-0.0026298253676471177,0.00023480583639711757,-0.007138097426470631,0.007610752269973914,-5.6967400096645225e-05,0.00010557659781184069,-0.000377502133514029,0.000396105495401084
3,1790598174.3975737,0.006950252757352883,0.019394962086397117,-0.002348058363970631,0.020736054248686887,-7.66140083420096e-05,0.00017814964438262086,-0.0005444008299197461,0.0005779093922797865
4,1790598174.4076602,0.021320369944852882,0.02897504021139712,-0.007138097426470631,0.03667510824397459,-6.364963123523186e-05,0.00024585156199093334,-0.0006231228478825779,0.0006728865800735344
5,1790598174.4276602,0.011740291819852883,0.024185001148897118,-0.011928136488970632,0.029411378286081258,7.79164923097472e-06,0.00043969726824763506,-0.0007844013167326701,0.0008992662693519189
6,1790598174.4523706,-0.012209903492647119,-0.004555233226102883,-0.021508214613970632,0.025148264133426145,8.194851047571012e-05,0.0006796522917128568,-0.0010157419140154323,0.00122489772303138
7,1790598174.4723706,-0.01699994255514712,0.00023480583639711757,-0.007138097426470631,0.01843924118636379,8.915135401407747e-05,0.0008382531098122316,-0.0012178663418412365,0.0014811531543436607
8,1790598174.4978573,0.011740291819852883,-0.004555233226102883,0.002441980698529369,0.012827621427664842,8.689953552321485e-05,0.0010017888027203082,-0.0014457813560706312,0.0017610837754324388
9,1790598174.5178573,0.016530330882352885,0.005024844898897118,0.03118221507352937,0.03564872286954869,0.00012780343529943572,0.001111573770965996,-0.001547367552734438,0.0019095225344649028
10,1790598174.5275126,-0.0026298253676471177,0.009814883961397118,0.04555233226102937,0.04667186414810563,0.0001546542184732605,0.0011673698927263036,-0.0015334864733598124,0.0019334557553026424
11,1790598174.5475125,-0.01699994255514712,0.024185001148897118,0.050342371323529374,0.05838036209143079,0.0001724857898871391,0.0013166099475647617,-0.001365204127703689,0.0019044672252466477
12,1790598174.5722497,-0.021789981617647117,0.024185001148897118,0.04555233226102937,0.05598868237321514,0.0001192663059651915,0.0015632503739732666,-0.0010103721798197787,0.0018651616887604978
13,1790598174.5922496,-0.03616009880514712,0.014604923023897117,0.01202205882352937,0.04080914628472841,-4.2325275785133295e-06,0.0017909328384787331,-0.0006801610503486089,0.0019157446073635488
14,1790598174.6171935,-0.04095013786764712,0.009814883961397118,-0.011928136488970632,0.0437667245593557,-0.0002794121755505531,0.0020779864051781775,-0.00032992399089798045,0.002122486396592748
15,1790598174.6371934,-0.02658002068014712,0.009814883961397118,-0.021508214613970632,0.035572921477063965,-0.0005682506820017005,0.002303066833800318,-0.00014138117781602934,0.0023763447384559057
16,1790598174.647076,-0.04095013786764712,0.009814883961397118,0.002441980698529369,0.04218067102698802,-0.000739616419813357,0.002412150898579758,-7.632392513091009e-05,0.0025241493116541364
17,1790598174.6670759,-0.04095013786764712,0.02897504021139712,0.03118221507352937,0.0590660417119958,-0.0011572534072041391,0.00265798426926206,8.602507782019859e-05,0.0029002613913480502
18,1790598174.6928828,-0.031370059742647116,0.04334515739889712,0.02160213694852937,0.057702128547701195,-0.0017552923698107479,0.0030675899770014037,0.0003662536169682347,0.003553209996954531
19,1790598174.7128828,-0.04574017693014712,0.019394962086397117,0.01681209788602937,0.05244973760909941,-0.0022649085019191845,0.003431522840813331,0.0006084720535460419,0.0041563683389511975
20,1790598174.7374215,-0.02658002068014712,0.009814883961397118,0.00723201976102937,0.029242632514133508,-0.00292948477078798,0.003864825728033175,0.0009053321549517474,0.004933394900181358
21,1790598174.7574215,-0.04095013786764712,0.019394962086397117,0.002441980698529369,0.045376663776043276,-0.0034911857314718336,0.004208824467617635,0.0011255021829937042,0.005582950507999599
22,1790598174.767473,-0.06969037224264713,0.014604923023897117,0.002441980698529369,0.07124615799876279,-0.0038145456652778167,0.004381408046723452,0.0012232381589449848,0.005936649450479783
23,1790598174.787473,-0.04574017693014712,0.014604923023897117,-0.011928136488970632,0.049474720840391166,-0.00453458678386535,0.004717111675533878,0.0013743088289323627,0.006685981200777174
24,1790598174.8128543,-0.02658002068014712,0.02897504021139712,0.00723201976102937,0.03997940175181525,-0.00544896916780612,0.005162196464568243,0.0015283303549917973,0.007659982441526348
25,1790598174.8328543,-0.04095013786764712,0.019394962086397117,0.02639217601102937,0.052436869665429514,-0.006162702181221122,0.005532861670771233,0.0016819276164980147,0.008451055374889915
26,1790598174.8571854,-0.06011029411764712,0.02897504021139712,-0.011928136488970632,0.06778702570744372,-0.00708517212037967,0.006004423468094803,0.0018671527518239331,0.009473068381377634
27,1790598174.8771853,-0.06969037224264713,0.014604923023897117,0.00723201976102937,0.07157062155435427,-0.007924396964329465,0.006399270656202688,0.0019895242376914085,0.010378099000875468
28,1790598174.9029624,-0.07927045036764713,0.005024844898897118,0.06471248851102937,0.10245369459925634,-0.009131774529523757,0.006869786639953649,0.002262674676632992,0.011649161825162386
29,1790598174.9229624,-0.08406048943014713,0.04813519646139712,0.06471248851102937,0.11649407362996318,-0.010173035523028876,0.007259831649589034,0.0026369545161284633,0.012772992462743894
30,1790598174.9329593,-0.07448041130514713,0.05292523552389712,0.00723201976102937,0.09165541082373582,-0.010734302991751534,0.007501321158850225,0.002849915751042287,0.013402130414041601
31,1790598174.9529593,-0.08406048943014713,0.014604923023897117,-0.03108829273897063,0.09080722220833413,-0.011926564639529456,0.008013275747429173,0.0031762777203045724,0.014715443332149874
32,1790598174.9774458,-0.09843060661764712,-0.028505428538602884,-0.011928136488970632,0.10316697250276807,-0.01350246950701223,0.008520527997152354,0.003436916504323938,0.01633182400088081
33,1790598174.9974458,-0.09364056755514712,0.00023480583639711757,0.03597225413602937,0.10031258192997505,-0.014884660959594623,0.008830286166159643,0.003653933274230687,0.017688366629818618
34,1790598175.0227084,-0.06011029411764712,0.05771527458639712,0.05992244944852937,0.1026401496852222,-0.016659977323811043,0.009272659220409804,0.004068626950702891,0.019495916975401158
35,1790598175.0427084,-0.04095013786764712,0.07687543083639713,0.04555233226102937,0.09829425533610905,-0.018006233313393454,0.00977223164519376,0.004505899219110579,0.02097675087415751
36,1790598175.0525725,-0.07448041130514713,0.05771527458639712,0.03597225413602937,0.10085825527141637,-0.01865601285983896,0.010081235678745176,0.004749526832433647,0.021730994771728435
37,1790598175.0725725,-0.09843060661764712,0.019394962086397117,0.02639217601102937,0.10373666578432107,-0.02003522290168454,0.010729444986114244,0.005262946350893429,0.023328732299947617
38,1790598175.0979085,-0.07448041130514713,0.009814883961397118,0.00723201976102937,0.07547162198590605,-0.021848897566305776,0.011482929826502784,0.005879680104793766,0.02537326625403236
39,1790598175.1179085,-0.07448041130514713,0.005024844898897118,-0.002348058363970631,0.07468663945125976,-0.02328927917996753,0.012010763141332644,0.00630082245071453,0.026950868622645393
40,1790598175.1429358,-0.06969037224264713,0.02897504021139712,-0.021508214613970632,0.07847868649800034,-0.02509197092261307,0.012636017769277974,0.006703995491953589,0.02888285833159354
41,1790598175.1629357,-0.08406048943014713,0.014604923023897117,-0.021508214613970632,0.08798905020313867,-0.02654709028477168,0.013126097033927836,0.006913329535535721,0.030411125451038783
42,1790598175.1719909,-0.12238080193014712,0.014604923023897117,0.03118221507352937,0.12713258824743442,-0.02724728540101559,0.01333453839771964,0.0070004603822747076,0.031132473746370595
43,1790598175.1919909,-0.09364056755514712,0.03855511833639712,0.05992244944852937,0.11766797775901146,-0.02888585328084731,0.013805603170617228,0.0073006954340426025,0.03283728600977621
44,1790598175.2176628,-0.06969037224264713,0.06729535271139712,0.05992244944852937,0.11391274041028783,-0.030988104884533223,0.014523366940376453,0.007859018677010148,0.0351134590461442
45,1790598175.2376628,-0.06490033318014712,0.06729535271139712,0.002441980698529369,0.09352369225590615,-0.03258210279295471,0.015200556326274274,0.008322287158290179,0.03690407563649231
46,1790598175.2779918,-0.07448041130514713,0.03376507927389712,-0.04066837086397063,0.0913308744909732,-0.035735769768192295,0.01666692240625973,0.009000699233601299,0.040445569968975345
47,1790598175.2979918,-0.10801068474264712,0.019394962086397117,-0.050248448988970636,0.12069539841562092,-0.03733887991978376,0.01736478365146366,0.009150297010624123,0.04218359397098364
48,1790598175.2920206,-0.09364056755514712,0.009814883961397118,-0.026298253676470634,0.09775728098539649,-0.03733887991978376,0.01736478365146366,0.009150297010624123,0.04218359397098364
49,1790598175.3120205,-0.09364056755514712,0.024185001148897118,0.03118221507352937,0.1016159471220638,-0.03903515354055115,0.017957230698345383,0.009168110386809496,0.043934719691295684
50,1790598175.3376064,-0.09364056755514712,0.019394962086397117,0.07429256663602937,0.12109544130045406,-0.041239065359469314,0.018685085829742706,0.009389880636937985,0.04623810985067811
51,1790598175.3576064,-0.09843060661764712,0.019394962086397117,0.07908260569852937,0.12774508756707573,-0.04299151275651691,0.019226878052019118,0.009767293558758047,0.0480972247867164
52,1790598175.3821461,-0.08885052849264712,0.014604923023897117,0.04076229319852937,0.09883969211182081,-0.045163894688732394,0.01985451013733663,0.010381483996387211,0.05041581266047149
53,1790598175.402146,-0.07927045036764713,0.005024844898897118,0.01681209788602937,0.08118928502627062,-0.046921002380434715,0.020318749453908904,0.010893328437038389,0.0522790268481795
54,1790598175.4122038,-0.11280072380514712,0.02897504021139712,0.01202205882352937,0.117081536309418,-0.047816966211243914,0.020542836559176367,0.011133867808097908,0.053220610705933036
55,1790598175.4322038,-0.11280072380514712,0.04334515739889712,0.02160213694852937,0.12275772188193812,-0.04966976888071312,0.021030079470534386,0.01159087517677091,0.05516972512677522
56,1790598175.458009,-0.10322064568014712,0.03855511833639712,0.02160213694852937,0.11228379743000803,-0.0521198673278076,0.02172295942511309,0.012175703143947404,0.057763442448515015
57,1790598175.478009,-0.09843060661764712,0.05292523552389712,0.01202205882352937,0.11240193402577367,-0.05403642082990722,0.022316635580473115,0.012611412610057108,0.05980814934237288
58,1790598175.5029407,-0.09364056755514712,0.02897504021139712,0.02160213694852937,0.10037310978566505,-0.056426344204815494,0.02309883631963388,0.01313596208229026,0.062370201694951416
59,1790598175.5229406,-0.06969037224264713,0.019394962086397117,0.04076229319852937,0.0830329879292223,-0.05830094079965668,0.023704745028111453,0.013587179536286624,0.06438575993745925
60,1790598175.5330386,-0.07448041130514713,0.024185001148897118,0.02639217601102937,0.08263651071622759,-0.059214638792954605,0.023997784806225966,0.013831685424684962,0.06537264446749463
61,1790598175.5530386,-0.06490033318014712,0.02897504021139712,-0.007138097426470631,0.07143219608143075,-0.06096192332379072,0.024570858234230015,0.014272192992117728,0.06725904149262478
62,1790598175.5777986,-0.06969037224264713,0.014604923023897117,-0.01671817555147063,0.07314061220431828,-0.06305052819192812,0.025254832186433988,0.014691438581538869,0.06949110750046508
63,1790598175.5977986,-0.07927045036764713,0.014604923023897117,-0.011928136488970632,0.08148244300536821,-0.06470798527204304,0.02576825686558819,0.014936319152888053,0.07123355985555406
64,1790598175.6380804,-0.07448041130514713,0.014604923023897117,0.002441980698529369,0.07593812424895573,-0.06801001541355806,0.026735474919727605,0.015326890113341029,0.07466633362019472
65,1790598175.6580803,-0.06490033318014712,0.014604923023897117,0.03597225413602937,0.07562645100132061,-0.06961263123296506,0.02718748149589686,0.015549342786342383,0.0763338695360958
66,1790598175.6670938,-0.04095013786764712,0.04334515739889712,-0.002348058363970631,0.05967604074831946,-0.0702981016005744,0.027399806477084114,0.015657287998543764,0.07705662301902208
67,1790598175.6870937,-0.05532025505514712,0.019394962086397117,-0.002348058363970631,0.058668633457580416,-0.07173535620364292,0.027894377599919428,0.015853836695137725,0.07858372458280731
68,1790598175.6980639,-0.08885052849264712,0.02897504021139712,0.07429256663602937,0.11938741485618842,-0.07252406569779464,0.02816475851167056,0.016004666633029775,0.0794301144490751
69,1790598175.7180638,-0.07927045036764713,0.08645550896139712,0.12698299632352938,0.17286711858119605,-0.07399848095002427,0.028756903500668462,0.016540315283398294,0.0810944924858161
70,1790598175.7414935,-0.05532025505514712,0.05292523552389712,0.06950252757352937,0.1034021881477163,-0.07570315095410744,0.029591460951254672,0.017418961720218985,0.08312666150532248
71,1790598175.7614934,-0.07927045036764713,-0.018925350413602885,-0.021508214613970632,0.0842886498032083,-0.07714190482520454,0.03024799576457473,0.018128478074948336,0.08482014174209171
72,1790598175.7867649,-0.09843060661764712,-0.057245662913602884,-0.01671817555147063,0.11508756507679549,-0.07902398535035132,0.030808766714656058,0.018818071693952155,0.08687974556482865
73,1790598175.8067648,-0.04095013786764712,-0.018925350413602885,-0.01671817555147063,0.04811008286655465,-0.08049912457114453,0.031071738756879293,0.019231804180440643,0.08840488842892802
74,1790598175.8171196,-0.04574017693014712,-0.004555233226102883,0.01202205882352937,0.04751256500865592,-0.08121562459475468,0.03116923168260776,0.019410231546162282,0.08913055464135648
75,1790598175.8371196,-0.07448041130514713,0.009814883961397118,0.04076229319852937,0.08547062748197448,-0.08257227343811119,0.03133718073610323,0.01978234217705673,0.09050712844431405
76,1790598175.8768206,-0.06011029411764712,0.019394962086397117,0.02639217601102937,0.06845406465535833,-0.08526209194002357,0.03170753455169567,0.020610159407454573,0.09327256156092581
77,1790598175.8968205,-0.05532025505514712,0.03855511833639712,-0.01671817555147063,0.06947175802489748,-0.08658701937374366,0.031953045298775754,0.020979142191713113,0.09464900123611868
78,1790598175.9067168,-0.04095013786764712,0.024185001148897118,0.00723201976102937,0.0481054069910585,-0.08721572745636619,0.03210287223855547,0.021127292661744995,0.09530760734024953
79,1790598175.9267168,-0.01699994255514712,0.00023480583639711757,0.02639217601102937,0.03139426914671311,-0.08838265719888294,0.03239687700492182,0.021432224131831813,0.09654217712712077
80,1790598175.9374866,-0.02658002068014712,0.03376507927389712,-0.011928136488970632,0.044596620026960763,-0.08895198409624867,0.03255891152592196,0.021583480159858306,0.0971513500175015
81,1790598175.9574866,-0.06011029411764712,0.00023480583639711757,-0.021508214613970632,0.06384282174662605,-0.08998069058353683,0.03286567956082385,0.021772080300976,0.09823798171540932
82,1790598175.9817715,-0.031370059742647116,-0.004555233226102883,0.002441980698529369,0.03179298771322744,-0.09120904433828264,0.033174427828879485,0.02193200923184355,0.09950198721544215
83,1790598176.0017715,0.04048052619485289,0.08166546989889713,0.13177303538602939,0.1602250131211341,-0.09205525642864039,0.03350622443912969,0.02224528574087291,0.10045740415719069
84,1790598176.026918,0.07401079963235288,0.15830609489889713,0.20841366038602938,0.27198285236364095,-0.09274369672801021,0.03431340739435161,0.02322168013807867,0.10157780091251785
85,1790598176.046918,0.06922076056985288,0.10561566521139712,0.11740291819852937,0.17242281645259538,-0.09299426152666906,0.035254976161207145,0.024370484441109418,0.10239514897158049
86,1790598176.0573468,0.07880083869485288,0.10561566521139712,0.09824276194852938,0.1643650850768908,-0.09298954134307656,0.035837525024132864,0.025048338846701455,0.10275603280601227
87,1790598176.0773468,0.1267012293198529,0.21578656364889712,0.23715389476102938,0.34475935427902005,-0.0926735942429807,0.0372692310311524,0.026656392440893163,0.10338256095458724
88,1790598176.1018665,0.2895625574448529,0.3594877355238971,0.3425347541360294,0.5748112424588904,-0.09157885055313597,0.03981910964307105,0.02939815854863977,0.10409850665332088
89,1790598176.1218665,0.3087227136948529,0.3211674230238971,0.12219295726102937,0.46194084725982043,-0.0899224159004857,0.04260797302922864,0.031996170495220716,0.10452384978271051
90,1790598176.1469333,0.20813189338235288,0.20620648552389712,-0.15562930836397063,0.33175364555176806,-0.08718605221266404,0.04657053732562475,0.034701081582162,0.10475871185824427
91,1790598176.1669333,0.10754107306985289,0.21578656364889712,-0.007138097426470631,0.24120504945644225,-0.08485678018245775,0.04989088118436308,0.03629136303072189,0.10491347005467809
92,1790598176.1767604,0.04048052619485289,0.2828471105238971,0.12219295726102937,0.3107608079165157,-0.08377485391287934,0.05164514575731074,0.03704034948459694,0.10515433761076728
93,1790598176.1967604,0.11233111213235289,0.3020072667738971,-0.09814883961397064,0.3368380362350725,-0.08167401027308539,0.05555713225281927,0.03837208877964652,0.10597007169742967
94,1790598176.2365499,0.2512422449448529,0.33553754021139715,-0.32807071461397064,0.5322955009422546,-0.07703639441040337,0.06407507395758216,0.03935220241369391,0.1076513678558391
95,1790598176.2565498,0.10754107306985289,0.27805707146139713,-0.23226993336397064,0.37792874901442375,-0.07451680482868189,0.0686347440940355,0.03893044447058859,0.10853138626870659
96,1790598176.2665806,-0.02658002068014712,0.30679730583639714,-0.11730899586397063,0.32953373860417073,-0.07338177833830842,0.07101855343679934,0.03848765573132972,0.10913212161431442
97,1790598176.2865806,0.016530330882352885,0.44570843864889714,0.03597225413602937,0.4474631461802691,-0.07147322414248163,0.07618736127055664,0.037615217911496905,0.11103080836065785
98,1790598176.3116634,0.06922076056985288,0.5846195714613971,0.24194393382352938,0.636481283419694,-0.06927734902619011,0.08363568514250332,0.03720800001215377,0.11479858092440406
99,1790598176.3316634,0.006950252757352883,0.8528617589613972,0.30900448069852937,0.9071412541627061,-0.06767482967134411,0.09084003570177261,0.0377584283226901,0.11940474683505879
100,1790598176.3425004,-0.031370059742647116,0.9390824620863971,0.3760650275735294,1.0120695905966082,-0.06695659525475892,0.09561464648535384,0.03856875391649166,0.12293451528883043
101,1790598176.3625004,0.016530330882352885,1.0013529698988972,0.4862359260110294,1.1132863054525663,-0.06585216981715808,0.10601516683953738,0.041133351357746636,0.13140653128198235
102,1790598176.3868666,0.05485064338235288,1.183374454273897,0.4574956916360294,1.2699157452260488,-0.06457802294103564,0.12077805314189921,0.045513783172725066,0.14432312228611943
103,1790598176.4068666,0.05006060431985288,1.1642142980238972,0.23715389476102938,1.1891774323575393,-0.06353169818549959,0.13459933367732516,0.0496119348749071,0.15689041201662182
104,1790598176.4319718,0.1793916590073529,1.0300932042738973,0.02160213694852937,1.045820266170731,-0.06198326323664486,0.15347792145394887,0.054471764557721195,0.17425432685967807
105,1790598176.4519718,0.2464522058823529,1.0923637120863972,0.055132410386029375,1.121176503474107,-0.060295977055866826,0.16944521837643053,0.057877694499579135,0.1889368000161548
106,1790598176.4625614,0.2943525965073529,1.1642142980238972,-0.011928136488970632,1.2009082659528976,-0.05910708174142108,0.17842365400407575,0.05944487561981314,0.19713533589290436
107,1790598176.4825613,0.2943525965073529,1.145054141773897,-0.16999942555147063,1.1944422310651974,-0.05631543506297291,0.19630105960586944,0.06168785431667948,0.21333289853868037
108,1790598176.5067601,0.2464522058823529,0.9534525792738971,-0.16041934742647063,0.9977699523121848,-0.05246285873908763,0.21849565085139375,0.06339496329969717,0.2334772416314309
109,1790598176.52676,0.2943525965073529,0.8337016027113971,-0.18915958180147063,0.9041477538663026,-0.04894516211848822,0.23676839863281174,0.06406986398063864,0.2501196732695145
110,1790598176.5520592,0.4380537683823529,0.8241215245863972,-0.30891055836397063,0.9831038217550209,-0.043773203801893756,0.2595610729833823,0.06385047158419675,0.2708596069939022
111,1790598176.5720592,0.3901533777573529,0.7810111730238971,-0.39513126148897065,0.9582937046487893,-0.03905554123438493,0.27728455247721145,0.06264698678044732,0.28694372844909455
112,1790598176.5818427,0.3230928308823529,0.5941996495863971,-0.41429141773897066,0.7931579790611301,-0.03657058622010283,0.2856630437309046,0.061552654102374635,0.2944987462742979
113,1790598176.6018426,0.4236836511948529,0.47444867302389715,-0.47177188648897067,0.7919457636134566,-0.031132523311479445,0.3018246207470594,0.05832202971103702,0.3089802499294431
114,1790598176.6275802,0.4955342371323529,0.5079789464613972,-0.4909320427389707,0.8629084892421864,-0.02340974152267866,0.32139928820784364,0.05292990357855569,0.32656866529338413
115,1790598176.6475801,0.4236836511948529,0.5558793370863971,-0.40950137867647063,0.8100623758867859,-0.016929913863750982,0.33592440752575153,0.048017682272590984,0.3397609856440152
116,1790598176.6719365,0.3805732996323529,0.41217816521139716,-0.3616009880514707,0.6674444926957525,-0.008753184686952995,0.35272841122596904,0.04152421972542798,0.35527202416172016
117,1790598176.6919365,0.3566231043198529,0.2828471105238971,-0.35202090992647067,0.5754139792287868,-0.001940289017636647,0.36549961899085376,0.03592155342577792,0.36726569973855744
118,1790598176.7021298,0.2991426355698529,0.27805707146139713,-0.2610101677389706,0.48469408813032977,0.0015125116021000805,0.371461144108905,0.03302571628635441,0.37292943998867933
119,1790598176.7221298,0.3374629480698529,0.17746625114889714,-0.22268985523897064,0.4415498649566019,0.008225836708960132,0.3820867782013267,0.02747062666371112,0.3831613312889615
120,1790598176.7472117,0.4572139246323529,0.03376507927389712,-0.28496036305147066,0.5398027991466119,0.01687700997169262,0.3938108539867089,0.02059404743228285,0.3947099403016963
121,1790598176.7672117,0.5578047449448529,-0.07640581916360288,-0.30891055836397063,0.6421913388965891,0.024263125960189046,0.4016932332590926,0.015042436236288308,0.40270637915909224
122,1790598176.792276,0.4188936121323529,-0.05245562385110288,-0.20352969898897064,0.46866596753918405,0.033967058542381474,0.4098475503906982,0.008165395025481836,0.41133374442561804
123,1790598176.812276,0.3757832605698529,0.024185001148897118,-0.13646915211397065,0.40052690631690174,0.041740830734001026,0.4153358653382269,0.0029909974410625437,0.4174387668297121
124,1790598176.8221292,0.5194844324448529,0.12956586052389713,-0.16520938648897063,0.5603084232366233,0.04565784514000378,0.4177478200440871,0.0006011825018196067,0.4202359353920319
125,1790598176.8421292,0.5530147058823529,0.08166546989889713,-0.2705902458639706,0.621058447372449,0.05402460794172404,0.42222600644882374,-0.0041756583479337,0.4256887300688354
126,1790598176.8668754,0.4763740808823529,0.00023480583639711757,-0.32328067555147066,0.5757106176329412,0.06473455444571127,0.4270877800713541,-0.010301729737845829,0.4320887178128512
127,1790598176.8868754,0.4524238855698529,-0.057245662913602884,-0.26580020680147065,0.527839168774207,0.07348520564243172,0.43034217629669236,-0.015393802435331439,0.43684257267521664
128,1790598176.9117012,0.5578047449448529,0.04334515739889712,-0.28496036305147066,0.6278752620253114,0.08459898104026578,0.43375000136352565,-0.021791918955997212,0.4424600987746743
129,1790598176.9317012,0.4811641199448529,0.13914593864889713,-0.28496036305147066,0.5762663542800442,0.09376781861650813,0.43635731589171944,-0.027028040810680422,0.4471360262049883
130,1790598176.9420357,0.3566231043198529,0.08645550896139712,-0.22747989430147064,0.4317426268923549,0.09844427957696239,0.4376773516991431,-0.02972501668918347,0.44959572616849325
131,1790598176.9620357,0.26082232306985287,0.12956586052389713,-0.18436954273897063,0.3446849644452595,0.10706310967586218,0.4401728097623565,-0.03477924900062849,0.45433930940278666
132,1790598176.9874425,0.1698115808823529,0.21099652458639712,-0.18915958180147063,0.3303586744382675,0.11719022862807296,0.44351633045932254,-0.040948531237610004,0.4605616867266757
133,1790598177.0074425,0.19376177619485288,0.15830609489889713,-0.20352969898897064,0.32253493449061277,0.12451175059396434,0.4463074689378445,-0.04566549662167019,0.46559517872007905
134,1790598177.0325325,0.21771197150735289,0.14393597771139713,-0.21310977711397064,0.3369448698510195,0.13309316355064899,0.4498524735916175,-0.05147932603949345,0.47194402124605545
135,1790598177.0525324,0.2225020105698529,0.20620648552389712,-0.20352969898897064,0.36531164469571065,0.13956791204238525,0.45277964261139125,-0.05604350697304862,0.47710531490333274
136,1790598177.0774658,0.2560322840073529,0.19662640739889714,-0.16520938648897063,0.3626411668918477,0.14732385437128606,0.4566347672643455,-0.061569565142197503,0.4837462558957683
137,1790598177.0974658,0.2512422449448529,0.13914593864889713,-0.10293887867647064,0.30509124967881535,0.15337290186805125,0.45976691636853556,-0.06573954976647181,0.48911200436909874
138,1790598177.1075225,0.2416621668198529,0.21578656364889712,-0.045458409926470635,0.3271557900397133,0.15633011061967622,0.4613733428826336,-0.0676337789979589,0.4918117455598241
139,1790598177.1275225,0.3087227136948529,0.23015668083639712,-0.06461856617647063,0.3904578988565146,0.16215457649518963,0.46475777334806684,-0.07100091455821246,0.49732788423120816
140,1790598177.1521523,0.4620039636948529,0.17267621208639714,-0.12688907398897065,0.5092794653115712,0.16967516092398385,0.4690446176286583,-0.07487928717157256,0.5043802347518358
141,1790598177.1721523,0.543434627757353,0.28763714958639713,-0.12209903492647063,0.6268688050923699,0.17637416954444768,0.4726939494726175,-0.07792969642939872,0.5105099951382864
142,1790598177.1971495,0.4715840418198529,0.2828471105238971,-0.05982852711397063,0.5531486681602819,0.18539403505308746,0.4776404789659191,-0.08151147725286816,0.5188019817849608
143,1790598177.2171495,0.5099043543198529,0.26368695427389716,-0.11730899586397063,0.5859135268272986,0.19300044754106618,0.4818242882765221,-0.08421306139310672,0.525828543570457
144,1790598177.2271843,0.624865291819853,0.4409183995863971,-0.14125919117647065,0.777701631158615,0.19709846463637412,0.4841388897266731,-0.08555983234076382,0.5296779721849602
145,1790598177.2471843,0.6296553308823529,0.41217816521139716,-0.10293887867647064,0.7595742809816354,0.2059227067174082,0.4893397065498338,-0.08820769776161197,0.5381803670634084
146,1790598177.2716997,0.5530147058823529,0.24931683708639713,-0.08377872242647064,0.6123749051915192,0.21729125074166455,0.49597472466347997,-0.09130983132560704,0.5491301307072873
147,1790598177.2916996,0.5673848230698529,0.29721722771139714,-0.09814883961397064,0.6479944541553004,0.226855266194721,0.5013955204571819,-0.09373386988935085,0.5582533637151145
148,1790598177.316985,0.5817549402573529,0.27326703239889716,-0.17957950367647063,0.6673548378865801,0.2393122066732497,0.5083026996715094,-0.096865481819921,0.5701095406361574
149,1790598177.3369849,0.6009150965073529,0.019394962086397117,-0.3807611443014707,0.711655932859791,0.2494613630023702,0.5133855839434996,-0.09981146315261485,0.579446337125945
150,1790598177.346678,0.5721748621323529,-0.057245662913602884,-0.37597110523897065,0.6870337770104232,0.25449522007710623,0.5154520073822122,-0.10157522063298083,0.5837603227379243
151,1790598177.366678,0.6392354090073529,-0.07640581916360288,-0.34244083180147067,0.7291950909158276,0.26514078746953385,0.5188756546392687,-0.1057461417217433,0.5922109663340668
152,1790598177.3924096,0.6775557215073529,-0.07640581916360288,-0.32807071461397064,0.75667033689496,0.27932393217145307,0.5223248234047438,-0.11160142800586341,0.6027436925936822
153,1790598177.4124095,0.682345760569853,-0.04766558478860289,-0.29933048023897063,0.7466367800617536,0.2907341119805173,0.5244174669664662,-0.1164109207936505,0.6108121691720378
154,1790598177.437595,0.5769649011948529,-0.07640581916360288,-0.21789981617647064,0.6214552890615601,0.30532603345546117,0.5264230285245344,-0.12253589409581328,0.6207739016811583
155,1790598177.4575949,0.6679756433823529,0.03855511833639712,-0.11251895680147064,0.6784824779916525,0.3170429169659845,0.5277199966116075,-0.1271658483207999,0.6286300653016875
156,1790598177.4674358,0.7925166590073529,0.3115873448988971,0.00723201976102937,0.8515994542125688,0.3230213520491634,0.5285208728763243,-0.12917999634556135,0.6327436909218934
157,1790598177.4874358,0.701505916819853,0.40738812614889713,0.055132410386029375,0.8130899208177074,0.3355899580217244,0.5309828257121783,-0.13256583243381115,0.6419790347473829
158,1790598177.5125158,0.5194844324448529,0.4313383214613971,-0.021508214613970632,0.6755586032385104,0.3512835092202772,0.5351846624257718,-0.13611154658524952,0.654483827042142
159,1790598177.5325158,0.3949434168198529,0.5223490636488971,-0.11730899586397063,0.6652745653448903,0.363292728711918,0.5394633282639475,-0.13872316796742276,0.6650160949988237
160,1790598177.557091,0.3949434168198529,0.6516801183363972,-0.14125919117647065,0.7749977020715038,0.3772916130132169,0.5460960771228351,-0.14192744980581515,0.6787586372985958
161,1790598177.577091,0.3566231043198529,0.7235307042738972,-0.05503848805147064,0.8085208431010311,0.3881027275549522,0.552747113237066,-0.14443846661654566,0.6906631371124727
162,1790598177.5876465,0.2368721277573529,0.8001713292738971,-0.002348058363970631,0.8344986965108644,0.39342254357928386,0.5569370891245653,-0.14561036321898185,0.6972536101847744
163,1790598177.6076465,0.2512422449448529,0.8528617589613972,-0.10772891773897064,0.8956011195062609,0.4027224503957346,0.5661647282248184,-0.14766285594832407,0.7103042943453481
164,1790598177.631708,0.3135127527573529,0.8145414464613971,-0.2514300896139706,0.9082869062736771,0.413251810343775,0.5786100342164274,-0.1504099013831708,0.7267666536670748
165,1790598177.651708,0.2464522058823529,0.7570609777113971,-0.22747989430147064,0.8280260358642247,0.42153100159094903,0.5897603419138847,-0.1530691189685686,0.7409020187436829
166,1790598177.677466,0.18897173713235288,0.7091605870863972,-0.17957950367647063,0.7555579751761146,0.4314355496032341,0.604799299141502,-0.15676658884544084,0.7592724076915559
167,1790598177.697466,0.2847725183823529,0.7091605870863972,-0.24664005055147065,0.8030164631180254,0.43868304598278945,0.6168523068975368,-0.15984620250998488,0.7736280707254709
168,1790598177.72244,0.3422529871323529,0.6181498448988971,-0.30891055836397063,0.7711498369436962,0.44754999811523183,0.6321315059866701,-0.1641554848316937,0.791731182204066
169,1790598177.74244,0.3039326746323529,0.5798295323988971,-0.2610101677389706,0.7047720660002246,0.45455504857484075,0.6443290906294871,-0.16794371232905694,0.8062166952669503
170,1790598177.7672386,0.3135127527573529,0.5989896886488971,-0.22747989430147064,0.7133204017554833,0.4630863565573983,0.6593771305383511,-0.17284482900206513,0.8240767614848442
171,1790598177.7872386,0.3422529871323529,0.6660502355238972,-0.16520938648897063,0.7668468979049987,0.46991839535536845,0.6715904365928601,-0.17679368096347872,0.8385183471129115
172,1790598177.7976844,0.3662031824448529,0.6995805089613971,-0.07419864430147063,0.7931097642619223,0.4735064987255516,0.6780823997996237,-0.1787343284423457,0.8461383488632835
173,1790598177.8176844,0.3901533777573529,0.6900004308363972,-0.07898868336397064,0.7965924082173135,0.48048046127018607,0.6907320603845926,-0.18212239970498223,0.8608953602963931
174,1790598177.8423548,0.4380537683823529,0.6852103917738972,-0.12688907398897065,0.8231070538433601,0.48932501384436206,0.7065396419943714,-0.1860556942208107,0.8793485976763182
175,1790598177.8623548,0.4715840418198529,0.6995805089613971,-0.11730899586397063,0.8518015012480603,0.4967841203011987,0.7195095982638166,-0.18913236635380792,0.8945722867268947
176,1790598177.8726487,0.4476338465073529,0.6564701573988971,-0.13167911305147065,0.8053996007624558,0.500757112145709,0.7262308078662233,-0.1906706216898533,0.9025099210724127
177,1790598177.8926487,0.4524238855698529,0.6229398839613971,-0.14125919117647065,0.7827487657964035,0.5086684035612545,0.7392496774534674,-0.19362038390795824,0.9179991739981447
178,1790598177.91762,0.4859541590073529,0.5702494542738972,-0.16999942555147063,0.7682679802282868,0.5188219262101949,0.7553009872211387,-0.19733384327659265,0.9373347417630451
179,1790598177.93762,0.4811641199448529,0.5367191808363971,-0.16041934742647063,0.7384583647225702,0.5271849411587105,0.7678888868224663,-0.20035752852383049,0.9527436401919128
180,1790598177.962541,0.40931353400735293,0.5271391027113972,-0.15083926930147065,0.6842263425887424,0.537707019186587,0.783209819844839,-0.20414183798270105,0.97171001353226
181,1790598177.982541,0.3805732996323529,0.5558793370863971,-0.18915958180147063,0.6997279622681777,0.5460694845334333,0.7952855214351656,-0.2072333027219705,0.9867201144701919
182,1790598177.9920335,0.3662031824448529,0.6133598058363972,-0.2705902458639706,0.7638940393831628,0.5499747835317808,0.800989604952211,-0.2088077935050943,0.9938094909945236
183,1790598178.0120335,0.3709932215073529,0.6181498448988971,-0.26580020680147065,0.7683716230370816,0.5580745974028546,0.8130523405511444,-0.21243214216214956,1.0087758818318626
184,1790598178.0371134,0.3374629480698529,0.6421000402113971,-0.25622012867647065,0.7692999787459124,0.5680407896234879,0.828280531829597,-0.21727725268369974,1.027583759417096
185,1790598178.0571134,0.2943525965073529,0.6852103917738972,-0.25622012867647065,0.7885464389651032,0.5757439083131596,0.8405936391202056,-0.22133007953439163,1.0426244377510832
186,1790598178.0828745,0.3039326746323529,0.7043705480238972,-0.20352969898897064,0.7936858811917987,0.5853335975473718,0.8567594197316593,-0.2266555883474415,1.062085156400278
187,1790598178.1028745,0.3518330652573529,0.6995805089613971,-0.17478946461397063,0.8023407949662729,0.592645561465641,0.8695332783348362,-0.23073741442252854,1.0772913431709392
188,1790598178.1120694,0.3422529871323529,0.7091605870863972,-0.13646915211397065,0.7991681143266717,0.5959815932963846,0.87549655375866,-0.23254716493271227,1.0843276530226595
189,1790598178.1320693,0.3039326746323529,0.6900004308363972,-0.08377872242647064,0.7586135640726449,0.6031187236684387,0.8886205493093473,-0.23622351012656417,1.0996364045587104
190,1790598178.1571727,0.3518330652573529,0.6756303136488971,-0.09814883961397064,0.7680468874015836,0.611967917835642,0.9051935836366894,-0.24048829957337597,1.118800598207213
191,1790598178.1771727,0.4284736902573529,0.6085697667738972,-0.16520938648897063,0.7623916353542001,0.6191310540674764,0.9183431462443331,-0.24377145335874092,1.134064335845757
192,1790598178.20253,0.3757832605698529,0.5606693761488971,-0.16520938648897063,0.6948793777770107,0.6283801819975583,0.9347378708483041,-0.24793804392992128,1.1532865272572557
193,1790598178.22253,0.39973345588235293,0.5367191808363971,-0.16999942555147063,0.6904738369534157,0.6357442485247321,0.9473752895834857,-0.2512342188121673,1.168250538860492
194,1790598178.2325816,0.4763740808823529,0.5846195714613971,-0.18915958180147063,0.7774919007034873,0.6395506485897541,0.9536193342734332,-0.2529131034537542,1.175746530809379
195,1790598178.2525816,0.4620039636948529,0.6037797277113971,-0.17478946461397063,0.7800954935166863,0.6473957884242278,0.9659621721040471,-0.2562984401528279,1.1907531714130217
196,1790598178.277173,0.3518330652573529,0.6133598058363972,-0.11730899586397063,0.7167692499923951,0.6570960450500618,0.9811069757173531,-0.26037531657473895,1.2091903967957565
197,1790598178.297173,0.3518330652573529,0.6277299230238972,-0.16520938648897063,0.7383261497820829,0.66485729799198,0.9934381602931802,-0.26361742469114,1.2241114130750859
198,1790598178.3218403,0.3901533777573529,0.6181498448988971,-0.17957950367647063,0.7527135491438226,0.6743665907384379,1.0086706102875198,-0.26765419498236476,1.2425077331162326
199,1790598178.3418403,0.3901533777573529,0.6181498448988971,-0.15083926930147065,0.7463788408626036,0.6820905868186447,1.0210228340989038,-0.2709318511989837,1.2574336023711428
200,1790598178.351385,0.3805732996323529,0.6325199620863972,-0.15083926930147065,0.7534387991033084,0.6857756111824105,1.0269289029281452,-0.2724774144190025,1.2645612290159292
201,1790598178.371385,0.3566231043198529,0.5941996495863971,-0.19873965992647064,0.7209373859989612,0.6934446674782389,1.0392880647777163,-0.2757545286991723,1.279463070409427
202,1790598178.3975127,0.3566231043198529,0.5558793370863971,-0.23705997242647064,0.7016974465260508,0.703358219179765,1.0552656215540996,-0.2802474911407654,1.2987828813209634
203,1790598178.4175127,0.3614131433823529,0.5654594152113972,-0.18915958180147063,0.6972411045313062,0.71088555374665,1.0673434718243602,-0.2838101789311641,1.313441500424248
204,1790598178.4422266,0.3183027918198529,0.6277299230238972,-0.13167911305147065,0.7160313626887599,0.7200517444146978,1.0822410254867212,-0.28814692315429963,1.331446131544378
205,1790598178.4622266,0.3039326746323529,0.6037797277113971,-0.09814883961397064,0.6830506752957598,0.727290232939728,1.0943358499768083,-0.2914747756289079,1.345912174067056
206,1790598178.5021045,0.3614131433823529,0.5750394933363971,-0.15083926930147065,0.6957315317487739,0.7415480543304043,1.1183599656206096,-0.29785954401980275,1.374533680034005
207,1790598178.5221045,0.4236836511948529,0.6037797277113971,-0.18436954273897063,0.760295945125862,0.7488038214674662,1.1303696965334236,-0.3010841897073617,1.38891846527328
208,1790598178.5177333,0.4045234949448529,0.6564701573988971,-0.16520938648897063,0.7885977852503729,0.7488038214674662,1.1303696965334236,-0.3010841897073617,1.38891846527328
209,1790598178.5377333,0.3614131433823529,0.6612601964613971,-0.11251895680147064,0.7619350518734322,0.7562509801900853,1.1426301378348276,-0.30427630104396564,1.4036036635403528
210,1790598178.5627847,0.3326729090073529,0.6085697667738972,-0.12209903492647063,0.7042276618740744,0.7654839328107829,1.1580694509652407,-0.30811570209303923,1.421979532386695
211,1790598178.5827847,0.39973345588235293,0.5798295323988971,-0.18436954273897063,0.727998111730621,0.7728480723603276,1.17032924871334,-0.3111808426159999,1.4365925692959047
212,1790598178.6223552,0.40931353400735293,0.6229398839613971,-0.15562930836397063,0.7614539708828599,0.787633803939526,1.1945167440865945,-0.31734469135508353,1.4655868838600936
213,1790598178.6423552,0.3709932215073529,0.5894096105238972,-0.13167911305147065,0.7087870259791428,0.7951563877094673,1.2067265000104146,-0.3204237157257876,1.4802479131355242
214,1790598178.6368926,0.3614131433823529,0.5654594152113972,-0.16520938648897063,0.6911280285481052,0.7951563877094673,1.2067265000104146,-0.3204237157257876,1.4802479131355242
215,1790598178.6568925,0.3614131433823529,0.5606693761488971,-0.16999942555147063,0.6883817358475867,0.8026095101040617,1.2187096968450422,-0.3235296560480789,1.4946928745518941
216,1790598178.6813211,0.3518330652573529,0.5654594152113972,-0.16041934742647063,0.6850293592893189,0.811654237385791,1.2332140842198205,-0.3273596705567581,1.5122049902349448
217,1790598178.7013211,0.3326729090073529,0.5702494542738972,-0.14125919117647065,0.6751369220972312,0.8189752643468436,1.2450113184521074,-0.33047751334974257,1.5264301666030016
218,1790598178.7273328,0.3230928308823529,0.6037797277113971,-0.15083926930147065,0.701207117851939,0.8283479678103797,1.2603435311887368,-0.3344941324183693,1.5448341325227113
219,1790598178.7473328,0.3230928308823529,0.6277299230238972,-0.15083926930147065,0.7219323505637922,0.8354427878790023,1.2722111814154666,-0.33757171639458705,1.5589870447335874
220,1790598178.7575355,0.3566231043198529,0.6421000402113971,-0.13646915211397065,0.74705845129609,0.8390393108307503,1.278328819345764,-0.3391260444083051,1.5662432791508794
221,1790598178.7775354,0.3183027918198529,0.6421000402113971,-0.19394962086397063,0.7424456777118905,0.846044343199943,1.2904485265772423,-0.3422115444058779,1.580555969123098
222,1790598178.8027587,0.26082232306985287,0.6277299230238972,-0.19394962086397063,0.7068872582699596,0.8546492199524269,1.305842917242434,-0.3462529737098893,1.5986063103467545
223,1790598178.8227587,0.2799824793198529,0.6373100011488971,-0.17957950367647063,0.7188901337695397,0.8612599460864317,1.3181159954528767,-0.34953711167215157,1.6128777587398375
224,1790598178.847246,0.3135127527573529,0.6277299230238972,-0.20352969898897064,0.730588420912638,0.8692297712860056,1.3332120053302081,-0.3536585419831217,1.6303646864318866
225,1790598178.867246,0.3614131433823529,0.5750394933363971,-0.21310977711397064,0.7118326040633849,0.8757751144957915,1.3454963811063323,-0.3571447540465657,1.6446564802667258
226,1790598178.8777082,0.3470430261948529,0.5654594152113972,-0.16520938648897063,0.6837231557185691,0.8792413902044879,1.3518535148259123,-0.3589917457097775,1.6521042404411554
227,1790598178.8977082,0.3470430261948529,0.6325199620863972,-0.09814883961397064,0.7281164461717835,0.885914809514019,1.3639800783980116,-0.36238792736161557,1.6663168107776967
228,1790598178.9227018,0.3374629480698529,0.6612601964613971,-0.09814883961397064,0.7488521105410137,0.8942866487091673,1.37928651839558,-0.36636342320730847,1.68416212632616
229,1790598178.9427018,0.3566231043198529,0.6277299230238972,-0.14125919117647065,0.7356487299561845,0.9010220665308629,1.3916310120407307,-0.36942655545680164,1.698515121488688
230,1790598178.9677687,0.3470430261948529,0.5941996495863971,-0.16520938648897063,0.7076766401282019,0.9095204938454295,1.407079367311722,-0.3732660048591429,1.7165160602285943
231,1790598178.9877687,0.3470430261948529,0.5989896886488971,-0.15562930836397063,0.7095406899960226,0.9163251347680853,1.4193460049901168,-0.37635112255659536,1.7308480585940418
232,1790598178.997629,0.3901533777573529,0.5894096105238972,-0.16520938648897063,0.7258908241171437,0.9197218744904007,1.4253653348987037,-0.377881245587789,1.7379151015265413
233,1790598179.017629,0.3853633386948529,0.5798295323988971,-0.20831973805147064,0.7267078523820979,0.9267414260409685,1.4374970453245475,-0.38107960522248996,1.752275404031507
234,1790598179.0419984,0.3230928308823529,0.5846195714613971,-0.18915958180147063,0.6942264530328612,0.9353064553825239,1.4521901803436263,-0.385118635761584,1.7697375084959743
235,1790598179.0619984,0.2656123621323529,0.5894096105238972,-0.15083926930147065,0.6638569884085441,0.9421644190799562,1.464201054411342,-0.38844623403744116,1.7839419825368277
236,1790598179.087103,0.3183027918198529,0.5798295323988971,-0.17957950367647063,0.6853960548930259,0.9505808953785574,1.4792174645099245,-0.392618717917417,1.801620882324854
237,1790598179.1071029,0.3135127527573529,0.6037797277113971,-0.16041934742647063,0.6989810961431479,0.957227987674285,1.491161511706356,-0.39595418899578516,1.8156618061094572
