imu_index,t_imu,ax,ay,az,mag,vx,vy,vz,velocity
0,1790598592.2333362,-0.03755390624999988,-0.14427597656250002,0.01877695312500035,0.15026119677533284,0.0,0.0,0.0,0.0
1,1790598592.2533362,-0.04713398437499988,-0.15864609375000002,0.08104746093750036,0.18427937071091863,-0.00017491289959615044,-0.0006383343668222661,0.0001736770706966069,0.0006842726146772722
2,1790598592.278709,-0.09503437499999988,-0.11074570312500003,0.16726816406250036,0.22197923754516047,-0.0006340690359132465,-0.001839318202211379,0.0008334941116689808,0.002116565006201538
3,1790598592.298709,-0.05192402343749988,-0.07721542968750003,0.15289804687500036,0.17898642275310467,-0.0011621454786377152,-0.002925930426031436,0.0017558267735914945,0.003604799388364809
4,1790598592.3082438,-0.04713398437499988,-0.06763535156250003,0.09541757812500036,0.1260978488289402,-0.0014469760133928185,-0.003469843916072855,0.002307158129835351,0.004410956247947528
5,1790598592.3282437,-0.08545429687499989,-0.12032578125000003,0.07146738281250035,0.16397657544262823,-0.002153692314980052,-0.0047215472480856896,0.0035404728006891693,0.006282224658186739
6,1790598592.3389633,-0.10940449218749988,-0.18738632812500003,0.06188730468750035,0.22563913082720916,-0.0026323183953760156,-0.005539189106289196,0.004209559815910391,0.007438555634906242
7,1790598592.3589633,-0.11898457031249988,-0.20654648437500003,0.037937109375000354,0.24136694564056013,-0.00373394890942873,-0.0074267759841883385,0.0054203932083079585,0.009923710924357466
8,1790598592.3831456,-0.10940449218749988,-0.22570664062500004,-0.0003832031249996515,0.2508245948420183,-0.005280372489304384,-0.010150708819229606,0.006732937242846852,0.0132759808328689
9,1790598592.4031456,-0.13335468749999987,-0.24486679687500004,-0.009963281249999652,0.27900266640896415,-0.006731634734950229,-0.012771472030384437,0.007640125841898011,0.016333919520669808
10,1790598592.4282224,-0.14772480468749988,-0.20654648437500003,0.02356699218750035,0.25502837341832735,-0.008806987806241512,-0.01641359942744122,0.0086325636473572,0.020530232232233964
11,1790598592.4482224,-0.17167499999999988,-0.14906601562500002,0.06188730468750035,0.23563323432995656,-0.010693000039611537,-0.019416070473497478,0.0094335334481449,0.02408974046759785
12,1790598592.4883852,-0.16209492187499988,-0.12032578125000003,0.08583750000000036,0.21936529747737046,-0.01491765850478885,-0.025352515158553232,0.01124570353594424,0.03149210072619035
13,1790598592.5083852,-0.10940449218749988,-0.11553574218750003,0.06667734375000035,0.17252164734657766,-0.017113107320657593,-0.02821906665053529,0.012241525210816959,0.035199845230949024
14,1790598592.5034378,-0.08545429687499989,-0.10595566406250002,0.04751718750000035,0.1441767065417856,-0.017113107320657593,-0.02821906665053529,0.012241525210816959,0.035199845230949024
15,1790598592.5234377,-0.09024433593749988,-0.12511582031250001,0.04751718750000035,0.16141837494281844,-0.019211311507121714,-0.030919158273154067,0.013249155685955388,0.03873769436265797
16,1790598592.548519,-0.07587421874999989,-0.13948593750000002,0.04751718750000035,0.16574410076707688,-0.021760376142243833,-0.03429506040816159,0.014502007521607498,0.043127408459217066
17,1790598592.5685189,-0.056714062499999884,-0.09637558593750002,0.06667734375000035,0.13019449535063324,-0.02368701185440734,-0.03693703547272976,0.015522480885982827,0.046544242747736615
18,1790598592.5938678,-0.03276386718749988,-0.07242539062500003,0.08104746093750036,0.1135235619802322,-0.025932745600854297,-0.0401042317090993,0.016902716411082215,0.05066121314624455
19,1790598592.6138678,-0.03276386718749988,-0.09637558593750002,0.05230722656250035,0.11444549142948938,-0.02753711566226899,-0.04248148095648803,0.01802838920368082,0.053740038895901725
20,1790598592.622316,-0.02797382812499988,-0.13948593750000002,0.01877695312500035,0.14349716299941057,-0.028151641657161823,-0.0434844659150494,0.018477596674586583,0.05499850255033344
21,1790598592.6423159,-0.03276386718749988,-0.15864609375000002,0.004406835937500349,0.1620539239210022,-0.029479345970287084,-0.04594994927227205,0.01941630316033599,0.05794326971594138
22,1790598592.6678207,-0.02318378906249988,-0.16822617187500002,0.01877695312500035,0.17085112509922198,-0.03102553944466293,-0.04924768680559092,0.020478167268420017,0.06170311246774589
23,1790598592.6878207,0.0007664062500001199,-0.15864609375000002,0.05709726562500035,0.16860981045753443,-0.032089765046736406,-0.051936068203243785,0.021299753226824737,0.0646590108854935
24,1790598592.7130928,-0.02797382812499988,-0.11074570312500003,0.08104746093750036,0.14005654838326312,-0.033284383425208536,-0.05533417670253016,0.022444032127514706,0.06836267892266978
25,1790598592.7330928,-0.03276386718749988,-0.13469589843750002,0.08583750000000036,0.16304763860668303,-0.03417908230859758,-0.057988168527023855,0.02346408954352973,0.0712839452800081
26,1790598592.7431512,-0.03276386718749988,-0.13469589843750002,0.05709726562500035,0.1499218255986009,-0.03461098328314216,-0.05932592752685595,0.02400797343522708,0.07275897627931745
27,1790598592.7631512,-0.04234394531249988,-0.13948593750000002,-0.005173242187499652,0.1458632883888623,-0.03545361261934883,-0.06199818319519141,0.0250050925315488,0.0756702584889115
28,1790598592.787741,-0.03276386718749988,-0.17301621093750003,-0.05307363281249965,0.18391544453951025,-0.03647273265340109,-0.06536719498445656,0.025939727489409314,0.07922120845813481
29,1790598592.807741,-0.03755390624999988,-0.17780625000000003,-0.04828359374999965,0.18803367740676483,-0.03728277127798758,-0.06822257275365522,0.026433845646850085,0.08211621437314319
30,1790598592.832928,-0.061504101562499885,-0.12511582031250001,0.009196875000000349,0.13971866557924795,-0.038336999628891415,-0.07185133726500806,0.026888938189392222,0.08576336749608489
31,1790598592.852928,-0.07108417968749989,-0.10116562500000002,0.037937109375000354,0.1293316223945874,-0.03924743360687396,-0.0746399948188396,0.027266803948400625,0.08862825998993153
32,1790598592.8625731,-0.06629414062499989,-0.14427597656250002,0.03314707031250035,0.1622011059289429,-0.03972001922979658,-0.07596067843615355,0.027473121295857078,0.09001376000275185
33,1790598592.8825731,-0.04713398437499988,-0.13948593750000002,0.01877695312500035,0.1484267941174204,-0.04072310699548409,-0.07871406372751713,0.027914647510286827,0.09291664445883115
34,1790598592.9077253,-0.04234394531249988,-0.12032578125000003,0.04751718750000035,0.1361219543128919,-0.041964170067888176,-0.08214746227919303,0.028511683989249442,0.09655109140916486
35,1790598592.9277253,-0.061504101562499885,-0.10116562500000002,0.08583750000000036,0.14623718609471734,-0.04295875715190632,-0.08480027957022437,0.029115243468347055,0.09941951334343677
36,1790598592.9530368,-0.056714062499999884,-0.11074570312500003,0.07625742187500036,0.14593248451570442,-0.04425309343579387,-0.08805630131197108,0.03007223019521236,0.10303682598127518
37,1790598592.9730368,-0.05192402343749988,-0.13948593750000002,0.06667734375000035,0.16308984989798617,-0.04528536759292931,-0.09061849559340851,0.03092937469112184,0.10592026472976329
38,1790598592.9825852,-0.03276386718749988,-0.15864609375000002,0.04272714843750035,0.16753406599499135,-0.045764920899880344,-0.09187175762115858,0.031355559244238676,0.10732203375305639
39,1790598593.0025852,-0.02318378906249988,-0.14906601562500002,0.004406835937500349,0.1509224479412764,-0.046702637340323865,-0.09456462869070857,0.03218503764618041,0.11027004118181623
40,1790598593.0285766,-0.061504101562499885,-0.16343613281250002,0.06667734375000035,0.1869224229119427,-0.047903560862369056,-0.09814845293107242,0.03323987889692434,0.1141611120528345
41,1790598593.0485766,-0.06629414062499989,-0.12990585937500002,0.12894785156250035,0.19467407070215892,-0.04888073512862582,-0.10093250470675005,0.03422324679811975,0.11725155604297118
42,1790598593.072882,-0.03755390624999988,-0.11553574218750003,0.11936777343750035,0.17031579178947753,-0.05007943941993725,-0.10425578487552678,0.035691699038322706,0.12104179572721767
43,1790598593.092882,-0.00881367187499988,-0.12032578125000003,0.06188730468750035,0.1355950328250505,-0.05098740526165908,-0.10693399197475871,0.03699066682477582,0.12410843471382592
44,1790598593.1179779,-0.00881367187499988,-0.14427597656250002,0.01398691406250035,0.145220081221486,-0.05198900016992904,-0.11028854218663933,0.03851892798629712,0.1278676131377158
45,1790598593.1379778,-0.04234394531249988,-0.17780625000000003,0.009196875000000349,0.18300998539275423,-0.0527442166850203,-0.1130440366144083,0.03958894739908672,0.13087471628990724
46,1790598593.1485636,-0.04234394531249988,-0.21133652343750003,0.01877695312500035,0.21635320615127349,-0.05315122237627084,-0.11459267695604633,0.04009255453037269,0.1325290420278344
47,1790598593.1685636,-0.05192402343749988,-0.20654648437500003,0.037937109375000354,0.21632563113357814,-0.05394624508426979,-0.1177065021570023,0.04098638116557809,0.13581200775254942
48,1790598593.1934485,-0.061504101562499885,-0.14427597656250002,0.04751718750000035,0.16387859845014402,-0.05499876868486682,-0.1216544823766655,0.042091191353064335,0.13998694949425172
49,1790598593.2134485,-0.00881367187499988,-0.053265234375000026,0.04272714843750035,0.06885110905819918,-0.05582326987241573,-0.12464783082929556,0.042981301596419705,0.14318069519533572
50,1790598593.2530222,0.01513652343750012,-0.07242539062500003,0.07625742187500036,0.10625321613946383,-0.05719121765342432,-0.13005534431584767,0.044831511690646655,0.14898017452756468
51,1790598593.2730222,-0.08066425781249989,-0.07242539062500003,0.11936777343750035,0.1612477132583644,-0.057877149641198715,-0.1325955699315806,0.045919759037066535,0.15178924166782257
52,1790598593.268585,0.01034648437500012,-0.09637558593750002,0.09062753906250036,0.13269760412397658,-0.057877149641198715,-0.1325955699315806,0.045919759037066535,0.15178924166782257
53,1790598593.288585,-0.018393749999999882,-0.11074570312500003,0.04751718750000035,0.12190497901079893,-0.0584744614649225,-0.1349567856161182,0.04718097840517794,0.15446242698701024
54,1790598593.31268,0.043876757812500125,-0.20175644531250003,-0.033913476562499656,0.20923899491688402,-0.05904008214633018,-0.1379394990080271,0.04849710236386614,0.15768641547109324
55,1790598593.33268,-0.02797382812499988,-0.22570664062500004,-0.02912343749999965,0.22929063935103486,-0.05941529476321342,-0.14068511121679653,0.04933112279131199,0.1604868762414343
56,1790598593.3575435,-0.14772480468749988,-0.15864609375000002,0.037937109375000354,0.22006913743145476,-0.060139417528183955,-0.14430312284962146,0.05022886671255222,0.16420438439947185
57,1790598593.3775434,-0.061504101562499885,-0.07721542968750003,0.03314707031250035,0.10413311366293339,-0.06094836724715061,-0.14713066888719128,0.050949310060150146,0.167206367680454
58,1790598593.3883796,0.08219707031250012,-0.12032578125000003,-0.014753320312499651,0.1464660795598222,-0.06130410012532858,-0.14859339844288108,0.05129604873330687,0.1687289997855464
59,1790598593.4083796,0.13967753906250013,-0.16822617187500002,-0.014753320312499651,0.2191518201670169,-0.061529371190618715,-0.15132099277568398,0.05179576114210286,0.1713671708525916
60,1790598593.4329634,0.08219707031250012,-0.12511582031250001,0.01398691406250035,0.1503527872219855,-0.06135564802126867,-0.15471167926444537,0.05231645417315189,0.17446269120412514
61,1790598593.4529634,0.043876757812500125,-0.09158554687500002,0.01877695312500035,0.1032746640817005,-0.06104640594693528,-0.15738142859403725,0.0527256649753823,0.17684901326395439
62,1790598593.4934633,0.01992656250000012,0.023375390624999978,0.02356699218750035,0.038715370341809344,-0.06032032126702127,-0.16218391853885747,0.05355863794440384,0.18113721950177755
63,1790598593.5134633,0.06303691406250013,0.03295546874999998,0.04751718750000035,0.08554296325803451,-0.059891099616334084,-0.1641152840872867,0.054014907395645795,0.18286164306727823
64,1790598593.508003,0.08219707031250012,-0.01973496093750002,0.04751718750000035,0.09697272894516752,-0.059891099616334084,-0.1641152840872867,0.054014907395645795,0.18286164306727823
65,1790598593.528003,0.07740703125000012,0.03774550781249998,-0.02912343749999965,0.09091065096444079,-0.05915640789620126,-0.16546682377009295,0.05449332138542504,0.18397899999554287
66,1790598593.5535135,0.06303691406250013,0.01379531249999998,-0.05307363281249965,0.08355102441868516,-0.05809114541476165,-0.16683354967051234,0.05485475060854136,0.18497853425624164
67,1790598593.5735135,0.03429667968750012,-0.03889511718750002,0.009196875000000349,0.05266568985954683,-0.05723526453607475,-0.16778197227923738,0.05502978847750216,0.18562042815461843
68,1790598593.5985906,-0.00881367187499988,0.004215234374999978,0.02835703125000035,0.029992836379206314,-0.05627515755482827,-0.168858005521497,0.0552869707230539,0.18637748930128464
69,1790598593.6185906,-0.00881367187499988,0.02816542968749998,0.004406835937500349,0.029839444438221594,-0.055650733806410606,-0.16953888671494546,0.05551046252209589,0.1868738872372277
70,1790598593.6277065,0.029506640625000122,-0.0005748046875000218,-0.019543359374999653,0.0353965413149656,-0.05539466714360564,-0.16978381529367792,0.05558670064244216,0.18704276081137458
71,1790598593.6477065,0.043876757812500125,-0.03410507812500002,-0.014753320312499651,0.05749771030477962,-0.05480706248269847,-0.17029259371722663,0.055677429447802754,0.18735890083697085
72,1790598593.673062,0.06782695312500012,-0.07721542968750003,-0.014753320312499651,0.10382860209156936,-0.05396142861282435,-0.17105255467821578,0.055719088150879614,0.187817541843797
73,1790598593.693062,0.05824687500000012,-0.06763535156250003,-0.019543359374999653,0.09137385908403454,-0.05320535158786059,-0.17177935656599647,0.05569557381136447,0.188257679051859
74,1790598593.7189708,0.043876757812500125,-0.10595566406250002,0.004406835937500349,0.11476581732398457,-0.052174377315661144,-0.17291696743458085,0.055640269091365976,0.18899281155538294
75,1790598593.7389708,0.05345683593750012,-0.11074570312500003,-0.019543359374999653,0.12451581009960073,-0.051351903906076385,-0.17398846187313638,0.055581276168585214,0.18973213001568098
76,1790598593.7485683,0.06303691406250013,-0.07721542968750003,0.004406835937500349,0.09977622622312558,-0.050932566422009155,-0.1745608173270704,0.05554631769702401,0.19013415968185712
77,1790598593.7685683,0.05345683593750012,-0.10116562500000002,0.01877695312500035,0.1159512438861606,-0.05001505953562861,-0.17584219360156936,0.0555191719117662,0.19106114644462
78,1790598593.7936757,0.05345683593750012,-0.12990585937500002,-0.009963281249999652,0.14082766980133085,-0.048834696015576384,-0.17764462518506285,0.05550680221727784,0.19241477460024534
79,1790598593.8136756,0.02471660156250012,-0.12511582031250001,0.05709726562500035,0.1397318024900596,-0.04791822244410386,-0.17924756755971843,0.05556912771748965,0.19368472958279678
80,1790598593.8382661,0.01992656250000012,-0.15864609375000002,0.15289804687500036,0.22123169685510713,-0.04687808393633439,-0.18144613608010585,0.056021555513446245,0.19559823550862732
81,1790598593.858266,0.05824687500000012,-0.15864609375000002,0.12894785156250035,0.21257664484129968,-0.04604175175662698,-0.1834419958685481,0.05675709789991863,0.19746436872275522
82,1790598593.8832333,0.04866679687500012,-0.12990585937500002,0.08104746093750036,0.16066325137518364,-0.04495411396793477,-0.1861001410782339,0.05793081140555984,0.20002528285716076
83,1790598593.9032333,0.043876757812500125,-0.16822617187500002,0.07625742187500036,0.18984311725968794,-0.04407473396680896,-0.18835725078515114,0.05896594164707536,0.20223258484208623
84,1790598593.9134188,0.04866679687500012,-0.14906601562500002,0.05709726562500035,0.16688089127949046,-0.0436233699940604,-0.18957669891885012,0.05951590337427607,0.2034317230351825
85,1790598593.9334188,0.01513652343750012,-0.16343613281250002,-0.024333398437499654,0.16592949746804286,-0.042774320134349994,-0.1920807606109721,0.060482957792095095,0.20587095288827365
86,1790598593.9580066,0.02471660156250012,-0.17780625000000003,-0.10097402343749966,0.20596535228289883,-0.041813582620968376,-0.1953267504032245,0.061262437402726244,0.20893539994746477
87,1790598593.9780066,0.02471660156250012,-0.12990585937500002,-0.12013417968749966,0.17865795202549795,-0.04107518167743867,-0.1980325863228169,0.06146970542068584,0.21138259266090104
88,1790598594.002711,0.029506640625000122,-0.09158554687500002,-0.09139394531249966,0.13270797819705457,-0.040199438020001144,-0.20128393961582342,0.061295397935908234,0.214215650624579
89,1790598594.022711,0.0007664062500001199,-0.06284531250000003,-0.009963281249999652,0.06363479908846491,-0.03955139924343724,-0.20375295340952596,0.061023415281862364,0.21634101880568293
90,1790598594.0336668,-0.004023632812499881,-0.07242539062500003,0.04272714843750035,0.08418572350341746,-0.0392523342947786,-0.20501373153345587,0.06092369567194966,0.21744671199903046
91,1790598594.0536668,0.0007664062500001199,-0.06284531250000003,0.02356699218750035,0.06712319869112617,-0.03879316507380203,-0.20717296984259118,0.06086840321132984,0.21938667142590837
92,1790598594.0777192,0.01992656250000012,-0.07242539062500003,0.02835703125000035,0.08029088566931959,-0.0382864611732092,-0.20962422064228323,0.06090554898633742,0.22162502766244485
93,1790598594.0977192,0.06303691406250013,-0.10116562500000002,0.06188730468750035,0.1343062719966836,-0.037803882804895134,-0.21161712657775109,0.061067169625096875,0.22347290892224614
94,1790598594.1235583,0.07261699218750012,-0.07242539062500003,0.06667734375000035,0.12232960774521844,-0.037011045376542366,-0.21414206846222467,0.061493804849036666,0.22584979743173558
95,1790598594.1435583,0.11572734375000013,-0.08679550781250002,0.08104746093750036,0.16581607036797155,-0.03620690770543549,-0.21604210245433564,0.061996082526681186,0.22765905307528325
96,1790598594.153015,0.12051738281250013,-0.08200546875000003,0.10499765625000035,0.17964922566734087,-0.035716162861887724,-0.2169254617675399,0.06232990366812555,0.22851108757326224
97,1790598594.1730149,0.12051738281250013,-0.08679550781250002,0.10020761718750035,0.179163239194878,-0.034472409851769484,-0.21876665859007832,0.0632378142050268,0.23031764825363632
98,1790598594.2129397,0.14446757812500013,-0.15385605468750002,0.037937109375000354,0.21443365165252576,-0.03156853802486505,-0.22261141489350805,0.0651920198851487,0.23409915439963158
99,1790598594.2329397,0.11093730468750013,-0.22570664062500004,0.009196875000000349,0.25166476849832553,-0.0299489640132046,-0.22481785354736292,0.06609482051558886,0.23623829710293726
100,1790598594.2430007,0.09177714843750012,-0.20175644531250003,0.06188730468750035,0.23012767474151874,-0.029103480240770682,-0.22608386724907512,0.06653449112677814,0.23746108334192714
101,1790598594.2630007,0.14925761718750014,-0.13948593750000002,0.16247812500000036,0.2610235701086398,-0.027313325532464676,-0.22873489717735596,0.06761394464851293,0.24007773001532265
102,1790598594.273058,0.16841777343750014,-0.04368515625000002,0.24390878906250035,0.29960713721166143,-0.02630853672401115,-0.2300061961362205,0.06838187140616465,0.24139401339432884
103,1790598594.293058,0.24984843750000013,0.02816542968749998,0.20558847656250037,0.32478324286508803,-0.023982715492414097,-0.23217838774885316,0.07035416465233427,0.2437861416569339
104,1790598594.3184154,0.30732890625000014,0.10001601562499998,0.14810800781250036,0.35551405313504736,-0.020416545395237518,-0.23427556897547688,0.0731523575037674,0.24627859215331366
105,1790598594.3384154,0.2737986328125001,0.3443080078125,0.22474863281250035,0.49398951762653315,-0.017154048642334555,-0.23501506082914517,0.07558758638919302,0.24746681275980037
106,1790598594.3635077,0.3504392578125001,0.3922083984375,0.18642832031250037,0.5580238523895058,-0.012500065482307855,-0.23441760421231247,0.07895838402148778,0.24767375962945104
107,1790598594.3835077,0.23068828125000013,0.3443080078125,0.30138925781250037,0.512445677193848,-0.008475318549536998,-0.23290805599839515,0.08197381267583667,0.24705808940020738
108,1790598594.3935719,0.23068828125000013,0.5263294921875,0.30617929687500034,0.6511417505330928,-0.006405579400913016,-0.23160521804597436,0.08372218752100269,0.2463562728182229
109,1790598594.4135718,0.31690898437500015,0.6317103515625,0.10020761718750035,0.7138142890074477,-0.002088050070709041,-0.22766744959852175,0.08728506368198521,0.24383500548887857
110,1790598594.4383452,0.36480937500000016,0.4496888671875,0.04272714843750035,0.5806303183385001,0.003724375782438359,-0.22151225430546123,0.09130187781142492,0.23961966253700573
111,1790598594.4583452,0.48935039062500013,0.253297265625,0.05709726562500035,0.5539705834426535,0.008994219229340964,-0.21623395571959234,0.0942080339684011,0.23603638119976225
112,1790598594.4822102,0.43665996093750015,0.4017884765625,0.24390878906250035,0.6415585700201416,0.01599666714942429,-0.2097078529370159,0.0976944029382074,0.2318997052796648
113,1790598594.5022101,0.44624003906250015,0.7035609375,0.36365976562500035,0.9090525784424193,0.022309139849086862,-0.20340102614409938,0.101089235078243,0.22822950862231417
114,1790598594.52778,0.4127097656250001,1.1250843750000001,0.36365976562500035,1.2523548325637641,0.03081629125074438,-0.1930403828416846,0.10617328783791222,0.2224567379614001
115,1790598594.54778,0.4606101562500001,1.058023828125,0.3588697265625004,1.2084550540106873,0.037782191366318565,-0.1828775207521521,0.11063717878175311,0.21705360377031416
116,1790598594.558033,0.6665818359375002,0.8041517578125,0.3397095703125004,1.098359679593459,0.04168436706417518,-0.17701708460198148,0.11311951080826302,0.2141696953913571
117,1790598594.578033,0.7144822265625002,0.7945716796875,0.23911875000000035,1.0949916816289909,0.05022599243524668,-0.1649020622652502,0.11810360142172505,0.20895885031321262
118,1790598594.6028774,0.7288523437500002,0.847262109375,-0.03870351562499965,1.1182919042424377,0.06193440461630185,-0.14905067219478818,0.12373968446766026,0.20338014374331168
119,1790598594.6228774,0.5851511718750001,0.87600234375,0.02835703125000035,1.053843499492924,0.07191698216278918,-0.13561933825726996,0.12758069940426112,0.199603336878979
120,1790598594.6478174,0.6713718750000002,0.9286927734375,0.08104746093750036,1.1488164139236814,0.08484835888285655,-0.11800709025073883,0.13185663055227997,0.19624242246558338
121,1790598594.6678174,0.8150730468750002,1.0340736328125,-0.12492421874999966,1.3225953312523202,0.09589250177354522,-0.10305782059924425,0.1347054393645319,0.19483798828115365
122,1790598594.6778686,0.8438132812500002,0.8233119140625,-0.24467519531249968,1.2040470558297791,0.1018608638873205,-0.09527163468877048,0.13564376916644671,0.19455475342900785
123,1790598594.6978686,0.8917136718750002,0.943062890625,-0.38358632812499965,1.3533881037629953,0.11455862312410117,-0.07945306337154782,0.13628840334335687,0.1949640897629473
124,1790598594.7230678,0.9348240234375002,1.0532337890625,-0.44106679687499967,1.4757158562963262,0.13160953416698842,-0.058739034867200585,0.13542024122600324,0.1977624469774047
125,1790598594.7430677,0.9539841796875002,0.7562513671875,-0.5895580078124997,1.3526198985830569,0.14594570815886093,-0.04205061610538645,0.1332886219544596,0.20207488905688614
126,1790598594.7685475,1.1216355468750001,0.5406996093750001,-0.7380492187499997,1.447459504403955,0.16543671715062513,-0.021500403386513118,0.12844327109366585,0.21054512251913998
127,1790598594.7885475,1.1455857421875002,0.598180078125,-0.7572093749999997,1.497849170029081,0.18184184417760973,-0.006081092010923444,0.12296759281875172,0.21960069411911642
128,1790598594.7982621,1.0258347656250002,0.4975892578125,-0.6374583984374996,1.306248538982454,0.19019713270507968,0.0010834674422235306,0.11969069551414709,0.22472646880951144
129,1790598594.818262,0.9587742187500001,0.20539687499999998,-0.6805687499999997,1.1935701497088476,0.2077953061267879,0.014675502675612385,0.11197927940801054,0.23650289352108295
130,1790598594.8433943,1.0402048828125001,-0.014944921875000022,-0.8146898437499996,1.3213512365855704,0.2303601457230065,0.0295523942728285,0.10092413911946446,0.2532287949696608
131,1790598594.8633943,1.006674609375,-0.19696640625000003,-0.7955296874999996,1.298097460919324,0.24869383825425137,0.03929759904856326,0.09103086110044896,0.26773035716799587
132,1790598594.889083,0.8533933593750002,-0.28797714843750005,-0.8194798828124997,1.2176856499860422,0.27229368529066267,0.04900279170385254,0.07711813494541502,0.28721478266517003
133,1790598594.909083,0.9204539062500001,-0.33587753906250006,-0.9440208984374997,1.3605971378274722,0.2905721309038507,0.054489618572935355,0.06526585768910725,0.3027555349950242
134,1790598594.918133,1.0018845703125001,-0.34545761718750007,-0.9152806640624997,1.4003043781656255,0.2989073925022058,0.05613755895819488,0.05944508611135614,0.30988832356356877
135,1790598594.938133,0.9970945312500001,-0.5131089843750001,-0.8098998046874997,1.3832628194699126,0.3175630144706944,0.05794524120119318,0.045923440327041126,0.32605656182486226
136,1790598594.9636009,0.8102830078125002,-0.5897496093750001,-0.7236791015624997,1.236153144454984,0.3412078459655383,0.057795290800241025,0.028358530972858852,0.34722801739788445
137,1790598594.9836009,0.8150730468750002,-0.54184921875,-0.8434300781249997,1.2920212630943908,0.3594289687593636,0.055997801231357745,0.01428316912519081,0.3640452530200401
138,1790598595.0086234,0.8342332031250002,-0.5945396484375001,-0.9344408203124998,1.3865792719591192,0.3819015926089363,0.05195360002471745,-0.004021889681040119,0.38544023997161575
139,1790598595.0286233,0.9923044921875002,-0.743030859375,-0.7093089843749997,1.428244481352593,0.3999090212208619,0.04719966553900115,-0.018923744205341368,0.4031291874518274
140,1790598595.037834,1.044994921875,-0.6520201171875001,-0.3165257812499997,1.2717441527908282,0.40836538877532014,0.04437504361890983,-0.025465720145219098,0.4115579402080746
141,1790598595.057834,1.006674609375,-0.63765,-0.32610585937499964,1.2354498464846786,0.4270508115850811,0.037227134323260226,-0.03850419465949605,0.430396129410773
142,1790598595.0837207,1.0785251953125001,-0.762191015625,-0.5703978515624997,1.4385775788223765,0.4516567394451395,0.02664528091553129,-0.05458954938047819,0.4557233812115041
143,1790598595.1037207,1.1216355468750001,-0.896312109375,-0.5895580078124997,1.5521019109587122,0.47111582260662754,0.01720836854162567,-0.06689282048813092,0.4761521770306643
144,1790598595.1288047,1.1120554687500002,-0.8484117187500001,-0.35484609374999965,1.4430473174289005,0.49606284868914796,0.003865590884123171,-0.08178569976956174,0.5027744955039712
145,1790598595.1488047,1.2940769531250003,-0.723870703125,-0.33568593749999964,1.5202989850970827,0.5165791847930349,-0.0075355204490571304,-0.09291472428506026,0.5249228364425036
146,1790598595.1578672,1.4952585937500003,-0.800511328125,-0.4793871093749997,1.7625063543926864,0.5263770948428157,-0.012962854469619797,-0.0977551519641394,0.535534267163825
147,1790598595.1778672,1.5958494140625001,-0.877151953125,-0.3979564453124997,1.8640011356220758,0.5493932046983429,-0.02566023516609565,-0.1081511033972583,0.5605247561022966
148,1790598595.2033095,1.5766892578125002,-0.7478208984375001,-0.19677480468749967,1.7561051892187456,0.580334322477202,-0.04249066684871103,-0.12052711290449099,0.5942391501402555
149,1790598595.2233095,1.4234080078125002,-0.6711802734375001,-0.3165257812499997,1.6052295431969568,0.6055085864036248,-0.055864862539711097,-0.12956641958013884,0.6217306395521403
150,1790598595.2477777,1.5144187500000001,-0.7334507812500001,-0.5081273437499997,1.757727964257902,0.6370785193494296,-0.07235033025380788,-0.14047971596563744,0.6563826328461797
151,1790598595.2677777,1.6485398437500003,-0.5945396484375001,-0.43148671874999966,1.8048107375714226,0.6637570839462519,-0.08579607327216798,-0.14947146652006493,0.6857668349967165
152,1790598595.2936432,1.5527390625000002,-0.35024765625000004,-0.28299550781249966,1.616712242288049,0.6992947007206575,-0.10240961408149483,-0.1607420181000248,0.7248025965014083
153,1790598595.3136432,1.4042478515625,-0.08200546875000003,-0.19198476562499966,1.4196813289449468,0.7270870664958741,-0.11397714514609379,-0.1688619915763936,0.7550899046341272
154,1790598595.3232694,1.3467673828125002,0.009005273437499978,-0.17761464843749966,1.3584588479953643,0.7404433768955825,-0.11876226157595758,-0.17245080476225744,0.769480441094067
155,1790598595.3432693,1.3563474609375001,0.22934707031249998,-0.2973656249999997,1.4073751555232779,0.7680855706457378,-0.12685534975573107,-0.17950119413314633,0.7989170184011998
156,1790598595.368645,1.2940769531250003,0.4496888671875,-0.2590453124999997,1.394259556829317,0.8029408968653081,-0.13429113476853338,-0.18816373164090527,0.8355559721773979
157,1790598595.388645,1.1551658203125001,0.444898828125,-0.22072499999999967,1.2574031037460698,0.8299655304114683,-0.13793074072051983,-0.19468671601255866,0.8635800995267641
158,1790598595.4129293,1.1455857421875002,0.4880091796875,-0.2782054687499997,1.2758988733457521,0.8620477086628727,-0.1399879977971898,-0.2023277151277329,0.8964705214601226
159,1790598595.4329293,1.3036570312500002,0.579019921875,-0.33089589843749967,1.4643352828701681,0.8881803225010835,-0.13982761439594796,-0.20859035825669658,0.9229983665117981
160,1790598595.4426172,1.2461765625,0.5263294921875,-0.32610585937499964,1.391518519743584,0.9007927547931707,-0.1389584401101007,-0.21164628750254913,0.9356982345710146
161,1790598595.4626172,1.1312156250000003,0.3969984375,-0.3692162109374997,1.254423038707687,0.9264906879032411,-0.13604825337010648,-0.2180517057163676,0.9614783764507109
162,1790598595.4888222,1.2892869140625003,0.310777734375,-0.5033373046874997,1.4185175322307932,0.9598680997768383,-0.13141608222304882,-0.22690042294608145,0.9950380684019904
163,1790598595.5088222,1.4090378906250003,0.14791640625,-0.5847679687499997,1.5327167441281726,0.9855684775900424,-0.12772301799010177,-0.2342729986306282,1.0210495733464855
164,1790598595.5330563,1.4186179687500002,-0.01973496093750002,-0.6182982421874997,1.5476301645534483,1.0171779580276064,-0.12368637572870818,-0.2440530091177471,1.0533333703522079
165,1790598595.5530562,1.4186179687500002,-0.06763535156250003,-0.5560277343749996,1.5251945198680577,1.043607588627656,-0.12098576097725654,-0.25267509029088436,1.0805549753038868
166,1790598595.563032,1.3563474609375001,-0.01973496093750002,-0.39316640624999966,1.412319980202202,1.056889026228312,-0.1199061592331674,-0.257040727165383,1.0942859937902834
167,1790598595.583032,1.3180271484375001,0.03295546874999998,-0.23988515624999968,1.340084517904713,1.0835340699738614,-0.11804653137463783,-0.2654299786262759,1.121799508788112
168,1790598595.608819,1.3755076171875003,0.10001601562499998,-0.22551503906249967,1.3974553449630138,1.1179451840671015,-0.11575129450898489,-0.2755243072272837,1.1572006915969268
169,1790598595.628819,1.4234080078125002,0.138336328125,-0.31173574218749966,1.4636961670172706,1.1448288511578895,-0.11388064672564456,-0.2829848014942376,1.184770989693315
170,1790598595.6527314,1.3898777343750002,0.18623671874999997,-0.38358632812499965,1.4538165988344507,1.1771956011509714,-0.11139744646025704,-0.2918137599239362,1.2179302709630004
171,1790598595.6727314,1.2701267578125002,0.23413710937499999,-0.4075365234374997,1.3542998873341525,1.204195989457697,-0.10900151305584975,-0.299277184971626,1.2456067374251825
172,1790598595.6826763,1.2174363281250002,0.22455703124999998,-0.48417714843749965,1.3292872467572105,1.217463350712518,-0.10764672386980538,-0.3030967724542169,1.2592348791866501
173,1790598595.7026763,1.2318064453125002,0.21497695312499998,-0.5177074218749996,1.353359960894656,1.2438166318304698,-0.1046715271657623,-0.3111288563208091,1.2864047214826297
174,1790598595.7285342,1.2653367187500002,0.23413710937499999,-0.5368675781249996,1.3943184694485333,1.2776207301241775,-0.1005309095878775,-0.32200100245180985,1.3214029814578039
175,1790598595.7485342,1.2557566406250003,0.30119765625,-0.4650169921874997,1.3725471108954288,1.3036264666623236,-0.0970057087029773,-0.3306515903103897,1.3483999949118404
176,1790598595.7737596,1.2365964843750001,0.27724746093749997,-0.37400624999999965,1.321331788312066,1.3362220068097448,-0.09213204610858783,-0.34151306972617645,1.382247713760675
177,1790598595.7937596,1.2749167968750001,0.21018691406249998,-0.3692162109374997,1.3438422482628574,1.361956164991518,-0.08811642078296536,-0.3499477056958099,1.4089543980171126
178,1790598595.8035138,1.3276072265625003,0.18623671874999997,-0.43148671874999966,1.40833442473348,1.3745282513892503,-0.08616172183294632,-0.35403007514123647,1.42200177576574
179,1790598595.8235137,1.2701267578125002,0.138336328125,-0.40274648437499966,1.339613246898829,1.400335992901439,-0.08226813377936638,-0.362396343502353,1.4488064220711732
180,1790598595.8486753,1.2509666015625003,0.157496484375,-0.39316640624999966,1.3207204109193043,1.4326914753577602,-0.07754619719771315,-0.3728449152780586,1.4824410973496804
181,1790598595.8686752,1.3371873046875002,0.176656640625,-0.4075365234374997,1.4090292667045123,1.458434186725026,-0.07385466414328742,-0.38110538538585054,1.5092137367497365
182,1790598595.892867,1.3276072265625003,0.19581679687499998,-0.36442617187499965,1.3905724003829594,1.4897366554553146,-0.0693833846372801,-0.3909990688117322,1.5417553724513344
183,1790598595.912867,1.284496875,0.20060683593749998,-0.3500560546874997,1.3463708872123605,1.5156515266209905,-0.06564671394341821,-0.3990232322802478,1.5686709601122486
184,1790598595.9375868,1.3036570312500002,0.21976699218749998,-0.42190664062499966,1.387740753666252,1.5476757845121858,-0.06094164511463634,-0.4088845316507999,1.6019365712468088
185,1790598595.9575868,1.3323972656250003,0.19102675781249998,-0.4985472656249997,1.43538255239065,1.5736532496872355,-0.05708973438125407,-0.4170469207973247,1.628978797335757
186,1790598595.9689252,1.2940769531250003,0.1814466796875,-0.5272874999999997,1.4091097068131893,1.5884049297957252,-0.054916808332849766,-0.42185261299483007,1.6443861176522367
187,1790598595.9889252,1.2174363281250002,0.22455703124999998,-0.49375722656249965,1.3328065396391886,1.6142896661491102,-0.0510498946624587,-0.4305894428612455,1.671509642893038
188,1790598596.0128767,1.1982761718750001,0.22455703124999998,-0.4266966796874997,1.2916507658123209,1.64497830181438,-0.04630683194919696,-0.4411364913076873,1.703731005789514
189,1790598596.0328767,1.2701267578125002,0.19102675781249998,-0.42190664062499966,1.3519313653122786,1.6704626551933044,-0.04231699184964893,-0.4498953322639613,1.730503400802081
190,1790598596.057707,1.3084470703125002,0.18623671874999997,-0.4458568359374997,1.3948140268051257,1.7021580666761011,-0.03740398287561237,-0.4607544687821077,1.763812864900402
191,1790598596.077707,1.2557566406250003,0.19581679687499998,-0.43148671874999966,1.3421809665130155,1.7277044923861393,-0.033467233202893944,-0.4695051428274703,1.790675277053589
192,1790598596.0881793,1.2222263671875002,0.23413710937499999,-0.4171166015624997,1.3124952334899673,1.741020781817108,-0.03137739652237077,-0.4740663442293059,1.804681911712564
193,1790598596.1081793,1.2461765625,0.22455703124999998,-0.4171166015624997,1.3331797120070419,1.7663401005779582,-0.027296863621388584,-0.48272202303993983,1.8313172912417683
194,1790598596.1332107,1.2557566406250003,0.2437171875,-0.42190664062499966,1.3469699407782525,1.7979726171553316,-0.022076745830226802,-0.4935053551096778,1.86460195491391
195,1790598596.1532106,1.2270164062500002,0.26287734375,-0.3596361328124997,1.305378070555826,1.82317994277052,-0.017771620677566113,-0.5020011497061028,1.891112394472754
196,1790598596.17728,1.2653367187500002,0.2437171875,-0.37400624999999965,1.3417733617638223,1.8534648826147007,-0.012453203930267548,-0.5120162639594519,1.9229268857481425
197,1790598596.19728,1.2413865234375001,0.22934707031249998,-0.4458568359374997,1.338816229878234,1.8786150038528953,-0.007987247886117446,-0.5203196621574763,1.9493564783429629
198,1790598596.208745,1.1743259765625003,0.20060683593749998,-0.42190664062499966,1.263839315442354,1.8929470280697973,-0.005441430160843443,-0.5251117990582963,1.964438968700915
199,1790598596.228745,1.1886960937500002,0.23413710937499999,-0.39316640624999966,1.2737340429958406,1.9177425508896828,-0.0010144709152095938,-0.5334400100381835,1.990551623282763
200,1790598596.2528205,1.2030662109375,0.2820375,-0.3883763671874997,1.295279762018817,1.9474322965086523,0.004447275817851054,-0.5433727223386031,2.021822505347299
201,1790598596.2728205,1.1791160156250002,0.28682753906249997,-0.3883763671874997,1.2741353217212783,1.971969825708374,0.009157172616965772,-0.5515514488478082,2.0476713232452046
202,1790598596.2978404,1.1455857421875002,0.26287734375,-0.38358632812499965,1.2363695489960764,2.0024239940529496,0.015196939391350509,-0.5616968469802593,2.0797682916213036
203,1790598596.3178403,1.2030662109375,0.26766738281249997,-0.42190664062499966,1.3026969521437746,2.0266393253841875,0.02009652921678499,-0.5697984666818853,2.105312593966336
204,1790598596.327907,1.2222263671875002,0.2389271484375,-0.4458568359374997,1.3227667190631263,2.0388306551755644,0.0225752378780672,-0.5739198075356093,2.1181888554448074
205,1790598596.347907,1.1886960937500002,0.2437171875,-0.44106679687499967,1.291098907940438,2.06303485739305,0.027485064751779455,-0.5822100093279717,2.143790275788387
206,1790598596.3728335,1.1551658203125001,0.2485072265625,-0.39316640624999966,1.2452886159744563,2.093057967868289,0.03360661242515934,-0.5925520176139172,2.175577843892043
207,1790598596.3928335,1.1647458984375,0.3059876953125,-0.37400624999999965,1.2610083872237714,2.1170137893203336,0.03861328946043451,-0.6007560926154359,2.2009421285235917
208,1790598596.4329615,1.1839060546875002,0.3059876953125,-0.38358632812499965,1.28156173754244,2.1649375385364595,0.04899368411565231,-0.617027711264072,2.2516833976639137
209,1790598596.4529614,1.1647458984375,0.3203578125,-0.3787962890624997,1.2659971423997312,2.1887631224899025,0.054330793518287665,-0.6250646579037797,2.276914945283737
210,1790598596.4478822,1.1647458984375,0.30119765625,-0.3692162109374997,1.2584409586772503,2.1887631224899025,0.054330793518287665,-0.6250646579037797,2.276914945283737
211,1790598596.4678822,1.1551658203125001,0.358678125,-0.3596361328124997,1.2619018257360977,2.2124270703642352,0.05996915025649219,-0.6329183443519275,2.3019590507392054
212,1790598596.4934103,1.1455857421875002,0.349098046875,-0.3692162109374997,1.2532185561402567,2.2425063042388906,0.06744159946187314,-0.6428346665340433,2.3337993277887192
213,1790598596.5134103,1.1264255859375,0.28682753906249997,-0.3979564453124997,1.2286065156041828,2.265944975764769,0.07337161343296429,-0.6505889987318002,2.3586343659249525
214,1790598596.5380168,1.1120554687500002,0.3203578125,-0.38358632812499965,1.2191943916910821,2.2945876547240194,0.08069363006686261,-0.6601406172474645,2.3890227294199415
215,1790598596.5580168,1.1216355468750001,0.3443080078125,-0.35484609374999965,1.2257773266409469,2.317726688852463,0.08674922352557705,-0.667847235922648,2.413587032309134
216,1790598596.5832705,1.1407957031250002,0.349098046875,-0.3692162109374997,1.2488414202849967,2.3468466180241276,0.09456194333465198,-0.6774900425323291,2.4445089010656043
217,1790598596.6032705,1.1168455078125001,0.310777734375,-0.39316640624999966,1.2241350054253652,2.369835625861534,0.10081101421307832,-0.6851248259183975,2.4689430494199156
218,1790598596.6123962,1.0928953125000003,0.3203578125,-0.3979564453124997,1.2064073211316395,2.3802641611695896,0.10366663974215556,-0.6886273902036733,2.4800427277937214
219,1790598596.6323962,1.0497849609375,0.349098046875,-0.3596361328124997,1.1632953445135152,2.402905153536141,0.10999047333806279,-0.6962885896573386,2.504170297963516
220,1790598596.6570542,1.0545750000000003,0.349098046875,-0.3692162109374997,1.1706060342301265,2.430523802291853,0.1179088335447764,-0.7056651558605354,2.533636074642688
221,1790598596.6770542,1.1312156250000003,0.3155677734375,-0.3979564453124997,1.240000460581448,2.4528436584788187,0.1243650002680464,-0.7132804162047787,2.557474851953131
222,1790598596.7330565,1.0976853515625002,0.30119765625,-0.39316640624999966,1.2042478906640952,2.5153290047661225,0.14232186916990575,-0.7347283799967427,2.62430206131733
223,1790598596.7530565,1.0689451171875002,0.3251478515625,-0.3500560546874997,1.1708561100144141,2.5375468894998594,0.14871234216609766,-0.7423539188974649,2.648084008868556
224,1790598596.7335663,1.0114646484375003,0.387418359375,-0.3069457031249997,1.1257750152168564,2.5375468894998594,0.14871234216609766,-0.7423539188974649,2.648084008868556
225,1790598596.7535663,1.0785251953125001,0.3826283203125,-0.3500560546874997,1.196728987637723,2.5593868129173845,0.15539304887632827,-0.7496865488924466,2.671448629370356
226,1790598596.777646,1.1216355468750001,0.3634681640625,-0.3883763671874997,1.2413748865231262,2.5857110831365784,0.16357747279891519,-0.7585243050082127,2.699633033645649
227,1790598596.797646,1.083315234375,0.3634681640625,-0.3596361328124997,1.1979228486594016,2.607603053094445,0.170445958959727,-0.7658856482995514,2.723091319383982
228,1790598596.8234305,1.044994921875,0.368258203125,-0.34047597656249967,1.1591170698120097,2.6357089975053793,0.17938777388303112,-0.7753064199351731,2.753223917109216
229,1790598596.8434305,1.0306248046875002,0.3730482421875,-0.36442617187499965,1.1550579698802128,2.657352965281916,0.18639516397017158,-0.7825749847656135,2.7764530512913344
230,1790598596.8530135,1.0785251953125001,0.3922083984375,-0.3883763671874997,1.21156107040402,2.6676839696934596,0.18979912679719108,-0.7860763671795264,2.78755762733806
231,1790598596.8730135,1.083315234375,0.368258203125,-0.39316640624999966,1.2098619029465119,2.6892536576494126,0.19697836623593235,-0.7934600406336159,2.8107765026817804
232,1790598596.8970554,1.0593650390625002,0.368258203125,-0.3787962890624997,1.1837884180732074,2.7151567188786645,0.20564202271603663,-0.802396498663724,2.8386977279461267
233,1790598596.9170554,1.0689451171875002,0.37783828125,-0.40274648437499966,1.2031667220353854,2.7366651953599166,0.21288722439220295,-0.8098877672743211,2.8619181604973143
234,1790598596.942742,1.083315234375,0.349098046875,-0.37400624999999965,1.1980492554148028,2.7642920724334954,0.22219716758418176,-0.819562310253649,2.891775341099201
235,1790598596.962742,1.0737351562500002,0.37783828125,-0.37400624999999965,1.198144243229599,2.7858116485226865,0.2294490721819609,-0.8270871282966125,2.9150414294763958
236,1790598596.9732888,1.0641550781250002,0.37783828125,-0.42190664062499966,1.205484554227325,2.7971485391364364,0.2332973672351055,-0.8310895795624414,2.9273157501043867
237,1790598596.9932888,1.0593650390625002,0.33951796875,-0.4171166015624997,1.188071124298149,2.8186075174482315,0.24057638835414868,-0.8387995822293002,2.950594868021914
238,1790598597.0182943,1.0689451171875002,0.349098046875,-0.3596361328124997,1.1806147796446003,2.845404263813539,0.2496035247425223,-0.8484500323641194,2.979680318676961
239,1790598597.0382943,1.0689451171875002,0.41615859374999997,-0.32131582031249967,1.191249551980638,2.8668288007984293,0.2568884859498698,-0.8560322950383502,3.002913644687373
