imu_index,t_imu,ax,ay,az,mag,vx,vy,vz,velocity
0,1790595491.646802,0.02232158203125012,-0.100063916015625,-0.010490185546875261,0.10305864498220299,0.0,0.0,0.0,0.0
1,1790595491.666802,0.03190166015625012,-0.047373486328125006,-0.015280224609375262,0.05912231720525576,0.00010979477566253678,-0.00034873726385345797,-5.2030552186393135e-05,0.00036929629069840943
2,1790595491.69264,0.02232158203125012,-0.037793408203125003,0.01825004882812474,0.047535870773709424,0.0003354398841628631,-0.0008967348148092998,-0.00010341133440991224,0.0009629886541713267
3,1790595491.71264,-0.020788769531249883,-0.06174360351562501,0.04699028320312474,0.08032765544461005,0.0004862003939934786,-0.0014065905501026675,-3.9356481376957535e-05,0.0014887702077163935
4,1790595491.7216868,-0.03515888671874988,-0.037793408203125003,0.04699028320312474,0.06980383753361838,0.0005062051471819263,-0.0016701613122788153,4.9038614058234e-05,0.0017458772138197814
5,1790595491.7416868,-0.0064186523437498805,-0.05216352539062501,0.0038799316406247387,0.05269996535695471,0.00048143017272789295,-0.0023003769216453675,0.00029144860276347317,0.002368216899041177
6,1790595491.781291,0.02232158203125012,-0.033003369140625,-0.015280224609375262,0.04267271567551267,0.0004869661373990815,-0.0036141153708073373,0.0006656056891401316,0.0037070199440918774
7,1790595491.801291,0.01753154296875012,-0.05695356445312501,-0.029650341796875264,0.06655979470711222,0.0005491220648603281,-0.004312969107250827,0.0007588157609708374,0.004413506420218987
8,1790595491.8120875,0.02232158203125012,-0.08090375976562501,-0.039230419921875266,0.09264284762375594,0.0006099132511533334,-0.004745269448017168,0.0007458099673986423,0.004842087237513256
9,1790595491.8320875,0.03190166015625012,-0.085693798828125,-0.02007026367187526,0.0936160165899972,0.0007869683803745648,-0.00567585529292189,0.0006363804162991148,0.005765382257244341
10,1790595491.9018745,0.03190166015625012,-0.085693798828125,0.01346000976562474,0.0924246446636975,0.0016460535859709495,-0.009332974989953342,0.000277219438072941,0.00948107405243878
11,1790595491.9218745,0.02232158203125012,-0.07611372070312501,0.0038799316406247387,0.07941413837086612,0.0019366598583653327,-0.010466553289341948,0.00021573840901508953,0.01064640466198626
12,1790595491.9023817,0.041481738281250125,-0.085693798828125,0.0038799316406247387,0.09528491820831464,0.0019366598583653327,-0.010466553289341948,0.00021573840901508953,0.01064640466198626
13,1790595491.9223816,0.06543193359375012,-0.104853955078125,0.0038799316406247387,0.12365574672807692,0.0023883424008593035,-0.0117776893595838,0.00019285196559019825,0.012018957440444983
14,1790595491.9319336,0.04627177734375012,-0.11922407226562501,-0.005700146484375262,0.1280154227274663,0.0026517322130525456,-0.012470488306718382,0.00018225697207640006,0.012750607042082777
15,1790595491.9519336,0.00795146484375012,-0.100063916015625,-0.005700146484375262,0.10054106002766623,0.0032018297313396085,-0.014032414998595031,0.0001463003218445208,0.014393810756900233
16,1790595491.9768589,0.01274150390625012,-0.11443403320312501,0.01825004882812474,0.11657854930970724,0.003823244165236445,-0.016087981276525082,0.00013167129403912669,0.016536555712436313
17,1790595491.9968588,0.03190166015625012,-0.090483837890625,0.02304008789062474,0.09867059587409764,0.004314037814424991,-0.017797334449347616,0.00018362887048712194,0.01831364942681552
18,1790595492.0066676,0.06064189453125012,-0.08090375976562501,0.01346000976562474,0.10200014499717117,0.004586717122315917,-0.01863600120776706,0.00023214021067660852,0.019193551105865073
19,1790595492.0266676,0.05106181640625012,-0.100063916015625,0.02783012695312474,0.11573509558174085,0.005226863860167089,-0.02036097910854246,0.0003781522858023758,0.02102457075001725
20,1790595492.0668032,-0.0016286132812498803,-0.095273876953125,0.032620166015624744,0.10071662842741504,0.006467606547430969,-0.023891387295182337,0.0008091804135430297,0.024764553181562423
21,1790595492.0868032,-0.020788769531249883,-0.06174360351562501,0.0038799316406247387,0.06526484032964491,0.006959513797254841,-0.025622265273097525,0.0010464982821235059,0.0265712338568168
22,1790595492.096454,-0.03515888671874988,-0.07611372070312501,-0.029650341796875264,0.0889302454918839,0.007120777152340201,-0.0264319758582203,0.0011251827977816547,0.02739746067341378
23,1790595492.116454,-0.0016286132812498803,-0.100063916015625,-0.04881049804687526,0.11134587728868066,0.007349665749272839,-0.028122569321071413,0.0011460965686904724,0.029089689396575986
24,1790595492.1267464,0.03669169921875012,-0.12401411132812501,-0.029650341796875264,0.13268354596081364,0.007476855752189897,-0.02903506533524846,0.0010946778996383643,0.030002278424565668
25,1790595492.1467464,0.01274150390625012,-0.095273876953125,-0.0009101074218752615,0.09612640556575254,0.007761082889382352,-0.030871149993285302,0.0009639099936114126,0.03184637235227219
26,1790595492.1717386,-0.0016286132812498803,-0.07132368164062501,0.01346000976562474,0.0726009077552327,0.008083810813958592,-0.03313365859751515,0.0008485359085553996,0.03411608627203114
27,1790595492.1917386,-0.0064186523437498805,-0.05695356445312501,0.03741020507812474,0.06844290354604735,0.008291262955688673,-0.03486505713322059,0.0008463624561745434,0.035847365031621684
28,1790595492.216237,-0.0016286132812498803,-0.07611372070312501,0.05178032226562474,0.09207145396063396,0.008492473227372383,-0.03691226024859085,0.0010079767991254946,0.03789001287153268
29,1790595492.236237,-0.015998730468749882,-0.11443403320312501,0.04220024414062474,0.12301206419402104,0.00860565615547656,-0.038618677675689744,0.0012610950088628402,0.039585981658997516
30,1790595492.2469378,-0.0064186523437498805,-0.085693798828125,-0.058390576171875264,0.10389458908522932,0.008639138390038948,-0.03955533583206129,0.0013632145887947063,0.04051071042236237
31,1790595492.2669377,0.01274150390625012,-0.11922407226562501,-0.034440380859375265,0.12475121307278252,0.008701815188065192,-0.04135076167914096,0.001386203538925355,0.04227917500689534
32,1790595492.3062797,0.00795146484375012,-0.15754438476562502,0.02783012695312474,0.16018106920159988,0.008867670486696377,-0.04516941911914761,0.0014051373237894352,0.046053082571317086
33,1790595492.3262796,-0.015998730468749882,-0.133594189453125,0.08052055664062474,0.1568021902715814,0.008927267096339495,-0.04725620118469618,0.001575844644959725,0.048117854633835395
34,1790595492.3372467,-0.015998730468749882,-0.06653364257812501,0.04220024414062474,0.08039617886973066,0.008928726244194102,-0.04839345784311082,0.0017563521701004434,0.049241584938973286
35,1790595492.3572466,-0.0016286132812498803,-0.05216352539062501,0.0038799316406247387,0.05233296888132914,0.008904547080463884,-0.050334366210122584,0.002105277279175238,0.05115927650881255
36,1790595492.367064,0.041481738281250125,-0.109643994140625,0.01346000976562474,0.11799877933620438,0.008923802548998454,-0.05126332669304758,0.0022636296259726744,0.0520834612391997
37,1790595492.387064,0.05585185546875012,-0.138384228515625,0.02783012695312474,0.15180296580565847,0.009103146040507751,-0.053243979358045694,0.002599771567500054,0.0540790848472678
38,1790595492.4123173,0.06543193359375012,-0.14317426757812501,0.02304008789062474,0.15909448287215108,0.009525340486028131,-0.055903017718830626,0.0030568893619606846,0.05679105628545683
39,1790595492.4323173,0.07501201171875012,-0.14317426757812501,0.01825004882812474,0.1626614185381874,0.010020218559287187,-0.05812254840256404,0.0034265465227972447,0.05907940955914486
40,1790595492.4563723,0.041481738281250125,-0.12401411132812501,0.032620166015624744,0.13477503348256173,0.010736320863367647,-0.06087370172221994,0.0038962375676699986,0.06193590892390867
41,1790595492.4763722,0.00795146484375012,-0.095273876953125,0.032620166015624744,0.10101689291265852,0.011316549394871252,-0.06314690916816705,0.0043260347331651626,0.06429860810477822
42,1790595492.5015283,0.02232158203125012,-0.109643994140625,-0.005700146484375262,0.11203816378998084,0.011994006442616088,-0.06596388667483101,0.004836334644173378,0.0672196449602785
43,1790595492.5215282,0.07022197265625012,-0.11922407226562501,-0.04881049804687526,0.14672412743280544,0.01259063485422965,-0.06821085086321656,0.0050994201995942165,0.06955032960301873
44,1790595492.5319016,0.07022197265625012,-0.104853955078125,-0.034440380859375265,0.1308113801356725,0.0129629348138226,-0.06937579844126893,0.005150636880115775,0.07076417277564824
45,1790595492.5519016,0.06543193359375012,-0.133594189453125,-0.015280224609375262,0.14954006370724648,0.013776545366036695,-0.07164260115547057,0.005159990587452269,0.07313741180413001
46,1790595492.576485,0.05585185546875012,-0.138384228515625,-0.010490185546875261,0.14959835712324768,0.0148502169653377,-0.07451240095019723,0.005122249068763405,0.0761502742923688
47,1790595492.596485,0.06543193359375012,-0.12401411132812501,-0.005700146484375262,0.14033292347936333,0.015774612782989795,-0.07689053519781186,0.0050718644058135205,0.07865568396505218
48,1790595492.622079,0.07501201171875012,-0.109643994140625,-0.015280224609375262,0.13372394182537498,0.017049709648922863,-0.07992585924961532,0.00497678583169458,0.08187553952870447
49,1790595492.6420789,0.06543193359375012,-0.11443403320312501,-0.034440380859375265,0.13624472732069182,0.01810731720374134,-0.08227809176434596,0.004839052128002289,0.08438587409155969
50,1790595492.6522646,0.03669169921875012,-0.109643994140625,-0.034440380859375265,0.12064089719662839,0.0186431637810453,-0.08346753749309771,0.004726808105884259,0.08565477269713816
51,1790595492.6722646,0.03190166015625012,-0.133594189453125,-0.005700146484375262,0.13746859658229466,0.019640382688000824,-0.08581758162482524,0.004479261883935543,0.08815024523556099
52,1790595492.6974568,0.08938212890625012,-0.16712446289062502,0.03741020507812474,0.1931819725240447,0.020937233114718505,-0.08890189201907228,0.004274134654805483,0.09143403284400323
53,1790595492.7174568,0.13249248046875012,-0.17191450195312502,0.07573051757812474,0.22987815175697715,0.022145172055243714,-0.09149177278259593,0.004305423717732476,0.09423210602362511
54,1790595492.741428,0.14207255859375012,-0.15754438476562502,0.08531059570312474,0.22865419920870877,0.023869407865282945,-0.09472258196011145,0.004626824851120559,0.09779327008149491
55,1790595492.7614279,0.11333232421875013,-0.18628461914062502,0.09489067382812474,0.23780331162695606,0.025475320799623058,-0.09752957350573123,0.005125060069220309,0.10093203613702963
56,1790595492.772106,0.09896220703125012,-0.248555126953125,0.01825004882812474,0.2681533774491924,0.026374129401261402,-0.09915167903589862,0.005441777217203893,0.10274367667449914
57,1790595492.792106,0.06543193359375012,-0.109643994140625,-0.11108100585937526,0.16923986896608287,0.028051667741299382,-0.10227144874437435,0.005806760143344817,0.10620764452102205
58,1790595492.816951,0.05585185546875012,-0.253345166015625,-0.07755073242187527,0.2707717101211943,0.03004901022507438,-0.1062420603482772,0.005840659047780043,0.11056415196918944
59,1790595492.836951,-0.02557880859374988,-0.238975048828125,-0.12066108398437526,0.26892832985716636,0.031461077886339894,-0.10969738431847491,0.005566536533907054,0.11425542384092255
60,1790595492.8920853,0.03190166015625012,-0.100063916015625,-0.06318061523437526,0.12256546557044976,0.034795994162138105,-0.11919588402839211,0.004164011258726846,0.12424072991094448
61,1790595492.9120853,0.15165263671875012,-0.19107465820312503,-0.034440380859375265,0.24636190262483582,0.03609960585819243,-0.12256133730963753,0.003585128444996545,0.127817510898197
62,1790595492.8920853,0.16602275390625013,-0.215024853515625,-0.058390576171875264,0.27786453863297284,0.03609960585819243,-0.12256133730963753,0.003585128444996545,0.127817510898197
63,1790595492.9120853,0.12770244140625012,-0.138384228515625,-0.010490185546875261,0.18859520735106006,0.03788708841815749,-0.12604076680647938,0.0029452052106945397,0.1316449034323156
64,1790595492.936815,0.16123271484375012,-0.138384228515625,0.0038799316406247387,0.2125117335755527,0.040301655059085985,-0.130211028226145,0.0022603763965304453,0.1363240425371309
65,1790595492.956815,0.16602275390625013,-0.100063916015625,-0.029650341796875264,0.19610070084441023,0.04245238591653549,-0.13343546735948975,0.001750948215684906,0.14003676245581345
66,1790595492.9967818,0.2522434570312501,-0.243765087890625,-0.005700146484375262,0.35082854980651673,0.04735935698750455,-0.13994310383185932,0.0007796743174214938,0.14774162885390732
67,1790595493.0167818,0.21871318359375014,-0.19107465820312503,-0.05360053710937526,0.29532693623096423,0.05015298322960133,-0.14336340166470513,0.000277589686625567,0.1518830593573173
68,1790595493.0713925,0.20913310546875014,-0.210234814453125,-0.05360053710937526,0.3013442393502102,0.0583892478163148,-0.15294545520479347,-0.001326802419615763,0.16371736906332574
69,1790595493.0913925,0.18518291015625013,-0.205444775390625,-0.039230419921875266,0.27935513561860437,0.06154461973391515,-0.15655180826882634,-0.0019654861073963416,0.16822625248774328
70,1790595493.0723932,0.22829326171875014,-0.26771528320312504,0.00866997070312474,0.35194382307224575,0.06154461973391515,-0.15655180826882634,-0.0019654861073963416,0.16822625248774328
71,1790595493.0923932,0.16123271484375012,-0.253345166015625,-0.015280224609375262,0.30068795576724316,0.06493584596838436,-0.16054226678541053,-0.0024758149788155362,0.17319530356229929
72,1790595493.1019313,0.15644267578125012,-0.272505322265625,-0.05360053710937526,0.31875771213745246,0.06653780996191733,-0.16253606399542944,-0.0027319631560262427,0.17564941183032878
73,1790595493.1219313,0.16602275390625013,-0.301245556640625,-0.04881049804687526,0.34741172249928376,0.06987670433633641,-0.16695025450442239,-0.0033421150592977205,0.18101467073436
74,1790595493.146592,0.15165263671875012,-0.35872602539062504,-0.02007026367187526,0.38998166495383235,0.07396367389194287,-0.17279730797238022,-0.004108998604086128,0.1880064322506644
75,1790595493.166592,0.12291240234375013,-0.301245556640625,0.01346000976562474,0.3256340214236262,0.0771929079800603,-0.17781798000868504,-0.004647571613039998,0.19390610866779184
76,1790595493.1767182,0.04627177734375012,-0.286875439453125,0.05657036132812474,0.2960385125634294,0.07871116608901065,-0.18042539258951845,-0.004826171069750522,0.19690622612139053
77,1790595493.1967182,0.09417216796875012,-0.277295361328125,0.03741020507812474,0.2952298055380202,0.0814706630581222,-0.18564893708477054,-0.004985030715558428,0.2028000180253203
78,1790595493.221817,0.19476298828125013,-0.272505322265625,-0.12066108398437526,0.35602088345435434,0.0849581130418386,-0.19225584256646527,-0.005311198598015708,0.21025793398375928
79,1790595493.241817,0.18039287109375013,-0.224604931640625,-0.23562202148437528,0.3721648831729286,0.08788297482731189,-0.19747651333708263,-0.006066543610025807,0.21623411741823087
80,1790595493.2967665,0.09896220703125012,-0.248555126953125,-0.14461127929687526,0.3041144384192552,0.09586485311867915,-0.21161863684084256,-0.009397566665494931,0.2325098530838527
81,1790595493.3167665,0.04627177734375012,-0.291665478515625,0.00866997070312474,0.29544034444924944,0.09855209391241905,-0.2168041801074002,-0.010632012201254462,0.23838961263027364
82,1790595493.2967665,0.08938212890625012,-0.253345166015625,0.05657036132812474,0.2745416979114333,0.09855209391241905,-0.2168041801074002,-0.010632012201254462,0.23838961263027364
83,1790595493.3167665,0.16602275390625013,-0.19586469726562503,0.03741020507812474,0.25947265345996984,0.10104969091027771,-0.2219194371788901,-0.011299747041659772,0.24410440576536815
84,1790595493.342356,0.21871318359375014,-0.18149458007812502,0.09489067382812474,0.2996330743676405,0.1045043499248908,-0.22820678380619358,-0.011772031137589225,0.2512729114836997
85,1790595493.362356,0.23787333984375014,-0.205444775390625,0.10926079101562475,0.3327599765553012,0.10748428074034637,-0.232964098139796,-0.011779559194821218,0.25683438173885986
86,1790595493.4018834,0.27619365234375015,-0.210234814453125,0.08531059570312474,0.357434621353811,0.11401429705348481,-0.2421882958852911,-0.0112153878903901,0.2679183000878318
87,1790595493.4218833,0.25703349609375015,-0.320405712890625,0.06615043945312474,0.41605518817455817,0.11762257181748731,-0.2469514064948586,-0.010745557294192295,0.27374355439409276
88,1790595493.416427,0.19476298828125013,-0.363516064453125,-0.024860302734375263,0.4131520124261477,0.11762257181748731,-0.2469514064948586,-0.010745557294192295,0.27374355439409276
89,1790595493.4364269,0.17081279296875013,-0.34914594726562503,-0.12545112304687528,0.4084334548093703,0.12135395345161684,-0.2523337453428871,-0.010578926737978745,0.2801981704937306
90,1790595493.4614143,0.19476298828125013,-0.32998579101562503,-0.15419135742187526,0.41303537206884666,0.12600167219088446,-0.25932235035981094,-0.010926037044771221,0.2885201571407782
91,1790595493.4814143,0.08938212890625012,-0.35872602539062504,-0.11108100585937526,0.3860213933489949,0.1295899213674289,-0.26511004905743946,-0.011560098455924293,0.29531427616619726
92,1790595493.5073662,-0.0016286132812498803,-0.301245556640625,-0.09192084960937527,0.3149618712953193,0.1337184019963336,-0.27277818331157644,-0.012654560502695067,0.304053755485331
93,1790595493.5273662,0.07022197265625012,-0.32998579101562503,-0.058390576171875264,0.34239043079739606,0.1365256875930452,-0.2787481047037212,-0.013596963914788464,0.31068415903674673
94,1790595493.5515149,0.13728251953125012,-0.37788618164062504,-0.02007026367187526,0.4025509556908766,0.13978268562589355,-0.2861572236748934,-0.014706276738145334,0.3188125318076585
95,1790595493.5715148,0.17081279296875013,-0.401836376953125,0.00866997070312474,0.4367203366876703,0.14253765997276094,-0.2925426105076171,-0.01550430110192521,0.325789114038178
96,1790595493.5819094,0.25703349609375015,-0.401836376953125,-0.02007026367187526,0.4774322019311731,0.14408827035972252,-0.2959900191077091,-0.01586573174027409,0.3295804037109804
97,1790595493.6019094,0.25703349609375015,-0.37788618164062504,-0.029650341796875264,0.45797743083887754,0.14739534257655823,-0.3027977256008574,-0.016531420539855422,0.3371722668123502
98,1790595493.626486,0.19476298828125013,-0.420996533203125,-0.07755073242187527,0.4703029009824005,0.15168238375981996,-0.3113809781678144,-0.017424336983645015,0.34679859663373186
99,1790595493.646486,0.18039287109375013,-0.42578657226562505,-0.09671088867187527,0.47242860735867864,0.15521051665710459,-0.31858829404602074,-0.0183033705629793,0.354857462875004
100,1790595493.6570466,0.24745341796875014,-0.420996533203125,-0.14461127929687526,0.5092972581247083,0.15713289177275466,-0.32249378226501496,-0.018889036791309117,0.3592349941018644
101,1790595493.6770465,0.2522434570312501,-0.401836376953125,-0.11108100585937526,0.487276333634849,0.16097701588704222,-0.33001496360502114,-0.020215362085069914,0.36773922378684454
102,1790595493.7017944,0.2905637695312501,-0.33956586914062503,-0.058390576171875264,0.45071248377998263,0.1660277046215093,-0.33930173433263816,-0.021924924834830762,0.3783801896929017
103,1790595493.7217944,0.30014384765625013,-0.306035595703125,0.00866997070312474,0.42874151130402327,0.17038322342869827,-0.34664947608679075,-0.023173851757673624,0.3869539113415018
104,1790595493.7464619,0.29535380859375016,-0.291665478515625,-0.015280224609375262,0.4153746608457178,0.1760511258065947,-0.3554584111324896,-0.024495418423826264,0.3974225792105448
105,1790595493.7664618,0.3624143554687501,-0.26771528320312504,-0.13503120117187528,0.4703711972477465,0.18094389823757007,-0.36236829303510576,-0.02563166311492272,0.405842896033208
106,1790595493.777402,0.32409404296875016,-0.238975048828125,-0.10150092773437526,0.4152691428232703,0.18378209452653257,-0.3659968099561644,-0.026354040146676735,0.4103950031356385
107,1790595493.797402,0.30972392578125013,-0.14317426757812501,-0.09671088867187527,0.3546558572554325,0.18914314602761179,-0.3722084526159824,-0.027773872553806856,0.4184323719367821
108,1790595493.8221934,0.30972392578125013,-0.085693798828125,-0.07755073242187527,0.3305850169897508,0.1959435353927332,-0.37917882909204864,-0.02959387841306927,0.42783904816338103
109,1790595493.8421934,0.3432541992187501,-0.133594189453125,-0.024860302734375263,0.3691732484741922,0.20158615661320425,-0.3842874790888744,-0.030995507088458767,0.435056969352562
110,1790595493.8670466,0.28577373046875015,-0.06174360351562501,-0.039230419921875266,0.2949880056008502,0.20871875327348327,-0.39004766652440676,-0.03259546057333693,0.4435799411370626
111,1790595493.8870466,0.24266337890625014,-0.06653364257812501,-0.024860302734375263,0.25284437053048425,0.2143902118588954,-0.39418013728126905,-0.03378598887706429,0.44998070693351205
112,1790595493.912408,0.32409404296875016,-0.16233442382812502,-0.029650341796875264,0.36368744357773874,0.2215813244400018,-0.3990697220792576,-0.035172904855544584,0.45781225372086587
113,1790595493.932408,0.3719944335937501,-0.25813520507812504,-0.05360053710937526,0.4559458962463355,0.22744570001079384,-0.4029779425493427,-0.036227438759751596,0.4641499714034171
114,1790595493.9424372,0.3432541992187501,-0.291665478515625,-0.039230419921875266,0.4521407109366514,0.23048330547769827,-0.4050573171233134,-0.036746744950339104,0.46748722712338114
115,1790595493.9624372,0.30014384765625013,-0.373096142578125,-0.07755073242187527,0.48507852662403456,0.23659735411465999,-0.4095791430967016,-0.03780217661492597,0.474512789069707
116,1790595493.9865143,0.2905637695312501,-0.435366650390625,-0.14461127929687526,0.543032086102139,0.24392043681160186,-0.4156661543376199,-0.03928335734123128,0.48354804675459867
117,1790595494.0065143,0.2618235351562501,-0.483267041015625,-0.11108100585937526,0.5607473462767741,0.24991956861229372,-0.42134191190438336,-0.04071270107566582,0.4915753467490743
118,1790595494.0317907,0.23787333984375014,-0.45931684570312503,-0.024860302734375263,0.5178549267962346,0.2573114210347346,-0.42922597482774044,-0.04250588037188485,0.5022458110606076
119,1790595494.0517907,0.23308330078125014,-0.41620649414062505,-0.0009101074218752615,0.4770288242480031,0.2629893409559893,-0.43584178673649243,-0.04375056180154458,0.5109164003827579
120,1790595494.0620842,0.21871318359375014,-0.37788618164062504,-0.05360053710937526,0.4398936695737487,0.2658220723020955,-0.43934907747128227,-0.044337159745437144,0.5154170832754185
121,1790595494.0820842,0.17560283203125013,-0.325195751953125,-0.08713081054687527,0.379710955665371,0.271091882872789,-0.4461960906660356,-0.045517039904028826,0.5240740035594134
122,1790595494.1068466,0.15644267578125012,-0.306035595703125,-0.04881049804687526,0.347152072386941,0.27725451364225356,-0.4545742154606478,-0.047011216326306185,0.5345258058851273
123,1790595494.1268466,0.13728251953125012,-0.291665478515625,0.02783012695312474,0.32355796620207583,0.28192589677108637,-0.46122255245089255,-0.04806847527067791,0.5426960774451437
124,1790595494.152997,0.11333232421875013,-0.262925244140625,0.03741020507812474,0.2887445638678216,0.28760917957036375,-0.4696991968077422,-0.049115553568669354,0.5529454885043666
125,1790595494.172997,0.11333232421875013,-0.253345166015625,0.02783012695312474,0.278931003695422,0.29164378415040526,-0.47598412765693826,-0.04969838140724624,0.5604345775640586
126,1790595494.1816635,0.16602275390625013,-0.224604931640625,0.01346000976562474,0.2796285071211371,0.2933114166054083,-0.47860970111537915,-0.049886214664105415,0.5635489930133291
127,1790595494.2016635,0.17560283203125013,-0.210234814453125,0.05178032226562474,0.27877631463140357,0.2970950336896271,-0.48441220844437627,-0.05015680249864709,0.5704702898222543
128,1790595494.2268667,0.08938212890625012,-0.16233442382812502,0.08052055664062474,0.20205244410582837,0.30164869625473983,-0.4913317418255653,-0.05019655877661572,0.5787214450757312
129,1790595494.2468667,0.08459208984375012,-0.215024853515625,0.02304008789062474,0.23221187511313196,0.30498117618033166,-0.4965651170727533,-0.050068034208683665,0.5848907943944216
130,1790595494.2715235,0.11812236328125013,-0.291665478515625,-0.058390576171875264,0.32004859545165903,0.3088481993139099,-0.5029862445230258,-0.04999872370710288,0.5923531419441961
131,1790595494.2915235,0.12770244140625012,-0.33956586914062503,-0.08713081054687527,0.3731014220998096,0.31188311359677284,-0.5083602338148572,-0.050169218408254786,0.5985132866919572
132,1790595494.3015974,0.11333232421875013,-0.401836376953125,-0.06797065429687527,0.4230091008491227,0.3133645973553703,-0.5112212207847808,-0.05035939995979867,0.6017313159714109
133,1790595494.3215973,0.07980205078125012,-0.41620649414062505,-0.06797065429687527,0.4292041739303903,0.3161543432440472,-0.5172762781468228,-0.05088424832888847,0.6083728490107854
134,1790595494.3464003,0.12770244140625012,-0.34914594726562503,-0.07755073242187527,0.3797695645155054,0.3194810886511834,-0.5250827902872994,-0.0517082059260863,0.6168094042909332
135,1790595494.3664002,0.16602275390625013,-0.334775830078125,0.00866997070312474,0.3737827973718239,0.32220183540377106,-0.5314592743512068,-0.05237626950791898,0.6237036609152108
136,1790595494.3926585,0.18039287109375013,-0.35872602539062504,0.06615043945312474,0.4069420473161298,0.3259203426608617,-0.5399410364156627,-0.05297446346372141,0.6329033783643936
137,1790595494.4126585,0.20913310546875014,-0.373096142578125,0.0038799316406247387,0.4277294019344659,0.3289120500978848,-0.5465299923793785,-0.053256698013161664,0.6400894040312354
138,1790595494.4212162,0.19476298828125013,-0.325195751953125,-0.07755073242187527,0.38690956926880227,0.33025938867139726,-0.5493746277845211,-0.053406633087930665,0.6432231447303299
139,1790595494.4412162,0.16602275390625013,-0.334775830078125,-0.039230419921875266,0.3757358607670548,0.33347704242023957,-0.5560154262137056,-0.053879649292777304,0.6505867418084015
140,1790595494.4663987,0.15165263671875012,-0.35872602539062504,0.0038799316406247387,0.38948419401285145,0.3375207469633542,-0.5644325924815996,-0.054452664022388395,0.6599011279770138
141,1790595494.4863987,0.15644267578125012,-0.38746625976562504,0.00866997070312474,0.4179468646303657,0.3407126800616832,-0.5712340707294529,-0.05482066522440195,0.6673820489439332
142,1790595494.5265355,0.11812236328125013,-0.344355908203125,0.01825004882812474,0.36450918850390535,0.3469840437808214,-0.5850391184649675,-0.05536737135977544,0.6824472452754488
143,1790595494.5465355,0.15165263671875012,-0.38746625976562504,0.02783012695312474,0.4170169548672321,0.3500449476493994,-0.5919839910784267,-0.055529809038307225,0.6899710651613185
144,1790595494.5565274,0.15644267578125012,-0.38746625976562504,0.02304008789062474,0.4184916473627256,0.3515756612178212,-0.5955138970268231,-0.055560667392121406,0.6937789524581153
145,1790595494.5765274,0.14686259765625012,-0.41620649414062505,-0.0009101074218752615,0.44135846729239386,0.35463494288795705,-0.6027251134913787,-0.05557997421374377,0.7015216594546032
146,1790595494.587063,0.10375224609375013,-0.41620649414062505,-0.034440380859375265,0.430323731820669,0.3562028230768841,-0.6066118234255896,-0.055616552403923714,0.7056568262186366
147,1790595494.607063,0.12291240234375013,-0.39704633789062505,-0.08234077148437527,0.42371364827075186,0.3590726843530171,-0.6141031309538091,-0.055850744973579426,0.7135651013116158
148,1790595494.6328204,0.15644267578125012,-0.420996533203125,-0.08713081054687527,0.45749772668419103,0.3627539414249064,-0.6238840606531416,-0.056434497437740413,0.7238829985967399
149,1790595494.6528203,0.15165263671875012,-0.440156689453125,-0.06318061523437526,0.4698172236471095,0.36564573610986045,-0.6316312626103328,-0.05704524455398978,0.7320580688499166
150,1790595494.6764627,0.14207255859375012,-0.435366650390625,-0.0009101074218752615,0.45796240072002264,0.36907223333872585,-0.6409680956546533,-0.0577725664223584,0.7418841435829542
151,1790595494.6964626,0.15644267578125012,-0.392256298828125,-0.024860302734375263,0.42303350863493244,0.37198382669001095,-0.6489231735023494,-0.05833420238567466,0.750250712492349
152,1790595494.7069542,0.17560283203125013,-0.382676220703125,-0.034440380859375265,0.42244950508050205,0.37354336509409014,-0.6530800653566029,-0.05863129436908344,0.7546428599353442
153,1790595494.7269542,0.19476298828125013,-0.454526806640625,0.05178032226562474,0.49720060471916006,0.3766258971097651,-0.6610714504650854,-0.05908667476475132,0.763121067805432
154,1790595494.7813277,0.19955302734375013,-0.464106884765625,0.07094047851562474,0.5101462169818908,0.38535727230094674,-0.6832847509423252,-0.0596385454390686,0.7867242428498243
155,1790595494.8013277,0.18039287109375013,-0.444946728515625,0.05657036132812474,0.48344532776623067,0.3886570724268705,-0.6915933626422585,-0.05961982282580313,0.7955565488838818
156,1790595494.7967603,0.16602275390625013,-0.392256298828125,-0.02007026367187526,0.42641690195020787,0.3886570724268705,-0.6915933626422585,-0.05961982282580313,0.7955565488838818
157,1790595494.8167603,0.21392314453125014,-0.39704633789062505,-0.09192084960937527,0.46028072824245414,0.39205277582264586,-0.6998477202633109,-0.059727744667306154,0.8044001579257914
158,1790595494.826579,0.19476298828125013,-0.44973676757812503,-0.16377143554687526,0.5167367461454112,0.3937707600207312,-0.7039158351034998,-0.05996107456055025,0.8087943155210833
159,1790595494.846579,0.19955302734375013,-0.48805708007812504,-0.23562202148437528,0.5775282340672396,0.3973367035059431,-0.7123659453445093,-0.06096414505791522,0.8179598541628975
160,1790595494.8711624,0.17560283203125013,-0.49763715820312504,-0.19730170898437527,0.5633889067154523,0.4017540698543314,-0.7230119350314862,-0.06281034935961621,0.8295165645297085
161,1790595494.8911624,0.17081279296875013,-0.492847119140625,-0.10629096679687526,0.532327965364974,0.40532841022888355,-0.7318596236350008,-0.06454243360328211,0.8390919821934143
162,1790595494.9161417,0.18997294921875013,-0.440156689453125,0.01346000976562474,0.4795923316402122,0.40979892859301814,-0.7430004752489444,-0.06655516925565189,0.851125407123293
163,1790595494.9361417,0.21871318359375014,-0.38746625976562504,0.04699028320312474,0.4474076953405989,0.41345441951081774,-0.7518239422263729,-0.06783428412606067,0.8606888446010712
164,1790595494.946404,0.19476298828125013,-0.301245556640625,0.01825004882812474,0.3591859842507657,0.415366987258457,-0.7562023427628987,-0.06834195161243026,0.8654723217148307
165,1790595494.966404,0.18039287109375013,-0.33956586914062503,0.02783012695312474,0.38551405083719253,0.41909799431534556,-0.764416620604564,-0.0691138105645351,0.8745013536332564
166,1790595494.9913113,0.17560283203125013,-0.430576611328125,0.05178032226562474,0.46788222301572713,0.4237125200914627,-0.7745506202011554,-0.06978215580456902,0.8856243629242513
167,1790595495.0113113,0.15165263671875012,-0.42578657226562505,0.01346000976562474,0.452187902545336,0.4273529495136638,-0.7827519102182664,-0.07014046026679215,0.8945673706182282
168,1790595495.037077,0.12770244140625012,-0.363516064453125,-0.06797065429687527,0.3912439807871178,0.43187920329694,-0.7932579306171438,-0.07063815621161665,0.905962217667144
169,1790595495.057077,0.13728251953125012,-0.344355908203125,-0.12545112304687528,0.3913635981500699,0.43526306800175435,-0.8012515295029479,-0.07125666458039237,0.9146231268365325
170,1790595495.0666273,0.18518291015625013,-0.33956586914062503,-0.11108100585937526,0.4024135678153713,0.43686751721027794,-0.8049859237373357,-0.07167713270315987,0.9186910124526475
171,1790595495.0866272,0.23308330078125014,-0.41620649414062505,-0.07755073242187527,0.48329058232814986,0.4403509012083326,-0.812766955830619,-0.07270853051393017,0.9272462300245049
172,1790595495.1420143,0.20434306640625013,-0.42578657226562505,-0.04402045898437526,0.4743290995914277,0.4503676957840114,-0.834580782509974,-0.07564139996079405,0.9513557511934162
173,1790595495.1620142,0.18997294921875013,-0.420996533203125,-0.02007026367187526,0.4623100884555499,0.45403363226825194,-0.8425462917801008,-0.07663772399259779,0.9601583899346329
174,1790595495.1567445,0.19955302734375013,-0.363516064453125,-0.024860302734375263,0.415431552111282,0.45403363226825194,-0.8425462917801008,-0.07663772399259779,0.9601583899346329
175,1790595495.1767445,0.20434306640625013,-0.310825634765625,0.0038799316406247387,0.3719996208133804,0.45778476008744173,-0.8503131364200375,-0.07744632504973928,0.9688122882171282
176,1790595495.1863275,0.19955302734375013,-0.32998579101562503,0.01346000976562474,0.38586682269554345,0.4596028010358111,-0.8539369663233037,-0.07776318761139224,0.9728772741311696
177,1790595495.2063274,0.19476298828125013,-0.36830610351562504,0.02304008789062474,0.4172683227146681,0.4634194313729596,-0.8614129822072265,-0.07827054337669767,0.9812829221227017
178,1790595495.2313797,0.18997294921875013,-0.40662641601562505,-0.029650341796875264,0.44979318181276773,0.46820597913268064,-0.8708289155325585,-0.0788231574716515,0.9918532800656581
179,1790595495.2513797,0.10375224609375013,-0.363516064453125,-0.06318061523437526,0.3832756812352967,0.4718946197765606,-0.8783735876478331,-0.07933739638052864,1.0002595233817229
180,1790595495.276947,0.07980205078125012,-0.353935986328125,-0.07755073242187527,0.3710163956297959,0.47625471124905483,-0.8879474593472401,-0.08016603300517126,1.01078970780075
181,1790595495.296947,0.10375224609375013,-0.334775830078125,-0.058390576171875264,0.35531513387369146,0.47942911680231964,-0.8953463021822964,-0.0809209146824016,1.0188451665009757
182,1790595495.3214974,0.15165263671875012,-0.35872602539062504,-0.015280224609375262,0.3897645042591969,0.4832115470660563,-0.9043431479633213,-0.08184420293494393,1.0286050758382623
183,1790595495.3414974,0.14686259765625012,-0.373096142578125,0.02783012695312474,0.40192520468769466,0.48627846841785344,-0.9116707581391923,-0.08246471029259721,1.0365378664267626
184,1790595495.3519666,0.15644267578125012,-0.382676220703125,0.01825004882812474,0.41382177924736285,0.48788122076863477,-0.915524539697019,-0.08270461798626559,1.040698478043658
185,1790595495.3719666,0.16602275390625013,-0.41620649414062505,0.00866997070312474,0.4481814018580406,0.49096748298338233,-0.9229806698227542,-0.083053802393292,1.0487327210998432
186,1790595495.3966103,0.12291240234375013,-0.344355908203125,-0.015280224609375262,0.3659534607411493,0.49473393134446997,-0.9321956244801506,-0.08343174052621422,1.0586364817304976
187,1790595495.4166102,0.14686259765625012,-0.301245556640625,-0.04881049804687526,0.33867384414159535,0.4977368098816013,-0.9395207959079136,-0.08378859031828549,1.0665185351047952
188,1790595495.4412649,0.16602275390625013,-0.315615673828125,-0.04402045898437526,0.35932521368502895,0.5014618493678618,-0.9483369126326225,-0.0843341590549906,1.076066511241997
189,1790595495.4612648,0.15165263671875012,-0.353935986328125,-0.010490185546875261,0.3852002708132742,0.5045068701852323,-0.955420172840399,-0.08479210827591933,1.0837640842731189
190,1790595495.4713628,0.14207255859375012,-0.363516064453125,0.0038799316406247387,0.390312176200537,0.5060361376140201,-0.9590034184974029,-0.08499365012733852,1.0876507021203954
191,1790595495.4913628,0.13249248046875012,-0.33956586914062503,-0.005700146484375262,0.3645431778760008,0.5090225115872684,-0.9660904463845165,-0.08533567682481415,1.0953158656922644
192,1790595495.5165558,0.09896220703125012,-0.320405712890625,-0.04402045898437526,0.33821759280475155,0.512657357098396,-0.9749255434849068,-0.08579583141672785,1.1048340625700046
193,1790595495.5365558,0.07980205078125012,-0.291665478515625,-0.07755073242187527,0.312171803284363,0.5153782628701911,-0.9818054900094884,-0.08628869603037002,1.112206146860594
194,1790595495.5618954,0.11333232421875013,-0.243765087890625,-0.058390576171875264,0.2750910634187007,0.5186755454114276,-0.990232309393287,-0.0870778311889042,1.121234541324324
195,1790595495.5818954,0.17081279296875013,-0.282085400390625,-0.010490185546875261,0.32993821747128993,0.5213138631941441,-0.9966745190586032,-0.08771057191946535,1.1281938598155639
196,1790595495.60639,0.15165263671875012,-0.306035595703125,0.02783012695312474,0.3426818116377682,0.5246528148796149,-1.0044614471755249,-0.08833741472753887,1.1366648027733588
197,1790595495.62639,0.12770244140625012,-0.32998579101562503,0.06615043945312474,0.35996446554231715,0.5273891747259492,-1.0108198283838608,-0.08863149078599147,1.1435696779081905
198,1790595495.6362474,0.14207255859375012,-0.32998579101562503,0.01825004882812474,0.3597336493293493,0.5287349932567704,-1.0139715334234953,-0.08869229337702045,1.1469809443019998
199,1790595495.6562474,0.13728251953125012,-0.306035595703125,-0.058390576171875264,0.3404610629600663,0.5314750082602849,-1.0203609579813677,-0.08885736354291349,1.1539054554137969
200,1790595495.6815224,0.12291240234375013,-0.325195751953125,-0.06318061523437526,0.3533433540901321,0.5349115318433945,-1.0284209798879111,-0.08926513328130846,1.1626471187735288
201,1790595495.7015224,0.05585185546875012,-0.32998579101562503,-0.04402045898437526,0.3375616282113608,0.5374910870234387,-1.034824929708908,-0.08970020105536228,1.1695321414335123
202,1790595495.741509,0.06064189453125012,-0.310825634765625,-0.09671088867187527,0.3311238598885572,0.5422242313598383,-1.047629801330368,-0.0908616221156737,1.183127698975375
203,1790595495.761509,0.12770244140625012,-0.334775830078125,-0.04402045898437526,0.36099940547708587,0.544519005601499,-1.0540420901384497,-0.09156648769973573,1.1899118021577662
204,1790595495.756544,0.12770244140625012,-0.34914594726562503,0.08052055664062474,0.38038712658927276,0.544519005601499,-1.0540420901384497,-0.09156648769973573,1.1899118021577662
205,1790595495.776544,0.08459208984375012,-0.306035595703125,0.15237114257812476,0.35217974472144603,0.5468210623993144,-1.0605297396140063,-0.09167987828841669,1.196721272048026
206,1790595495.8320832,0.07980205078125012,-0.272505322265625,0.06136040039062474,0.29050407347932855,0.5529396456256035,-1.0782531613575113,-0.09105724235679286,1.2151804611117063
207,1790595495.8520832,0.07501201171875012,-0.272505322265625,-0.07276069335937527,0.2918562506840021,0.5550447048637162,-1.084495642257696,-0.09088376002285818,1.221664962380879
208,1790595495.8320832,0.08459208984375012,-0.315615673828125,-0.15898139648437526,0.3633788101392768,0.5550447048637162,-1.084495642257696,-0.09088376002285818,1.221664962380879
209,1790595495.8520832,0.11812236328125013,-0.334775830078125,-0.09671088867187527,0.3679412250609452,0.5570731765883787,-1.090731274588449,-0.09143742798132153,1.2281636864341205
210,1790595495.8776603,0.12770244140625012,-0.310825634765625,-0.005700146484375262,0.3360847816229021,0.5597497398241705,-1.0987480162645862,-0.092235732744796,1.2365574814271916
211,1790595495.8976603,0.14686259765625012,-0.25813520507812504,0.01346000976562474,0.2972937580137834,0.5619405841381342,-1.1049298421520823,-0.09275469200626356,1.2430810951297224
212,1790595495.9368477,0.15165263671875012,-0.219814892578125,-0.015280224609375262,0.2674894287387724,0.5664667173592106,-1.116630194511779,-0.0936243514643968,1.2555927095831123
213,1790595495.9568477,0.18518291015625013,-0.238975048828125,-0.039230419921875266,0.30486195240401714,0.5689354617753678,-1.1223941337646557,-0.0940833861913384,1.2618668054640678
214,1790595495.9664052,0.18518291015625013,-0.248555126953125,-0.0009101074218752615,0.3099567544741383,0.5702037322200024,-1.1250848757619258,-0.09429861631330941,1.2648480157491069
215,1790595495.9864051,0.14686259765625012,-0.320405712890625,0.05178032226562474,0.35624380025092817,0.5729576838179576,-1.130724362699306,-0.09460514277758453,1.2711287208177453
216,1790595496.026438,0.15644267578125012,-0.315615673828125,0.02304008789062474,0.3530133283908505,0.5785539158558665,-1.1422290081431532,-0.09490202074520271,1.2839073697651913
217,1790595496.046438,0.18039287109375013,-0.291665478515625,0.02783012695312474,0.3440710032325042,0.5814356125786878,-1.1480253848099093,-0.0949517849341738,1.2903664197447484
218,1790595496.0408268,0.19476298828125013,-0.325195751953125,0.0038799316406247387,0.379077765850408,0.5814356125786878,-1.1480253848099093,-0.0949517849341738,1.2903664197447484
219,1790595496.0608268,0.16123271484375012,-0.344355908203125,-0.010490185546875261,0.38037747546758466,0.5845299547708959,-1.1540040908028584,-0.09495722464595908,1.297080407733715
220,1790595496.0872142,0.10375224609375013,-0.35872602539062504,0.0038799316406247387,0.3734487163341031,0.5885245808469373,-1.1621004578263863,-0.0949764071900651,1.3060854391134191
221,1790595496.1072142,0.10375224609375013,-0.334775830078125,-0.04402045898437526,0.3532381431600936,0.5914093550252422,-1.168356753307863,-0.09504897618111693,1.3129572864661447
222,1790595496.11648,0.12770244140625012,-0.35872602539062504,-0.09671088867187527,0.39286800686919765,0.5927062299949687,-1.171302433314827,-0.09517535412138058,1.3161718783639977
223,1790595496.13648,0.08938212890625012,-0.32998579101562503,-0.039230419921875266,0.3441203468080142,0.5954112103288495,-1.1777398875620628,-0.09561112928298214,1.323150497933902
224,1790595496.1619573,0.09417216796875012,-0.325195751953125,0.06615043945312474,0.3449587728238469,0.5986908444075923,-1.1859621523200876,-0.09603153981464398,1.331975604338286
225,1790595496.1819572,0.15165263671875012,-0.353935986328125,0.08531059570312474,0.39439460237309776,0.6012479610595228,-1.1924672653202588,-0.09608487304066413,1.3389210553150064
226,1790595496.221429,0.18518291015625013,-0.33956586914062503,0.02304008789062474,0.3874642375099586,0.6065348315920304,-1.2054329915416762,-0.0958535822417276,1.35282707995518
227,1790595496.241429,0.19955302734375013,-0.282085400390625,-0.05360053710937526,0.34966641447815405,0.6093889166416265,-1.211949625721787,-0.09579980913780355,1.35990968466427
228,1790595496.2369719,0.21392314453125014,-0.26771528320312504,-0.16377143554687526,0.37981004163627885,0.6093889166416265,-1.211949625721787,-0.09579980913780355,1.35990968466427
229,1790595496.2569718,0.15644267578125012,-0.277295361328125,-0.17335151367187526,0.362515896909395,0.6125337229069966,-1.2181764043071304,-0.09654379101261487,1.3669206331356776
230,1790595496.2822666,0.13249248046875012,-0.310825634765625,-0.08234077148437527,0.347774115277227,0.6164626228471525,-1.2259861025205319,-0.09782866927857424,1.3757320005996412
231,1790595496.3022666,0.15165263671875012,-0.325195751953125,-0.02007026367187526,0.3593794857750873,0.6195293546160832,-1.2321888347735874,-0.09884581994202872,1.3827062023046413
232,1790595496.3276494,0.17560283203125013,-0.320405712890625,-0.04402045898437526,0.36801355447801126,0.6234606458122629,-1.2401091810302107,-0.10006509968560076,1.3916130862876912
233,1790595496.3476493,0.22350322265625014,-0.291665478515625,-0.09671088867187527,0.37996768005079284,0.6266922683511558,-1.2463319020772443,-0.10109280345356977,1.398680150805287
234,1790595496.357143,0.24745341796875014,-0.301245556640625,-0.11587104492187526,0.40670404290026946,0.6283314869106044,-1.2492647967552153,-0.10165882166635742,1.4020690089570245
235,1790595496.377143,0.22350322265625014,-0.306035595703125,-0.06318061523437526,0.3841917054238549,0.6319732376263274,-1.2554275944203732,-0.10294095657966022,1.409285442502534
236,1790595496.4013324,0.22829326171875014,-0.277295361328125,0.01346000976562474,0.35943247296699815,0.6365368062610665,-1.2628215655285409,-0.10434926356767939,1.418021925393296
237,1790595496.4213324,0.28577373046875015,-0.291665478515625,0.06615043945312474,0.4136559645691283,0.6405151108743019,-1.2688713735484005,-0.10521958419411184,1.4252597415092119
238,1790595496.462036,0.29535380859375016,-0.334775830078125,-0.015280224609375262,0.4467014818863311,0.6491712334342759,-1.2812493260635835,-0.10656985867317743,1.4402708983502328
239,1790595496.4820359,0.2522434570312501,-0.306035595703125,-0.13503120117187528,0.41894865167746054,0.6536078905381233,-1.2873802404866612,-0.10735927278735362,1.4477835375575379
240,1790595496.477063,0.24745341796875014,-0.296455517578125,-0.13024116210937528,0.4075313831774573,0.6536078905381233,-1.2873802404866612,-0.10735927278735362,1.4477835375575379
241,1790595496.497063,0.23787333984375014,-0.334775830078125,-0.11108100585937526,0.4254380942929869,0.6581784776461326,-1.2935248477126793,-0.10862982933221461,1.4554057440821913
242,1790595496.522249,0.2714036132812501,-0.291665478515625,-0.13503120117187528,0.4206686320012301,0.6640328746847295,-1.301285407653445,-0.11045473884323063,1.4650882636096654
243,1790595496.542249,0.15165263671875012,-0.315615673828125,0.00866997070312474,0.3502669613048362,0.6686190351360662,-1.3074345191407812,-0.1118760503765431,1.4727364620443892
244,1790595496.5668235,0.10375224609375013,-0.296455517578125,0.03741020507812474,0.3163066959708558,0.6738796376482974,-1.3149848635808985,-0.11327556389464012,1.4819346513458425
245,1790595496.5868235,0.19476298828125013,-0.262925244140625,-0.005700146484375262,0.3272534144674322,0.6779665519139515,-1.3210470569976809,-0.11419614426683874,1.4892430062557753
246,1790595496.5971766,0.17560283203125013,-0.32998579101562503,-0.06318061523437526,0.3791025811452586,0.680052403729228,-1.3241748470966959,-0.11465469042217505,1.493002342776884
247,1790595496.6171765,0.18997294921875013,-0.210234814453125,-0.23083198242187528,0.36547476349513197,0.6840257784056355,-1.3301210728246156,-0.11584865110442144,1.5001780707163586
248,1790595496.6417596,0.16123271484375012,-0.15754438476562502,-0.2547821777343753,0.3401913867194996,0.6888246212578949,-1.3370116736903679,-0.11799142334555578,1.5086422870974123
249,1790595496.6617596,0.041481738281250125,-0.128804150390625,-0.13503120117187528,0.1911666002695145,0.6924472426459379,-1.3422062622037076,-0.12005793691292974,1.5150626199476376
250,1790595496.6863253,0.03190166015625012,0.101117724609375,-0.12066108398437526,0.16062878739250552,0.69636461910546,-1.3476806467556088,-0.12268656059138904,1.5219128754732492
251,1790595496.7063253,0.11812236328125013,0.163388232421875,-0.09192084960937527,0.2215807974396736,0.6993005626226446,-1.351072278558535,-0.12482449659277554,1.526433337464607
252,1790595496.7472024,0.18518291015625013,0.22086870117187501,-0.015280224609375262,0.28863329439862234,0.7053309824595049,-1.3557864395099268,-0.1288673421967984,1.533706443965455
253,1790595496.7672024,0.07501201171875012,0.331039599609375,0.14279106445312476,0.36824354237282375,0.7082292075161049,-1.3569191047027795,-0.13035741611971965,1.5361676741240495
254,1790595496.7613854,0.01274150390625012,0.460370654296875,0.22901176757812475,0.5143441211375734,0.7082292075161049,-1.3569191047027795,-0.13035741611971965,1.5361676741240495
255,1790595496.7813854,-0.0016286132812498803,0.503481005859375,0.15237114257812476,0.5260349234917309,0.7104517300652581,-1.3552826320817548,-0.13038787255061665,1.535751825941758
256,1790595496.8075285,0.03669169921875012,0.441210498046875,0.05657036132812474,0.4463330484729148,0.7129898834749411,-1.3516120917954,-0.13001203414338966,1.5336599850185988
257,1790595496.8275285,0.02711162109375012,0.43642045898437504,0.05178032226562474,0.44031699807342844,0.7147360662978375,-1.3479088146278266,-0.12960511288089777,1.5311770969757776
258,1790595496.8513136,-0.0064186523437498805,0.537011279296875,-0.039230419921875266,0.5384805837142347,0.7165381410436911,-1.3424288001681404,-0.12917138150276758,1.5271631336862985
259,1790595496.8713136,-0.1357497070312499,0.608861865234375,-0.07276069335937527,0.6280405021922467,0.7176128893075396,-1.3367932500542774,-0.12902936629010608,1.5227058250549315
260,1790595496.88168,-0.1836500976562499,0.594491748046875,-0.015280224609375262,0.6223996161061575,0.7178380676560105,-1.3333747856034823,-0.1290352483796604,1.5198124573721747
261,1790595496.90168,-0.1692799804687499,0.6471821777343751,0.0038799316406247387,0.668966020687183,0.7176779443017169,-1.3259063171400391,-0.1290619948750155,1.5131907322245002
262,1790595496.9268823,-0.07347919921874989,0.8004634277343751,-0.015280224609375262,0.8039741147090538,0.7170475802903302,-1.3151705607690003,-0.12911219148245007,1.5034961903187734
263,1790595496.9468822,-0.2028102539062499,1.016015185546875,0.00866997070312474,1.0360955673794583,0.7162079397234786,-1.3052041305960043,-0.1291559665564206,1.494387131617823
264,1790595496.9720538,-0.28903095703124987,1.1980366699218752,-0.029650341796875264,1.2327651436378984,0.7143811709263503,-1.290362309274816,-0.12924240480149962,1.4805671027582687
265,1790595496.9920537,-0.2746608398437499,1.2890474121093751,-0.09671088867187527,1.3215274509435115,0.7123018967819567,-1.2766080274860017,-0.12949032390501902,1.4676068247272154
266,1790595497.0015562,-0.2938209960937499,1.293837451171875,-0.07755073242187527,1.3290448615075516,0.7110570298980653,-1.2692125491209187,-0.1297146396554592,1.46059182606039
267,1790595497.0215561,-0.2028102539062499,1.1932466308593752,-0.06797065429687527,1.2122662789141307,0.7080849945145941,-1.2522512829031918,-0.13033422643466386,1.4444738300051492
268,1790595497.0471325,-0.1549098632812499,1.2794673339843752,-0.12066108398437526,1.294446917282893,0.7041682156139495,-1.2290712282469851,-0.1313695532069192,1.4225775618556873
269,1790595497.0671325,-0.2938209960937499,1.384848193359375,-0.10150092773437526,1.41930889334464,0.700891731687794,-1.2096675366264786,-0.1323909525916121,1.404304857587697
270,1790595497.091992,-0.28903095703124987,1.3992183105468752,-0.08234077148437527,1.4311291965929192,0.6963433364091183,-1.1839762454183385,-0.13381285329502743,1.380072342880345
271,1790595497.111992,-0.20760029296874988,1.4040083496093752,-0.11108100585937526,1.4236138230841546,0.6924879950763831,-1.1622025608350988,-0.135075344682756,1.3595954414743143
272,1790595497.1214852,-0.20760029296874988,1.341737841796875,-0.07755073242187527,1.3599163334005575,0.690636865617889,-1.1514626052620442,-0.13571902535477434,1.3495425392741818
273,1790595497.1414852,-0.23634052734374988,1.303417529296875,-0.04402045898437526,1.3254025431364944,0.686656090667368,-1.1282625658225434,-0.13705403723255333,1.327876806563321
274,1790595497.1666207,-0.21239033203124988,1.3225776855468752,-0.06797065429687527,1.341246210541681,0.6815576548778467,-1.0985284490986302,-0.13869129927468402,1.3002003179880137
275,1790595497.1866207,-0.23155048828124988,1.3177876464843752,-0.029650341796875264,1.3383045440477235,0.6774435030806133,-1.07445773567673,-0.13994506524413172,1.2778786119612
276,1790595497.2121904,-0.23634052734374988,1.3561079589843752,-0.02007026367187526,1.3766947580236326,0.6720753169473566,-1.0431719961638144,-0.141402898662349,1.2489546929254085
277,1790595497.2321904,-0.1932301757812499,1.3273677246093751,-0.039230419921875266,1.3419321901699688,0.6678619263576768,-1.0183464823841535,-0.14246108922735093,1.2261175607608796
278,1790595497.2412534,-0.1596999023437499,1.260307177734375,-0.06797065429687527,1.2722021265911068,0.6659991250390935,-1.0070253298033673,-0.1429415483513685,1.2157660694654648
279,1790595497.2612534,-0.24113056640624989,1.2459370605468751,-0.05360053710937526,1.2701874375374684,0.6619037197878481,-0.9820302509713071,-0.14402512888706218,1.1929975632174163
280,1790595497.28735,-0.2459206054687499,1.2459370605468751,-0.04881049804687526,1.2709124941387147,0.656408204199843,-0.9494308589333612,-0.14542737770651104,1.1633743200803408
281,1790595497.30735,-0.23155048828124988,1.221986865234375,-0.058390576171875264,1.2451011954111615,0.6521120782963029,-0.9244928956444812,-0.14650164004682456,1.1407892037065614
282,1790595497.3323498,-0.20760029296874988,1.2315669433593752,-0.09192084960937527,1.2523196318069818,0.6467240632864152,-0.8933960489283976,-0.14792487065143856,1.1127849215512438
283,1790595497.3523498,-0.2459206054687499,1.298627490234375,-0.11108100585937526,1.3263669524114656,0.642379914910103,-0.8684548042986677,-0.14919717457022394,1.0904703109617824
284,1790595497.3913865,-0.2650807617187499,1.2698872558593752,-0.08234077148437527,1.2998697840461133,0.6336766094628375,-0.819555710661231,-0.15187429938026023,1.0470355347694738
285,1790595497.4113865,-0.2794508789062499,1.1980366699218752,-0.034440380859375265,1.2306789979652333,0.6290696394571536,-0.7945589258798496,-0.15321532305396654,1.024952405334328
286,1790595497.4063625,-0.2650807617187499,1.2411470214843752,-0.11587104492187526,1.2744174505334647,0.6290696394571536,-0.7945589258798496,-0.15321532305396654,1.024952405334328
287,1790595497.4263625,-0.24113056640624989,1.2459370605468751,-0.14461127929687526,1.2772687779005112,0.6242875101803185,-0.7696581700694022,-0.15476658265702672,1.0030260660765782
288,1790595497.4521582,-0.2746608398437499,1.226776904296875,-0.04881049804687526,1.258094835288454,0.6180468847778827,-0.7375751141112952,-0.15684146555408934,0.9749862799327436
289,1790595497.4721582,-0.29861103515624987,1.3129976074218752,-0.005700146484375262,1.3465376931532957,0.6130742559671414,-0.7126219526053285,-0.1582906290370441,0.9532817075270238
290,1790595497.4966419,-0.2842409179687499,1.332157763671875,-0.0009101074218752615,1.3621446454229773,0.6068296730606844,-0.6817995197006861,-0.15981070510758036,0.9266241409751882
291,1790595497.5166419,-0.3608815429687499,1.4087983886718751,-0.005700146484375262,1.4542973834982724,0.6015261304448482,-0.6562868603232705,-0.16087606916111136,0.9046696846195628
292,1790595497.527192,-0.09742939453124988,1.145346240234375,-0.08713081054687527,1.1527802371156004,0.5987854460448228,-0.6428263114131693,-0.16142721832981555,0.893212418105492
293,1790595497.547192,-0.11179951171874988,1.1597163574218752,-0.10629096679687526,1.1699311646909094,0.5940554475567741,-0.6176792931177384,-0.1626054356051537,0.8722786891851996
294,1790595497.5867054,-0.3752516601562499,1.384848193359375,-0.10150092773437526,1.4383743481554743,0.58466889469112,-0.5679086084524221,-0.16519982974262268,0.8316543078230846
295,1790595497.6067054,-0.4135719726562499,1.4040083496093752,-0.07755073242187527,1.4657064298278808,0.5794472468107892,-0.5423122902007899,-0.16658460337101938,0.8109328961262511
296,1790595497.6169782,-0.3513014648437499,1.346527880859375,-0.06797065429687527,1.393258792535884,0.5765782165024528,-0.5290179783711414,-0.16730130211863667,0.8001825959589661
297,1790595497.6369781,-0.2698708007812499,1.3225776855468752,-0.09192084960937527,1.3529565499356406,0.570898605696294,-0.5030140535535388,-0.16872717768340792,0.7793697559870689
298,1790595497.6468232,-0.29861103515624987,1.332157763671875,-0.10150092773437526,1.3689833074070983,0.5681024252756914,-0.49017346171567977,-0.16946660159793503,0.7692394407670532
299,1790595497.6668231,-0.3417213867187499,1.341737841796875,-0.08234077148437527,1.3870162021041297,0.5623135951018486,-0.4639900019820283,-0.17101917151024776,0.7488196433051819
300,1790595497.7218962,-0.23634052734374988,1.226776904296875,-0.08713081054687527,1.2523698319298104,0.5463765549085702,-0.3920956564595517,-0.17535312392440466,0.6949928500626839
301,1790595497.7418962,-0.21239033203124988,1.260307177734375,-0.005700146484375262,1.278090891548435,0.5407840012232767,-0.36617263105862075,-0.17683017804982518,0.6766081905982092
302,1790595497.7517684,-0.1644899414062499,1.217196826171875,0.03741020507812474,1.228830573313793,0.5381584923209638,-0.3534617571160791,-0.17742642530716962,0.667854709497537
303,1790595497.7717683,-0.2507106445312499,1.221986865234375,-0.005700146484375262,1.2474534932239167,0.5330145501080112,-0.32791478462358015,-0.17840560158410726,0.6507389455673925
304,1790595497.7816172,-0.020788769531249883,0.8962642089843751,-0.19251166992187527,0.9169419001774977,0.5306608739231511,-0.3156567674460739,-0.17896187271484865,0.6428588568519477
305,1790595497.8016171,-0.09263935546874988,1.174086474609375,-0.27873237304687526,1.2102697368052622,0.526428072226249,-0.29139278921253936,-0.18062891279017454,0.6282221557448198
306,1790595497.812197,-0.3225612304687499,1.2698872558593752,-0.19251166992187527,1.3242809871970818,0.5241953665107543,-0.27854340105134945,-0.18175241158064293,0.6208068521335571
307,1790595497.832197,-0.4135719726562499,1.3608979980468752,-0.12066108398437526,1.4274607647298259,0.5195035882908885,-0.2539504391254948,-0.18402744229971119,0.6068285617029856
308,1790595497.8722196,-0.3129811523437499,1.3561079589843752,0.05657036132812474,1.3929056694277555,0.5093421574210256,-0.20396310471093546,-0.18808956536053056,0.5800069534127519
309,1790595497.8922195,-0.2938209960937499,1.346527880859375,0.19069145507812474,1.3913415622042544,0.50411579095162,-0.17867656053437855,-0.18944409827761546,0.5674038335642364
310,1790595497.901532,-0.3034010742187499,1.413588427734375,0.15237114257812476,1.4537886434940248,0.5016301978534111,-0.16674098153705288,-0.1897405862755266,0.5616376949623064
311,1790595497.921532,-0.21718037109374988,1.3082075683593752,0.04220024414062474,1.326783786495259,0.49631181924252915,-0.14086961833157463,-0.18998997511150892,0.5497871060070291
312,1790595497.9320896,-0.1596999023437499,1.255517138671875,-0.16377143554687526,1.2761851070313037,0.4936270366813303,-0.12723110328187737,-0.1901981390067413,0.5440870675422664
313,1790595497.9520895,-0.1980202148437499,1.2315669433593752,-0.2835224121093753,1.2792005705246687,0.4887674065805386,-0.10153967491653189,-0.19120426569358426,0.5345680074013439
314,1790595497.976667,-0.4471022460937499,1.332157763671875,-0.21167182617187527,1.4210382428943509,0.48250217398159245,-0.06997823769024786,-0.19316799811785768,0.5244227084557422
315,1790595497.996667,-0.3369313476562499,1.2411470214843752,-0.09192084960937527,1.2893479377444639,0.476992511611446,-0.04428748131555052,-0.1949816852801655,0.5172050799531693
316,1790595498.007326,-0.3417213867187499,1.2363569824218752,0.0038799316406247387,1.2827186550424243,0.4739540647605305,-0.03066881255955995,-0.19587368033916683,0.5137504551982924
317,1790595498.0273259,-0.2028102539062499,1.2746772949218752,-0.04402045898437526,1.291461190314313,0.46829125560499024,-0.005181878662391601,-0.19735653211088652,0.5082058172722991
318,1790595498.051431,-0.1405397460937499,1.265097216796875,-0.02007026367187526,1.273037785638413,0.4618691613786161,0.025520240833697687,-0.19899153249312482,0.5035593658435502
319,1790595498.071431,-0.21718037109374988,1.2459370605468751,0.04220024414062474,1.2654277273073065,0.456803431267171,0.05093930781259541,-0.20011141355260295,0.5013070573330364
320,1790595498.1273606,-0.2507106445312499,1.1932466308593752,0.04220024414062474,1.2200304135324058,0.44279945175917035,0.12159246041227816,-0.20241934842126935,0.5018263380120901
321,1790595498.1473606,-0.1453297851562499,1.140556201171875,-0.058390576171875264,1.1512595944750532,0.43794884119966343,0.14656839345470166,-0.2031451374416956,0.5045289172428332
322,1790595498.1415646,-0.1980202148437499,1.063915576171875,-0.11108100585937526,1.0878728549654268,0.43794884119966343,0.14656839345470166,-0.2031451374416956,0.5045289172428332
323,1790595498.1615646,-0.4662624023437499,1.2411470214843752,-0.11587104492187526,1.330891676970815,0.43301008126239354,0.17088179451253793,-0.20422602382149138,0.5083370800724911
324,1790595498.172367,-0.1644899414062499,1.183666552734375,-0.07276069335937527,1.1972541782696136,0.43023163397762243,0.18400880218291316,-0.20487509350836816,0.5108153307173816
325,1790595498.192367,-0.01120869140624988,1.1118159667968752,-0.09192084960937527,1.115665640494687,0.42559562375373755,0.20811008930149646,-0.20614356123358962,0.516659086889485
326,1790595498.2165258,-0.1644899414062499,1.226776904296875,-0.06318061523437526,1.2393668963956759,0.42051726785814003,0.23709330462516512,-0.20772698484687474,0.5255459141678582
327,1790595498.2365258,-0.2507106445312499,1.2842573730468752,-0.034440380859375265,1.3089533862366047,0.4163209346432283,0.261254735459362,-0.20898763831192244,0.5340908072503657
328,1790595498.2622383,-0.28903095703124987,1.2794673339843752,0.0038799316406247387,1.3117128522374937,0.4106944002395658,0.29260189000119663,-0.21042419145723584,0.5464101909470948
329,1790595498.2822382,-0.3034010742187499,1.212406787109375,-0.04402045898437526,1.250567962997279,0.4060857324066963,0.31706507728003286,-0.21143418885492132,0.5569024165072501
330,1790595498.3067198,-0.28903095703124987,1.226776904296875,-0.13503120117187528,1.2675779630178745,0.4002027957593946,0.3469968195330556,-0.21281381649836048,0.5708404251560059
331,1790595498.3267198,-0.3513014648437499,1.2459370605468751,-0.07755073242187527,1.2968369188701876,0.3951571854138517,0.37149049599268946,-0.21409070286346207,0.5830859446510975
332,1790595498.3372104,-0.3704616210937499,1.2842573730468752,0.01825004882812474,1.3367467513373275,0.3923397007730535,0.3844018374306379,-0.21470666459418955,0.5897407610500579
333,1790595498.3572104,-0.3177711914062499,1.2794673339843752,0.01825004882812474,1.3184643541268233,0.3867416520072202,0.4091700968921133,-0.21565007319818114,0.6029048247098012
334,1790595498.3820138,-0.24113056640624989,1.2411470214843752,-0.06797065429687527,1.2661792483058947,0.3798007942616211,0.43996843178491074,-0.21673705614441596,0.6203191241572192
335,1790595498.4020138,-0.2555006835937499,1.265097216796875,-0.11108100585937526,1.2954113466875312,0.3742986588021204,0.4648366422563575,-0.21775063980641446,0.6352857082457734
336,1790595498.4115775,-0.2555006835937499,1.221986865234375,-0.09671088867187527,1.2521523446090383,0.37169574826669655,0.4767284264707035,-0.21831166216644052,0.6427189928130695
337,1790595498.4315774,-0.1980202148437499,1.174086474609375,-0.07755073242187527,1.1931911713747319,0.3663886485764981,0.5014608442989369,-0.21957030295745777,0.6587220492070575
338,1790595498.4568784,-0.1884401367187499,1.188456591796875,-0.04881049804687526,1.2042928300175209,0.35994862632785063,0.5325385306781293,-0.22116348987917267,0.6797599499144256
339,1790595498.4768784,-0.21718037109374988,1.2076167480468751,-0.015280224609375262,1.2270855752619056,0.3550130801418767,0.5570140486781529,-0.22233010425818514,0.6969430484308641
340,1790595498.5018084,-0.3034010742187499,1.2459370605468751,-0.005700146484375262,1.282358710482844,0.3488103833487937,0.58753402922546,-0.22360539060136908,0.7189327435413044
341,1790595498.5218084,-0.2938209960937499,1.217196826171875,-0.05360053710937526,1.253304395973629,0.34368487826851146,0.6120405664096096,-0.22456397037839967,0.7369816329282216
342,1790595498.532022,-0.2938209960937499,1.221986865234375,-0.08234077148437527,1.259508903977856,0.34100985809521234,0.6245468052363979,-0.22508420361702758,0.7463305795470393
343,1790595498.552022,-0.2650807617187499,1.2028267089843752,-0.07276069335937527,1.2338371126602217,0.3357190860120003,0.6489999514852053,-0.22618275448448466,0.7648966467221047
344,1790595498.5771565,-0.2459206054687499,1.1932466308593752,-0.08713081054687527,1.2214361401227336,0.3291040929200945,0.679638109823539,-0.22765765869008617,0.7886985950675472
345,1790595498.5971565,-0.2507106445312499,1.226776904296875,-0.09671088867187527,1.2558624113274521,0.3238850378035908,0.7039905304239972,-0.2289309854507272,0.8080306805679691
346,1790595498.6214497,-0.2842409179687499,1.212406787109375,-0.029650341796875264,1.2456332765486264,0.31752188952019805,0.7335776280764726,-0.2304758748237409,0.8319107017069495
347,1790595498.6414497,-0.2794508789062499,1.2842573730468752,-0.024860302734375263,1.3145447229359604,0.31222352271785786,0.758027200869686,-0.23163872971232347,0.8519068414441915
348,1790595498.6518307,-0.22197041015624988,1.3177876464843752,-0.058390576171875264,1.3376264813457626,0.30949553108768457,0.770840045955437,-0.23221658918339774,0.8625000895674151
349,1790595498.6718307,-0.2028102539062499,1.2842573730468752,-0.08713081054687527,1.3030889368962248,0.3043909791506946,0.7957255303415607,-0.2333811784816846,0.8833457773121329
350,1790595498.7269986,-0.23155048828124988,1.260307177734375,-0.11108100585937526,1.286207137569529,0.29062544167565874,0.864601370310518,-0.23693183937834678,0.9424093449256559
351,1790595498.7469985,-0.24113056640624989,1.212406787109375,-0.10150092773437526,1.2403131079752465,0.28567457257719314,0.8895345168977339,-0.23834484756755409,0.9642042753128859
352,1790595498.7420206,-0.2507106445312499,1.212406787109375,-0.07276069335937527,1.2401935990837436,0.28567457257719314,0.8895345168977339,-0.23834484756755409,0.9642042753128859
353,1790595498.7620206,-0.21718037109374988,1.1932466308593752,-0.034440380859375265,1.2133387719344535,0.2807686368535392,0.9142488263513495,-0.2397487307972359,0.9859824531117681
354,1790595498.7719378,-0.21718037109374988,1.2076167480468751,0.0038799316406247387,1.226996567893026,0.27837778873455654,0.926451259181992,-0.24036317569446153,0.9967851248541816
355,1790595498.7919378,-0.1740700195312499,1.2315669433593752,-0.015280224609375262,1.243901520595291,0.2736925657298325,0.9510272176988707,-0.2414335462866459,1.0186513371180443
356,1790595498.8317072,-0.1740700195312499,1.183666552734375,-0.005700146484375262,1.1964110378258936,0.26473519506536736,0.9997694727236203,-0.2433052666312695,1.062459963888935
357,1790595498.8517072,-0.22197041015624988,1.1645063964843752,0.01346000976562474,1.1855493166886182,0.26031218323997424,1.0241272785875581,-0.24409371954793518,1.0845187224815742
358,1790595498.8620205,-0.22676044921874988,1.1501362792968752,-0.034440380859375265,1.1727829731533828,0.25802642175939283,1.0365940235882503,-0.244455538113776,1.0958390913721456
359,1790595498.8820205,-0.22676044921874988,1.1549263183593752,-0.08234077148437527,1.1798538489226844,0.25357838371658126,1.0606012955211779,-0.24522711685515955,1.117726909218262
360,1790595498.907071,-0.2794508789062499,1.212406787109375,-0.11587104492187526,1.2495795733772381,0.24789169685741386,1.0906084556070317,-0.24642098061235748,1.1452512372830508
361,1790595498.927071,-0.2842409179687499,1.2459370605468751,-0.11587104492187526,1.2831906161374438,0.24318703365469813,1.1146595686643173,-0.24757877888116836,1.167433569461228
362,1790595498.9366171,-0.22676044921874988,1.2363569824218752,-0.10629096679687526,1.2614660752219333,0.24091246513527304,1.126194483345536,-0.24820756350087111,1.1781170675083659
363,1790595498.956617,-0.23155048828124988,1.2459370605468751,-0.05360053710937526,1.2684036443679458,0.23617435409886026,1.1504597719294054,-0.2495671660720266,1.2006747197901253
364,1790595498.9817595,-0.22197041015624988,1.2698872558593752,0.032620166015624744,1.289553636267168,0.23025622860062986,1.181132597035817,-0.25105953762574923,1.2292774438762042
365,1790595499.0017595,-0.21718037109374988,1.3225776855468752,0.00866997070312474,1.3403186995214762,0.22559597923910085,1.205760634685561,-0.25200666528503074,1.2523017261643685
366,1790595499.027433,-0.1740700195312499,1.2794673339843752,-0.07755073242187527,1.2935807460424973,0.21975773325571243,1.2376430300142167,-0.2531727254998511,1.2822441889146867
367,1790595499.047433,-0.1836500976562499,1.1692964355468751,-0.05360053710937526,1.1848436732878271,0.21535527965563728,1.2624275336034543,-0.25414157483780236,1.305637435943339
368,1790595499.0571556,-0.21239033203124988,1.2315669433593752,-0.024860302734375263,1.2499939294924372,0.21324732339213834,1.2744195933123932,-0.2545991323515417,1.3169815636320028
369,1790595499.0771556,-0.21718037109374988,1.2076167480468751,-0.07276069335937527,1.2291458994968278,0.20891724415961013,1.2990462670922587,-0.2555455948281017,1.3403250240108278
370,1790595499.101951,-0.1596999023437499,1.174086474609375,-0.05360053710937526,1.1861096602960821,0.20365333808642935,1.3294270076844523,-0.25677796521227897,1.3692281673604079
371,1790595499.1219509,-0.06868916015624989,1.293837451171875,0.01346000976562474,1.2957294172167257,0.1997017506835199,1.3539583305615746,-0.25768310550038837,1.39265377355015
372,1790595499.1471813,-0.020788769531249883,1.4662788574218752,-0.02007026367187526,1.466563560213086,0.19529517243890038,1.3854860194471343,-0.25866618986768375,1.4228913915833736
373,1790595499.1671813,-0.1357497070312499,1.3129976074218752,0.02783012695312474,1.32028982273623,0.1920912587978324,1.4108979558846695,-0.2593169420077143,1.4473345743256143
374,1790595499.1770012,-0.20760029296874988,1.2411470214843752,0.13321098632812475,1.2654204745691287,0.19050122940960418,1.4233847453997726,-0.2594699266499648,1.4593284396184034
375,1790595499.1970012,-0.01120869140624988,1.418378466796875,0.15237114257812476,1.4265833571602669,0.18742041780787003,1.448990685200014,-0.25930639506268793,1.483893603102355
376,1790595499.2218833,-0.015998730468749882,1.5908198730468752,0.14279106445312476,1.5972955631144614,0.1841117191191155,1.4816843264670638,-0.25858264347076987,1.5153054318913675
377,1790595499.2418833,-0.1788600585937499,1.461488818359375,-0.005700146484375262,1.4724038095643415,0.1815588554022084,1.508599800867797,-0.25788252426305247,1.541213928523098
378,1790595499.2815602,-0.1884401367187499,1.1980366699218752,0.06136040039062474,1.2143173581647324,0.17616103764400054,1.5619006898658339,-0.25653630221261475,1.5926008133051108
379,1790595499.3015602,-0.06389912109374989,1.2746772949218752,0.17153129882812473,1.2877531946547702,0.17346977778038025,1.5884470792941328,-0.25561016211331383,1.6182065512464192
380,1790595499.2963371,-0.020788769531249883,1.4471187011718751,0.10926079101562475,1.4513864504925482,0.17346977778038025,1.5884470792941328,-0.25561016211331383,1.6182065512464192
381,1790595499.316337,-0.1549098632812499,1.691410693359375,0.03741020507812474,1.6989016224597129,0.17115381787346282,1.6158049218436663,-0.25436301003411693,1.6446336113859814
382,1790595499.3411894,-0.4039918945312499,2.041083544921875,0.2529619628906247,2.096001250683614,0.16766589982674376,1.6516579702423935,-0.2525045089679645,1.679239241942341
383,1790595499.3611894,-0.3656715820312499,2.385966357421875,0.41103325195312473,2.4485709095032164,0.16412552561854174,1.6828235056203407,-0.2502372255572453,1.709225207011201
384,1790595499.3862998,-0.3081911132812499,2.3189058105468754,0.4924639160156248,2.390570356436104,0.15907817412892317,1.7249438785355342,-0.24611604473561532,1.7496600690013209
385,1790595499.4062998,-0.3417213867187499,2.1991548339843754,0.3727129394531248,2.2565394800919436,0.15468621182605413,1.7602367686431029,-0.24202821063524646,1.7835187020481469
386,1790595499.4163575,-0.42794208984374993,2.151254443359375,0.26733208007812476,2.209637199490493,0.15222828053267354,1.7786044193157584,-0.23979805423972633,1.8011413705261003
387,1790595499.4363575,-0.4710524414062499,2.1081440917968752,0.27212211914062473,2.1772028757234465,0.14672527726124104,1.8160393906668921,-0.23521935695342777,1.8370779845523022
388,1790595499.460953,-0.3465114257812499,2.069823779296875,0.16674125976562476,2.1052418609860437,0.13946480518108872,1.862877469921962,-0.22962364545303787,1.882150344254728
389,1790595499.480953,-0.1261696289062499,2.017133349609375,-0.039230419921875266,2.021456096780715,0.13373747147506343,1.9013815705255845,-0.225564720311851,1.9193793348528698
390,1790595499.5065584,0.04627177734375012,1.7057808105468752,-0.30747260742187527,1.7338883053193799,0.12735136579123574,1.9504324884949058,-0.22181347836917542,1.9671315364590027
391,1790595499.5265584,0.15165263671875012,1.6387202636718752,-0.3553729980468753,1.6836545347942948,0.12340838386300144,1.9880151590353825,-0.22031721835295784,2.003989415756715
392,1790595499.5519223,0.30972392578125013,1.7201509277343752,-0.16856147460937526,1.755921722375251,0.12003565057125193,2.034917625685793,-0.21970097584460002,2.0502601833723055
393,1790595499.5719223,0.31451396484375016,1.777631396484375,-0.010490185546875261,1.8052707441936606,0.11871145662724439,2.071600330318873,-0.21955652103254833,2.086582230452407
394,1790595499.5812352,0.22829326171875014,1.897382373046875,-0.010490185546875261,1.9110959491579653,0.11856647618455714,2.0886861136527997,-0.21951400026912055,2.1035337142425385
395,1790595499.6012352,0.41510478515625016,1.8399019042968752,-0.2547821777343753,1.9032774254390648,0.11926692076378492,2.1254809269075627,-0.21983428978049369,2.1401450614385005
396,1790595499.6265554,0.48216533203125017,1.6387202636718752,-0.3841132324218753,1.7508370813137377,0.12172461414293143,2.1716822986371844,-0.2213922339732867,2.186329208780328
397,1790595499.6465554,0.47258525390625017,1.413588427734375,-0.4320136230468753,1.551839178437078,0.12480682817294023,2.20728024891888,-0.22366242313207216,2.2220908444857277
398,1790595499.671368,0.43426494140625016,1.265097216796875,-0.5134442871093753,1.4327184103120292,0.12974470585070452,2.2498042336479256,-0.22781584220139667,2.265028219778806
399,1790595499.6913679,0.5444358398437501,0.9250044433593752,-0.5900849121093753,1.2248444013180149,0.13459588815557094,2.28222422302339,-0.2323168037746702,2.297963131684053
400,1790595499.701573,0.7647776367187502,0.6663423339843751,-0.7721063964843753,1.2747726178330583,0.13770195709745034,2.297503213691437,-0.23531152503868433,2.3136236426279404
401,1790595499.7215729,0.7695676757812502,0.604071826171875,-0.8726972167968753,1.3110063352200063,0.1451776976772668,2.3248612406442417,-0.24276746510450717,2.3420060619618437
402,1790595499.746231,0.7935178710937502,0.479530810546875,-0.6954657714843753,1.159005198139878,0.1559028002308587,2.3555357359231164,-0.2534812072653448,2.3742592547502848
403,1790595499.766231,0.8941086914062502,0.44600053710937504,-0.5613446777343752,1.1460605038001954,0.1658283924010125,2.378071798138245,-0.2627527437421229,2.398283456385167
404,1790595499.8063757,0.9994895507812501,0.570541552734375,-0.5900849121093753,1.293327966533078,0.18846428996365844,2.41958237132959,-0.2820381644485543,2.4432443935157075
405,1790595499.8263757,1.0473899414062502,0.6567622558593751,-0.6619354980468753,1.402326978152759,0.20112018207308835,2.439001720165741,-0.2920829497042188,2.464648284870779
406,1790595499.8369257,0.9755393554687501,0.6136519042968751,-0.6858856933593753,1.3411505799389705,0.20839543117298961,2.44871411457676,-0.29765325978803503,2.4755255873700164
407,1790595499.8569257,0.9611692382812501,0.441210498046875,-0.5565546386718753,1.1951008635391875,0.22302360573595945,2.4659466627148605,-0.3084927462361547,2.49515535519341
408,1790595499.881394,0.8845286132812502,0.383730029296875,-0.5230243652343752,1.0969020419920155,0.24162249231293337,2.4853806284093065,-0.3217458653801514,2.517740792606136
409,1790595499.901394,1.0569700195312501,0.354989794921875,-0.5900849121093753,1.261508454266437,0.2574568561230558,2.4999910212879546,-0.3326235185799007,2.5351287037145926
410,1790595499.9563334,1.0569700195312501,0.46516069335937504,-0.6427753417968753,1.321635438710901,0.30313942035520686,2.537484685292936,-0.36310204711561955,2.5811945166703407
411,1790595499.9763334,0.8270481445312502,0.469950732421875,-0.5805048339843752,1.1143824238364797,0.320101043738396,2.5504890508240523,-0.3743679653908468,2.5976163015516103
412,1790595499.9573884,0.6881370117187502,0.6184419433593751,-0.7002558105468752,1.1603280503409341,0.320101043738396,2.5504890508240523,-0.3743679653908468,2.5976163015516103
413,1790595499.9773884,0.8318381835937502,0.594491748046875,-0.7481562011718753,1.2669305046182724,0.3365676364832294,2.5630918030604843,-0.38631317555476263,2.6138009171417314
414,1790595499.9864357,0.9707493164062502,0.6615522949218751,-0.8295868652343753,1.4381307455127295,0.34412233225603706,2.5687899616329957,-0.39197679040279887,2.62121114196439
415,1790595500.0064356,0.8941086914062502,0.7094526855468751,-0.7050458496093753,1.3415823176865729,0.36111502672886836,2.5815534102608,-0.4049207721144193,2.6379505120923508
416,1790595500.0316777,0.9563791992187501,0.7717231933593751,-0.4942841308593753,1.324588487752516,0.3828478806858919,2.598050006635632,-0.42107746408069385,2.6596508356326987
417,1790595500.0516777,0.9372190429687501,1.0112251464843751,-0.42722358398437527,1.4434250316861144,0.40032486690745406,2.6118345156730505,-0.43334089538816856,2.6776340055992285
418,1790595500.062369,0.7647776367187502,1.1549263183593752,-0.2931024902343753,1.4158561735733788,0.4096309044541713,2.6198349315255407,-0.43949081336750273,2.6878401591909826
419,1790595500.082369,0.7599875976562501,1.145346240234375,-0.17335151367187526,1.3854421337257892,0.42671521636670295,2.636006485336177,-0.44996923769450414,2.7079675739352274
420,1790595500.1065385,0.9036887695312502,0.9920649902343751,-0.24520209960937528,1.364173891656955,0.447280022547209,2.656492447365068,-0.4614914158870337,2.7331274885037655
421,1790595500.1265385,0.8893186523437502,0.9776948730468751,-0.2835224121093753,1.3517247827708743,0.4644341318171501,2.6738562286903056,-0.4703888188225236,2.7543550670485355
422,1790595500.1520658,0.8941086914062502,1.097445849609375,-0.37932319335937525,1.4655046331872834,0.4864592221403974,2.6966672918298107,-0.48131073490314685,2.7821425343003496
423,1790595500.1720657,0.8509983398437502,1.140556201171875,-0.41764350585937526,1.483068683653912,0.5037445918331591,2.71521542561013,-0.4897796847737921,2.804645710404341
424,1790595500.1961048,0.8222581054687501,1.2315669433593752,-0.3745331542968753,1.5274621473713121,0.5244211180066182,2.73844207284885,-0.49986030689462063,2.83265649554774
425,1790595500.2161047,0.8078879882812502,1.3513179199218752,-0.3122626464843753,1.605070429202574,0.5414884143515236,2.7587418772301366,-0.5080193401733285,2.8569126864589913
426,1790595500.2261515,0.7887278320312502,1.5141792480468752,-0.3122626464843753,1.7356089273295243,0.5499789679052749,2.769568773771968,-0.5119737157206877,2.869687290172879
427,1790595500.2461514,0.7551975585937502,1.5956099121093752,-0.24999213867187528,1.7829162665491014,0.5666616586213213,2.792553567133995,-0.5195082676271298,2.8964374153081933
428,1790595500.2713408,0.6785569335937501,1.653090380859375,-0.19730170898437527,1.7977973422458111,0.5872299777844997,2.823297410136098,-0.5284194157698828,2.9317357302206775
429,1790595500.2913408,0.5396458007812501,1.7297310058593751,-0.16856147460937526,1.819780182784341,0.6029385594199399,2.849120239504404,-0.5349822228861879,2.9609503583128967
430,1790595500.3169477,0.45342509765625016,1.696200732421875,-0.18293159179687526,1.76526349623234,0.6219413073440656,2.8838025993095338,-0.5427995280088384,2.9996266016242568
431,1790595500.3369477,0.46300517578125017,1.700990771484375,-0.2643622558593753,1.78259103548691,0.6359315658628618,2.9119234347248715,-0.5486602495142695,3.0306327912760636
432,1790595500.3464801,0.45342509765625016,1.7488911621093752,-0.24999213867187528,1.8239272697908213,0.6422546204733766,2.9257824544329045,-0.5514023305388802,3.0457738751113057
433,1790595500.36648,0.43905498046875013,1.7920015136718752,-0.25957221679687525,1.8631737537356925,0.6548697485780047,2.955809687239371,-0.5570568488584257,3.0783075914600877
434,1790595500.391192,0.42947490234375013,1.739311083984375,-0.2931024902343753,1.8153679539960121,0.6697285671286174,2.993890818307058,-0.5640198532098684,3.1193007197746003
435,1790595500.411192,0.45342509765625016,1.7536812011718752,-0.36974311523437525,1.8487028008285786,0.6812747204657229,3.025327396708865,-0.5698041697351833,3.1530014103819375
436,1790595500.4371436,0.5061155273437501,1.6387202636718752,-0.4511737792968753,1.7734471541921648,0.6958771161542541,3.0666030903458217,-0.577781762608832,3.197206787136089
437,1790595500.4571435,0.5348557617187502,1.5668696777343751,-0.37932319335937525,1.698539772236,0.7070040805149214,3.0984497063103404,-0.5842533436116669,3.2313460541886867
438,1790595500.4666023,0.5588059570312501,1.653090380859375,-0.3314228027343753,1.7761793206418415,0.7122529569484426,3.1135362667167468,-0.5873591190291912,3.247522608627845
439,1790595500.4866023,0.5492258789062502,1.7441011230468753,-0.3457929199218753,1.860943453450913,0.7233486522294637,3.1457466743066953,-0.5939568591997577,3.2820329313070973
440,1790595500.511173,0.5109055664062502,1.6243501464843753,-0.3457929199218753,1.737558816166175,0.7368890105912889,3.1855899736162647,-0.6021210445624288,3.3246862477893506
441,1790595500.531173,0.49653544921875015,1.5477095214843752,-0.3601630371093753,1.6648332134253296,0.747768476817831,3.2179148493371232,-0.6088286158662094,3.3592865248448787
442,1790595500.5564885,0.5588059570312501,1.5572895996093752,-0.3936933105468753,1.7007085045458255,0.7614775505771808,3.258588881719955,-0.6174766840907743,3.402870408272649
443,1790595500.5764885,0.5492258789062502,1.5572895996093752,-0.3936933105468753,1.6975848685356587,0.7723455701044539,3.29057433887558,-0.6244651490896523,3.4372014607459356
444,1790595500.5871341,0.45342509765625016,1.576449755859375,-0.3218427246093753,1.671637188901243,0.7780632314307071,3.3075478737218624,-0.6281983073236822,3.455414366236088
445,1790595500.607134,0.41510478515625016,1.614770068359375,-0.21167182617187527,1.680654431560484,0.7884965478968977,3.3394397055558533,-0.6349600519231239,3.4895212595177734
446,1790595500.6463053,0.49653544921875015,1.6722505371093752,-0.20209174804687527,1.7560781263435012,0.8085439621194119,3.4021892832696827,-0.6474324299736022,3.556375122123137
447,1790595500.6663053,0.5156956054687502,1.6818306152343752,-0.29789252929687526,1.78416258643945,0.8187627185905908,3.4344531959753755,-0.6535953142015006,3.5906862825155703
448,1790595500.676366,0.4007346679687501,1.6339302246093752,-0.26915229492187526,1.7037485761889224,0.8238235947133395,3.450750661748284,-0.65665833285015,3.607986365116166
449,1790595500.696366,0.41989482421875013,1.619560107421875,-0.29789252929687526,1.69941947851875,0.833606036812441,3.4831691605610904,-0.6626845645913599,3.6423230578631594
450,1790595500.7061696,0.5540159179687502,1.6243501464843753,-0.37932319335937525,1.7576498857186895,0.8383979794202352,3.4990614804066675,-0.6656933305312903,3.6591652088796804
451,1790595500.7261696,0.5204856445312501,1.5860298339843752,-0.3505829589843753,1.7056683005736655,0.8483192796555764,3.531435392806485,-0.6720055903716277,3.693544780734677
452,1790595500.7512088,0.39594462890625015,1.614770068359375,-0.30747260742187527,1.6907968320126034,0.8605981992238473,3.5718975462526954,-0.6799586766874456,3.7364990490345233
453,1790595500.7712088,0.42468486328125016,1.6483003417968751,-0.2835224121093753,1.7255828603797116,0.870165729192556,3.6042633148924628,-0.6862447961529764,3.7707869682054245
454,1790595500.7969465,0.5348557617187502,1.6435103027343752,-0.27873237304687526,1.7506823060801535,0.882483460900483,3.646021091440096,-0.6942062438234486,3.8149926824244873
455,1790595500.8169465,0.5540159179687502,1.581239794921875,-0.2835224121093753,1.699305118151431,0.8922527203948991,3.6784395343849208,-0.7003082206781261,3.849345909258794
456,1790595500.8271785,0.5109055664062502,1.5620796386718752,-0.31705268554687527,1.6738099356709033,0.8973181913870871,3.694949169664361,-0.7034226015921899,3.86686341359871
457,1790595500.8471785,0.4917454101562501,1.576449755859375,-0.3410028808593753,1.6862059025852136,0.9072382300000459,3.7270870127498523,-0.7095840947971994,3.900995820834905
458,1790595500.8715236,0.5252756835937501,1.5908198730468752,-0.32663276367187527,1.7068425160393927,0.9193591645562921,3.7661221597586136,-0.7171782358360393,3.9424918538451568
459,1790595500.8915236,0.5731760742187502,1.5524995605468752,-0.29789252929687526,1.6815248010558597,0.9294707691774257,3.798094990967379,-0.7234179363576971,3.976528005913048
460,1790595500.9166021,0.5971262695312501,1.504599169921875,-0.31705268554687527,1.6495153376996494,0.9424493194103839,3.8379229404838697,-0.7312250953937101,4.019023930867169
461,1790595500.936602,0.6114963867187502,1.5093892089843752,-0.31705268554687527,1.659128090468319,0.9530600200698492,3.8694420864531325,-0.737468490571346,4.052747862482429
462,1790595500.9611797,0.6067063476562502,1.5572895996093752,-0.3457929199218753,1.70669746376035,0.9663889638259581,3.908018276811993,-0.7452118648575266,4.0941244735383435
463,1790595500.9811797,0.6258665039062502,1.5237593261718752,-0.36974311523437525,1.6882717009032697,0.977457259571629,3.939322440508057,-0.751641148243516,4.127789771816445
464,1790595501.007058,0.5971262695312501,1.451908740234375,-0.3457929199218753,1.6075358519178893,0.9920041017537656,3.9795268842333336,-0.7601009878459056,4.171146110118475
465,1790595501.027058,0.5252756835937501,1.4758589355468752,-0.3122626464843753,1.5973672407426738,1.003243861053145,4.0103297629956565,-0.7666455350753154,4.20440107853194
466,1790595501.0369802,0.5731760742187502,1.5524995605468752,-0.30747260742187527,1.6832483779495722,1.0088010653322912,4.025572848941376,-0.7698665374468321,4.220854278108868
467,1790595501.0569801,0.6162864257812501,1.576449755859375,-0.30747260742187527,1.7203320015817058,1.0201065081301182,4.056382501745999,-0.7763075514578329,4.254116794688529
468,1790595501.0965796,0.5492258789062502,1.5668696777343751,-0.26915229492187526,1.6820144502724939,1.042594827897943,4.117569957290268,-0.7888601800509705,4.320148922434153
469,1790595501.1165795,0.5348557617187502,1.5620796386718752,-0.27873237304687526,1.674471623880603,1.053875158000809,4.14853107939598,-0.7950708349414665,4.3535158892486105
470,1790595501.1121933,0.5731760742187502,1.538129443359375,-0.3218427246093753,1.6727091008211277,1.053875158000809,4.14853107939598,-0.7950708349414665,4.3535158892486105
471,1790595501.1321933,0.6450266601562501,1.5285493652343751,-0.42722358398437527,1.7131965867883323,1.0652652381025651,4.179453266753266,-0.801447364010444,4.3869052319104815
472,1790595501.1561973,0.6210764648437501,1.4902290527343751,-0.43680366210937527,1.6725178755482897,1.0791644225497492,4.216433864607106,-0.809508016263853,4.426986967893422
473,1790595501.1761973,0.5444358398437501,1.499809130859375,-0.32663276367187527,1.6286579674748933,1.0907563021578968,4.247109136783124,-0.8163618457509254,4.460283846757034
474,1790595501.2169938,0.5971262695312501,1.5668696777343751,-0.2835224121093753,1.7005955800648345,1.1143478072658084,4.309678806769537,-0.8301122987562559,4.5281551300306635
475,1790595501.2369938,0.6402366210937501,1.581239794921875,-0.30747260742187527,1.7334248251219093,1.1260344731499587,4.340473862374364,-0.8367286293517496,4.561554755108612
476,1790595501.24704,0.6306565429687502,1.5141792480468752,-0.3410028808593753,1.6753356186625676,1.1319818570469298,4.35595459683606,-0.8400421817006883,4.578361523669475
477,1790595501.26704,0.5731760742187502,1.4758589355468752,-0.3649530761718753,1.624771109263606,1.1438516075907699,4.386635733024612,-0.8467082189406561,4.6117116521372
478,1790595501.291256,0.5540159179687502,1.4854390136718751,-0.3505829589843753,1.6236905837724964,1.158114897894812,4.423590387557518,-0.8548683128935238,4.651900887379976
479,1790595501.311256,0.5731760742187502,1.533339404296875,-0.3457929199218753,1.6730909372459137,1.1698187474580037,4.454061323046812,-0.8616413951963653,4.685036186122971
480,1790595501.3215227,0.6306565429687502,1.499809130859375,-0.3410028808593753,1.6623591877066888,1.1758525502438288,4.469692518799635,-0.8651255911105701,4.7020445256210355
481,1790595501.3415227,0.6306565429687502,1.495019091796875,-0.3122626464843753,1.6523673079602712,1.1877354345009503,4.5000672684347105,-0.871874704241782,4.735133195877735
482,1790595501.3517108,0.5731760742187502,1.4902290527343751,-0.3218427246093753,1.628771371633968,1.1938005191166416,4.515500427534909,-0.8752815597872711,4.75194924209158
483,1790595501.3717108,0.5588059570312501,1.4854390136718751,-0.3457929199218753,1.624304744935562,1.2056187595431058,4.545715869743544,-0.8819677301134219,4.784863262284722
484,1790595501.3972993,0.5731760742187502,1.4710688964843752,-0.3457929199218753,1.6162138638585775,1.2206436776777598,4.584249498310214,-0.8905662749904155,4.826843973111462
485,1790595501.4172993,0.5731760742187502,1.4662788574218752,-0.31705268554687527,1.6059349006705421,1.232345158682094,4.614255716725431,-0.897273071615932,4.859540037339707
486,1790595501.4418826,0.5923362304687502,1.456698779296875,-0.30747260742187527,1.6023023896399022,1.2467196972117025,4.650995243091188,-0.9054317541418356,4.899578901914007
487,1790595501.4618826,0.6114963867187502,1.461488818359375,-0.3362128417968753,1.6195420563074923,1.2584657912123085,4.680778806050832,-0.9120392109459531,4.93206264164692
488,1790595501.472225,0.5923362304687502,1.461488818359375,-0.31705268554687527,1.6085192512145747,1.264562580281439,4.696137478415165,-0.9154502462298868,4.9488256070451655
489,1790595501.492225,0.5300657226562502,1.4758589355468752,-0.2739423339843753,1.5919088134429857,1.2762676196440876,4.725788913015124,-0.9219435382077684,4.981156469633504
490,1790595501.516929,0.5635959960937501,1.4758589355468752,-0.2931024902343753,1.6067697763612725,1.2905833108402156,4.762389489407665,-0.9298115959415135,5.021006725248155
491,1790595501.536929,0.6114963867187502,1.4806489746093752,-0.3026825683593753,1.630296278033692,1.3021972560345498,4.792010845238599,-0.9361196575925357,5.053256934674848
492,1790595501.5615144,0.5875461914062502,1.456698779296875,-0.2931024902343753,1.597839457023949,1.3165434113270493,4.8283779388465495,-0.9438094259601142,5.0928671990127405
493,1790595501.5815144,0.5588059570312501,1.461488818359375,-0.31705268554687527,1.5964761411357138,1.328182791141894,4.85790176047099,-0.9500418576190869,5.125022787490895
494,1790595501.5916288,0.5731760742187502,1.4471187011718751,-0.3314228027343753,1.5913907193114145,1.3340448401163811,4.872799399299231,-0.9532128760862157,5.141251249296094
495,1790595501.6116288,0.6546067382812502,1.423168505859375,-0.3410028808593753,1.6031848123742989,1.3457392402084265,4.902144258178183,-0.9595512509823562,5.173274691516765
496,1790595501.636703,0.6354465820312502,1.4327485839843752,-0.32663276367187527,1.6010152484684077,1.3606274854599765,4.938786540929742,-0.9675613149529969,5.213357320312073
497,1790595501.656703,0.5731760742187502,1.499809130859375,-0.30747260742187527,1.634777552262319,1.3725344381966833,4.968028324663935,-0.9739431825999799,5.245352375354016
498,1790595501.7120306,0.5731760742187502,1.4423286621093752,-0.29789252929687526,1.5803742406815953,1.4052896478086088,5.048996878650788,-0.9914616893514056,5.333873335233505
499,1790595501.7320306,0.5779661132812501,1.456698779296875,-0.3362128417968753,1.602827263523918,1.4170807303907758,5.078223826522348,-0.9977955856891283,5.365824359734936
500,1790595501.7417016,0.5779661132812501,1.4087983886718751,-0.3122626464843753,1.5544342020218587,1.4227654868656168,5.092315002161913,-1.0008692772561762,5.3812334108468605
501,1790595501.7617016,0.5396458007812501,1.4423286621093752,-0.24520209960937528,1.5593760385153745,1.4344347724868987,5.121361663901618,-1.0071085191409166,5.412967391212227
502,1790595501.7567377,0.5492258789062502,1.4662788574218752,-0.23083198242187528,1.5826895330075181,1.4344347724868987,5.121361663901618,-1.0071085191409166,5.412967391212227
503,1790595501.7767377,0.5635959960937501,1.461488818359375,-0.25957221679687525,1.5877555695809202,1.4459233726364749,5.150447995384748,-1.0129589198757043,5.444620714618693
504,1790595501.8026059,0.5540159179687502,1.456698779296875,-0.29789252929687526,1.5867088359174952,1.4607222171709244,5.188087081751458,-1.0204723869575918,5.485555656095017
505,1790595501.8226058,0.5588059570312501,1.418378466796875,-0.3601630371093753,1.5664542719104553,1.4721169158310754,5.217135253643015,-1.026397150770158,5.517165901057341
506,1790595501.8621993,0.5827561523437501,1.3992183105468752,-0.3745331542968753,1.5613108906722295,1.4946809232944425,5.274382177372507,-1.0385485777465857,5.579584354034315
507,1790595501.8821993,0.6067063476562502,1.384848193359375,-0.3362128417968753,1.5488499559112374,1.5061532754262499,5.303138009802477,-1.0448320743292754,5.611011005481651
508,1790595501.8762307,0.5444358398437501,1.4279585449218752,-0.27873237304687526,1.5534373902755498,1.5061532754262499,5.303138009802477,-1.0448320743292754,5.611011005481651
509,1790595501.8962307,0.5156956054687502,1.451908740234375,-0.26915229492187526,1.5641048255569265,1.517499950382268,5.3318202207123,-1.050977781229659,5.642310454241699
510,1790595501.9216218,0.5875461914062502,1.4375386230468752,-0.2931024902343753,1.5803913722774772,1.53184534604181,5.3682743190195,-1.0586804741577072,5.682052769448469
511,1790595501.9416218,0.6162864257812501,1.423168505859375,-0.3122626464843753,1.5820004788436888,1.5432556978507634,5.396972314877736,-1.0647456683997398,5.713373054061988
512,1790595501.9667842,0.5731760742187502,1.4279585449218752,-0.3122626464843753,1.5700650873328925,1.5577027259154324,5.433042712005033,-1.0724104148758835,5.752778023766399
513,1790595501.9867842,0.5156956054687502,1.418378466796875,-0.3122626464843753,1.5411837635279775,1.5690965743004803,5.4616816989814305,-1.0785255737509678,5.784051214650943
514,1790595501.9967492,0.5348557617187502,1.4471187011718751,-0.3410028808593753,1.5800336027691033,1.57470713981366,5.475952198741071,-1.0816036391397614,5.799622530068458
515,1790595502.0167491,0.5923362304687502,1.423168505859375,-0.3410028808593753,1.578782369660343,1.5859694333634395,5.504602798940989,-1.087877761847006,5.830902935428901
516,1790595502.0413291,0.5875461914062502,1.413588427734375,-0.29789252929687526,1.5595456803413685,1.5999097138235427,5.539762241009425,-1.09560983464838,5.86933025898858
517,1790595502.0613291,0.5875461914062502,1.4375386230468752,-0.2739423339843753,1.576950291586993,1.6113137064597245,5.568355847792489,-1.1018152306523639,5.900586031130069
518,1790595502.0869935,0.5827561523437501,1.451908740234375,-0.2643622558593753,1.586672973673693,1.6260050677578621,5.605105576475438,-1.1096198155216777,5.940737087164241
519,1790595502.1069934,0.6210764648437501,1.451908740234375,-0.3314228027343753,1.6135724462583292,1.6375423337064583,5.633804221317765,-1.1156832285676768,5.972105488462662
520,1790595502.1172767,0.6210764648437501,1.423168505859375,-0.3457929199218753,1.590822842028902,1.6435425556190542,5.6485639943520205,-1.118855466522651,5.988267269034381
521,1790595502.1372766,0.5971262695312501,1.4040083496093752,-0.3218427246093753,1.5592889299039916,1.6552892761007991,5.677205246482359,-1.1251011841830585,6.0196756285460475
522,1790595502.1612382,0.5635959960937501,1.3896382324218752,-0.3026825683593753,1.5298207741464778,1.6693376961400364,5.7113930472465295,-1.1325839586694293,6.05718130051639
523,1790595502.1812382,0.5731760742187502,1.384848193359375,-0.31705268554687527,1.5319457353705546,1.6810097776447097,5.739809973575634,-1.1388223606625476,6.088360105516136
524,1790595502.2077527,0.5971262695312501,1.4040083496093752,-0.3218427246093753,1.5592889299039916,1.6964899311364374,5.777378007348191,-1.147122720901582,6.129605636829055
525,1790595502.2277527,0.5971262695312501,1.3896382324218752,-0.2931024902343753,1.5406372929909535,1.7082065211890356,5.80565549119889,-1.1533669741552834,6.160670465021862
526,1790595502.2368977,0.5348557617187502,1.423168505859375,-0.2739423339843753,1.5448377533781847,1.71353673538446,5.818575163356383,-1.156182812019938,6.174850910746762
527,1790595502.2568977,0.5396458007812501,1.451908740234375,-0.3026825683593753,1.5782500807725102,1.7250569982175528,5.846904582365942,-1.1622822029857738,6.20588549376869
528,1790595502.2814145,0.5875461914062502,1.4279585449218752,-0.3314228027343753,1.5792774319997414,1.7391333563594749,5.881718259723485,-1.169803528861267,6.244007912719449
529,1790595502.3014145,0.5635959960937501,1.423168505859375,-0.3314228027343753,1.5661705261737051,1.7506206263103594,5.910134778742337,-1.176013089871192,6.275139238910272
530,1790595502.3263836,0.5492258789062502,1.4327485839843752,-0.32663276367187527,1.5687914244008037,1.76489473919659,5.945638268274022,-1.183834929463995,6.314026686499459
531,1790595502.3463836,0.5252756835937501,1.4327485839843752,-0.3026825683593753,1.5557312704553898,1.7762248890802734,5.974108735734911,-1.1901043294384852,6.345179143091284
532,1790595502.3719692,0.5683860351562502,1.423168505859375,-0.3026825683593753,1.562078108872689,1.79064384816238,6.0105475595527045,-1.1980832695360446,6.385020820431905
533,1790595502.3919692,0.5971262695312501,1.413588427734375,-0.2931024902343753,1.5622743339664906,1.801972565604679,6.039013894452516,-1.204278427566459,6.416157765803799
534,1790595502.4021704,0.6114963867187502,1.4040083496093752,-0.3122626464843753,1.5629060231288234,1.8078088611800553,6.053511251677385,-1.207427510759777,6.43203331353977
535,1790595502.4221704,0.5827561523437501,1.380058154296875,-0.29789252929687526,1.5273850861346916,1.8193262290494305,6.081846706880818,-1.2135905841408212,6.463095960885893
