imu_index,t_imu,ax,ay,az,mag,vx,vy,vz,velocity
0,1791340908.3661675,-0.07649974149816176,0.08542236328125005,-0.0035690487132342265,0.11472544925410783,0.0,0.0,0.0,0.0
1,1791340908.3861675,-0.07649974149816176,0.09021240234375005,-0.013149126838234227,0.11901003118445178,-0.0003270360830184312,0.00037236530650552614,-2.9627772181303985e-05,0.0004964738925355692
2,1791340908.410871,-0.06691966337316176,0.08542236328125005,-0.013149126838234227,0.10930746100399147,-0.0009361133458123067,0.0010887211336216575,-0.00010945838963202415,0.0014400010562715482
3,1791340908.430871,-0.10523997587316176,0.08063232421875005,0.0012209903492657738,0.13258399242794847,-0.0016134956952085677,0.0018307709738902241,-0.0001822868841636695,0.0024471042530782457
4,1791340908.4556684,-0.13398021024816176,0.056682128906250046,0.010801068474265775,0.14587742647740998,-0.002772287269147922,0.002868190016988137,-0.00023668154474923948,0.003996011615330333
5,1791340908.4756684,-0.05733958524816176,0.06147216796875005,0.006011029411765774,0.08427803952275197,-0.0038536808825745924,0.0037566280636425584,-0.0002487538988872413,0.005387484501646323
6,1791340908.486483,0.028881117876838246,0.04710205078125005,-0.008359087775734226,0.05588019779902102,-0.004373797760630651,0.004253039862099916,-0.00025620715002412224,0.00610607050591721
7,1791340908.506483,0.0001408835018382433,-0.019958496093749955,0.0012209903492657738,0.019996305456716813,-0.00514785619707451,0.005074083640896903,-0.00027863033337637493,0.007233559502986993
8,1791340908.5311947,-0.12919017118566176,0.027941894531250046,0.058701459099265774,0.1446261079520529,-0.006199982883507756,0.0059511764512015656,-0.00019112164558459624,0.008596093088871024
9,1791340908.5511947,-0.10523997587316176,0.023151855468750048,0.020381146599265775,0.10966700538507616,-0.0072754226739530255,0.006631199956592714,-1.2297549952287412e-05,0.009844020478377716
10,1791340908.576405,-0.04296946806066176,-0.0007983398437499547,-0.04188936121323423,0.06001442422264136,-0.008707925480252947,0.0074020713817779474,0.00013863486099586125,0.011429691445321608
11,1791340908.596405,-0.05733958524816176,-0.015168457031249956,-0.02751924402573423,0.06538515823096244,-0.009824361026122249,0.007897938897192697,0.00013629951404133374,0.012606113039034163
12,1791340908.606288,-0.10523997587316176,0.04710205078125005,-0.0035690487132342265,0.11535507712407186,-0.010413798782375952,0.008129885352026993,0.00011227536097492411,0.01321192062773615
13,1791340908.626288,-0.11003001493566177,0.07105224609375005,0.020381146599265775,0.13255344959075765,-0.011750616885277116,0.008706096201407656,9.616866013857715e-05,0.014624717319111415
14,1791340908.6507723,-0.05733958524816176,0.09021240234375005,0.015591107536765774,0.10802401680776755,-0.01344903929026096,0.009601829257182204,0.00014546514199688246,0.016525523986324894
15,1791340908.6707723,-0.04775950712316176,0.09021240234375005,0.029961224724265774,0.10638102765181362,-0.014785934894542439,0.010494390775461751,0.0002480210641545614,0.018133329062861258
16,1791340908.6952157,-0.08128978056066176,0.09500244140625005,0.025171185661765776,0.12754246698401125,-0.016411342317562843,0.011761169699630149,0.000455632486388775,0.0201956646419567
17,1791340908.7152157,-0.04775950712316176,0.06626220703125005,0.006011029411765774,0.08190105662254117,-0.017735360823456822,0.012884090839124528,0.0006467961743562553,0.02193082683302619
18,1791340908.7262259,-0.05254954618566176,0.07105224609375005,-0.013149126838234227,0.08934638222051182,-0.018437743818331298,0.013522931486972901,0.0007303535344235613,0.022876920452653195
19,1791340908.7462258,-0.08607981962316176,0.11895263671875005,-0.008359087775734226,0.14706916562332642,-0.01973018496024152,0.014794324823441134,0.0008271059422875743,0.024674609415076758
20,1791340908.770515,-0.08607981962316176,0.10937255859375006,-0.008359087775734226,0.13943445151088657,-0.02137797841480364,0.016522706800596948,0.0008965271474436041,0.027033711584767757
21,1791340908.790515,-0.04296946806066176,0.06626220703125005,-0.06583955652573423,0.10281975719468427,-0.0227248442174572,0.017995854729780096,0.0008338172483152513,0.028999389361961305
22,1791340908.8162286,-0.08607981962316176,0.03273193359375005,-0.017939165900734227,0.09382392283610716,-0.02444561791400583,0.019796671505303773,0.0006037163721937638,0.0314620551036407
23,1791340908.8362286,-0.10523997587316176,0.03273193359375005,0.04912138097426578,0.12066375622940093,-0.025870245560863706,0.021085434000199493,0.0004983639788530227,0.033378338769501026
24,1791340908.8457909,-0.08128978056066176,0.09021240234375005,0.034751263786765775,0.12630897155391838,-0.026582982162772453,0.021697354027901176,0.0005157000332520562,0.03431757653160628
25,1791340908.8657908,-0.06212962431066176,0.09979248046875006,0.025171185661765776,0.12021737795638747,-0.028065229752416262,0.023070245861705942,0.0006364040376030681,0.036335910271720846
26,1791340908.8906467,-0.09086985868566176,0.056682128906250046,0.006011029411765774,0.10726755068279502,-0.029916258578469405,0.024812232323548206,0.0008220422362594984,0.03887550840374656
27,1791340908.9106467,-0.15314036649816176,0.027941894531250046,0.025171185661765776,0.15769055110819383,-0.03154827160548629,0.02613058752426297,0.0009957814437100993,0.04097673274359899
28,1791340908.9357276,-0.14356028837316176,0.04231201171875005,-0.017939165900734227,0.150737110250552,-0.03384601409862254,0.02766802762074664,0.0011945809571109213,0.0437321328824658
29,1791340908.9557276,-0.12919017118566176,0.06626220703125005,-0.06583955652573423,0.15942279515532962,-0.035812561784000115,0.028872974071115977,0.0012036603871023526,0.0460177901639316
30,1791340908.9798927,-0.12440013212316177,0.04231201171875005,-0.04667940027573423,0.1394441308124869,-0.03829184923988336,0.030307256628291798,0.0010090573035860626,0.048844792139848575
31,1791340908.9998927,-0.15793040556066176,0.06626220703125005,0.025171185661765776,0.17310771695342306,-0.040459502673586806,0.03147912360837906,0.0008398933674955045,0.05126999122892795
32,1791340909.010474,-0.16272044462316176,0.12853271484375006,0.04912138097426578,0.2130997699489213,-0.041688771213041494,0.03216070470595575,0.0008227778527811211,0.05265872706239706
33,1791340909.030474,-0.08128978056066176,0.12853271484375006,0.029961224724265774,0.1550043941173387,-0.044029745251702404,0.03364133966439771,0.0009139036365009419,0.055418349138187065
34,1791340909.055561,-0.009439194623161758,0.09500244140625005,-0.0035690487132342265,0.09553690583747906,-0.04669640969340179,0.03564058686141916,0.0010607200423528055,0.058753138104178246
35,1791340909.075561,0.019301039751838243,0.04710205078125005,0.006011029411765774,0.05125686098358552,-0.04848865001578762,0.03720850920630721,0.001163871380967793,0.06113081820408447
36,1791340909.100258,-0.004649155560661757,0.04231201171875005,-0.0035690487132342265,0.042716028511933464,-0.05034269316498199,0.03901986157306235,0.0012766649684104385,0.06370687738169278
37,1791340909.120258,-0.028599350873161757,0.04710205078125005,-0.0035690487132342265,0.055220142764059524,-0.0516687783754661,0.040400809254051956,0.0013435981970525332,0.06560254037238532
38,1791340909.1303046,-0.04775950712316176,0.04710205078125005,0.006011029411765774,0.06734765165197604,-0.05229252013862108,0.04106142211368587,0.0013740170709653993,0.0665013982661845
39,1791340909.1503046,-0.05733958524816176,0.06147216796875005,-0.022729204963234228,0.08708198567712004,-0.05350562264250531,0.04234212810095534,0.0014004126116689906,0.06824711438561201
40,1791340909.1753864,-0.05733958524816176,-0.005588378906249955,-0.02751924402573423,0.06384643143495913,-0.05501449402627997,0.04381246111613607,0.00133402535544916,0.07034135288483945
41,1791340909.1953864,-0.038179428998161756,-0.039118652343749956,-0.022729204963234228,0.05919927801990122,-0.056180454773005185,0.04474196247212083,0.0012136568206429356,0.07183007494940155
42,1791340909.220461,-0.04775950712316176,-0.005588378906249955,0.0012209903492657738,0.048100845282387276,-0.05758459565362532,0.0456484255050318,0.0010449360550167572,0.07349051842951604
43,1791340909.2404609,-0.07170970243566176,0.008781738281250047,0.020381146599265775,0.07506524820016443,-0.058715777975629,0.04626777885874223,0.0009629500156597284,0.07476079999931443
44,1791340909.2501729,-0.05733958524816176,-0.029538574218749957,-0.02751924402573423,0.07012605931503436,-0.05927668362954684,0.04650830363850947,0.0009239101127167142,0.0753498582569706
45,1791340909.2701728,-0.08607981962316176,-0.019958496093749955,-0.05625947840073423,0.1047530707072732,-0.06047362944421974,0.04685507596132128,0.0007299061699486954,0.07650484144493679
46,1791340909.2949898,-0.07170970243566176,0.023151855468750048,-0.07062959558823423,0.10328034473226046,-0.062029765389471574,0.047226768450053344,0.00028911036951056513,0.07796244632714906
47,1791340909.3149898,-0.10044993681066176,0.05189208984375005,-0.07062959558823423,0.13330985922494737,-0.06335397940192912,0.04759394879322261,-0.0002247294788782371,0.07923989633467873
48,1791340909.340971,-0.14356028837316176,0.008781738281250047,-0.013149126838234227,0.1444284420106847,-0.06529165420950116,0.04811761825124763,-0.0009553625326315092,0.08111237891440877
49,1791340909.360971,-0.16751048368566177,0.05189208984375005,0.034751263786765775,0.1787741633115187,-0.06702611728700852,0.04855127576166428,-0.0014010264177960134,0.08277493371595265
50,1791340909.3709588,-0.12919017118566176,0.08542236328125005,0.06828153722426578,0.1692614805714615,-0.06798462247413065,0.048838216618768505,-0.001513022695842753,0.08372197759925383
51,1791340909.3909588,-0.10044993681066176,0.10458251953125006,0.08265165441176578,0.1669101230416304,-0.06996052485531369,0.04961161698322808,-0.0014772485853238207,0.08577860946124233
52,1791340909.4308004,-0.09086985868566176,0.09021240234375005,0.08265165441176578,0.15240375563346442,-0.0738779519312411,0.05150326538736961,-0.000922726525241199,0.0900632530578203
53,1791340909.4508004,-0.028599350873161757,0.027941894531250046,0.058701459099265774,0.07102488043456667,-0.07572867755170744,0.05248764171551578,-0.0004740887445800092,0.09214124970242463
54,1791340909.4608865,-0.01901927274816176,0.023151855468750048,0.020381146599265775,0.03623716716598613,-0.07655802710526567,0.05294825254051642,-0.0002219542070702685,0.09308436079715503
55,1791340909.4808865,-0.03338938993566176,0.018361816406250047,0.025171185661765776,0.04566832873700972,-0.07803450297232319,0.05378687935515208,0.00027134524879219343,0.09477597624475964
56,1791340909.4900842,-0.028599350873161757,-0.010378417968749954,0.025171185661765776,0.03948699808189239,-0.07865442360440601,0.054120208377200704,0.0004989051475857199,0.0954765113191682
57,1791340909.5100842,-0.014229233685661757,-0.019958496093749955,0.010801068474265775,0.026785737581615735,-0.0798644558030835,0.054690789746379045,0.0009734587964161374,0.0968006270942169
58,1791340909.535697,0.014511000689338244,-0.029538574218749957,0.010801068474265775,0.03463754593022365,-0.08118109068528544,0.055216812011490514,0.0015315293351351124,0.09819170736711527
59,1791340909.555697,0.12947193818933825,-0.024748535156249956,-0.02751924402573423,0.13465801707522607,-0.08183900549389408,0.05548451775985447,0.001876859805346017,0.09889225012103908
60,1791340909.580989,0.14863209443933825,-0.04869873046874996,-0.04188936121323423,0.16191906752926025,-0.08201866926539989,0.05563295503086441,0.0021163973913698713,0.09912904181646987
61,1791340909.6009889,0.09115162568933825,-0.029538574218749957,0.0012209903492657738,0.09582607708822703,-0.08177975517399477,0.05561537141458069,0.0022164002706945188,0.09892376015932784
62,1791340909.6255863,0.07678150850183825,-0.039118652343749956,0.015591107536765774,0.08757140882292593,-0.08122019262232363,0.055470330436703325,0.0023519574078507766,0.09838297084360055
63,1791340909.6455863,0.08157154756433825,-0.07743896484374996,0.039541302849265776,0.11922342588237428,-0.08059593329181203,0.05519525213450961,0.002528343429236612,0.09771700385227981
64,1791340909.6554604,0.057621352251838245,-0.08701904296874996,0.06349149816176577,0.12216261463047147,-0.08023088253459908,0.05495802487907214,0.002678665557970937,0.0972859407111881
65,1791340909.6754603,0.009720961626838243,-0.04390869140624996,0.08265165441176578,0.09409445389055462,-0.07950137101580423,0.05435320563147758,0.0031566856742309456,0.09635716693768107
66,1791340909.7007742,0.04804127412683824,-0.019958496093749955,0.058701459099265774,0.0784357500533846,-0.07860686960612559,0.05358126264429165,0.003939323163108105,0.09521297139998516
67,1791340909.7207742,0.08157154756433825,-0.04869873046874996,0.015591107536765774,0.0962733938091519,-0.07781173170632136,0.05295986440987162,0.004576356488634041,0.09423564011646329
68,1791340909.7453632,0.057621352251838245,-0.04869873046874996,-0.02751924402573423,0.0803062598826909,-0.0767240871697673,0.05213086239621745,0.005220081697398357,0.09290565977988059
69,1791340909.7653632,0.014511000689338244,-0.04390869140624996,-0.0035690487132342265,0.046381897662048095,-0.07586393083291698,0.0514188095272461,0.005618497520934953,0.09181937425736236
70,1791340909.7759247,0.014511000689338244,-0.05827880859374996,-0.0035690487132342265,0.060164165254995086,-0.07545485008422417,0.0510182517866429,0.005791677381948789,0.09126795682765454
71,1791340909.7959247,0.062411391314338246,-0.04390869140624996,-0.022729204963234228,0.07962268335758005,-0.07468100063641372,0.05022022354674482,0.006030984406019945,0.09019809023503052
72,1791340909.8205032,0.03846119600183825,0.008781738281250047,0.010801068474265775,0.04090288015920113,-0.07368669722103602,0.04932185823215488,0.006258973955144457,0.0888906620618195
73,1791340909.8405032,0.07678150850183825,-0.015168457031249956,0.039541302849265776,0.08768692472395237,-0.07282611467691982,0.0486909159373175,0.006492178405486225,0.08784416118444902
74,1791340909.8650868,0.052831313189338244,0.013571777343750046,0.039541302849265776,0.06737102808029298,-0.0716879993767693,0.04802876158567475,0.006881641136296884,0.08656378098735079
75,1791340909.8850868,0.07199146943933825,0.023151855468750048,0.015591107536765774,0.0772130993931992,-0.07071373830320724,0.04762595540967981,0.007233660114486652,0.08556278543941404
76,1791340909.8956513,0.11989186006433825,-0.015168457031249956,-0.022729204963234228,0.12296648712822715,-0.07012426316762455,0.047451423249979315,0.007386058871145103,0.08499178618489532
77,1791340909.9156513,0.13905201631433825,-0.06785888671874996,-0.02751924402573423,0.1571547025689624,-0.06878729308603056,0.04704603371427006,0.007555918915745454,0.08367862862767902
78,1791340909.9403596,0.10073170381433824,-0.05827880859374996,0.0012209903492657738,0.11638207122181453,-0.06693898934821493,0.04638658481402096,0.00768555554818998,0.08180226958803224
79,1791340909.9603596,0.10552174287683824,-0.039118652343749956,-0.008359087775734226,0.1128493754054455,-0.06535792463767173,0.045786769414244734,0.007764042053024624,0.08017709719949911
80,1791340909.9851084,0.15821217256433825,-0.06785888671874996,-0.03709932215073423,0.17610303733405636,-0.06320538870907416,0.04495730107737701,0.007762218038885359,0.07795083136766587
81,1791340910.0051084,0.11510182100183824,-0.07743896484374996,-0.013149126838234227,0.13934892181362124,-0.06131683843483197,0.044169591649318204,0.007685592519644133,0.07595904050531982
82,1791340910.0151577,0.08636158662683825,-0.09180908203124996,0.029961224724265774,0.1295565751905461,-0.060358400235963436,0.04370560055315843,0.007665537243251482,0.07491379352285311
83,1791340910.0351577,0.10073170381433824,-0.11575927734374997,0.039541302849265776,0.15846324834328035,-0.05845641739504058,0.042609337195281316,0.007735864401898107,0.07274992748401156
84,1791340910.0602555,0.08157154756433825,-0.11096923828124997,0.006011029411765774,0.13785580035439582,-0.056084492869014686,0.04101321763522016,0.00789662444463515,0.069927898858668
85,1791340910.0802555,0.08636158662683825,-0.13970947265624997,0.029961224724265774,0.16695728609908075,-0.05422597438155248,0.039556071069611676,0.008059473314746811,0.06760247159833782
86,1791340910.1058455,0.10073170381433824,-0.15886962890624995,0.029961224724265774,0.19048388417167234,-0.051845620720631015,0.037398270253593116,0.008351589353223356,0.0644697452344368
87,1791340910.1258454,0.11510182100183824,-0.16365966796874995,0.015591107536765774,0.2006888107289584,-0.04994054741714837,0.03548100038457087,0.008613977145292535,0.06186404664159939
88,1791340910.1345525,0.08157154756433825,-0.13970947265624997,0.034751263786765775,0.16546995031336031,-0.04910714205341547,0.034573406305118626,0.008743948705654387,0.06069010185491748
89,1791340910.1545525,0.07199146943933825,-0.12054931640624995,0.034751263786765775,0.14464632623342605,-0.04724962398003752,0.03241099572803969,0.009101964039584966,0.05801590609234541
90,1791340910.1801538,0.07678150850183825,-0.14449951171874997,0.020381146599265775,0.16489663450621356,-0.04494287329678115,0.029549241983265667,0.009597366162059834,0.054636334057152534
91,1791340910.2001538,0.10552174287683824,-0.19239990234374996,-0.013149126838234227,0.21983052603825987,-0.04313767650650769,0.02714361476859357,0.009937174016325514,0.05192670203774404
92,1791340910.225837,0.11031178193933824,-0.16844970703124995,-0.0035690487132342265,0.20138701830620434,-0.04075149346411962,0.023822705183219384,0.010275883190695018,0.04830941188993693
93,1791340910.245837,0.11989186006433825,-0.13970947265624997,0.006011029411765774,0.1841980655006003,-0.03882674616774934,0.021162318378729242,0.010503741679456577,0.04544984627483676
94,1791340910.2552319,0.06720143037683825,-0.09659912109374996,0.015591107536765774,0.11870343329070562,-0.037926398395178425,0.019933564383893144,0.010609942908257446,0.04413988641572482
95,1791340910.2752318,0.06720143037683825,-0.11096923828124997,0.006011029411765774,0.129870460706055,-0.03609562065686595,0.01739878950582002,0.010834516539250952,0.04150901655678563
96,1791340910.3001258,0.06720143037683825,-0.10138916015624996,0.029961224724265774,0.12527357673851536,-0.033907728334348256,0.014320524164666606,0.011139276530628356,0.038456403039969445
97,1791340910.3201258,0.09115162568933825,-0.13012939453124997,0.058701459099265774,0.16937573464714983,-0.03217609857680827,0.011871115114623618,0.011480389458207,0.03616661493423512
98,1791340910.3451602,0.10552174287683824,-0.13012939453124997,0.06828153722426578,0.18091673738641226,-0.02996443613422334,0.008776374363212729,0.012081742395224339,0.03347925744561501
99,1791340910.3651602,0.08636158662683825,-0.10138916015624996,0.05391142003676578,0.14368203315750783,-0.028174750608856595,0.006327569184118387,0.012673388912402495,0.031535210323954975
100,1791340910.3901246,0.052831313189338244,-0.07743896484374996,0.020381146599265775,0.09593399848897287,-0.02601530651123164,0.0033945989033621225,0.013440216904744352,0.029478108912116708
101,1791340910.4101245,0.062411391314338246,-0.10138916015624996,-0.0035690487132342265,0.11911205510651976,-0.024371924049238523,0.0011290895878504777,0.013987622568310744,0.028123284130285343
102,1791340910.4204192,0.052831313189338244,-0.12054931640624995,-0.022729204963234228,0.13356609636275527,-0.023563925579699274,-3.3484277095233985e-05,0.014206820860710082,0.027515331524274343
103,1791340910.4404192,0.024091078814338245,-0.13970947265624997,-0.03230928308823423,0.14540634993700163,-0.02211426396482752,-0.0023436738565974433,0.01448623355783225,0.02654024190817093
104,1791340910.465453,-0.01901927274816176,-0.13970947265624997,0.006011029411765774,0.14112619161709686,-0.020562397527032792,-0.005326179627505215,0.014734134449050751,0.025851017377404705
105,1791340910.485453,-0.014229233685661757,-0.09659912109374996,0.058701459099265774,0.11392858547243055,-0.019558423175808925,-0.0077060129667966375,0.014999548521455571,0.025824426592200602
106,1791340910.5103693,0.03367115693933825,-0.04869873046874996,0.09702177159926578,0.11365974363494578,-0.018458934368397437,-0.010497656369855397,0.015571613137966341,0.026332644815795767
107,1791340910.5303693,0.07678150850183825,-0.11096923828124997,0.07786161534926578,0.15579474650107977,-0.017543095630971905,-0.012641842266281067,0.016224246565320267,0.027033360072607742
108,1791340910.5402591,0.04804127412683824,-0.07264892578124996,0.029961224724265774,0.09210594673460307,-0.01706556572098047,-0.01367928016525916,0.01657853687080138,0.02744456456191785
109,1791340910.560259,0.004930922564338244,-0.10617919921874996,0.05391142003676578,0.11918379736546023,-0.016165265117855893,-0.015730809343023004,0.017313347359213575,0.02843459434734204
110,1791340910.585642,-0.004649155560661757,-0.14449951171874997,0.08744169347426578,0.16896086319627943,-0.015193503919087286,-0.018421177834407117,0.018375142409043504,0.03013018773089212
111,1791340910.605642,0.08636158662683825,-0.18760986328124996,0.1353420840992658,0.24692764967384054,-0.014420108951034006,-0.020721186304391577,0.019420443382437265,0.03185060007584547
112,1791340910.6309493,0.13905201631433825,-0.06785888671874996,0.07307157628676578,0.1711132578406003,-0.013160435594856176,-0.023679863965882356,0.020940300360960607,0.03424075352115222
113,1791340910.6509492,0.18695240693933826,-0.029538574218749957,0.015591107536765774,0.18991264429076732,-0.011825249492248469,-0.02581343848314086,0.022094251376714686,0.03597674354043566
114,1791340910.6606982,0.13905201631433825,-0.09659912109374996,0.006011029411765774,0.16941955587167934,-0.011033676905566876,-0.02678967088035658,0.02258816292673743,0.03673763188256832
115,1791340910.6806982,0.07199146943933825,-0.22593017578124996,0.07786161534926578,0.2495789397072171,-0.009336784776454091,-0.028975797361154722,0.023575244081123107,0.038504084408813775
116,1791340910.7051597,0.009720961626838243,-0.14928955078124997,0.029961224724265774,0.1525763482797902,-0.007422759446825803,-0.0319369104217445,0.024799241720574204,0.04111041224565186
117,1791340910.7251596,-0.009439194623161758,-0.0007983398437499547,-0.02751924402573423,0.02910402950431355,-0.006092148983186982,-0.03421992312048069,0.025653544812160586,0.043199789108680685
118,1791340910.7654915,0.16779225068933826,0.0039916992187500454,-0.19517061121323423,0.2574135593464224,-0.0033323428600568437,-0.03812358672046701,0.02644429801101181,0.046516806324866544
119,1791340910.7854915,0.11510182100183824,-0.18281982421874995,-0.04667940027573423,0.22102145537349097,-0.0017447361432868555,-0.04003723379766801,0.026414828028765384,0.04799757633639506
120,1791340910.78053,-0.03338938993566176,-0.36005126953125,0.2550930606617658,0.4425203245604972,-0.0017447361432868555,-0.04003723379766801,0.026414828028765384,0.04799757633639506
121,1791340910.80053,-0.09565989774816176,-0.23551025390624997,0.2982034122242658,0.3918432987743576,-0.0006870807870873973,-0.043005345228579815,0.027489207047999214,0.051044963535740596
122,1791340910.8258338,0.024091078814338245,-0.015168457031249956,0.10660184972426578,0.11033773847502258,0.00031451440822178245,-0.046673029626366394,0.02941284414586824,0.055168705028900124
123,1791340910.8458338,-0.014229233685661757,0.07584228515625005,0.11139188878676579,0.13550895245881844,0.001002212999543812,-0.04904609453144363,0.031032199499956278,0.05804757725770169
124,1791340910.8704336,-0.27289134306066176,-0.04869873046874996,0.2838332950367658,0.39673995367009296,0.0011914634871983232,-0.05147703570193122,0.0334544069802913,0.06140441463202944
125,1791340910.8904335,-0.4405427102481618,-0.17323974609374995,0.3029934512867658,0.5620453012899302,0.00025209727380917917,-0.05348987449398596,0.03600854213244977,0.06448135647551347
126,1791340910.9009867,-0.27289134306066176,-0.31694091796874996,0.12097196691176577,0.4353796588941966,-0.0007338877985083951,-0.054780619195095706,0.03748965431705296,0.066384704650326
127,1791340910.9209867,-0.05254954618566176,-0.36963134765625,0.029961224724265774,0.3745483452926638,-0.002810368306484101,-0.05788973238929524,0.040101971928718685,0.07047898579501588
128,1791340910.945675,-0.11482005399816177,-0.26425048828125,0.07786161534926578,0.29845334057741224,-0.005299022926646404,-0.06232568085317328,0.043042596491190015,0.0759291462515689
129,1791340910.9656749,-0.21541087431066178,-0.11096923828124997,0.11139188878676579,0.26669115002843224,-0.007508022050446816,-0.06594304275913143,0.045351349941081455,0.0803840794244797
130,1791340910.9913485,-0.18188060087316177,-0.32652099609374996,0.19282255284926578,0.42056753411473047,-0.010683321271232386,-0.07073245277715509,0.04845627223799953,0.08640152515123772
131,1791340911.0113485,-0.11482005399816177,-0.47980224609375,0.3461038028492658,0.6026455695543373,-0.01323091984383034,-0.075113279980905,0.05132060841133459,0.0919285968407722
132,1791340911.034938,-0.2968415383731618,-0.27862060546874995,0.4323245059742658,0.5938424194695181,-0.01651335906989277,-0.08084713709339045,0.05556948721868385,0.09948325745428799
133,1791340911.054938,-0.32558177274816175,-0.029538574218749957,0.4275344669117658,0.5382023211676441,-0.01981250114461289,-0.08544151129035525,0.05992125248044131,0.10622308389427407
134,1791340911.0657864,-0.16751048368566177,0.10458251953125006,0.4466946231617658,0.48839876320250913,-0.021734769199536583,-0.08749870164794499,0.0626389361265418,0.10978187146017415
135,1791340911.0857863,-0.09565989774816176,0.14769287109375007,0.4514846622242658,0.4845641344887829,-0.025141846571589466,-0.09034404334117249,0.06824499519822305,0.11598076558579222
136,1791340911.1099782,-0.14356028837316176,0.17164306640625004,0.4898049747242658,0.5384977362141501,-0.02907888831650874,-0.09269009559401263,0.07571675795119887,0.12316680965906207
137,1791340911.1299782,-0.3495319680606618,0.12374267578125005,0.5616555606617658,0.6730095209788236,-0.0325851448435221,-0.09389562384462012,0.08254446807200386,0.12919662941011184
138,1791340911.1556613,-0.22499095243566178,0.27702392578125007,0.4514846622242658,0.5755011593011096,-0.03751901594709218,-0.09443952917574466,0.09194870483335855,0.1370440277761369
139,1791340911.1756613,0.019301039751838243,0.29139404296875004,0.19282255284926578,0.34994793227062176,-0.04109333688769371,-0.09394692026712585,0.09913993784882888,0.14263033843089923
140,1791340911.1852064,-0.20583079618566177,0.43030517578125005,0.025171185661765776,0.47766353173565074,-0.04267685279671333,-0.09323043409529788,0.10221323873581263,0.1447783608799818
141,1791340911.2052064,-0.2681013039981618,0.5021557617187501,-0.15685029871323422,0.5904580717030496,-0.04620802236125348,-0.09055566846009977,0.10748932785981662,0.1479508905838311
142,1791340911.230329,-0.29205149931066177,0.39198486328125004,-0.16643037683823422,0.5163770731023429,-0.05103373805638485,-0.08601504740339806,0.1125135536592592,0.1505401293903108
143,1791340911.250329,-0.25373118681066176,0.30097412109375005,-0.14248018152573425,0.41864727260082374,-0.05511787545830819,-0.08190306353703236,0.11544998018746631,0.15190388387752005
144,1791340911.2751243,-0.06691966337316176,0.43988525390625005,-0.24307100183823424,0.5070116269719919,-0.06001804090619985,-0.07619211391978487,0.1178274002600897,0.15261290807082847
145,1791340911.2951243,0.10073170381433824,0.34887451171875006,-0.32929170496323423,0.4901972338130128,-0.06332694161089007,-0.07109347225393971,0.11859884789530457,0.15208639009787944
146,1791340911.3061068,-0.014229233685661757,0.33929443359375006,-0.4107223690257342,0.532931560500123,-0.06480014396617938,-0.0681468073594456,0.11834938559641325,0.15116091784046387
147,1791340911.3261068,-0.11961009306066177,0.3345043945312501,-0.3915622127757342,0.5286972014267975,-0.06728129297974615,-0.06257492690905703,0.116759813743304,0.14857741405769354
148,1791340911.3507757,-0.19625071806066177,0.20517333984375005,-0.26702119715073425,0.3897573135295547,-0.07046700171349439,-0.05573470140133825,0.11387476675879904,0.14504970794578265
149,1791340911.3707757,-0.12440013212316177,0.008781738281250047,-0.2622311580882342,0.2903750885868086,-0.07314332984249095,-0.05069999700969499,0.11109273027230893,0.14234476146520633
150,1791340911.3960588,0.009720961626838243,-0.14449951171874997,-0.23828096277573424,0.27884121503687087,-0.07623659028558967,-0.04554739494508393,0.10715425381393788,0.13917117875148627
151,1791340911.4160588,-0.17709056181066177,-0.31215087890625,-0.14727022058823425,0.38792751404929676,-0.0785675073225817,-0.042767835950924406,0.10392775388342673,0.13712373618766094
152,1791340911.4251833,-0.21062083524816178,-0.36484130859374997,-0.17601045496323423,0.4565632452940095,-0.07973674509912958,-0.042153236232529194,0.10245530834523361,0.13649884267639736
153,1791340911.4451833,-0.12440013212316177,-0.43190185546875,-0.19996065027573423,0.4919338037666284,-0.08241769518998021,-0.04220328268147662,0.09914802355717192,0.1356618005365351
154,1791340911.4705203,-0.12440013212316177,-0.65703369140625,-0.16164033777573422,0.6879653067644014,-0.08577739170118072,-0.0443264492642267,0.09489952338567906,0.13538284444589313
155,1791340911.4905202,-0.02380931181066176,-0.83426513671875,-0.14727022058823425,0.8474985071050917,-0.0882539121300949,-0.04798794543064968,0.09158560391057621,0.13593939368919694
156,1791340911.5159621,-0.014229233685661757,-0.84384521484375,0.0012209903492657738,0.8439660588693176,-0.09100430989375553,-0.055149123985182305,0.08772364269226823,0.13790811354946614
157,1791340911.535962,-0.09565989774816176,-0.64745361328125,0.1305520450367658,0.6673760812700863,-0.09300692854285453,-0.062171089732059814,0.08534078264511429,0.1407074352617093
158,1791340911.544988,-0.10523997587316176,-0.73846435546875,-0.0035690487132342265,0.7459341760023986,-0.09391112415312222,-0.06580287505318434,0.08451268311928925,0.14244897757790165
159,1791340911.564988,0.04325123506433824,-1.09292724609375,-0.09457979090073423,1.0978642773291631,-0.09570714624421993,-0.07539037381279082,0.08280574678211208,0.14731041377305307
160,1791340911.591173,0.08636158662683825,-1.3372192382812498,0.07307157628676578,1.3419959277640239,-0.09745133278286007,-0.0908324768101041,0.08086391743816501,0.15584054109268297
161,1791340911.611173,0.052831313189338244,-1.3372192382812498,0.10181181066176578,1.3421296821369473,-0.09837491340301542,-0.10486953236562715,0.07986555781732439,0.16448024115713258
162,1791340911.6354423,0.20132252412683826,-1.4042797851562498,-0.05625947840073423,1.4197526554400972,-0.09886492783239986,-0.12433810414961666,0.07891871613280045,0.17737644109316233
163,1791340911.6554422,0.17737232881433826,-1.4857104492187498,-0.03230928308823423,1.496609625694181,-0.09864012725923403,-0.14231026592727924,0.07812262745945243,0.1899611313273829
164,1791340911.6809936,0.17258228975183826,-1.54798095703125,-0.04667940027573423,1.5582710471793648,-0.09772537394081322,-0.167640424570892,0.0771067593367754,0.20880376672272966
165,1791340911.7009935,0.18216236787683826,-1.67252197265625,-0.03709932215073423,1.6828218078550368,-0.09658464733457431,-0.18932401409701602,0.0763052068312442,0.22581997476775648
166,1791340911.7110612,0.12468189912683825,-1.70605224609375,0.08744169347426578,1.7128356290458966,-0.09586486460801384,-0.20115302455045964,0.07600025277367106,0.23543289908968232
167,1791340911.7310612,0.24922291475183825,-1.6485717773437498,0.0012209903492657738,1.6673039486275936,-0.09408860688173626,-0.22615902724019277,0.07561831144955154,0.25635658870732686
168,1791340911.7562296,0.3785539694393383,-1.78269287109375,-0.19996065027573423,1.8333797321028318,-0.09100360576441659,-0.2593838815855256,0.07483461731671187,0.2848892315224253
169,1791340911.7762296,0.34023365693933827,-1.8449633789062498,-0.10894990808823424,1.879233591997524,-0.08784166438183895,-0.2872670559690178,0.07384190648963787,0.30933985614612103
170,1791340911.800569,0.11989186006433825,-1.82101318359375,0.06828153722426578,1.826232581370084,-0.08373092687234895,-0.32280225216899744,0.0727407811326237,0.34132591955499647
171,1791340911.820569,0.27317311006433825,-1.82580322265625,-0.08978975183823423,1.8483081873592786,-0.08027016785583047,-0.353092180713232,0.07193943314550806,0.3691783714814912
172,1791340911.830131,0.6036858053768382,-1.89286376953125,-0.4203024471507342,2.030769299723243,-0.07823492328419979,-0.36806843142611745,0.07124796328939988,0.3829769519261633
173,1791340911.850131,0.45519459443933824,-1.8784936523437499,-0.33408174402573426,1.961517558522949,-0.0730282117587972,-0.400351231430552,0.06888704722762726,0.4127464760556878
174,1791340911.8911116,0.33065357881433827,-1.7683227539062498,-0.09457979090073423,1.8014556580754741,-0.061544467801226924,-0.46778606414683915,0.06345758611156989,0.47606552969316557
175,1791340911.9111116,0.5414152975643383,-1.67252197265625,-0.07541963465073423,1.7595875638187162,-0.05547256119170174,-0.500921335801397,0.06095028242599131,0.5076557166368081
176,1791340911.9204233,0.6946965475643383,-1.5240307617187498,-0.23828096277573424,1.6917596972041198,-0.052206354266425135,-0.5162669019397084,0.059738944621047396,0.5223272527531495
177,1791340911.9404233,0.5414152975643383,-1.50008056640625,-0.10894990808823424,1.5985125312673691,-0.044389194642114646,-0.5488188992258165,0.05700660401835938,0.5535542770588251
178,1791340911.950704,0.43124439912683826,-1.53840087890625,-0.05625947840073423,1.5986913788807748,-0.0402236103097011,-0.5653849152941011,0.055685357910540856,0.5695427116152831
179,1791340911.970704,0.4887248678768383,-1.66294189453125,-0.061049517463234226,1.7343456358670002,-0.03195561996606733,-0.5975798030620911,0.053324636732225074,0.600804709999653
180,1791340911.996163,0.5222551413143383,-1.61504150390625,-0.07062959558823423,1.6988519746411042,-0.021079273379927925,-0.6386737074555754,0.050518905525660115,0.6410152885671184
181,1791340912.0161629,0.4983049460018383,-1.47613037109375,-0.10415986902573424,1.5614473958448696,-0.012285813403168155,-0.6707506921056853,0.048383209818416935,0.6726056550190209
182,1791340912.0411422,0.6611662741268383,-1.5623510742187499,-0.36761201746323424,1.7358629889880817,-0.0007782564691095461,-0.7104968207663034,0.04523206330441336,0.7119355852553872
183,1791340912.0611422,0.46477467256433824,-1.7300024414062498,-0.20954072840073423,1.8035607171336325,0.00874225256928742,-0.742485027887874,0.04222178628112823,0.7437359227941135
184,1791340912.0712588,0.2875432272518383,-1.65815185546875,-0.06583955652573423,1.6841863111117978,0.013406458606193203,-0.7588092548497444,0.04071855986535213,0.7600192231091869
185,1791340912.0912588,0.4887248678768383,-1.62462158203125,-0.17601045496323423,1.705645614287833,0.022408631826163754,-0.7911647825640251,0.0378297505163276,0.7923856068695526
186,1791340912.1153352,0.44082447725183826,-1.8880737304687498,-0.24307100183823424,1.9540297191611955,0.033298630439756435,-0.8306155913618065,0.03411702470967242,0.8319825904293475
187,1791340912.1353352,0.30191334443933826,-1.9216040039062499,-0.24307100183823424,1.9603053658330174,0.04210198054599465,-0.8641856535393784,0.030766319297073047,0.865757464277535
188,1791340912.1607797,0.29712330537683823,-1.98387451171875,-0.14727022058823425,2.0113997252454503,0.052765022687611005,-0.9079410438349763,0.026397988229858362,0.9098559998603923
189,1791340912.1807797,0.37376393037683825,-1.8832836914062498,-0.2526510799632342,1.936566421833778,0.060895544033412886,-0.9429756258895601,0.022879537606555832,0.9452167854762328
190,1791340912.1906273,0.25401295381433825,-1.86412353515625,-0.13769014246323424,1.8863821750537364,0.0647620307315648,-0.9604062133691792,0.021118682045721277,0.9628188895290483
191,1791340912.2106273,0.20132252412683826,-1.79227294921875,-0.12811006433823424,1.808088845108786,0.07211974973346381,-0.9959812280569259,0.017680216956448953,0.9987454405478039
192,1791340912.235968,0.38334400850183825,-1.73958251953125,-0.2909713924632342,1.8049277886787998,0.08115509515887903,-1.0410074814783483,0.013180552881616372,1.0442492293214323
193,1791340912.255968,0.23485279756433824,-1.87370361328125,-0.22391084558823424,1.9015933144915729,0.08814379058069792,-1.0766334650487672,0.0093896108862387,1.0802764047564142
194,1791340912.2811353,-0.05733958524816176,-2.00303466796875,0.17845243566176577,2.011785520604701,0.09595401986794783,-1.1220568141022274,0.005248983740441662,1.1261643840187658
195,1791340912.3011353,-0.09565989774816176,-2.1036254882812497,0.8059475528492658,2.254759958161275,0.10100018243444364,-1.1588994081863384,0.0039286673059705755,1.163298890901748
196,1791340912.3103213,-0.15314036649816176,-1.4952905273437498,0.9256985294117658,1.7652941682252978,0.10279882623122784,-1.1757624820691943,0.004606228416230519,1.1802568492731798
197,1791340912.3303213,0.03846119600183825,-1.13124755859375,0.7005666934742658,1.3311626476233764,0.10595544005943727,-1.2109096732104527,0.008299541949577308,1.215564755308991
198,1791340912.3561723,0.2779631491268383,-1.4426000976562499,0.5520754825367657,1.5694412676008407,0.11003700560128143,-1.254515045862733,0.014785926161999922,1.2594184239203983
199,1791340912.3761723,0.23485279756433824,-1.6773120117187499,0.3461038028492658,1.7286755807630647,0.11349032293389813,-1.2878704077953727,0.02039873008434916,1.2930221764779264
200,1791340912.401564,0.052831313189338244,-1.63420166015625,0.16408231847426577,1.643267848205716,0.11776480311413683,-1.33017195922859,0.02742733116469049,1.3356564859518913
201,1791340912.4215639,0.057621352251838245,-1.7204223632812499,0.015591107536765774,1.7214576413457852,0.12079230061851617,-1.3635253153663063,0.03240257856491393,1.3692486964138963
202,1791340912.445657,0.14863209443933825,-1.7587426757812499,-0.10415986902573424,1.7680827405489463,0.12426503381325117,-1.4039646181857457,0.03733698984370892,1.4099476935534325
203,1791340912.465657,0.34502369600183824,-1.70605224609375,-0.20954072840073423,1.7531579889054518,0.12745585663338727,-1.4376955366159963,0.04034813057977836,1.443897996063777
204,1791340912.4756863,0.3881340475643383,-1.66773193359375,-0.25744111902573424,1.7315466412927625,0.12936741346267852,-1.4546109730108356,0.04128035514386844,1.460935685850119
205,1791340912.4956863,0.21569264131433824,-1.6437817382812498,-0.13290010340073424,1.663190955996337,0.13351329735133874,-1.488250398074146,0.042274991762777214,1.494825147924005
206,1791340912.519871,0.10552174287683824,-1.6485717773437498,0.06828153722426578,1.6533560147771575,0.13835728341406384,-1.5287985557615509,0.0431801213332599,1.5356536995203958
207,1791340912.539871,0.14863209443933825,-1.6389916992187499,0.16887235753676577,1.6543588373582723,0.14214346286529314,-1.562232127610874,0.04417208820000863,1.5693072222961582
208,1791340912.56532,0.29233326631433826,-1.57672119140625,0.19282255284926578,1.615143644048684,0.14708019905140962,-1.6045311415383448,0.04593534386174756,1.611912784531174
209,1791340912.58532,0.30670338350183823,-1.5671411132812498,0.17366239659926577,1.6062866688049402,0.1512764981214941,-1.6375027161846305,0.04766292739383017,1.645166094667555
210,1791340912.5953865,0.2779631491268383,-1.6533618164062498,0.08744169347426578,1.678843309537948,0.1535132047070293,-1.654040289421389,0.04859916486699661,1.6618596396430068
211,1791340912.6153865,0.28275318818933826,-1.6773120117187499,0.04912138097426578,1.7016867691076565,0.15813155360721365,-1.686964395400381,0.05038509578260226,1.6951085857465964
212,1791340912.64012,0.20611256318933827,-1.69647216796875,0.034751263786765775,1.709300399500289,0.16389310755773098,-1.7278318678826652,0.05241800964202634,1.7363788647961196
213,1791340912.66012,0.10073170381433824,-1.6916821289062498,-0.03230928308823423,1.6949864870221818,0.1683134338382544,-1.761003331777806,0.05381894521619259,1.7698470627167595
214,1791340912.6858962,0.11510182100183824,-1.78269287109375,-0.022729204963234228,1.7865494447690713,0.17357309702774765,-1.8040589504019808,0.05524725136971498,1.8132315283275904
215,1791340912.7058961,0.24922291475183825,-1.73479248046875,-0.03230928308823423,1.7529007106228227,0.17758845682958677,-1.8377313799621473,0.05610669566336367,1.8471443490412311
216,1791340912.715946,0.34502369600183824,-1.6773120117187499,-0.061049517463234226,1.7135180124647835,0.17975139365199289,-1.8546853001667456,0.05640341164546037,1.8642289213022343
217,1791340912.735946,0.23964283662683825,-1.73479248046875,0.025171185661765776,1.7514471810548828,0.1842871537775383,-1.8884822114598352,0.0568515103440588,1.8983042201596816
218,1791340912.76021,0.18216236787683826,-1.7204223632812499,0.10181181066176578,1.7330325678240917,0.189732147721335,-1.9296222603606836,0.057544685558615444,1.939781365616874
219,1791340912.78021,0.24922291475183825,-1.6437817382812498,0.04912138097426578,1.6632929310296334,0.19419411284173757,-1.9634922248342175,0.05825673960580466,1.973931842327975
220,1791340912.804605,0.23485279756433824,-1.6054614257812498,-0.022729204963234228,1.6227072573183434,0.19970590145871547,-2.0045530921472494,0.05904327647612023,2.015341572739364
221,1791340912.824605,0.21090260225183827,-1.71084228515625,-0.03709932215073423,1.7241918663592228,0.20421549966487101,-2.0381413733850855,0.05950164281245178,2.0492107440926604
222,1791340912.8352163,0.17258228975183826,-1.69647216796875,0.010801068474265775,1.7052621870283653,0.2065544358756111,-2.0560007347529683,0.0596874276998135,2.0672122158380493
223,1791340912.8552163,0.17258228975183826,-1.61504150390625,0.034751263786765775,1.624608062398598,0.21081930972606416,-2.0895798555026213,0.06005339556958092,2.101046207058561
224,1791340912.8799484,0.17737232881433826,-1.57672119140625,0.006011029411765774,1.5866779102682294,0.2159513198001561,-2.13079582751925,0.06051368050255239,2.1425656901539423
225,1791340912.8999484,0.19174244600183826,-1.6006713867187499,0.015591107536765774,1.6121901675959682,0.2200325545044597,-2.1638923201383133,0.06086246733724388,2.175901775845065
226,1791340912.925787,0.16300221162683826,-1.58630126953125,0.039541302849265776,1.5951441794843229,0.22520178849852507,-2.206412994360499,0.06135232573011452,2.218724465790715
227,1791340912.945787,0.11989186006433825,-1.5671411132812498,0.06828153722426578,1.5732030051369057,0.22902712028236816,-2.2391187556025236,0.061836352080252385,2.251650496403565
228,1791340912.9555738,0.13426197725183825,-1.55277099609375,0.05391142003676578,1.5594968695242482,0.23080478597287113,-2.2550124887558782,0.062127369876766696,2.267644589383611
229,1791340912.9755738,0.16300221162683826,-1.59588134765625,0.025171185661765776,1.6043816831976074,0.2343385298783196,-2.2873432594105263,0.06275149858208968,2.3001720552016542
230,1791340913.000402,0.16779225068933826,-1.61983154296875,0.010801068474265775,1.6285346573125488,0.2386833112581039,-2.32744669270104,0.06347706322843086,2.3405142956184326
231,1791340913.020402,0.22048268037683824,-1.59588134765625,0.0012209903492657738,1.611040464718598,0.24224061560818658,-2.3597292692602965,0.06399189386934784,2.3729934054975694
232,1791340913.0455327,0.21569264131433824,-1.59588134765625,-0.0035690487132342265,1.6103953953681691,0.24686212834147805,-2.4002247822399245,0.06453733713699922,2.4137491550641115
233,1791340913.0655327,0.14863209443933825,-1.65815185546875,0.006011029411765774,1.6648108624604994,0.2505348903216681,-2.432499482509291,0.06490997147105729,2.4462286827017694
234,1791340913.0756016,0.14863209443933825,-1.6533618164062498,-0.013149126838234227,1.6600812314414635,0.25233105351020535,-2.448811488547674,0.06506404182191457,2.46263720359838
235,1791340913.0956016,0.23006275850183824,-1.62462158203125,-0.022729204963234228,1.6409877435281035,0.2559316772579435,-2.481269105805811,0.06527035161635439,2.4952870812094057
236,1791340913.12073,0.25401295381433825,-1.6389916992187499,0.015591107536765774,1.6586318016508887,0.26068928916121525,-2.522083124358229,0.06547722885131893,2.5363654033190866
237,1791340913.14073,0.21569264131433824,-1.66773193359375,0.04433134191176578,1.6822064040186036,0.2646124934843285,-2.5546549365113984,0.06570707020071546,2.5691631001990536
238,1791340913.165287,0.15342213350183825,-1.6485717773437498,0.08265165441176578,1.6577570847622967,0.2693868863128256,-2.594757344406837,0.06618082582574988,2.6095430390352865
239,1791340913.185287,0.14384205537683825,-1.59109130859375,0.07307157628676578,1.599250306999701,0.27313791818342426,-2.627378251881069,0.06674237398988227,2.642380620821498
240,1791340913.2108066,0.17258228975183826,-1.58151123046875,0.05391142003676578,1.5918130732109055,0.2778118558974341,-2.6688306487470594,0.06759446212426092,2.6841023583832815
241,1791340913.2308066,0.18695240693933826,-1.65815185546875,0.010801068474265775,1.6686927342488957,0.2814647186099476,-2.70130380877135,0.06825915247895062,2.7167855945955552
242,1791340913.240503,0.17258228975183826,-1.6389916992187499,0.0012209903492657738,1.6480533752465012,0.2832315334633742,-2.7170838311372902,0.06854181488049015,2.7326658462685884
243,1791340913.260503,0.14384205537683825,-1.61983154296875,-0.0035690487132342265,1.6262095506423127,0.2868037691393201,-2.749637773479453,0.0690338596879484,2.7654167789179587
244,1791340913.2851741,0.08636158662683825,-1.58151123046875,0.010801068474265775,1.5839042770393892,0.2909752890283224,-2.7896948350417055,0.06956316102594232,2.805691167048755
245,1791340913.305174,0.052831313189338244,-1.58151123046875,0.015591107536765774,1.5824702216428315,0.2940585278184426,-2.8220412956940932,0.06996747244199479,2.8381830348984662
246,1791340913.3450046,0.10073170381433824,-1.55277099609375,0.010801068474265775,1.5560723972693242,0.29973655707559405,-2.88616023078612,0.07073072993100567,2.902544696912606
247,1791340913.3650045,0.11989186006433825,-1.58630126953125,0.05391142003676578,1.5917387401946723,0.3024909247916264,-2.918235358543213,0.07115356356162107,2.9347335819526523
248,1791340913.359798,0.06720143037683825,-1.6006713867187499,0.06828153722426578,1.6035358707651435,0.3024909247916264,-2.918235358543213,0.07115356356162107,2.9347335819526523
249,1791340913.379798,0.11031178193933824,-1.5623510742187499,0.0012209903492657738,1.5662410603622121,0.30498576874881866,-2.950217553775947,0.07171911042360599,2.9668069644901056
250,1791340913.4059982,0.15342213350183825,-1.5575610351562499,-0.02751924402573423,1.5653408696117956,0.3082820543389798,-2.991960858625001,0.07229717788406743,3.0086698865946584
251,1791340913.4259982,0.052831313189338244,-1.59588134765625,0.020381146599265775,1.5968856610875866,0.3107302193945443,-3.0237760378896783,0.07266154811446243,3.0405681207851885
252,1791340913.4500415,0.004930922564338244,-1.54798095703125,0.06828153722426578,1.5494940224648912,0.3133360173219486,-3.061955295783074,0.07319375787814598,3.0788158469316604
253,1791340913.4700415,0.11031178193933824,-1.55277099609375,0.04912138097426578,1.557459266116911,0.3153513272468443,-3.0936013069115744,0.07374616439302491,3.1105070330227567
254,1791340913.4805357,0.17737232881433826,-1.57672119140625,0.010801068474265775,1.5867032871771432,0.3164765929290837,-3.110178716695031,0.07403970362977982,3.1271154378065957
255,1791340913.5005357,0.10552174287683824,-1.6102514648437498,0.04433134191176578,1.6143140605616075,0.31872379194408024,-3.1418135128945512,0.07459791692367644,3.1588196932663575
256,1791340913.525128,0.04804127412683824,-1.59109130859375,0.08744169347426578,1.5942162858470457,0.32135572558489645,-3.1807817800340397,0.07542438728952608,3.19786351690636
257,1791340913.5451279,0.11031178193933824,-1.55277099609375,0.06349149816176577,1.5579786987900168,0.32341264889076193,-3.212435417391402,0.07622210642579855,3.22957378950864
258,1791340913.5707653,0.11510182100183824,-1.58151123046875,0.039541302849265776,1.58618716295642,0.32608727823934536,-3.252951516119452,0.07728940514448178,3.2701682114840778
259,1791340913.5907652,0.10073170381433824,-1.61983154296875,0.025171185661765776,1.6231557819068014,0.32818455737596686,-3.2846194847185295,0.07809419255664113,3.3018977824886933
260,1791340913.6008208,0.11510182100183824,-1.6006713867187499,0.034751263786765775,1.6051806651566802,0.3292436267943234,-3.3005819303009845,0.07848331871640013,3.317891209146375
261,1791340913.6208208,0.16300221162683826,-1.5623510742187499,-0.0035690487132342265,1.5708352358590765,0.3314512541033456,-3.3323127040999143,0.07918795194987413,3.3496923177340303
262,1791340913.645987,0.13905201631433825,-1.6102514648437498,-0.05625947840073423,1.617223043424267,0.3343825792463883,-3.3722391061998445,0.07982868026663902,3.3897169375745975
263,1791340913.665987,0.09594166475183825,-1.67252197265625,-0.04188936121323423,1.6757951159482953,0.3367151989359417,-3.4041338101094034,0.08011427335948335,3.421684149526422
264,1791340913.6906788,0.09115162568933825,-1.6437817382812498,-0.0035690487132342265,1.6463109548567834,0.3395095334094543,-3.443745637568763,0.08032979189368468,3.4613730823208693
265,1791340913.7106788,0.07199146943933825,-1.5623510742187499,0.025171185661765776,1.5642113793768846,0.3416781092622908,-3.4758270389747956,0.08051057666040361,3.4935081920859354
266,1791340913.72021,0.024091078814338245,-1.57672119140625,0.07786161534926578,1.5788263130100095,0.34262523769720366,-3.491066486735281,0.08065746118539094,3.5087665773542356
267,1791340913.74021,0.057621352251838245,-1.53840087890625,0.09702177159926578,1.5425338597966376,0.34443710741278005,-3.5229202912221553,0.08118176970560337,3.5406489206076635
268,1791340913.7659376,0.08636158662683825,-1.5336108398437498,0.11139188878676579,1.5400742464629553,0.34669606661894875,-3.563677526693445,0.08215720659897735,3.5814446084597074
269,1791340913.7859375,0.08636158662683825,-1.5336108398437498,0.06349149816176577,1.5373521724282249,0.3484478050732472,-3.5952095397730877,0.08306407149865572,3.613010814778959
270,1791340913.8100572,0.11031178193933824,-1.5575610351562499,-0.013149126838234227,1.5615178407588717,0.3505992617067035,-3.6331243628004826,0.08408475267485381,3.6509701071791985
271,1791340913.8300571,0.08636158662683825,-1.6006713867187499,-0.022729204963234228,1.6031605748218396,0.3524106608172198,-3.664584826747411,0.08475033158071806,3.682466272077454
272,1791340913.8554194,0.04325123506433824,-1.6102514648437498,-0.008359087775734226,1.6108539113508944,0.3546097075911559,-3.70460367767538,0.08540862175946692,3.7225167677304944
273,1791340913.8754194,0.062411391314338246,-1.59109130859375,0.006011029411765774,1.5923262437462218,0.35624219342697583,-3.7362297951891037,0.08584634289932597,3.754156520102174
274,1791340913.884962,0.09115162568933825,-1.57672119140625,0.020381146599265775,1.5794852723061568,0.35701417849698525,-3.7513234629293173,0.08604275635431935,3.769255921676443
275,1791340913.904962,0.10073170381433824,-1.58630126953125,0.06349149816176577,1.5907638932942312,0.35867726689308643,-3.7829568190852956,0.08651846871735118,3.8009074077487113
276,1791340913.930474,0.057621352251838245,-1.6102514648437498,0.058701459099265774,1.6123510354656505,0.36078347992813675,-3.823371886949543,0.08726806851443956,3.8413478130842833
277,1791340913.950474,0.03846119600183825,-1.6006713867187499,0.039541302849265776,1.601621574058315,0.3623310849331906,-3.855118967305848,0.0879149305710446,3.8731066474094775
278,1791340913.9755402,0.019301039751838243,-1.5671411132812498,0.015591107536765774,1.5673375136536865,0.3640883575969494,-3.8948948700026436,0.08870768712911341,3.912880707901322
279,1791340913.9955401,0.057621352251838245,-1.5719311523437498,0.020381146599265775,1.5731189271891621,0.36539553247141876,-3.926579696553679,0.08929929705096065,3.9445552820300858
280,1791340914.0047586,0.028881117876838246,-1.5575610351562499,0.025171185661765776,1.558032119628618,0.3659674699969883,-3.941157007378566,0.08956257491442735,3.9591251812402284
281,1791340914.0247586,0.024091078814338245,-1.5288208007812498,0.034751263786765775,1.5294054633466687,0.36710165260728456,-3.9726689616342945,0.09013797583965917,3.99061237866671
282,1791340914.0499876,0.09594166475183825,-1.5336108398437498,0.05391142003676578,1.5375543737806434,0.36854488287522064,-4.012251756171729,0.09092270460529706,4.030168287281485
283,1791340914.0699875,0.11989186006433825,-1.51445068359375,0.058701459099265774,1.5203225948619081,0.3698411213917265,-4.043495827664442,0.09162039574545405,4.061408039132314
284,1791340914.0959947,0.062411391314338246,-1.51445068359375,0.05391142003676578,1.5166945954982987,0.37162945106332895,-4.0839380753738,0.09261121367405277,4.10185756569919
285,1791340914.1159947,0.09594166475183825,-1.6054614257812498,-0.05146943933823423,1.6091489352737707,0.37303594917291677,-4.115053626288495,0.09326253977433924,4.132979562970351
286,1791340914.1258152,0.23006275850183824,-1.6773120117187499,-0.10415986902573424,1.6962174789280215,0.3738630928279424,-4.130458200046402,0.09341975738053122,4.148395570046144
287,1791340914.1458151,0.11031178193933824,-1.59588134765625,0.12097196691176577,1.60425689395753,0.37580550427912,-4.162034503080165,0.09371713143183837,4.180017210801895
288,1791340914.1702836,0.057621352251838245,-1.6006713867187499,0.17366239659926577,1.6110951978353287,0.3781336146901426,-4.2007370774708175,0.09456706620580667,4.218781809315039
289,1791340914.1902835,0.019301039751838243,-1.75395263671875,0.15450224034926577,1.760850170872326,0.3798665049834836,-4.2326584884985685,0.095649823899076,4.250746443941261
290,1791340914.2151685,-0.13877024931066176,-1.83538330078125,0.2934133731617658,1.8638617036761567,0.3814762548872661,-4.2731179520134654,0.09763093672436202,4.291222781989796
291,1791340914.2351685,-0.16272044462316176,-1.69647216796875,0.3700539981617658,1.743971250149055,0.38212370941766943,-4.3060553485876945,0.09997952112822713,4.324133103761359
292,1791340914.245218,0.004930922564338244,-1.75395263671875,0.3125735294117658,1.7815937744443648,0.38228131328270337,-4.32272381112509,0.10149712850296931,4.340781244988892
293,1791340914.265218,0.014511000689338244,-1.83059326171875,0.15450224034926577,1.8371590027169777,0.3825770805892251,-4.356297181300378,0.10476494298887187,4.374318923864291
294,1791340914.2906895,-0.34474192899816175,-1.77311279296875,0.09702177159926578,1.808919345455478,0.38226640030638137,-4.399525988324846,0.10878297615049462,4.417441596518178
295,1791340914.3106894,-0.7039948586856618,-1.7970629882812499,0.16887235753676577,1.9374111639108011,0.38048594447199313,-4.433732727679044,0.11186350573929625,4.451434476474891
296,1791340914.335237,-0.4405427102481618,-1.82580322265625,0.10660184972426578,1.8812228049275235,0.37652127114897477,-4.476089639742365,0.11558450594778887,4.49338474967944
297,1791340914.355237,-0.07649974149816176,-1.94076416015625,0.10660184972426578,1.9451945121660494,0.37300004486193733,-4.511073004625651,0.11848122309917966,4.528017942406631
298,1791340914.364801,-0.14835032743566176,-2.0174047851562498,0.27904325597426577,2.042007596833646,0.37140749853499827,-4.528131763543271,0.1199352643523633,4.544920820609836
299,1791340914.384801,-0.24894114774816176,-1.85454345703125,0.3269436465992658,1.8995250135523927,0.36798079233368036,-4.564261822088258,0.12342881902207857,4.580734713718328
300,1791340914.4102228,-0.29205149931066177,-1.7635327148437498,0.4131643497242658,1.8346788532211429,0.36324699833042096,-4.61019618717544,0.12861447927288364,4.626272684388768
301,1791340914.4302227,-0.12919017118566176,-1.71563232421875,0.4275344669117658,1.7728141731813682,0.3594495762296271,-4.646131939775597,0.13334325633946714,4.661923039225962
302,1791340914.4557767,-0.014229233685661757,-1.7300024414062498,0.3317336856617658,1.761578314059754,0.3550505405822236,-4.6917634486798985,0.1399340862745597,4.707258936285311
303,1791340914.4757767,-0.11482005399816177,-1.82101318359375,0.2550930606617658,1.8423748612104358,0.35193046980065845,-4.727446728427748,0.14519893295649988,4.7427513487244966
304,1791340914.4849012,-0.2681013039981618,-1.93118408203125,0.1305520450367658,1.9540711615393331,0.3504584822398847,-4.743852205935945,0.14750451219388375,4.759066345477311
305,1791340914.5049012,-0.12919017118566176,-1.90244384765625,0.006011029411765774,1.9068347663839902,0.34712007018992025,-4.780167858915494,0.15200490537874964,4.795164501223769
306,1791340914.5449584,0.009720961626838243,-1.86412353515625,-0.13290010340073424,1.868880276770642,0.34107773112167494,-4.853308639719837,0.1592853067646507,4.867885637522459
307,1791340914.5649583,0.11510182100183824,-1.9982446289062499,-0.16164033777573422,2.0080731124505573,0.3387006393140375,-4.890142614551679,0.16193324718524796,4.904532117365532
308,1791340914.5749757,0.19174244600183826,-2.07009521484375,-0.23349092371323424,2.092027097237084,0.33791915049182303,-4.908880862284816,0.1627637165857448,4.923189281330958
309,1791340914.5949757,0.48393482881433825,-1.9982446289062499,-0.37719209558823424,2.0903225570391,0.3376064426737922,-4.946783041400585,0.16325703800631858,4.960977063974583
310,1791340914.6205142,0.6467961569393382,-1.9168139648437499,-0.41551240808823425,2.0652291896365393,0.339432817612418,-4.9954203333208715,0.16227414864142076,5.00956802963541
311,1791340914.6405141,0.5557854147518383,-1.7300024414062498,-0.4107223690257342,1.8629274647555576,0.3424524374830616,-5.0332665720711525,0.16038052510574216,5.047451631298726
312,1791340914.6507454,0.5462053366268382,-1.47134033203125,-0.44904268152573423,1.6324282441361055,0.34461106146566844,-5.052179739156237,0.15889738727092823,5.066411479549091
313,1791340914.6707454,0.5988957663143383,-1.4090698242187498,-0.5592135799632343,1.629991943675917,0.3499154237065989,-5.087925965910739,0.1549206619224542,5.102296723028463
314,1791340914.6949775,0.5797356100643383,-1.50008056640625,-0.45862275965073424,1.6723247050008025,0.3575202708772365,-5.130026959112922,0.1489753352982944,5.144627391351171
315,1791340914.7149775,0.5318352194393383,-1.50008056640625,-0.24307100183823424,1.6100229558240553,0.36452278082219336,-5.164063008561214,0.14375187150018423,5.178908013731123
316,1791340914.75604,0.6899065085018383,-1.27015869140625,-0.17122041590073422,1.4555378808705925,0.3805058855786313,-5.231992915453266,0.13336019056034473,5.2475060301765675
317,1791340914.77604,0.9725188131893383,-1.07376708984375,-0.28618135340073425,1.4767086280891675,0.3896165538358477,-5.2636318981837995,0.12837191491271055,5.279592897860523
318,1791340914.7705345,0.8192375631893383,-1.09292724609375,-0.17122041590073422,1.3765742192180173,0.3896165538358477,-5.2636318981837995,0.12837191491271055,5.279592897860523
319,1791340914.7905345,0.5174651022518383,-0.9875463867187501,-0.10894990808823424,1.1202178718634153,0.4004885509389038,-5.292374303323449,0.1237644439724096,5.308948528993599
320,1791340914.816172,0.7138567038143383,-0.91569580078125,-0.22391084558823424,1.182466177072784,0.41470216132323867,-5.327351303570713,0.118104163503886,5.344772996835291
321,1791340914.8361719,0.9437785788143382,-1.07376708984375,-0.24786104090073424,1.4509062218684994,0.4266135635884008,-5.353528514248941,0.11364321153845967,5.3717019151329355
322,1791340914.8606746,0.7809172506893383,-1.02586669921875,-0.10415986902573424,1.2934772960147487,0.44218720215361784,-5.384647135811811,0.10835080756447439,5.403859194728768
323,1791340914.8806746,0.5893156881893383,-0.81989501953125,-0.022729204963234228,1.0099690293055936,0.45504752282388117,-5.409005840992609,0.10448861010786491,5.429118741155197
324,1791340914.8897426,0.7665471335018382,-0.76241455078125,-0.10415986902573424,1.0861490383176327,0.4609258967717067,-5.419469594194872,0.10291385702616669,5.440008697298704
325,1791340914.9097426,0.6994865866268383,-0.78157470703125,-0.08499971277573423,1.0523143345568409,0.4741452503880024,-5.441402183144187,0.09967789684661199,5.462930268666404
326,1791340914.9362843,0.29233326631433826,-0.82468505859375,0.015591107536765774,0.8751041464283035,0.4910313397914678,-5.469340130355758,0.09588949019144269,5.492175164040794
327,1791340914.9562843,-0.014229233685661757,-0.89174560546875,0.06828153722426578,0.8944691522293082,0.5022640475368653,-5.4898090486604225,0.09358882192159183,5.513531665982398
328,1791340914.9804344,-0.08128978056066176,-0.81989501953125,0.07786161534926578,0.8275858279481025,0.5136200827320356,-5.513918196709958,0.09149216150096007,5.538544058235067
329,1791340915.0004344,0.009720961626838243,-0.43190185546875,0.07307157628676578,0.4381474239492138,0.5215065743250454,-5.5327670234225,0.09024266058936592,5.558023369897429
330,1791340915.010983,0.052831313189338244,-0.13491943359374997,0.034751263786765775,0.14900352864729624,0.5250916991879114,-5.54166568340753,0.08976779330754726,5.567210980008571
331,1791340915.030983,-0.23457103056066178,0.03752197265625005,0.039541302849265776,0.24082147213511643,0.5305968341221159,-5.556152753213756,0.08911394163258639,5.582141857031091
332,1791340915.0562341,-0.4453327493106618,0.31055419921875005,0.16887235753676577,0.5685798461087213,0.5352171803453145,-5.5710407136873386,0.08880694577114163,5.597395710267045
333,1791340915.076234,-0.3591120461856618,0.5787963867187501,0.2455129825367658,0.7240465065093762,0.5371210978001829,-5.579729800319755,0.08922184251688449,5.606232625878141
334,1791340915.1009228,-0.4261725930606618,0.7177075195312501,0.1305520450367658,0.8448496902591786,0.5376647488876676,-5.586446335706114,0.09035352423419661,5.612987600490691
335,1791340915.1209228,-0.6752546243106617,0.8470385742187501,-0.0035690487132342265,1.083261691363718,0.5363869530381732,-5.588724042991792,0.09132324389871621,5.615148023603678
336,1791340915.1302128,-0.7806354836856618,1.0290600585937502,-0.03230928308823423,1.2920527281639071,0.5348680586586558,-5.588316168787046,0.0916811148297499,5.614603001933124
337,1791340915.1502128,-0.5171833352481617,1.2302416992187502,-0.03709932215073423,1.3350466660229874,0.5301418666681121,-5.584180839420565,0.0922318796493755,5.610047483379243
338,1791340915.1766374,-0.30163157743566177,1.3499926757812502,-0.0035690487132342265,1.3832839807060813,0.523211356554868,-5.574423030234767,0.09276981672816653,5.599691820317929
339,1791340915.1966374,-0.5315534524356618,1.6134448242187502,0.05391142003676578,1.6996057527570696,0.5175029184707275,-5.563700307065987,0.09319140567191452,5.588493089873421
340,1791340915.2206888,-0.5219733743106618,1.7954663085937503,0.039541302849265776,1.8702189667029752,0.5097674173887047,-5.546590493994946,0.09379092362198843,5.570756292036129
341,1791340915.2406888,0.014511000689338244,1.7619360351562503,-0.05146943933823423,1.7627473625874257,0.5035386326153303,-5.52916087052946,0.09419678155422351,5.552841085461152
342,1791340915.2660844,0.08157154756433825,1.6805053710937503,-0.022729204963234228,1.6826374643413968,0.4969988151845117,-5.503792086767704,0.09449350615399034,5.526994135998959
343,1791340915.2860844,-0.23936106962316178,1.7188256835937503,0.006011029411765774,1.7354225954237361,0.49238433926057357,-5.481711083487457,0.09466705808935486,5.504594498440879
344,1791340915.2958925,-0.13398021024816176,1.6948754882812502,-0.061049517463234226,1.7012585521011325,0.49018619520361995,-5.469995634862853,0.09469891544154957,5.492731800841242
345,1791340915.3158925,0.33065357881433827,1.6469750976562503,-0.22391084558823424,1.6946960872836707,0.48667123644220306,-5.444676874051221,0.09432669257256988,5.4671978819263565
346,1791340915.3402836,0.12468189912683825,1.6182348632812502,-0.19038057215073423,1.6341586247856121,0.48386050168917094,-5.4124576180123825,0.09318295764302134,5.434841443452631
347,1791340915.3602836,-0.5219733743106618,1.8337866210937503,-0.16643037683823422,1.9138779076853907,0.4813055595203183,-5.384823647307659,0.09185058965325638,5.407071044941852
348,1791340915.385801,-0.3878522805606618,2.07328857421875,-0.20954072840073423,2.1196372850987584,0.47679350877446725,-5.347377394155627,0.08968610839724726,5.369340801585939
349,1791340915.405801,0.10073170381433824,2.0062280273437505,-0.31013154871323423,2.0325548827424575,0.4733568559994087,-5.316311065131641,0.08746460215034492,5.338059582937613
350,1791340915.416005,0.028881117876838246,1.9439575195312502,-0.2526510799632342,1.9605197078628145,0.4719656961006402,-5.299815701699797,0.08607052515704958,5.321485340163992
351,1791340915.4360049,-0.28247142118566176,2.1259790039062505,-0.17122041590073422,2.151486290836658,0.46926758556851655,-5.266228898247804,0.08311213308896419,5.287748717769423
352,1791340915.4760938,-0.31121165556066177,2.42296142578125,-0.10894990808823424,2.445294429685953,0.4628855928078767,-5.195327241295239,0.07722930639028543,5.216478944838081
353,1791340915.4960938,0.11510182100183824,2.3846411132812504,-0.23828096277573424,2.399278951178981,0.4598850982761448,-5.158049485353274,0.07421380548909842,5.179042043263871
354,1791340915.5058565,0.32107350068933826,2.21698974609375,-0.33408174402573426,2.2648934497721993,0.45895951024580245,-5.139212930757018,0.0725435321429305,5.160175960542525
355,1791340915.5258565,0.14384205537683825,1.9631176757812503,-0.25744111902573424,1.9851441951719864,0.45804514862045387,-5.100142523185407,0.06874778753820976,5.121131259133097
356,1791340915.5355666,0.22048268037683824,2.1307690429687502,-0.2526510799632342,2.1569937169650513,0.4579331327181055,-5.081037609804464,0.06680988783261965,5.102069139809915
357,1791340915.5555665,0.5414152975643383,2.1355590820312504,-0.31013154871323423,2.224842622476949,0.45887986591589,-5.0411900536609995,0.06257292228428912,5.062418716293307
358,1791340915.581183,0.6228459616268383,1.8816870117187503,-0.33408174402573426,2.0100481869042786,0.4621473870932723,-4.990090028994838,0.05672246261043492,5.011765770926993
359,1791340915.601183,0.6851164694393382,1.5751245117187502,-0.2909713924632342,1.742144125882313,0.4662777752940186,-4.9509929734562155,0.05190230502625749,4.973172049729729
360,1791340915.6254346,0.8096574850643383,1.4266333007812502,-0.31013154871323423,1.669433854792092,0.4732537696684713,-4.905235878695572,0.045840844644872175,4.928225800344936
361,1791340915.6454346,1.1305901022518383,1.2781420898437503,-0.31013154871323423,1.7343767637532628,0.48105417872338296,-4.8691038592911955,0.040661481512359716,4.892978527595479
362,1791340915.6550066,1.5185832663143382,1.0625903320312502,-0.4203024471507342,1.9004861213745032,0.4861293231548746,-4.852724516835164,0.03803007621784096,4.877161391816067
363,1791340915.6750066,1.767665297564338,0.87098876953125,-0.5113131893382342,2.035854419759433,0.5000721796655498,-4.820734335937453,0.03195926177598763,4.846707451144027
364,1791340915.7002232,1.6622844381893382,0.71291748046875,-0.49694307215073424,1.8757380692311398,0.5215016877375744,-4.783454726051235,0.023546277591513242,4.811855936505523
365,1791340915.7202232,1.6670744772518382,0.78955810546875,-0.5065231502757342,1.9128787249538706,0.5409426169195038,-4.756068630580217,0.01636939075167985,4.786760458863854
366,1791340915.7459126,2.179608656939338,0.7943481445312501,-0.5400534237132343,2.3818775309804514,0.5695796168394672,-4.723116803476406,0.006517231503650184,4.757341248376729
367,1791340915.7659125,2.3520500631893384,0.5835864257812501,-0.5352633846507343,2.4817774894322953,0.5953276860897925,-4.699243971071455,-0.0016154267716894672,4.736803939691836
368,1791340915.7754543,2.150868422564338,0.5787963867187501,-0.5065231502757342,2.2842517221681895,0.608991594856814,-4.68873110898376,-0.005658956061921467,4.728118251349266
369,1791340915.7954543,2.1748186178768383,0.53568603515625,-0.5161032284007343,2.29851214730112,0.6398243148569717,-4.668329228860095,-0.014397016336277092,4.71199323184903
370,1791340915.821251,2.4286906881893384,0.5021557617187501,-0.44904268152573423,2.5203845337084503,0.6825346716886518,-4.643953485832553,-0.02584438014142046,4.693913664376279
371,1791340915.841251,2.5149113913143384,0.4350952148437501,-0.43467256433823426,2.589020546525447,0.7180961767038091,-4.626484005290041,-0.034713760155875344,4.682010403165009
372,1791340915.8811119,2.443060805376838,0.23870361328125006,-0.46341279871323426,2.498054630261973,0.7931628746902892,-4.594874717657753,-0.052424202122409946,4.663124415424228
373,1791340915.9011118,2.629872328814338,-0.029538574218749957,-0.5544235409007342,2.687840481861812,0.8327868630303487,-4.581080178019843,-0.06150413998212541,4.656566580208769
374,1791340915.8953745,2.725673110064338,-0.10617919921874996,-0.5448434627757343,2.7816222468559584,0.8327868630303487,-4.581080178019843,-0.06150413998212541,4.656566580208769
375,1791340915.9153745,2.605922133501838,-0.04390869140624996,-0.46341279871323426,2.6471701042938314,0.8762408937670592,-4.5715117947487975,-0.07097834212873168,4.655271863005254
376,1791340915.9408731,2.409530531939338,-0.19239990234374996,-0.44425264246323426,2.4576849914310257,0.9329232491853983,-4.561594523052083,-0.0829812831034833,4.656755981899298
377,1791340915.9608731,2.672982680376838,-0.77678466796875,-0.5256833065257343,2.8327678635471876,0.9783372449905267,-4.556436434777487,-0.09243856902422332,4.661201737550808
378,1791340915.9854422,2.8645842428768384,-1.27015869140625,-0.5065231502757342,3.174226155720219,1.0359618071153938,-4.554822293214345,-0.10421574850483523,4.672310339735643
379,1791340916.0054421,2.7113029928768384,-1.18393798828125,-0.5496335018382342,3.009147730773834,1.0841976330556873,-4.557386566239121,-0.1139489330272228,4.685962140371857
380,1791340916.0309446,2.6681926413143384,-1.02586669921875,-0.6789645565257343,2.938136709676414,1.1467675393102847,-4.564392522464784,-0.12684821144134967,4.707955538988667
381,1791340916.0509446,2.8981145163143385,-1.38990966796875,-0.7316549862132342,3.2963973749588473,1.1968262267184016,-4.572686369109754,-0.13756282558549468,4.728718344137894
382,1791340916.0605135,3.0801360006893383,-1.86891357421875,-0.6550143612132343,3.6618464664752395,1.2214744980601417,-4.578398068606316,-0.14291541439231303,4.740691261799301
383,1791340916.0805135,2.8933244772518383,-2.0605151367187498,-0.49215303308823427,3.585981562597563,1.2742243440243313,-4.594439505923893,-0.15414547429374317,4.770354586374442
384,1791340916.1051738,2.8406340475643383,-1.70126220703125,-0.5256833065257343,3.35258673683686,1.3401147613133828,-4.618209493830722,-0.16779783126020567,4.811644481315496
385,1791340916.1251738,2.8933244772518383,-1.69647216796875,-0.3915622127757342,3.3767832790735985,1.3941382447542616,-4.639692290533879,-0.17858515660119614,4.8479128142412256
386,1791340916.150699,2.7975236960018384,-1.81622314453125,-0.33887178308823424,3.3525571472826776,1.4636383216823503,-4.669721844750877,-0.19168576548569288,4.897477174702349
387,1791340916.170699,2.989125258501838,-1.87370361328125,-0.5831637752757343,3.575711821474256,1.5186060781234714,-4.695256732479374,-0.20179396251968848,4.938858269652596
388,1791340916.1804292,3.041815688189338,-2.01261474609375,-0.6693844784007342,3.708279436211976,1.5457386658648076,-4.708652564593339,-0.20688818327900427,4.960193516142432
389,1791340916.2004292,2.725673110064338,-2.00303466796875,-0.04667940027573423,3.38284211136473,1.6017935372142398,-4.738080040536532,-0.21686244793016374,5.006213571923818
390,1791340916.2259207,2.8406340475643383,-1.8066430664062498,0.5281252872242658,3.4076498177748906,1.673164759020714,-4.7772450105333295,-0.2267479967268443,5.06684959866721
391,1791340916.2459207,2.9412248678768385,-1.5623510742187499,0.3652639590992658,3.35039734394989,1.7294342185305351,-4.808417182772848,-0.2320004774253727,5.115236332891678
392,1791340916.2702472,2.7113029928768384,-1.29889892578125,-0.061049517463234226,3.00699673796981,1.7979230752602127,-4.845865793707286,-0.23687587480829456,5.17407507243968
393,1791340916.2902472,2.3616301413143383,-1.09771728515625,-0.2813913143382342,2.6194391068089726,1.8533941183498122,-4.875630699309264,-0.24079657982763697,5.221573275061579
394,1791340916.2999551,2.280199477251838,-0.80073486328125,-0.13290010340073424,2.4203612157728696,1.8796604583813055,-4.889293574683534,-0.24271585634243947,5.243779751778669
395,1791340916.319955,2.3041496725643382,-0.23551025390624997,-0.061049517463234226,2.316958747335789,1.932533131299811,-4.914773609355247,-0.246367710926629,5.286811986800125
396,1791340916.3607843,2.356840102251838,-0.28820068359374995,0.1305520450367658,2.377982072697278,2.0385528373089126,-4.960591334192235,-0.25249173207636827,5.369070322703013
397,1791340916.3807843,2.802313735064338,-1.3994897460937499,-0.04188936121323423,3.1326168833316728,2.0904348231637098,-4.982199923281333,-0.25490858747639716,5.408993641465038
398,1791340916.3902483,2.9172746725643384,-2.60657958984375,-0.10894990808823424,3.913645200557635,2.115362646426346,-4.993734877364991,-0.2559877646032792,5.429334847560426
399,1791340916.4102483,2.6681926413143384,-2.5826293945312497,-0.35324190027573427,3.730148308146909,2.16851804245226,-5.022238622567405,-0.25861954956612404,5.476516717208715
