imu_index,t_imu,ax,ay,az,mag,vx,vy,vz,velocity
0,1790598045.9939408,0.00024438974808667916,0.038613580197704084,-0.016129723373724092,0.04184777506805298,0.0,0.0,0.0,0.0
1,1790598046.0139408,-0.0045456493144133215,-0.03323700573979592,-0.054450035873724094,0.06395442037018781,-6.1402865648402705e-06,5.729712179608937e-05,-0.0001264349155948238,0.000138947656211555
2,1790598046.0383716,-0.02370580556441332,-0.05718720105229592,-0.030499840561224092,0.06901145887396944,-6.428111603076619e-05,-4.889567307208732e-05,-0.0004133674935690863,0.00042118349144158285
3,1790598046.0583715,-0.009335688376913322,-0.014076849489795918,0.012610511001275911,0.021079320594898282,-0.00015430023733819517,-0.00022968523015348994,-0.0006398616779964294,0.000697127560179406
4,1790598046.083896,-0.0045456493144133215,0.029033502072704085,0.03656070631377591,0.046907274664571084,-0.0002785252562602262,-0.00039717146418297134,-0.0007914297910205871,0.0009282686057661113
5,1790598046.103896,-0.009335688376913322,0.043403619260204085,0.041350745376275914,0.06067053144261386,-0.0003820847467620613,-0.00040006662694016154,-0.0007755115308997914,0.0009526070513375623
6,1790598046.1133418,-0.009335688376913322,0.029033502072704085,0.02219058912627591,0.037716330227737446,-0.00043688645135245513,-0.0003499113277908174,-0.0007241057145321124,0.0009152249966591467
7,1790598046.1333418,-0.009335688376913322,0.024243463010204084,0.0030304328762759103,0.026155001426411396,-0.0005635212043191054,-0.0001797304698511903,-0.0005937581504413344,0.0008380978049879972
8,1790598046.1587129,0.00982446787308668,0.019453423947704083,0.00782047193877591,0.02315417140870302,-0.0006991378103595725,8.691850715994057e-05,-0.0004325606269204689,0.0008267147033427669
9,1790598046.1787128,0.00982446787308668,0.005083306760204083,-0.00175960618622409,0.011200731696556564,-0.0007605348506034482,0.00030239271572187805,-0.0003154583314609933,0.0008771365756780501
10,1790598046.203183,0.01461450693558668,0.024243463010204084,-0.04486995774872409,0.05305320367395102,-0.0007795347404602418,0.0005803037056808429,-0.00027925152836162426,0.0010111420367602355
11,1790598046.223183,0.02898462412308668,0.00029326769770408303,-0.04007991868622409,0.04946306019034275,-0.0007273358046526294,0.000810180478126462,-0.000381522450341354,0.0011536763670897403
12,1790598046.2332315,0.02419458506058668,-0.0044967713647959175,0.012610511001275911,0.02765183333297294,-0.0006649650007844172,0.0009051853243329442,-0.0004459012346288973,0.0012084563851043745
13,1790598046.2532315,0.03377466318558668,0.029033502072704085,0.046140784438775916,0.06412990023796328,-0.00047249405317309717,0.0011027168913223355,-0.00046668857804087806,0.0012872580943871954
14,1790598046.2785587,0.03377466318558668,0.043403619260204085,0.03656070631377591,0.06604004303713587,-0.00013700425039744348,0.001452938545687827,-0.0003319694007130418,0.0014966643796062626
15,1790598046.2985587,0.043354741310586684,0.019453423947704083,0.0030304328762759103,0.0476156783088786,0.00020387531464916968,0.0017822978193524474,-0.00018215730402881226,0.0018031450147458557
16,1790598046.323355,0.03377466318558668,0.00029326769770408303,-0.03528987962372409,0.04884863849790778,0.0007065473397977753,0.0021661135869064283,-8.427258778176855e-05,0.0022799910271330856
17,1790598046.343355,0.02898462412308668,0.009873345822704084,-0.03528987962372409,0.04672223236477751,0.0011453115636773804,0.0024445025757034783,-0.0001230336412110435,0.0027023080315507547
18,1790598046.3527849,0.02898462412308668,0.009873345822704084,0.00782047193877591,0.03160302477036823,0.0013621546420876742,0.0025700389667203923,-0.00015799560235323966,0.0029129929917157686
19,1790598046.3727849,0.02898462412308668,0.00029326769770408303,0.02219058912627591,0.03650502276770047,0.0018400263043113216,0.0028116019247006224,-0.00017600737618678176,0.0033647853988048007
20,1790598046.3987963,0.01461450693558668,0.00029326769770408303,0.00782047193877591,0.01657798541011571,0.0024533636858719834,0.0030797912212961846,-0.0001373718039452652,0.003939921110180708
21,1790598046.4187963,0.005034428810586679,0.00029326769770408303,0.0030304328762759103,0.00588345160675226,0.0028836881764259105,0.003255948092606924,-9.584490247331655e-05,0.004350407075888345
22,1790598046.4439104,-0.0045456493144133215,0.014663384885204083,0.0030304328762759103,0.015648044842691108,0.003343915037860502,0.003472140542454409,-4.010525392027616e-05,0.004820698720971598
23,1790598046.4639103,0.00024438974808667916,-0.0044967713647959175,-0.016129723373724092,0.016746601302027812,0.0036489957923525225,0.0036337335015704676,-2.2023388149393898e-05,0.005149725670622423
24,1790598046.4731934,0.00982446787308668,0.00029326769770408303,-0.02570980149872409,0.02752453574605073,0.003776369747697323,0.003694560275331012,-4.4019467154821255e-05,0.005283245386395193
25,1790598046.4931934,0.01940454599808668,0.024243463010204084,-0.02570980149872409,0.040314709439890434,0.00405347185303605,0.0038427567871897957,-0.00016142999341343806,0.005587796831634291
26,1790598046.5187757,0.02898462412308668,0.019453423947704083,-0.00654964524872409,0.03551678464796411,0.0044475939594778875,0.004087723409900986,-0.00035097985930037084,0.006050930636346053
27,1790598046.5387757,0.048144780373086685,0.019453423947704083,-0.00654964524872409,0.05233787761598662,0.004825190360061302,0.004308869083644147,-0.0004965886369073224,0.006488097954340574
28,1790598046.5638478,0.05293481943558668,0.014663384885204083,-0.00654964524872409,0.05531733740748854,0.005417614754247502,0.0046086677089955674,-0.000676376280944257,0.007144777991708536
29,1790598046.5838478,0.06251489756058669,0.00029326769770408303,0.02698062818877591,0.06808929960290482,0.005992478930860995,0.004834379305531844,-0.0007676337570383211,0.007737589326884198
30,1790598046.5938156,0.06251489756058669,-0.014076849489795918,0.02219058912627591,0.06781365905435431,0.006329480269647949,0.004919693573786344,-0.0007695336716482958,0.008053439477367284
31,1790598046.6138155,0.06251489756058669,-0.0044967713647959175,0.02219058912627591,0.06648876307684698,0.007091776987827824,0.005037335747546713,-0.0007062022519475151,0.008727357784533187
32,1790598046.6381247,0.06730493662308669,0.00029326769770408303,-0.00654964524872409,0.06762350443939123,0.008116022200175089,0.00515121283542041,-0.0006122556518579704,0.009632220253543152
33,1790598046.6581247,0.05772485849808668,-0.023656927614795917,-0.03528987962372409,0.07167415933690999,0.009019846223616988,0.005195804387444267,-0.0006093157441553968,0.010427141257619866
34,1790598046.683703,0.03377466318558668,0.00029326769770408303,0.0030304328762759103,0.03391161161991501,0.010177902520682914,0.005199458709377506,-0.0006680053775497609,0.011448593877655046
35,1790598046.703703,0.01940454599808668,0.019453423947704083,-0.02091976243622409,0.034534165243552954,0.011027345894210963,0.00523150747694938,-0.0007338460183612967,0.01222741010723912
36,1790598046.7131593,0.03377466318558668,0.03382354113520408,-0.059240074936224095,0.07611928984609692,0.011406451097571269,0.005282173393839556,-0.0008171589267422878,0.012596675399303814
37,1790598046.7331593,0.02419458506058668,-0.03802704480229592,0.0030304328762759103,0.04517319565923358,0.012174931151435604,0.005366951444622152,-0.001051246867590746,0.013346843684098058
38,1790598046.7580612,0.00024438974808667916,-0.0044967713647959175,0.05572086256377591,0.055902550960644205,0.0130338801255537,0.005377255448230448,-0.0011892629701845462,0.014149602598485935
39,1790598046.7780612,0.01940454599808668,0.07214385363520409,0.06530094068877591,0.0992244167408841,0.013649740003146773,0.005485760302649701,-0.0011019511454434835,0.014752059672417842
40,1790598046.8036208,0.03856470224808668,0.043403619260204085,0.017400550063775912,0.06061261887503552,0.014429866012827294,0.005825129279687762,-0.00084856879514763,0.015584390693040337
41,1790598046.8236208,0.06251489756058669,-0.014076849489795918,-0.054450035873724094,0.08408969327580436,0.01510035475053282,0.006094837037152462,-0.0007356158773375331,0.016300579217327697
42,1790598046.8476937,0.07209497568558668,-0.06197724011479592,-0.06403011399872409,0.11462425271312353,0.016029364451183484,0.006233461564535513,-0.0008339658353894108,0.017218944996718093
43,1790598046.8676937,0.06251489756058669,-0.04281708386479592,-0.030499840561224092,0.08168020177469999,0.016887334606196066,0.0061741652114748104,-0.001045214195908593,0.01801096496236506
44,1790598046.877741,0.05772485849808668,0.009873345822704084,0.017400550063775912,0.06109354621300691,0.01734430954817433,0.0061240196877767475,-0.0011452917870224736,0.018429334879929597
45,1790598046.897741,0.06730493662308669,0.043403619260204085,0.03177066725127591,0.08615801736526771,0.018305043041767236,0.006119090218155211,-0.0012408635513213595,0.019340568973323192
46,1790598046.922872,0.05772485849808668,0.043403619260204085,0.041350745376275914,0.08322209800697465,0.019566830880310596,0.006277441579324341,-0.0012051196957312243,0.0205844469675905
47,1790598046.942872,0.02419458506058668,0.03382354113520408,-0.00175960618622409,0.04162338399396912,0.020543252714334197,0.0065003997912031364,-0.0011215539310984088,0.021576336870535635
48,1790598046.9679377,0.01461450693558668,0.005083306760204083,0.0030304328762759103,0.015767287147961172,0.021656384842955664,0.006811057236359209,-0.0010301429668653581,0.022725551691330687
49,1790598046.9879377,0.02898462412308668,0.009873345822704084,0.02698062818877591,0.04081109764209113,0.02247672979736247,0.007044185685678795,-0.0009231298507671646,0.023572783099993548
50,1790598046.9981458,0.02898462412308668,0.014663384885204083,-0.03528987962372409,0.047963516298382323,0.022877014941266288,0.007164113075509007,-0.0008830642893289674,0.023988791785346093
51,1790598047.0181458,0.02419458506058668,-0.03802704480229592,-0.07840023118622409,0.09043246282559803,0.02362339362955429,0.007328787225506272,-0.0009868766020039881,0.024753783028078617
52,1790598047.073004,0.01461450693558668,-0.03323700573979592,-0.030499840561224092,0.04741858958022295,0.025523232458359104,0.0074195147059381355,-0.0016769672293936834,0.026632626845347576
53,1790598047.093004,0.03377466318558668,-0.014076849489795918,0.07488101881377592,0.08334298136884266,0.02618455629171348,0.007376659486361054,-0.0018242473804729576,0.02726488532667605
54,1790598047.0876853,0.06730493662308669,0.019453423947704083,0.07967105787627592,0.10609367398790434,0.02618455629171348,0.007376659486361054,-0.0018242473804729576,0.02726488532667605
55,1790598047.1076853,0.06730493662308669,0.043403619260204085,-0.02091976243622409,0.08277357742124311,0.02699315374547017,0.007446837191007022,-0.0016454767206574828,0.028049836486407215
56,1790598047.119404,0.048144780373086685,0.019453423947704083,-0.06403011399872409,0.08243913560410167,0.027497343042338862,0.007537034458965223,-0.001631103444618513,0.028558208299379304
57,1790598047.139404,0.03856470224808668,-0.014076849489795918,-0.030499840561224092,0.05114327155454606,0.02835881705136172,0.007675945358227566,-0.001752047428676622,0.029431485043868104
58,1790598047.1634927,0.03377466318558668,-0.0044967713647959175,0.012610511001275911,0.036331443870569934,0.0293714577035675,0.007784601836195726,-0.0019081856298958093,0.03044542208245268
59,1790598047.1834927,0.01940454599808668,0.00029326769770408303,0.02219058912627591,0.029479563380511137,0.03016587401575654,0.007854978367419998,-0.0019661749314065146,0.03123373951591489
60,1790598047.207933,0.02898462412308668,0.005083306760204083,-0.01133968431122409,0.031536278846008084,0.031079743164195307,0.00793793478048678,-0.0020065192441105664,0.03214012077153091
61,1790598047.227933,0.03856470224808668,0.009873345822704084,-0.030499840561224092,0.05014937179545104,0.03181672897574499,0.008018071907671283,-0.002097340851463604,0.032878451278608244
62,1790598047.238479,0.03377466318558668,0.005083306760204083,0.012610511001275911,0.0364086922125948,0.032204265698695715,0.008065819627063013,-0.0021521969928223026,0.03326866584857917
63,1790598047.2584789,0.03856470224808668,0.014663384885204083,0.03177066725127591,0.05207327926457589,0.03293747949517656,0.008172408424530955,-0.0021740527736805056,0.03400576892845196
64,1790598047.2980394,0.05772485849808668,0.019453423947704083,-0.01133968431122409,0.06196114453584164,0.034455945510516374,0.008452844856712405,-0.0021501798709302757,0.035542735413480436
65,1790598047.3180394,0.05772485849808668,0.005083306760204083,-0.01133968431122409,0.059047334711404956,0.035281635961685445,0.008610159213622924,-0.002173940214685079,0.03638206555260238
66,1790598047.328038,0.05293481943558668,0.014663384885204083,-0.016129723373724092,0.05724751471533641,0.035715487010903525,0.008691816137121033,-0.002204636005196449,0.03682396095075793
67,1790598047.348038,0.06730493662308669,0.029033502072704085,-0.00654964524872409,0.07359209597047472,0.03663349877876732,0.008896198035754055,-0.002290845335447171,0.037767758003570205
68,1790598047.3575807,0.05772485849808668,0.048193658322704086,0.017400550063775912,0.07718527795941171,0.03709529665950177,0.00903435993272581,-0.002318042824900006,0.03824988910034322
69,1790598047.3775806,0.06730493662308669,0.038613580197704084,0.046140784438775916,0.0902769907459693,0.03810551751235999,0.009410701123690987,-0.0022711822647037343,0.03931602764018407
70,1790598047.4027379,0.08646509287308668,-0.0044967713647959175,0.03656070631377591,0.09398467153967677,0.03947575995763518,0.009877449857171443,-0.0020650393423201803,0.04074511047228979
71,1790598047.4227378,0.08167505381058668,-0.0044967713647959175,0.012610511001275911,0.08276509140563296,0.04065391110395764,0.010179364956192906,-0.0018519815317959,0.04194984856413634
72,1790598047.4480786,0.07209497568558668,0.019453423947704083,-0.054450035873724094,0.0924171392602275,0.04221501113928487,0.010532948950372847,-0.0017020400138737287,0.04354247488705636
73,1790598047.4680786,0.06251489756058669,0.005083306760204083,0.00782047193877591,0.06320689998705968,0.043464196560444444,0.010806957384234536,-0.0016713953683064713,0.04481874912385227
74,1790598047.4931538,0.043354741310586684,0.005083306760204083,0.05093082350127591,0.06707773389318059,0.044994552244586705,0.011118087060204887,-0.0015282474405738183,0.0463730215945517
75,1790598047.5131538,0.01940454599808668,0.07214385363520409,-0.01133968431122409,0.07556361864685832,0.0461262112133898,0.011444861203665311,-0.0013718122017536518,0.04754465351214888
76,1790598047.5231555,-0.06202611806441333,0.0817239317602041,-0.1263006218112241,0.1627202735198933,0.046575275059747255,0.01169918338117821,-0.0014085634889140384,0.048042805806695475
77,1790598047.5431554,-0.10513646962691332,0.05298369738520409,-0.1023504264987241,0.15600179242139647,0.047087812569738985,0.012333520190131628,-0.0018140064971879318,0.048710044471906334
78,1790598047.5682125,-0.047656000876913324,0.038613580197704084,0.05093082350127591,0.0797248504406437,0.04734648754585951,0.01318117946726043,-0.002342405497715571,0.049202847870769485
79,1790598047.5882125,-0.01891576650191332,0.09130400988520408,0.10841129225127591,0.14299383459108964,0.04742212812688527,0.013951150428546928,-0.0024618850568042206,0.04949296629214684
80,1790598047.6134448,0.005034428810586679,0.1775247130102041,-0.01133968431122409,0.17795774117211763,0.04747697377909395,0.015285585413667398,-0.0024063112741900834,0.04993498267354851
81,1790598047.6334448,-0.057236079001913326,0.3116458067602041,-0.07361019212372409,0.3252960774359619,0.04743562300959549,0.016918400807901923,-0.0024962937666714573,0.05042422135020831
82,1790598047.6432192,0.01940454599808668,0.1823147520727041,0.02219058912627591,0.18468250451652052,0.047390711633541055,0.01795881011799396,-0.0025713686491090596,0.05074455977459285
83,1790598047.6632192,0.06251489756058669,0.2637454161352041,0.041350745376275914,0.27418906085494404,0.04743547959215052,0.020437407966434225,-0.002606629020368497,0.05171660162243479
84,1790598047.687787,0.07209497568558668,0.3308059630102041,0.02219058912627591,0.3392973517845152,0.04773025391553235,0.02412091034649333,-0.002526365071183677,0.05353856530817442
85,1790598047.707787,0.06730493662308669,0.5224075255102041,-0.00654964524872409,0.5267660534396805,0.048143325859389574,0.02794956858971506,-0.0024473641717482056,0.055722058473675506
86,1790598047.7331054,0.06730493662308669,0.5607278380102041,0.06530094068877591,0.5685155016956657,0.048843412471574504,0.034126071522828316,-0.002250795057870332,0.05962661970833234
87,1790598047.7531054,0.09125513193558668,0.4266067442602041,0.05572086256377591,0.4398018052233571,0.04955132425173941,0.03975427383603477,-0.0019372765460241304,0.06355697494175783
88,1790598047.7930298,0.02898462412308668,0.4601370176977041,-0.02091976243622409,0.46152336880344635,0.0511125377533798,0.05195934176365194,-0.0013010961936728575,0.07289689680231834
89,1790598047.8130298,-0.03328588368941332,0.5271975645727041,0.017400550063775912,0.5285338222733693,0.051770857674123566,0.05863731561422954,-0.001035486522041614,0.07822805583097701
90,1790598047.8232229,0.02419458506058668,0.3547561583227041,0.03656070631377591,0.3574548853496055,0.05204909670037847,0.06220450323745628,-0.0008791699276369554,0.08111277106661884
91,1790598047.8432229,0.10562524912308668,0.05298369738520409,0.046140784438775916,0.12685794192539382,0.052707871013985254,0.06876543846907737,-0.0004944142857919742,0.08664323193508751
92,1790598047.8532782,0.20142603037308668,-0.33021942761479595,0.017400550063775912,0.3871951642629658,0.053220960787237946,0.07136018274377236,-0.00028206909522389954,0.08902149128899035
93,1790598047.8732781,0.3786574756855867,-0.603251654177296,-0.07840023118622409,0.716547722353702,0.05495853966609405,0.07434677794232938,-1.4567454185192437e-05,0.09245477102262699
94,1790598047.8828304,0.3499172413105867,-0.9289743104272961,-0.0879803093112241,0.9965820989897322,0.05618590967314787,0.0744615334920633,-2.5167670380033838e-05,0.09328117199735661
95,1790598047.9028304,0.4888283741230867,-1.158896185427296,-0.1598308952487241,1.2678877959116757,0.05962835951470749,0.07153395952417752,-0.0004157491738990835,0.09312798436022049
96,1790598047.9435844,0.6085793506855867,-1.2307467713647962,-0.23647152024872412,1.3932068120686543,0.06894514306540903,0.059159177419021006,-0.0023035764048120752,0.09087655082284829
97,1790598047.9635844,0.6277395069355867,-1.043935247927296,-0.3035320671237241,1.2553841667812922,0.07468598310855416,0.05058519358798412,-0.0039010612475632997,0.09028884849239306
98,1790598047.9733958,0.5702590381855867,-0.823593451052296,-0.2077312858737241,1.0230610100963342,0.07796138038230849,0.04563574079711585,-0.004943404141110856,0.09047118278058981
99,1790598047.9933958,0.5271486866230867,-0.5936715760522959,-0.00654964524872409,0.7939613188775296,0.08528269401918095,0.03493404514554276,-0.007070868183559825,0.09243117756617267
100,1790598048.0329943,0.5271486866230867,-0.39248993542729593,0.13715152662627592,0.6713751771372592,0.10073514080556918,0.01399498620070403,-0.010263382236183343,0.10221920194758786
101,1790598048.0529943,0.5989992725605867,-0.22962860730229592,0.21858219068877593,0.6777223619639597,0.10905823810494952,0.004072479440267375,-0.011100357699808298,0.10969732142769467
102,1790598048.1081665,0.6900100147480868,-0.08592743542729592,0.11320133131377591,0.7044940638663879,0.13390822234611932,-0.02049976646328608,-0.011690023163287627,0.13597172161337517
103,1790598048.1281664,0.7139602100605867,-0.09071747448979592,-0.054450035873724094,0.7217573332735968,0.14367109874770648,-0.0283360782806693,-0.011783587489514842,0.14691211958795128
104,1790598048.1385322,0.7474904834980867,-0.22004852917729592,-0.1454607780612241,0.792667784174096,0.1491082472292986,-0.03202991480328305,-0.011980223197887222,0.15297944496555868
105,1790598048.1585321,0.7522805225605868,-0.35895966198979595,-0.1598308952487241,0.84871899863021,0.1602749276503523,-0.03895638782661956,-0.012760646541516618,0.1654342367407097
106,1790598048.1385322,0.7858107959980867,-0.33021942761479595,-0.2412615593112241,0.8858615114580118,0.1602749276503523,-0.03895638782661956,-0.012760646541516618,0.1654342367407097
107,1790598048.1585321,0.8193410694355867,-0.35895966198979595,-0.3514324577487241,0.9610809535928742,0.1727116443174696,-0.04587323473575753,-0.014724934976884867,0.17930557564682567
108,1790598048.1834235,0.9103518116230868,-0.47871063855229595,-0.3897527702487241,1.0999143231657353,0.18909733698828635,-0.05475426745072595,-0.018186609327912207,0.1977032761968634
109,1790598048.2034235,1.0157326709980867,-0.560141302614796,-0.4328631218112241,1.2380798116648484,0.2031773450690805,-0.06237799438287789,-0.021784740648258083,0.21365070245066461
110,1790598048.3028388,0.9678322803730868,-0.5793014588647959,-0.3705926139987241,1.1872777218180495,0.27745730602019747,-0.10308527108499382,-0.042978085555584425,0.29909236970654285
111,1790598048.3228388,0.9774123584980867,-0.737372747927296,-0.3322723014987241,1.2686443040797144,0.2930770189352959,-0.1120212113555426,-0.0476564368885321,0.31735473337965764
112,1790598048.3038373,1.1163234913105868,-0.5745114198022959,-0.3226922233737241,1.2962915489044065,0.2930770189352959,-0.1120212113555426,-0.0476564368885321,0.31735473337965764
113,1790598048.3238373,1.0013625538105868,-0.49308075573979593,-0.2747918327487241,1.1495069148119081,0.310208298217422,-0.12175146565581405,-0.05276784992888091,0.33739747132781656
114,1790598048.3048387,1.0301027881855866,-0.617621771364796,-0.3131121452487241,1.2412121584136073,0.310208298217422,-0.12175146565581405,-0.05276784992888091,0.33739747132781656
115,1790598048.3248386,1.0684231006855867,-0.780483099489796,-0.1885711296237241,1.3365032216928507,0.3283235491710153,-0.13229487406555354,-0.057962946902271786,0.3586892664380527
116,1790598048.3331735,1.3270852100605868,-0.502660833864796,-0.5334539421237241,1.5160462318249222,0.33623803003944575,-0.1368318056320464,-0.060254568405809346,0.36798039199270344
117,1790598048.3531735,1.2696047413105866,-1.3936080994897961,-0.23168148118622411,1.899398863547761,0.35627560024929844,-0.1489298258502884,-0.06607630909805678,0.39176328948079997
118,1790598048.3778985,0.9630422413105867,0.4697170958227041,-0.2508416374362241,1.1004571939554577,0.3814714738957013,-0.163355806077181,-0.07308864037973369,0.421363921246044
119,1790598048.3978984,1.9929006397480868,-0.43081024792729594,-0.6005144889987242,2.1255277182678447,0.40322915065348663,-0.1732162253749588,-0.07918709739118718,0.44594641501319654
120,1790598048.4084694,0.1295754444355867,0.7619094786352041,-0.5047137077487241,0.9230556734153758,0.4146869323284298,-0.17738369294600467,-0.08280319209720022,0.45857016364849995
121,1790598048.4284694,1.2217043506855867,-0.45955048230229595,0.2377423469387759,1.3267515177290437,0.4351399259721319,-0.18363215671012026,-0.08901894855425231,0.4806161642670242
122,1790598048.4685814,1.4228859913105867,-0.12424774792729593,-0.2173113639987241,1.4447374419097407,0.4779634100947652,-0.1960406023003673,-0.09955387194957122,0.5261101715038962
123,1790598048.4885814,0.4361379444355867,0.2158450255102041,-0.3466424186862241,0.5974666083109875,0.49890108071699996,-0.20116206361827957,-0.10486463637867059,0.5480557053280133
124,1790598048.5131361,0.4361379444355867,0.6421585020727041,-0.00175960618622409,0.7762647387165595,0.5223575395415672,-0.20492659950521708,-0.11104844678509024,0.5720000592955149
125,1790598048.5331361,0.6995900928730867,0.3595461973852041,-0.3610125358737241,0.865465087197809,0.5403007476951031,-0.20603034623678002,-0.115873843937333,0.5897458344398443
126,1790598048.5282164,0.8816115772480867,-0.06676727917729593,-0.30832210618622413,0.9363542939879688,0.5403007476951031,-0.20603034623678002,-0.115873843937333,0.5897458344398443
127,1790598048.5482163,1.1833840381855867,0.10088408801020408,-0.4520232780612241,1.2707873248326376,0.5583782362619497,-0.20640333532117433,-0.12135411122327594,0.607548690948719
128,1790598048.5733132,0.5750490772480867,0.613418267697704,-0.3705926139987241,0.9188592372825859,0.5809698693524861,-0.20545666480805527,-0.12874785108775216,0.629535097805681
129,1790598048.5933132,0.6564797413105867,0.3212258848852041,-0.0831902702487241,0.7355761965531191,0.5981201463921927,-0.20341344989469246,-0.13443685214120468,0.645908668723307
130,1790598048.618341,0.7858107959980867,0.08651397082270408,-0.02570980149872409,0.7909767810421252,0.6190698578861566,-0.20047476119623506,-0.14069254576042167,0.6657567207715007
131,1790598048.638341,0.4361379444355867,-0.2679489198022959,-0.3322723014987241,0.6102604464841017,0.6351327730913209,-0.19875082276501252,-0.1454786691230024,0.6812191807151651
132,1790598048.648396,1.4372561084980868,-0.636781927614796,-0.1789910514987241,1.5821612248024846,0.6434098925885343,-0.19869639832073177,-0.1479095332936472,0.689444543546154
133,1790598048.668396,1.6815481006855868,-0.540981146364796,-0.2460515983737241,1.7834814281914286,0.6620821258161212,-0.2003710264607024,-0.15265693094330093,0.7083822613075071
134,1790598048.6935155,2.1892922413105866,-0.9672946229272961,-0.5430340202487242,2.4542912118479916,0.6893087889722814,-0.20500036850957074,-0.15921177558047792,0.7365596697668028
135,1790598048.7135155,1.6096975147480868,-1.336127630739796,-0.6053045280612241,2.17778711225499,0.7134332734081584,-0.21158846719801067,-0.16537035976637318,0.7623018240476297
136,1790598048.737967,1.3701955616230868,-0.799643255739796,-0.7969060905612241,1.7753660272505274,0.7439678970869579,-0.22235145935977876,-0.17434175662048657,0.7958162171487402
137,1790598048.757967,0.4121877491230867,-0.814013372927296,-0.4999236686862241,1.040403857328645,0.7678707695572962,-0.23225494858012638,-0.1825243933122842,0.8227290161617546
138,1790598048.768066,0.9869924366230868,-1.465458685427296,-0.8591765983737242,1.9646647693279686,0.7791897717503222,-0.23823209464724612,-0.1870658326175067,0.8359933355315786
139,1790598048.788066,1.8252492725605867,-0.895444036989796,-0.4616033561862241,2.0848099646744593,0.8024619086864877,-0.25183504041798727,-0.19669180685770374,0.8637439836896339
140,1790598048.8132992,1.3941457569355868,-0.723002630739796,-0.3131121452487241,1.6013789092967425,0.8335119856141882,-0.2694859452240322,-0.20848099081755217,0.9004605645824058
141,1790598048.8332992,1.2312844288105866,-0.684682318239796,-0.1646209343112241,1.4184326820667714,0.8583689708215123,-0.28348911648658226,-0.21714011746435785,0.9296844625183108
142,1790598048.858366,1.4995266163105867,-0.608041693239796,0.00782047193877591,1.6181334720977565,0.8899841302151464,-0.3008376256349857,-0.2266598379864889,0.9664107362755072
143,1790598048.878366,1.7294484913105868,-0.46913056042729595,0.02698062818877591,1.7921505297046771,0.9162685408318254,-0.3142188952545399,-0.23306377578726378,0.9962932683890231
144,1790598048.9036164,1.3366652881855867,-0.16256806042729594,-0.054450035873724094,1.347615402597492,0.9502820646423138,-0.3297752310917451,-0.239988147539353,1.0341092864788726
145,1790598048.9236164,1.0875832569355868,-0.30147919323979594,-0.1742010124362241,1.1419601733234581,0.976818212003294,-0.34094468358203406,-0.24499299230718713,1.0632208908988738
146,1790598048.9331603,1.1785939991230867,-0.18172821667729594,-0.4424431999362241,1.271953200662456,0.9892038087131397,-0.3458210678054648,-0.24746442630175972,1.0767334992446147
147,1790598048.9531603,1.1785939991230867,-0.4643405213647959,-0.4807635124362241,1.3549278539613454,1.0148013270527838,-0.35547618827264854,-0.2532514560153965,1.1046815621666095
148,1790598048.978493,1.0301027881855866,-0.4643405213647959,-0.6388348014987241,1.2980114705251893,1.0465570646325988,-0.36763572939802724,-0.2616091882620142,1.1396828885464285
149,1790598048.998493,1.1354836475605867,-0.32063934948979594,-0.6292547233737241,1.3371964003865986,1.071115733906902,-0.37697308981919136,-0.2691199361923174,1.1669717931153718
150,1790598049.0235646,1.1642238819355868,-0.38769989636479596,-0.5861443718112241,1.3598873782473369,1.101608403513879,-0.3882544076333862,-0.2794083772965736,1.2009794340631539
151,1790598049.0435646,0.9247219288105867,-0.29189911511479594,-0.4424431999362241,1.0658666540415729,1.1254175820962347,-0.3969231797598928,-0.2879274049309473,1.2276053662445063
152,1790598049.053117,1.0013625538105868,-0.4643405213647959,-0.1454607780612241,1.11332741002347,1.136463566022591,-0.4009843314775397,-0.29180716155895464,1.2399553582788243
153,1790598049.073117,1.1594338428730868,-0.35895966198979595,-0.0975603874362241,1.217643997288201,1.1593626444256735,-0.40944667305320565,-0.2990762672824851,1.2653912173773192
154,1790598049.0983639,1.1594338428730868,-0.11945770886479593,-0.0975603874362241,1.1696473867808992,1.1883239934641578,-0.4194325923902564,-0.3072454273006976,1.297088033095288
155,1790598049.1183639,1.1019533741230867,-0.028446966677295918,-0.1550408561862241,1.1131703085069022,1.2112172086806734,-0.4263784725465241,-0.3131250364407413,1.3217008046079584
156,1790598049.1430917,1.0061525928730868,0.10567412707270409,-0.3035320671237241,1.0562394506219763,1.2391861184859205,-0.43353490560509106,-0.3201545773208336,1.3513081454670872
157,1790598049.1630917,0.9678322803730868,0.15357451769770408,-0.3705926139987241,1.0476752077665383,1.261375273510515,-0.4380659668860961,-0.32599846090148116,1.3744978604849525
158,1790598049.1731317,1.0157326709980867,0.3930764708227041,-0.4999236686862241,1.1983929428029996,1.2723370682934931,-0.43958775117224363,-0.32914756121112804,1.3857911543178447
159,1790598049.1931317,0.9917824756855868,0.3020657286352041,-0.2604217155612241,1.0689694352173027,1.2939090455481275,-0.44112175129732023,-0.3356201912887666,1.407632739893325
160,1790598049.2181602,1.0732131397480866,0.2062649473852041,-0.1550408561862241,1.103797689313909,1.3207316678546006,-0.4417992785811599,-0.34328507760725085,1.4343512071792754
161,1790598049.2381601,1.1498537647480866,0.12004424426020409,-0.0975603874362241,1.1602121918347772,1.3422848854964735,-0.4417700093570196,-0.34887016861623205,1.4555410848031396
162,1790598049.2779963,1.0923732959980867,0.07214385363520409,-0.1646209343112241,1.107061066716991,1.3854744486056363,-0.4411462526200525,-0.3591092666552462,1.4977012149749616
163,1790598049.2979963,1.0971633350605867,0.1727346739477041,-0.2173113639987241,1.131737107418536,1.4071897869423697,-0.4405127485734099,-0.36405167367677405,1.5188048588404872
164,1790598049.2935188,1.1259035694355868,0.10088408801020408,-0.1981512077487241,1.147649923981056,1.4071897869423697,-0.4405127485734099,-0.36405167367677405,1.5188048588404872
165,1790598049.3135188,1.0684231006855867,0.00029326769770408303,-0.1119305046237241,1.074270192246749,1.4290050133569603,-0.4395544124220903,-0.3686173991486138,1.5398513553697786
166,1790598049.3379397,1.0732131397480866,0.1871047911352041,-0.1646209343112241,1.1017688950987838,1.4555694368168828,-0.4382165292498015,-0.3738626555762403,1.5654039086247606
167,1790598049.3579397,1.1067434131855867,0.3068557676977041,-0.1310906608737241,1.1559525103425916,1.477331453214835,-0.4365442589516918,-0.3779575619477767,1.586168664207891
168,1790598049.3831468,1.1163234913105868,0.4170266661352041,-0.1167205436862241,1.1973775773907362,1.5048478793757187,-0.43338423506302426,-0.38281293059119664,1.6121212035980983
169,1790598049.4031467,1.1067434131855867,0.3068557676977041,0.07009097975127591,1.1506320829185683,1.526739940999989,-0.43016724793446964,-0.38615740370832163,1.6325122508204701
170,1790598049.413329,1.1306936084980868,0.2541653380102041,-0.1310906608737241,1.1662987682033175,1.537922186333605,-0.4283466944789213,-0.3876512789407442,1.642850892793545
171,1790598049.4333289,1.2312844288105866,-0.028446966677295918,-0.2460515983737241,1.2559506214843068,1.560134894016336,-0.42496854281682145,-0.3907111481364913,1.6635126543520347
172,1790598049.4579349,1.0061525928730868,0.05298369738520409,-0.2795818718112241,1.0456176812675417,1.5874930327205892,-0.4213905406798674,-0.3948810531996519,1.6892706008472862
173,1790598049.4779348,1.0923732959980867,0.2781155333227041,-0.3179021843112241,1.1711914730200794,1.609542229334773,-0.4184218934297621,-0.3986582159584049,1.7101553853566747
174,1790598049.503531,1.2791848194355868,-0.03323700573979592,-0.3849627311862241,1.336268986853829,1.6380808679944823,-0.4147223930054484,-0.4041164508604059,1.7374158106814075
175,1790598049.523531,1.3462453663105867,-0.16735809948979594,-0.5717742546237241,1.472179037355198,1.6609732877846592,-0.41256621791322623,-0.40917670697631797,1.7596785855460615
176,1790598049.533091,1.2743947803730868,-0.08113739636479592,-0.5238738639987242,1.3802569176468489,1.6721536123205234,-0.41186832651078203,-0.41201830285428526,1.7707321376951097
177,1790598049.553091,1.3414553272480867,-0.22962860730229592,-0.4232830436862241,1.4252719836459766,1.6959584700388486,-0.4110934700226581,-0.4184920219236473,1.7945496776644343
178,1790598049.578205,1.4468361866230868,-0.18172821667729594,-0.3897527702487241,1.509393029523888,1.7266184491882974,-0.4110412410577887,-0.4269331337818832,1.8254966643761767
179,1790598049.598205,1.4947365772480867,-0.12424774792729593,-0.42807308274872413,1.559782517661461,1.7517848821174458,-0.41146485020471485,-0.43387375309325277,1.851026750155828
180,1790598049.623559,1.5522170459980869,-0.10508759167729592,-0.4951336296237241,1.6326599373402668,1.7846966878867105,-0.4123573979535182,-0.44310808027368204,1.8845491933628633
181,1790598049.643559,1.5234768116230868,-0.028446966677295918,-0.5621941764987242,1.6241468891561084,1.8113778342293787,-0.4131561594878206,-0.45088575535852643,1.9118278256279955
182,1790598049.698389,1.4468361866230868,0.13441436144770408,-0.4999236686862241,1.5366606150995485,1.885767072262788,-0.41458173281018673,-0.4733776190431048,1.9879843646823239
183,1790598049.718389,1.5378469288105867,0.14878447863520408,-0.3753826530612241,1.5899755135706293,1.91330836635995,-0.4145989318642322,-0.4816641464835351,2.016095615067315
184,1790598049.698896,1.4755764209980868,0.3116458067602041,-0.2125213249362241,1.5230279697462519,1.91330836635995,-0.4145989318642322,-0.4816641464835351,2.016095615067315
185,1790598049.718896,0.6804299366230867,1.3462942442602042,-0.5861443718112241,1.61835049213297,1.9402830689042692,-0.4115374024219257,-0.4895987368189606,2.0429802603460163
186,1790598049.7437816,1.2121242725605867,0.4122366270727041,-0.1119305046237241,1.2851897629129065,1.972344937739711,-0.4050172380027314,-0.49929359119839073,2.0744824913020143
187,1790598049.7637815,1.7869289600605869,0.2829055723852041,-0.2556316764987241,1.8271557747546756,1.9987457402022202,-0.3995204459531963,-0.5064677200802584,2.10026442911231
188,1790598049.7878919,0.9055617725605867,-0.13382782605229593,-0.3466424186862241,0.9788324562363013,2.0306671246357357,-0.39361836769724523,-0.5149080507887197,2.1315897098719656
189,1790598049.8078918,1.1115334522480866,-0.06197724011479592,-0.7058953483737241,1.3181942332655148,2.0562002667768327,-0.38975056881529974,-0.5224380627898265,2.1570365255221233
190,1790598049.848036,1.4564162647480867,0.13441436144770408,-0.4855535514987241,1.5410963007415166,2.107494757858371,-0.38293350498088213,-0.5388724774269046,2.208745293275272
191,1790598049.868036,1.3654055225605868,0.3739163145727041,-0.3753826530612241,1.4646015798031442,2.133449314466339,-0.37928416776019813,-0.5471234100715783,2.2349063701101195
192,1790598049.8634076,0.8528713428730867,0.5798879942602041,-0.3897527702487241,1.10252747598317,2.133449314466339,-0.37928416776019813,-0.5471234100715783,2.2349063701101195
193,1790598049.8834076,1.0732131397480866,-0.909814154177296,0.29522281568877595,1.4376038221194682,2.1579189058903894,-0.3759263110521683,-0.5542020504383343,2.2594411938465053
194,1790598049.9230034,2.1892922413105866,0.1823147520727041,-0.6915252311862241,2.3031383658072357,2.208785567417432,-0.3724360725289907,-0.5672910573405295,2.3106841962264992
195,1790598049.9430034,1.0061525928730868,0.11525420519770409,-0.7106853874362241,1.2372147315144475,2.2354177002953195,-0.37049122890030084,-0.5750139740254474,2.3377333286348567
196,1790598049.938034,1.3366652881855867,-0.22962860730229592,-0.8831267936862242,1.618430203517705,2.2354177002953195,-0.37049122890030084,-0.5750139740254474,2.3377333286348567
197,1790598049.958034,0.7810207569355867,0.014663384885204083,-0.5142937858737241,0.93525747033042,2.260823032287537,-0.3695543541282994,-0.5847220187935738,2.3642738934478444
198,1790598049.9831064,1.1067434131855867,0.1871047911352041,-0.0879803093112241,1.1258906342633503,2.2914441260081313,-0.3681766335420442,-0.5961992029490336,2.396189413569091
199,1790598050.0031064,1.4995266163105867,0.8050198301977041,-0.2556316764987241,1.7210417060794798,2.31611577670996,-0.3657543018274304,-0.6044965815202138,2.421483970109998
200,1790598050.0287414,0.8672414600605868,0.7619094786352041,-0.1550408561862241,1.1647538241058255,2.347545669818717,-0.3601025808327824,-0.6143260512060226,2.4531695901012274
201,1790598050.0487413,0.7714406788105868,0.5271975645727041,0.0030304328762759103,0.9343806379300392,2.3708465847344793,-0.3544209544847663,-0.6210725296210348,2.4763398047067184
202,1790598050.0583756,1.5761672413105867,0.5703079161352042,-0.016129723373724092,1.6762501184975998,2.382083600054889,-0.3513015531753055,-0.6238443827600418,2.4873513770304148
203,1790598050.0783756,1.8348293506855868,0.675688775510204,-0.4903435905612241,2.015835038958358,2.407028198333668,-0.3439282667304008,-0.6294951242407311,2.5116400043940326
204,1790598050.1030304,1.3989357959980868,0.3834963926977041,-0.3945428093112241,1.5032481075711173,2.4391455692199524,-0.33424374047739525,-0.6370524129784948,2.5430268899041093
205,1790598050.1230304,1.4468361866230868,0.8816604551977041,-0.8783367546237242,1.9084379905316269,2.4655597420093667,-0.32566834775736486,-0.6441726203071996,2.5690471149633964
206,1790598050.1483533,1.2696047413105866,0.7810696348852041,-0.7921160514987241,1.6880206790024692,2.499146446886107,-0.3132814089391629,-0.6550081195327957,2.602482246015186
207,1790598050.1683533,1.5713772022480867,-0.06197724011479592,-0.4903435905612241,1.6472717829313246,2.52595561445784,-0.30388707129237086,-0.6642059822529461,2.6294426605595222
208,1790598050.177933,1.5378469288105867,0.2158450255102041,-0.6436248405612242,1.681016117375772,2.5391044862570014,-0.2999517493526829,-0.6687654894132216,2.6427769341925686
209,1790598050.197933,1.6096975147480868,0.3164358458227041,-0.4424431999362241,1.6991214549517943,2.5671596789768043,-0.2921697386180242,-0.6784858541064931,2.6713320699140026
210,1790598050.238671,1.6767580616230868,0.3068557676977041,-0.3131121452487241,1.7331235601911414,2.625774928279804,-0.27679181079387716,-0.6976239050881905,2.730931488239106
211,1790598050.258671,1.7150783741230868,0.2972756895727041,-0.30832210618622413,1.7677469236739536,2.6553227816851774,-0.26946841566704105,-0.7065423512136676,2.760897389624785
212,1790598050.2679095,1.4947365772480867,0.3164358458227041,-0.2700017936862241,1.5515379623066379,2.6691483641097444,-0.2661677560752941,-0.7104447653914318,2.774874777116252
213,1790598050.2879095,1.2743947803730868,0.2062649473852041,-0.1981512077487241,1.3060976938553515,2.6987428914303573,-0.2593100711926766,-0.7183279338186764,2.8047192243738133
214,1790598050.3129838,1.3462453663105867,-0.12903778698979593,-0.2029412468112241,1.3675571236483117,2.7352087805933967,-0.2518569046877061,-0.7274829641868432,2.8414838442363464
215,1790598050.3329837,1.1354836475605867,-0.06197724011479592,-0.2412615593112241,1.1624850244932299,2.7636547295536986,-0.24709028509182177,-0.7343562493411356,2.8702125660162636
216,1790598050.3582,1.3989357959980868,-0.01886688855229592,-0.2125213249362241,1.4151122338391022,2.798933284357094,-0.24213481473140705,-0.742580524013481,2.9058703745059136
217,1790598050.3782,0.9678322803730868,-0.09550751355229592,-0.4616033561862241,1.0765215587806392,2.826267012918629,-0.23896556967867294,-0.7491362312204429,2.933614641484292
218,1790598050.4038072,1.3127150928730869,0.029033502072704085,-0.5621941764987242,1.4283298468450771,2.8603942633511736,-0.23564413577531496,-0.7582370653087274,2.9685530057160157
219,1790598050.4238071,1.6959182178730867,0.4313967833227041,-0.5909344108737241,1.8470098170636988,2.8875635230270094,-0.23274846573908067,-0.7660085956065547,2.996491968346182
220,1790598050.4338694,1.3510354053730866,0.2876956114477041,-0.5142937858737241,1.4739618480836663,2.9014817451638817,-0.23096747309183088,-0.7701661275485127,3.0108301438587897
221,1790598050.4538693,1.4947365772480867,-0.09071747448979592,-0.6532049186862241,1.6337514380520095,2.9292650513474374,-0.22766304263803142,-0.7789414691823802,3.039600963027995
222,1790598050.4629524,1.4468361866230868,-0.27273895886479593,-0.7633758171237242,1.658452329364339,2.941994100406769,-0.22663503231277937,-0.7832940214429334,3.052907179841518
223,1790598050.4829524,1.2887648975605868,0.1871047911352041,-0.6675750358737241,1.463413677868258,2.96992143853453,-0.22483943894959077,-0.7935867687215951,3.0823312741923377
224,1790598050.5084362,0.9055617725605867,0.3691262755102041,-0.5765642936862241,1.1352192369533742,3.0043625388201227,-0.22183157745159568,-0.807112387265374,3.1187872513362573
225,1790598050.5284362,1.0396828663105868,-0.23920868542729593,-0.4232830436862241,1.1477498824900512,3.0302556686292883,-0.21963019111378396,-0.8176349428823694,3.1463015967848453
226,1790598050.5536532,1.2648147022480867,-0.3062692323022959,-0.7011053093112242,1.4782103126491646,3.0623644551989013,-0.21830255938048557,-0.831038770743762,3.1806221879338388
227,1790598050.5736532,1.1738039600605867,-0.08113739636479592,-0.6340447624362241,1.3365671604957161,3.087668397588808,-0.21798865082206728,-0.8420776341576037,3.2078512944499673
228,1790598050.5831838,1.2839748584980868,-0.08113739636479592,-0.2556316764987241,1.3116868026985666,3.0996745196988833,-0.21797749515795617,-0.8471848419785697,3.2207481231763677
229,1790598050.6031837,1.4612063038105867,-0.526611029177296,0.10841129225127591,1.5569829949728287,3.1252080508972044,-0.21886921815683566,-0.8565155875386946,3.2478374417057947
230,1790598050.6281135,1.2360744678730868,-0.670312201052296,0.11799137037627591,1.411070692945814,3.1573044254987526,-0.22205193867863596,-0.8659783483956831,3.281432126166114
231,1790598050.6481135,1.5713772022480867,-0.3541696229272959,-0.04965999681122409,1.6115609044751547,3.183402604982809,-0.22575900547892494,-0.8723286519807153,3.3084704246876164
232,1790598050.673705,2.404843999123087,-0.641571966677296,-0.0879803093112241,2.490507936821522,3.2194199906639325,-0.23170217386958422,-0.8794997078080333,3.345425340625144
233,1790598050.693705,1.8491994678730868,-0.8092233338647961,0.02698062818877591,2.0186899292241054,3.249726661653122,-0.2378262898242159,-0.8843547928055865,3.3762950284518842
234,1790598050.7032862,0.1535256397480867,-0.7661129823022961,0.4197638313137759,0.8869616101001202,3.263506558774792,-0.24145201726898038,-0.886010744874613,3.3902491318253607
235,1790598050.7232862,-0.46917943837691334,0.3355960020727041,-0.04007991868622409,0.5782390698359569,3.2874831203951183,-0.24853101778829353,-0.8883794198168924,3.4144590973154014
236,1790598050.7487895,0.2732766163105867,-0.08113739636479592,-0.02570980149872409,0.28622435257001705,3.3130964913209784,-0.25571719701503276,-0.8910726553057238,3.440350290695149
237,1790598050.7687895,0.6900100147480868,-0.31105927136479594,0.2616925422512759,0.8008462258290218,3.33161470980033,-0.26109563491791654,-0.8925139309912077,3.4589606274348523
238,1790598050.7930944,-0.5937204540019133,0.3595461973852041,0.0030304328762759103,0.6941085139067348,3.3509187713308517,-0.2665629493082041,-0.8935201537381359,3.478230970355128
239,1790598050.8130944,0.2732766163105867,1.6193264708227042,-0.2652117546237241,1.663501007790459,3.3639402879569147,-0.2674187437498068,-0.894617225557064,3.491124034707417
240,1790598050.8239052,0.7810207569355867,1.125952447385204,-0.1023504264987241,1.374131706330015,3.3707780144447668,-0.26558603815957743,-0.8954193125124931,3.4977787396503297
241,1790598050.8439052,0.7283303272480867,0.6613186583227041,0.27606265943877595,1.02177200263633,3.3837943125431607,-0.26002321825915026,-0.8964200201347554,3.5101630839793874
242,1790598050.8833468,0.3355471241230867,1.015781548947704,0.10362125318877592,1.0747750424169158,3.4087602053460015,-0.24573737394953143,-0.8969743251202271,3.5333547705305524
243,1790598050.9033468,-0.4021188915019133,1.3894045958227041,-0.1981512077487241,1.4599344625455821,3.419421065623147,-0.23597216006993824,-0.8973550346469962,3.5430734317202237
244,1790598050.9138381,-0.45480932118941336,1.643276666135204,-0.2508416374362241,1.7234068722089082,3.423500293046381,-0.22923173652728676,-0.8978780781130039,3.5467007892795066
245,1790598050.9338381,-0.6416208446269134,1.609746392697704,-0.1646209343112241,1.7407069854161341,3.4284655384871376,-0.21343017464306432,-0.8993487993410565,3.5508811090936665
246,1790598050.958906,-1.3840768993144135,1.250493463010204,0.03177066725127591,1.8655862723403185,3.4299469405935774,-0.19121796730393853,-0.9011654502702122,3.5515066514182125
247,1790598050.978906,-1.5229880321269134,1.1546926817602041,-0.04007991868622409,1.911652200373874,3.426590975025543,-0.17254676072791605,-0.9024098941517104,3.5476247986261313
248,1790598050.9879942,-0.8284323680644133,1.442095025510204,-0.5190838249362241,1.7422359967491512,3.4236919488841737,-0.16356494195876645,-0.9032717009668488,3.544618430361698
249,1790598051.0079942,-0.6559909618144134,1.557055963010204,-0.29874202806122413,1.715807160859858,3.416042572738865,-0.14226537184588414,-0.9061104823740301,3.5370358354219293
250,1790598051.0329769,-0.41648900868941335,1.6289065489477041,-0.23647152024872412,1.6978570079522457,3.405911222367152,-0.11368068213250668,-0.9101274327656546,3.527249140053651
251,1790598051.0529768,-0.43564916493941336,1.480415338010204,0.11320133131377591,1.547331350855235,3.39773893140239,-0.0895656660146092,-0.9130457540627165,3.5194181910520452
252,1790598051.0788672,-0.22967748525191334,1.3941946348852041,0.21379215162627593,1.4290687566633464,3.3874547095844254,-0.057449077090944406,-0.9156219542712576,3.5094890467257227
253,1790598051.0988672,-0.36858861806441334,1.327134088010204,0.05572086256377591,1.378494567073139,3.379804540393237,-0.03227886453420886,-0.9169092559794954,3.50211982091693
254,1790598051.1234336,-0.46917943837691334,1.5474758848852042,0.041350745376275914,1.617566333675406,3.3702736297947697,-0.0007028985366515708,-0.918074441002029,3.4930796602679353
255,1790598051.1434336,-0.4212790477519133,1.3127639708227041,0.046140784438775916,1.379476078499942,3.3623425428454623,0.02543805994764927,-0.918749513134575,3.4856986585485856
256,1790598051.1534948,-0.49312963368941337,0.896030572385204,-0.1119305046237241,1.0288712553750021,3.3582611692764965,0.0382827866252515,-0.9190878213470367,3.4819687069487824
257,1790598051.1734948,-0.41648900868941335,0.9774612364477041,-0.3610125358737241,1.122151333009475,3.350000662336297,0.06279607452019673,-0.9203688566602367,3.474698061262136
258,1790598051.1981618,-0.33505834462691336,1.121162408322704,-0.3753826530612241,1.2288943715223766,3.3399503808577364,0.09237707883355853,-0.9230741803177441,3.466391208974376
259,1790598051.2181618,-0.3733786571269133,1.2361233458227041,-0.1933611686862241,1.3056803166324888,3.331961288142593,0.11629959719204308,-0.9257917462210413,3.4601419016217942
260,1790598051.2281444,-0.44043920400191333,1.336714166135204,-0.059240074936224095,1.4086521362092284,3.3279625327220255,0.1283752400043881,-0.9271338225829064,3.457078527662479
261,1790598051.2481444,-0.18656713368941333,1.3127639708227041,-0.04486995774872409,1.3267139298174453,3.3202122878423475,0.15291383763306496,-0.9295754951266075,3.451275543798099
262,1790598051.3038144,-0.33984838368941334,1.288813775510204,0.02698062818877591,1.3331413376452754,3.299677459865946,0.221833867441395,-0.9354271316696191,3.4368743827138983
263,1790598051.3238144,-0.2727878368144133,1.317554009885204,0.07009097975127591,1.3473212379833406,3.292487775341435,0.24678956064099378,-0.9370684416828318,3.4321244299139355
264,1790598051.3183339,-0.31589818837691336,1.221753228635204,0.09883121412627592,1.2657962813920867,3.292487775341435,0.24678956064099378,-0.9370684416828318,3.4321244299139355
265,1790598051.3383338,-0.32547826650191336,1.284023736447704,-0.02091976243622409,1.3247983598218265,3.285580590541339,0.27181632448226717,-0.9379220455095005,3.427626247806162
266,1790598051.3481238,-0.20093725087691333,1.298393853635204,-0.0927703483737241,1.3171213746215757,3.2823201790428436,0.28412541450036854,-0.9383606835015144,3.4256202038840033
267,1790598051.3681238,-0.36858861806441334,1.408564752072704,-0.1310906608737241,1.4618813192310045,3.2758042708915043,0.3095602646992195,-0.9394581582129609,3.4218858557386977
268,1790598051.4084845,-0.5122897899394133,1.250493463010204,-0.1454607780612241,1.3591664974761544,3.2619608676618737,0.3612385564822052,-0.9421778260250804,3.414466437483329
269,1790598051.4284844,-0.5697702586894133,1.207383111447704,-0.1310906608737241,1.3414905466921674,3.254506916598373,0.38669234308753064,-0.9437381810152665,3.4105700392595923
270,1790598051.4384372,-0.4212790477519133,1.140322564572704,-0.1646209343112241,1.226748401002393,3.2506141647704414,0.39921160009745343,-0.9446189378681156,3.408543279413904
271,1790598051.4584372,-0.2727878368144133,1.398984673947704,-0.06403011399872409,1.4267694899152914,3.242923999132422,0.4244042400273426,-0.9464663025181969,3.4047721634354144
272,1790598051.4678836,-0.32547826650191336,1.5953762755102041,-0.1550408561862241,1.6356036284848656,3.23941275693655,0.43663981141845976,-0.9473631741478933,3.403225869443634
273,1790598051.4878836,-0.44043920400191333,1.446885064572704,-0.07361019212372409,1.5142263842932762,3.231944948598703,0.4632226879955506,-0.9493201865735638,3.4001841459077715
274,1790598051.5129297,-0.5697702586894133,1.398984673947704,-0.059240074936224095,1.5117227431331495,3.222098123821849,0.4968649628374686,-0.9516529030652646,3.396238265897183
275,1790598051.5329297,-0.5697702586894133,1.3846145567602042,-0.1406707389987241,1.5038563346575713,3.2137053073152297,0.5238749664847295,-0.9535360944067034,3.392871625350986
276,1790598051.5580113,-0.5410300243144134,1.3079739317602042,-0.1071404655612241,1.4195028611223641,3.202669261139279,0.557731922167674,-0.9560096840466666,3.3885262001705505
277,1790598051.5780113,-0.36858861806441334,1.293603814572704,-0.1119305046237241,1.349739543878376,3.193824755540729,0.5845820597495841,-0.9580148549172417,3.3852688543050706
278,1790598051.5885065,-0.3637985790019133,1.4277249083227042,0.02219058912627591,1.473512891757197,3.1893032102711487,0.5987005152977091,-0.9589798907925199,3.3837464008119804
279,1790598051.6085064,-0.3925388133769133,1.571426080197704,0.14194156568877592,1.6259194486822086,3.180844757183853,0.6260681527058334,-0.9602968470322221,3.3811099857231093
280,1790598051.6331184,-0.31110814931441333,1.4995754942602042,0.16589176100127592,1.5404658451013056,3.1706982809494333,0.6603636944349834,-0.9611061665577417,3.3783328523309875
281,1790598051.6531184,-0.32547826650191336,1.437304986447704,0.14673160475127592,1.4809834198482474,3.162735020858939,0.6884576522554702,-0.9611962457222845,3.376501884185365
282,1790598051.6781993,-0.4021188915019133,1.288813775510204,0.03177066725127591,1.350462856262691,3.152878002300041,0.7235321453958824,-0.9609564896341621,3.3745482420286534
283,1790598051.6981993,-0.31589818837691336,1.2265432676977042,-0.2460515983737241,1.2902485969830164,3.145119836800228,0.7510788599944626,-0.9611154027409405,3.3733723570265344
284,1790598051.7238507,-0.5122897899394133,1.408564752072704,-0.29874202806122413,1.5283135440700446,3.1350686618530217,0.7861795308133903,-0.9623367540693892,3.3723620501713136
285,1790598051.7438507,-0.5410300243144134,1.604956353635204,0.046140784438775916,1.6943220934262442,3.1268274703994816,0.8139620689796377,-0.9635250815043923,3.371641271260998
286,1790598051.7533038,-0.35900853993941334,1.2313333067602041,-0.00654964524872409,1.282619094641637,3.122878418800256,0.8271347234111086,-0.9639744291181633,3.3713154953629667
287,1790598051.7733037,-0.19135717275191333,1.284023736447704,-0.06882015306122409,1.3000272061738165,3.114951062118305,0.854596905071048,-0.9648955716252736,3.3710946966365443
288,1790598051.7982469,0.03377466318558668,0.9056106505102041,0.00782047193877591,0.9062739861499721,3.106252608590046,0.887805328381433,-0.9659861735861318,3.3719627603273596
289,1790598051.8182468,-0.10513646962691332,1.0349417051977041,-0.1406707389987241,1.0497362846037044,3.1002171332716713,0.9133493615692375,-0.9669287487773245,3.3735003386574953
290,1790598051.8428283,-0.23446752431441334,1.260073541135204,-0.1358806999362241,1.2888847557645722,3.093285704115184,0.9442666234207052,-0.968423320555159,3.37607755112124
291,1790598051.8628283,-0.27757787587691335,1.092422173947704,-0.0927703483737241,1.1309473996815012,3.0877240111505193,0.9691770692547319,-0.9697999101245462,3.378439821320223
292,1790598051.8733823,-0.28715795400191335,1.260073541135204,0.05572086256377591,1.293580238771615,3.0847823015826883,0.9822127467531642,-0.9704467042133601,3.3797027286080583
293,1790598051.8933823,-0.20093725087691333,1.3846145567602042,-0.02091976243622409,1.3992751287872647,3.079311798810212,1.0071770014080843,-0.9714363266261924,3.38234463104311
294,1790598051.9329884,-0.10034643056441332,1.4229348692602042,-0.2221014030612241,1.4436558043818262,3.0692085667020566,1.057538053128078,-0.9738240029989444,3.3892124673068382
295,1790598051.9529884,0.01940454599808668,1.1115823301977041,-0.1837810905612241,1.1268395193908591,3.0647505794103846,1.0829561213941679,-0.9754576800425412,3.393671722547036
296,1790598051.9638062,-0.08597631337691332,1.0253616270727042,-0.07361019212372409,1.031589478969013,3.0626469833912844,1.0963759901241084,-0.976417601954681,3.3963566052467584
297,1790598051.9838061,-0.30631811025191336,1.178642877072704,-0.02091976243622409,1.2179767866436997,3.058752767576329,1.120771148996858,-0.9780679019877457,3.401281123705934
298,1790598051.9924304,-0.4021188915019133,1.413354791135204,-0.0927703483737241,1.4723714565506034,3.0568671722539724,1.1313893633946273,-0.9787463300963233,3.403295928814231
299,1790598052.0124304,-0.23446752431441334,1.446885064572704,-0.1646209343112241,1.4749750716724632,3.052195466298764,1.15661001524741,-0.9804697131790817,3.4080734660988186
300,1790598052.0381205,-0.09555639150191332,1.446885064572704,-0.1837810905612241,1.4616370627786834,3.0464588849184584,1.1897222527967184,-0.983022639133551,3.4150672446303902
301,1790598052.0581205,-0.13866674306441332,1.403774713010204,-0.1837810905612241,1.4225285233579135,3.0423114629076515,1.2159097127448513,-0.985263338314804,3.4212335951691157
302,1790598052.083107,-0.15303686025191332,1.375034478635204,-0.07361019212372409,1.38548134538717,3.03736055240654,1.2489263513742375,-0.9881251465402225,3.4295433313631514
303,1790598052.103107,-0.13866674306441332,1.537895806760204,-0.0927703483737241,1.546918975130919,3.0335545632765073,1.2757591607883736,-0.990321795843867,3.4366774629043384
304,1790598052.11266,-0.014125727439413321,1.4756252989477041,-0.1023504264987241,1.4792380365832487,3.0318998564017328,1.2888124107851766,-0.9913534361686074,3.440383089838405
305,1790598052.13266,0.1583156788105867,1.3558743223852041,-0.1550408561862241,1.3738619651725388,3.0291715037619684,1.3162885967139293,-0.993575380597025,3.449012569703276
306,1790598052.157891,0.08646509287308668,1.365454400510204,-0.1646209343112241,1.3780573225275254,3.0267090334623212,1.350901626888255,-0.9965629313222251,3.4610750432282305
307,1790598052.177891,0.05293481943558668,1.336714166135204,-0.1454607780612241,1.345646942927226,3.0252589935354006,1.3782761110189972,-0.9990409766909364,3.4712994525508827
308,1790598052.2184715,0.01940454599808668,1.2648635801977042,-0.1167205436862241,1.2703858068454454,3.022978315925072,1.433406156308319,-1.0041127544413442,3.4930350028488917
309,1790598052.2384715,0.02419458506058668,1.260073541135204,-0.2029412468112241,1.276540581678687,3.022088293315059,1.4602886316260537,-1.006716915315137,3.5041317737536417
310,1790598052.2480195,-0.01891576650191332,1.3941946348852041,-0.2795818718112241,1.4220768295737436,3.0217309127727052,1.4730979344906874,-1.008119186055075,3.509583953561909
311,1790598052.2680194,-0.03328588368941332,1.408564752072704,-0.1789910514987241,1.4202818056115634,3.0210162995236023,1.5001088466758172,-1.0113037674048884,3.521306766504397
312,1790598052.2778735,0.02419458506058668,1.418144830197704,-0.0975603874362241,1.4217025591027945,3.020710301427057,1.5135100786249456,-1.0128418529845649,3.527215913777329
313,1790598052.2978735,0.01940454599808668,1.561846002072704,-0.1454607780612241,1.568725058303735,3.0202478005941016,1.5410994959444968,-1.0158598471587803,3.539612360480078
314,1790598052.3229494,-0.03807592275191332,1.5953762755102041,-0.2077312858737241,1.6092941072050724,3.0197197856960396,1.5764400582907783,-1.019740451927301,3.555803907811124
315,1790598052.3429494,-0.10034643056441332,1.566636041135204,-0.23647152024872412,1.5875568246206326,3.019154189529612,1.6051418808207691,-1.0230375757439767,3.569086488039083
316,1790598052.3524382,-0.07160619618941333,1.489995416135204,-0.1646209343112241,1.5007710816277535,3.0188037265005963,1.618891903454693,-1.024652666357739,3.5754580155385787
317,1790598052.3724382,-0.052446039939413325,1.5139456114477041,-0.07361019212372409,1.5166411447377988,3.017989765703589,1.6480320788681688,-1.027903577056009,3.588991184524515
318,1790598052.4132702,-0.009335688376913322,1.5905862364477041,-0.2077312858737241,1.604120948614877,3.0163880473082574,1.708108203046559,-1.0344066697673882,3.6174891352591962
319,1790598052.4332702,-0.057236079001913326,1.600166314572704,-0.23647152024872412,1.6185570681694996,3.0156213314481026,1.7379063783760764,-1.0377804663629884,3.6319800234926483
320,1790598052.4428117,-0.08597631337691332,1.681596978635204,-0.1933611686862241,1.6948595418419294,3.015207932250017,1.7523384480038757,-1.0394561842479964,3.6390435652829796
321,1790598052.4628117,-0.12429662587691333,1.681596978635204,-0.0927703483737241,1.6887345520527537,3.014155975306826,1.7830966600127,-1.0428709853103366,3.6540593638347536
322,1790598052.4883792,-0.06202611806441333,1.5810061583227042,-0.0831902702487241,1.5844078808944722,3.012655610717835,1.8227754362184239,-1.0469189961954812,3.6735056151128815
323,1790598052.5083792,-0.02370580556441332,1.6289065489477041,-0.1358806999362241,1.6347360872744368,3.011529412791608,1.853972923896397,-1.049939145679703,3.6890238839401066
324,1790598052.5329006,-0.028495844626913323,1.571426080197704,-0.23647152024872412,1.589374316696751,3.010259732033096,1.8923713838543175,-1.053771413308031,3.708526297633047
325,1790598052.5529006,-0.07160619618941333,1.4995754942602042,-0.29874202806122413,1.5307190825388524,3.0092293440728493,1.9235984868810017,-1.0572310394951967,3.724705337987434
326,1790598052.5622966,-0.06681615712691333,1.3462942442602042,-0.2700017936862241,1.3747267217796928,3.0087203284957704,1.9380740196265367,-1.0590133815640712,3.7322966472383765
327,1790598052.5822966,-0.057236079001913326,1.5139456114477041,-0.3035320671237241,1.5451339744286503,3.0076133066855912,1.9685544377114934,-1.0630984091362392,3.7484827069487534
328,1790598052.6225493,-0.10513646962691332,1.6241165098852042,-0.23647152024872412,1.644605391823841,3.0052292845090984,2.030172188616439,-1.0717170769339643,3.781742939557713
329,1790598052.6425493,-0.10513646962691332,1.7007571348852042,-0.2268914421237241,1.7190428254169594,3.0039070273410937,2.0611826217827267,-1.0760520570528591,3.7986601925858032
330,1790598052.6375813,-0.06681615712691333,1.576216119260204,-0.0975603874362241,1.5806453374067226,3.0039070273410937,2.0611826217827267,-1.0760520570528591,3.7986601925858032
331,1790598052.6575813,-0.10034643056441332,1.7486575255102041,0.05572086256377591,1.7524204296273598,3.0024817135047734,2.092753102370705,-1.079660515104394,3.8157802367652485
332,1790598052.6830604,0.06251489756058669,1.719917291135204,-0.07840023118622409,1.7228378324766735,3.000866002068337,2.133567778404671,-1.0836113154079863,3.8381664516141654
333,1790598052.7030604,0.19184595224808668,1.5043655333227042,-0.2556316764987241,1.5379428081930837,3.000169518573863,2.165636298927461,-1.0867483899013282,3.856425778148088
334,1790598052.7281842,0.03856470224808668,1.6576467833227042,-0.2700017936862241,1.6799348389486333,2.999859998517571,2.20583605091523,-1.09108848970461,3.880122006662809
335,1790598052.7481842,-0.07639623525191333,1.8636184630102042,-0.1694109733737241,1.8728615107189892,2.9995938152517447,2.238319011684157,-1.0946843265834043,3.899483149012266
336,1790598052.7730799,-0.09076635243941332,1.930679009885204,-0.2173113639987241,1.9449895112492133,2.9990000537269936,2.2797727750699166,-1.0992110408836155,3.9242362493362886
337,1790598052.7930799,-0.0045456493144133215,1.877988580197704,-0.2460515983737241,1.894044128140351,2.998451636355101,2.3137924348265715,-1.1029971473191778,3.944737044977206
338,1790598052.8032002,0.01461450693558668,1.9498391661352041,-0.1933611686862241,1.9594578074466165,2.998223395244299,2.3313303047402365,-1.1049591435056962,3.955424026119993
339,1790598052.8232002,-0.10034643056441332,2.208501275510204,-0.2556316764987241,2.2255100188691053,2.9977114037115276,2.36702748935052,-1.1089283447745821,3.977287375728294
340,1790598052.848054,-0.14345678212691332,2.218081353635204,-0.30832210618622413,2.243998052772216,2.996716139479831,2.4129851113008365,-1.1141721723214666,4.005519241940294
341,1790598052.868054,0.005034428810586679,2.079170220822704,-0.3705926139987241,2.1119453208309604,2.995827743465711,2.45086608586591,-1.118777331734511,4.029068274101288
342,1790598052.8783906,0.00982446787308668,2.179761041135204,-0.41849300462372413,2.2195925552990152,2.995448983749712,2.4708092097195156,-1.121412149760806,4.041680093069355
343,1790598052.8983905,-0.009335688376913322,2.285141900510204,-0.4616033561862241,2.3313168637032686,2.99482679587326,2.510305694048568,-1.1270656039232247,4.067050416505798
344,1790598052.9233189,0.02898462412308668,2.318672173947704,-0.41849300462372413,2.3563143155347337,2.9942043518968497,2.5607578507716933,-1.1347006347625879,4.1000348781123215
345,1790598052.9433188,0.09125513193558668,2.2707717833227044,-0.4424431999362241,2.315272764969381,2.9939602329873813,2.6020480774170833,-1.1411987802600891,4.12756426115535
346,1790598052.968296,-0.0045456493144133215,2.179761041135204,-0.3801726921237241,2.2126703629811466,2.993863524929044,2.6542161284376733,-1.1496377702782559,4.162901519998953
347,1790598052.988296,-0.11950658681441333,2.012109673947704,-0.2891619499362241,2.0362911868337705,2.993611625325127,2.696010541204699,-1.1563855156679288,4.191349527588362
348,1790598052.9978437,-0.047656000876913324,2.088750298947704,-0.1646209343112241,2.0957692997530053,2.9933897084890444,2.7159063345242873,-1.1594485469028422,4.204860294672391
349,1790598053.0178437,0.00024438974808667916,2.285141900510204,-0.2843719108737241,2.3027681057561376,2.9929234615802964,2.757892221269811,-1.165575854198014,4.2334533684579245
350,1790598053.0431168,0.05772485849808668,2.189341119260204,-0.3849627311862241,2.2236778094351943,2.9925325420840103,2.811470860334685,-1.1734259499294244,4.270427130148765
351,1790598053.0631168,0.07688501474808668,2.012109673947704,-0.3370623405612241,2.0415943933385394,2.992471504030775,2.853812794097442,-1.1797893668797013,4.300120476962578
352,1790598053.087696,0.07688501474808668,2.064800103635204,-0.3562224968112241,2.0967129609699047,2.992691209239988,2.9055596185866137,-1.1877147572961335,4.336950969946802
353,1790598053.107696,0.043354741310586684,1.925888970822704,-0.2747918327487241,1.945877311876585,2.9930235253092428,2.947335748642328,-1.194142783959036,4.367030435749337
354,1790598053.1475523,0.00024438974808667916,2.146230767697704,-0.3897527702487241,2.1813330304781937,2.993716759311553,3.0302723543399295,-1.2070176200105764,4.427389988636162
355,1790598053.1675522,-0.03328588368941332,2.1174905333227043,-0.3562224968112241,2.147502869846436,2.9939628843170296,3.072043131872593,-1.2136281246687661,4.4580439636392715
356,1790598053.1626103,-0.04286596181441332,2.265981744260204,-0.3801726921237241,2.2980517905041635,2.9939628843170296,3.072043131872593,-1.2136281246687661,4.4580439636392715
357,1790598053.1826103,-0.0045456493144133215,2.136650689572704,-0.29874202806122413,2.1574391373824047,2.9939724987741942,3.1144153828165777,-1.2203614883638738,4.489179954337141
358,1790598053.2383645,-0.01891576650191332,2.208501275510204,-0.3753826530612241,2.2402561965926657,2.993897175351958,3.232988296982859,-1.2391354601183369,4.5772360998239146
359,1790598053.2583644,-0.04286596181441332,2.352202447385204,-0.43765316087372413,2.392955104758545,2.993781536016526,3.2759833608221514,-1.246079376094637,4.609501998839513
360,1790598053.2533855,-0.06202611806441333,2.428843072385204,-0.5526140983737241,2.4916878318355096,2.993781536016526,3.2759833608221514,-1.246079376094637,4.609501998839513
361,1790598053.2733855,-0.06681615712691333,2.328252252072704,-0.4137029655612241,2.3656654649060123,2.9933709860938964,3.3202787578519155,-1.2538084191525287,4.6429038803500084
362,1790598053.2834303,-0.057236079001913326,2.265981744260204,-0.2939519889987241,2.285685237712388,2.993102264178013,3.342649799483198,-1.2576411056532262,4.659788621433518
363,1790598053.3034303,-0.06202611806441333,2.179761041135204,-0.2795818718112241,2.1984929972184215,2.9924685822836947,3.387179474414645,-1.2649878984399228,4.693404669432448
364,1790598053.3280752,0.005034428810586679,2.2468215880102043,-0.3226922233737241,2.26988168520917,2.991699517928272,3.442002111777568,-1.2737962037496031,4.73499749859917
365,1790598053.3480752,0.08646509287308668,2.155810845822704,-0.4089129264987241,2.195952275599382,2.991306267576761,3.4864226317379967,-1.2809695669552654,4.769060597749254
366,1790598053.3731875,0.08167505381058668,1.930679009885204,-0.3849627311862241,1.9703777703853216,2.991203240356456,3.541528273015013,-1.2901207455933168,4.811873945968859
367,1790598053.3931875,0.00982446787308668,1.887568658322704,-0.3131121452487241,1.9133873563796278,2.991270744611698,3.58455973432381,-1.2973628023237034,4.845608258759536
368,1790598053.4032636,0.00982446787308668,2.0743801817602043,-0.3179021843112241,2.0986213230209816,2.9913145008869484,3.6059812570862757,-1.300940945095485,4.862459317289964
369,1790598053.4232635,0.02419458506058668,2.1174905333227043,-0.3466424186862241,2.145812783793162,2.991439353611281,3.648410767911621,-1.3079746895399635,4.895958366471768
370,1790598053.463413,0.00024438974808667916,2.1270706114477043,-0.3418523796237241,2.1543659148959033,2.991725987320447,3.733591762002199,-1.3220499439156,4.963662748687347
371,1790598053.483413,0.005034428810586679,2.107910455197704,-0.2460515983737241,2.122228362280437,2.991855271297229,3.776011359413763,-1.3288915094334088,4.997540634617692
372,1790598053.4940736,0.048144780373086685,2.112700494260204,-0.2412615593112241,2.126976360547001,2.9919563663847852,3.7986053288947965,-1.332380902730353,5.015620022790696
373,1790598053.5140736,-0.052446039939413325,2.1270706114477043,-0.3131121452487241,2.150632276492682,2.9921111256018604,3.8409944124467432,-1.3387768172642793,5.0495831937737
374,1790598053.5234408,-0.13387670400191332,2.131860650510204,-0.3945428093112241,2.1721917119461165,2.9920418368491437,3.8608619050471997,-1.3418202365082161,5.065476339931246
375,1790598053.5434408,-0.17219701650191332,2.1270706114477043,-0.41849300462372413,2.17467643420709,2.9914569789685976,3.903306540894382,-1.3485630965234248,5.0993371367770575
376,1790598053.568396,-0.08597631337691332,2.036059869260204,-0.3226922233737241,2.0632648857332017,2.9903534697035936,3.956115230148573,-1.357101810490785,5.141477113828203
377,1790598053.588396,-0.0045456493144133215,2.079170220822704,-0.2843719108737241,2.0985320711815665,2.989465956388681,3.99826230509721,-1.3638291324491962,5.175233141345931
378,1790598053.6128063,0.05772485849808668,2.098330377072704,-0.2843719108737241,2.118298825550511,2.988642576488483,4.049635256761248,-1.3718495402592132,5.216656143921399
379,1790598053.6328063,0.1487356006855867,2.036059869260204,-0.2891619499362241,2.0618624356183664,2.988378841938937,4.091614406049594,-1.378295478026106,5.2508489766406425
380,1790598053.6435533,0.1391555225605867,1.854038384885204,-0.1358806999362241,1.8642119398560895,2.9884904287123133,4.113923720665128,-1.3815822283001016,5.269175730179341
381,1790598053.6635532,0.19184595224808668,1.801347955197704,-0.23168148118622411,1.8262901285977449,2.98916344307106,4.15469660085094,-1.3873326899443266,5.302951435484107
382,1790598053.7031627,0.1726857959980867,1.719917291135204,-0.30832210618622413,1.7558469163479087,2.9913793142762186,4.233794417042804,-1.3986172239693464,5.369310524345393
383,1790598053.7231627,0.1631057178730867,1.5953762755102041,-0.1933611686862241,1.6153072392642238,2.9928340314766335,4.272715367491902,-1.4042129606192348,5.402311189698088
384,1790598053.7329159,0.22058618662308668,1.600166314572704,-0.2077312858737241,1.6286014819939396,2.9937176975918334,4.291186103994267,-1.4068258596413317,5.418097713344013
385,1790598053.7529159,0.1439455616230867,1.5953762755102041,-0.2221014030612241,1.6171811334583275,2.9958047345817236,4.328174112924389,-1.4120249201812596,5.449931333030168
386,1790598053.778476,0.02419458506058668,1.6336965880102041,-0.23647152024872412,1.6508993608064602,2.998394223932283,4.374544613113593,-1.4185517852310323,5.489926926800919
387,1790598053.798476,0.00024438974808667916,1.643276666135204,-0.2891619499362241,1.668524166586058,3.000153145067306,4.410300968733722,-1.4236812358441082,5.520737431717384
388,1790598053.8088193,0.00024438974808667916,1.734287408322704,-0.3418523796237241,1.767658316487503,3.0009267305441623,4.428639289350272,-1.4264256057673765,5.536523928067157
389,1790598053.8288193,-0.06202611806441333,1.758237603635204,-0.2604217155612241,1.7785011048899737,3.0021055017533844,4.464018428895692,-1.431839586619458,5.56688984793025
390,1790598053.8527415,-0.10034643056441332,1.810928033322704,-0.054450035873724094,1.8145232306056887,3.00301262896752,4.506391885281295,-1.4379088841474488,5.602966592134713
391,1790598053.8727415,-0.02370580556441332,1.7917678770727041,-0.1263006218112241,1.7963702117316978,3.0034711881873806,4.541908034162005,-1.4424930721412552,5.632988019890741
392,1790598053.898738,0.043354741310586684,1.729497369260204,-0.1598308952487241,1.7374080404292145,3.004016137545476,4.588013581278739,-1.4481157926076818,5.671950363449206
393,1790598053.918738,0.06251489756058669,1.6624368223852042,-0.23168148118622411,1.6796668150451353,3.0045313032578687,4.623251504187765,-1.4523799537741306,5.701847977047073
394,1790598053.9280949,0.02419458506058668,1.6336965880102041,-0.2652117546237241,1.6552604612003003,3.004797020543002,4.639577771822412,-1.4544243969323463,5.715753437810692
395,1790598053.9480948,0.1535256397480867,1.5139456114477041,-0.29874202806122413,1.5507573104170604,3.0055463623380967,4.673961196011003,-1.4589847215138585,5.745246610511271
396,1790598053.9727824,0.20142603037308668,1.375034478635204,-0.2460515983737241,1.4113233691148572,3.006989803423975,4.715386138968572,-1.464778230297,5.781213486926832
397,1790598053.9927824,0.2972268116230867,1.4277249083227042,-0.3226922233737241,1.4936105457643827,3.008731744368403,4.748115744117931,-1.4696207909374404,5.810064982275698
398,1790598054.0184615,0.3307570850605867,1.537895806760204,-0.2891619499362241,1.5994181426566707,3.011842289885705,4.789547221176861,-1.4760841741599438,5.847202840010974
399,1790598054.0384614,0.3115969288105867,1.528315728635204,-0.1885711296237241,1.5711144717573928,3.0148650510246506,4.821574836619844,-1.4810796364855945,5.8762736551855586
400,1790598054.0476363,0.22537622568558668,1.537895806760204,-0.2029412468112241,1.5675149457699575,3.01641321498364,4.836173273218576,-1.4832969232960986,5.889608677559256
401,1790598054.0676363,0.22537622568558668,1.561846002072704,-0.2077312858737241,1.591637416130169,3.0199579280578366,4.86787224963448,-1.488021330841838,5.918659781322217
402,1790598054.0929673,0.22058618662308668,1.4660452208227042,-0.1310906608737241,1.488331823416511,3.0246213088769967,4.907750865460074,-1.493751186322179,5.955303957496697
403,1790598054.1129673,0.2445363819355867,1.365454400510204,-0.1215105827487241,1.3924900659188786,3.028448648794011,4.938761178929545,-1.4979754698481782,5.983877815359426
404,1790598054.1389873,0.27806665537308667,1.403774713010204,-0.2268914421237241,1.4489252003558497,3.0337009866076676,4.978458193755028,-1.503326815085125,6.02066268579007
405,1790598054.1589873,0.3403371631855867,1.3415042051977042,-0.2891619499362241,1.4138873896103805,3.038060162778032,5.008511823439417,-1.507597151440607,6.0487890861909825
406,1790598054.1685898,0.4026076709980867,1.2744436583227041,-0.2508416374362241,1.3598606921509082,3.0403742423494666,5.02266095099707,-1.509728818257602,6.062200892983536
407,1790598054.1885898,0.3882375538105867,1.245703423947704,-0.1933611686862241,1.319050400924682,3.0456572675986666,5.051490245807513,-1.514168943765475,6.089851351669339
408,1790598054.2129698,0.3738674366230867,1.3127639708227041,-0.2221014030612241,1.3829154480658157,3.052524779573262,5.086039861307659,-1.5195292506161386,6.123289813833514
409,1790598054.2329698,0.3403371631855867,1.3894045958227041,-0.2412615593112241,1.4506831685587822,3.058384754129977,5.114184318610093,-1.5239619993500921,6.150695791898278
410,1790598054.2585635,0.2636965381855867,1.408564752072704,-0.2077312858737241,1.4480134019281214,3.0659183197823188,5.150168841805857,-1.5296455146136338,6.185782864202584
411,1790598054.2785635,0.23016626474808669,1.3941946348852041,-0.1789910514987241,1.4243570429802328,3.071663087132252,5.178274754794341,-1.5340007238584281,6.213115303757802
412,1790598054.2881129,0.22537622568558668,1.4229348692602042,-0.1885711296237241,1.4529615122873705,3.07432085637408,5.1916991496113765,-1.536031530518661,6.226120915205522
413,1790598054.3081129,0.2493264209980867,1.437304986447704,-0.1789910514987241,1.469709864154068,3.0797643201967575,5.219887864129852,-1.5401981532779059,6.2533501367992965
414,1790598054.3340955,0.26848657724808667,1.408564752072704,-0.1885711296237241,1.4462706433692134,3.0867843925654586,5.256561335808977,-1.5455154649333818,6.2887433574328515
415,1790598054.3540955,0.2493264209980867,1.418144830197704,-0.1885711296237241,1.452190584789668,3.0921542248771123,5.2847962228345615,-1.5495602040603007,6.315981767969191
416,1790598054.3776681,0.2636965381855867,1.3846145567602042,-0.2173113639987241,1.426154817671036,3.098440937246863,5.3180382039333285,-1.5543299659576248,6.348055467871675
417,1790598054.3976681,0.28764673349808667,1.379824517697704,-0.2604217155612241,1.4333442757647836,3.103801758860012,5.3461580792768375,-1.558486388598603,6.375254613767722
418,1790598054.4084103,0.2924367725605867,1.3846145567602042,-0.2508416374362241,1.437218933847448,3.1067165590423667,5.361223232105521,-1.5607958824501584,6.389873716230188
419,1790598054.4284103,0.2924367725605867,1.375034478635204,-0.2508416374362241,1.427991810359193,3.112206667903761,5.3892039681051465,-1.565203282156319,6.4171030121120705
420,1790598054.4681659,0.3211770069355867,1.403774713010204,-0.2843719108737241,1.4678574516501783,3.123312425049547,5.444766096463274,-1.5742459153683734,6.471383820460567
421,1790598054.4881659,0.3451272022480867,1.3415042051977042,-0.2939519889987241,1.4160346359220957,3.1290608408852676,5.4726430710136595,-1.5789801433018946,6.4987708239033255
422,1790598054.5280356,0.3355471241230867,1.3415042051977042,-0.2460515983737241,1.40455216853368,3.1408367200913947,5.527902520851149,-1.5886168756651413,6.553340000332276
423,1790598054.5480356,0.3738674366230867,1.403774713010204,-0.2604217155612241,1.4758657713321526,3.1469219302974643,5.555582381874852,-1.5934855685107876,6.580790947465017
424,1790598054.543082,0.4169777881855867,1.3846145567602042,-0.23647152024872412,1.4652463023400344,3.1469219302974643,5.555582381874852,-1.5934855685107876,6.580790947465017
425,1790598054.563082,0.3834475147480867,1.3941946348852041,-0.1789910514987241,1.4569998191577755,3.153527458180747,5.583304484205285,-1.5982599306265322,6.60851414454816
426,1790598054.5731268,0.3738674366230867,1.418144830197704,-0.1789910514987241,1.4774807667446002,3.156917922377929,5.597257894199795,-1.6005678192748234,6.622480203587706
427,1790598054.5931268,0.4073977100605867,1.379824517697704,-0.2125213249362241,1.4543224908372143,3.1638278885181705,5.6250697925512085,-1.6050609906540771,6.6503712575281755
428,1790598054.6184068,0.3834475147480867,1.322344048947704,-0.2460515983737241,1.3986304620650003,3.17275140533474,5.660074234548924,-1.6107579125752862,6.685606395352785
429,1790598054.6384068,0.3355471241230867,1.322344048947704,-0.23647152024872412,1.3845954052297822,3.179830673500856,5.687580621108219,-1.6153126928041013,6.713354714989868
430,1790598054.6628594,0.3115969288105867,1.370244439572704,-0.2077312858737241,1.4204980666494602,3.188374564066555,5.721104439282211,-1.6208608497252104,6.747144452294848
431,1790598054.6828594,0.2636965381855867,1.408564752072704,-0.1981512077487241,1.4466701165659637,3.1951773825747094,5.748579060432503,-1.625326859638028,6.774732992585082
432,1790598054.708088,0.26848657724808667,1.3941946348852041,-0.2125213249362241,1.435628446241481,3.2034784118170987,5.783340893057403,-1.6308924192559435,6.8094871982752645
433,1790598054.728088,0.28764673349808667,1.365454400510204,-0.2412615593112241,1.4161262313671346,3.2099061801848827,5.810904291254271,-1.635323392075006,6.836986833713673
434,1790598054.7382364,0.3115969288105867,1.3510842833227041,-0.2556316764987241,1.4099180617026519,3.2131346664900793,5.8248604004919455,-1.6376127320914642,6.850912970584838
435,1790598054.7582364,0.3115969288105867,1.379824517697704,-0.2604217155612241,1.4383420370759321,3.219477553971551,5.85233489850287,-1.6422217275745743,6.878353850106817
436,1790598054.7832127,0.3403371631855867,1.3558743223852041,-0.2412615593112241,1.41860202408922,3.22743169227214,5.8866234155605826,-1.6480539010728854,6.9126501593636505
437,1790598054.8032126,0.3499172413105867,1.3558743223852041,-0.23168148118622411,1.419335606047629,3.233881024271417,5.914029372156118,-1.6527329597590765,6.940119316707893
438,1790598054.812918,0.3547072803730867,1.3941946348852041,-0.2556316764987241,1.4611445817310167,3.2370541127321264,5.9273354370452305,-1.6550176727306767,6.953481732848588
439,1790598054.832918,0.3403371631855867,1.408564752072704,-0.2221014030612241,1.4660194673566294,3.243654716181042,5.954846710333178,-1.6597362152508943,6.981133114730355
440,1790598054.8580923,0.3211770069355867,1.3941946348852041,-0.2268914421237241,1.4485900304212274,3.2519657726097253,5.989573185286552,-1.6656323749046962,7.016024482316145
441,1790598054.8780923,0.3020168506855867,1.4708352598852041,-0.2077312858737241,1.515824141168878,3.258512928259059,6.017321135791191,-1.6702659206774817,7.043851815636628
442,1790598054.9182823,0.28764673349808667,1.3510842833227041,-0.1358806999362241,1.3880320416146388,3.2714733592898226,6.073222706745403,-1.6792161002206976,7.0997421571146795
443,1790598054.9382823,0.2636965381855867,1.3846145567602042,-0.1406707389987241,1.4165032975089633,3.2777825137181305,6.100972089318,-1.6834167686684254,7.127384559493589
444,1790598054.9330428,0.28764673349808667,1.408564752072704,-0.1742010124362241,1.4481509924063731,3.2777825137181305,6.100972089318,-1.6834167686684254,7.127384559493589
445,1790598054.9530427,0.2924367725605867,1.413354791135204,-0.2556316764987241,1.4657552952659039,3.283913964222854,6.128815193727163,-1.6874979611406467,7.155006357239148
446,1790598054.9784827,0.3163869678730867,1.331924127072704,-0.2843719108737241,1.3982095613363126,3.2917049236816096,6.164157148044696,-1.692940872711802,7.190146274511978
447,1790598054.9984827,0.2732766163105867,1.317554009885204,-0.2508416374362241,1.368776901126853,3.2977956407327906,6.191748231678279,-1.6973808577471083,7.217638396925521
448,1790598055.0229282,0.2636965381855867,1.370244439572704,-0.2029412468112241,1.410067671457037,3.30510800166362,6.225341456659235,-1.7028256911790007,7.25108478016912
449,1790598055.0429282,0.3259670459980867,1.403774713010204,-0.1885711296237241,1.4534087624929082,3.3110776793849115,6.2528639790999785,-1.707199420997244,7.278466404614389
450,1790598055.053503,0.3115969288105867,1.418144830197704,-0.1981512077487241,1.465432122820072,3.3142662919204704,6.26747152763451,-1.7094718210377184,7.293000364074551
451,1790598055.073503,0.3115969288105867,1.4277249083227042,-0.2221014030612241,1.4781136942505566,3.3203270672616942,6.295223294620998,-1.7137552896563588,7.320612362060611
452,1790598055.0983264,0.3403371631855867,1.375034478635204,-0.23647152024872412,1.436129514343864,3.3279349079020513,6.329719373180301,-1.7191280861197284,7.3549914664078795
453,1790598055.1183264,0.3068068897480867,1.3510842833227041,-0.2173113639987241,1.402420563583373,3.334115748414325,6.3574327138816304,-1.7234882457935512,7.382661462422972
454,1790598055.1441631,0.2924367725605867,1.365454400510204,-0.2460515983737241,1.4179303138309012,3.3420638748747558,6.393127635003411,-1.729173850295514,7.418322863406054
455,1790598055.164163,0.2924367725605867,1.403774713010204,-0.2939519889987241,1.4637316976375279,3.348170876566689,6.420767946887741,-1.733724857482034,7.445959382639787
456,1790598055.1732113,0.2972268116230867,1.3941946348852041,-0.2747918327487241,1.4517689240494562,3.3509194788369316,6.433295773999022,-1.735860905773373,7.45849642713562
457,1790598055.1932113,0.3355471241230867,1.375034478635204,-0.2700017936862241,1.440906887531821,3.357032767910624,6.460987146560736,-1.7406913458071251,7.486256091947197
458,1790598055.217821,0.3690773975605867,1.3894045958227041,-0.2221014030612241,1.4546450733856393,3.364727240815612,6.495052135333064,-1.7466518229133294,7.520497605628746
459,1790598055.2378209,0.3499172413105867,1.418144830197704,-0.1789910514987241,1.4716027424884424,3.371120978509501,6.522795128590258,-1.7513708849232756,7.5484179082682346
460,1790598055.2925577,0.3307570850605867,1.379824517697704,-0.1933611686862241,1.4320281039536829,3.3887891962822967,6.5988205685219015,-1.763877530117668,7.624932068788635
461,1790598055.3125577,0.3355471241230867,1.375034478635204,-0.2843719108737241,1.4436686162817405,3.3952759860652186,6.626564573220284,-1.768478399983771,7.652893107565166
462,1790598055.322438,0.3068068897480867,1.3941946348852041,-0.2221014030612241,1.444727718561995,3.3984758745810413,6.640266712734326,-1.7707856748780622,7.666711302293198
463,1790598055.342438,0.3115969288105867,1.408564752072704,-0.1646209343112241,1.4519804953370856,3.4049091856290317,6.6680466549525015,-1.7753356391685982,7.694677991099197
464,1790598055.3375866,0.3355471241230867,1.3894045958227041,-0.1742010124362241,1.4399246494641071,3.4049091856290317,6.6680466549525015,-1.7753356391685982,7.694677991099197
465,1790598055.3575866,0.3451272022480867,1.3846145567602042,-0.2029412468112241,1.4413380610325748,3.411403371257655,6.6958460954821595,-1.7796206987879928,7.722634118444719
466,1790598055.3830523,0.3499172413105867,1.437304986447704,-0.2125213249362241,1.4944741594910547,3.4197594780441816,6.7313229423621195,-1.7850518991456463,7.75834220208719
467,1790598055.4030523,0.3594973194355867,1.370244439572704,-0.23168148118622411,1.4354387676198275,3.4264018288075637,6.759217302253917,-1.789343872568208,7.786462581033953
468,1790598055.4429932,0.3547072803730867,1.360664361447704,-0.2652117546237241,1.4309304784140124,3.4398165778694345,6.81474822551955,-1.79811791670991,7.842599027682113
469,1790598055.4629931,0.3211770069355867,1.3894045958227041,-0.2556316764987241,1.44877443196203,3.446540111756411,6.842508905443968,-1.80263367018079,7.870708672787691
470,1790598055.4730363,0.3355471241230867,1.408564752072704,-0.2508416374362241,1.469546889473282,3.449904613003441,6.856465639244357,-1.8049426413037548,7.884845010484196
471,1790598055.4930363,0.3451272022480867,1.379824517697704,-0.2412615593112241,1.4426488226081136,3.4566206992211916,6.884272717922,-1.809589180137056,7.913030425436178
472,1790598055.5178227,0.3259670459980867,1.379824517697704,-0.2460515983737241,1.4389967351521977,3.464943154012387,6.9186955670932235,-1.8153898733747327,7.947944375937986
473,1790598055.5378227,0.3211770069355867,1.403774713010204,-0.2412615593112241,1.4601182331141085,3.4716218858088728,6.946480125466488,-1.8200992904047204,7.976120991964693
474,1790598055.5479343,0.3978176319355867,1.456465142697704,-0.2268914421237241,1.526770875633035,3.4750372807366365,6.960589435060995,-1.822478157555654,7.990439038047889
475,1790598055.5679343,0.4505080616230867,1.523525689572704,-0.1742010124362241,1.598259688883249,3.482051869076706,6.988780562809335,-1.8270792439754786,8.01909954657056
476,1790598055.578984,0.4121877491230867,1.557055963010204,-0.1646209343112241,1.6190806232199468,3.4860609657960557,7.004572504936734,-1.8295207741352641,8.035160440038213
477,1790598055.598984,0.3451272022480867,1.528315728635204,-0.1119305046237241,1.5707928539405402,3.4933649133251845,7.0334963857199755,-1.8336918834064977,8.064496000920226
478,1790598055.6225016,0.2828566944355867,1.518735650510204,-0.0927703483737241,1.5476343958619754,3.5017728548812666,7.067780237047876,-1.838221959880073,8.09907343960858
479,1790598055.6425016,0.23016626474808669,1.576216119260204,-0.1933611686862241,1.604625285105369,3.5086201693806367,7.097205150944455,-1.8419257765334835,8.128556268725436
480,1790598055.668384,0.1583156788105867,1.480415338010204,-0.3514324577487241,1.5297706362499028,3.5169063760082437,7.135506239927352,-1.8470575450002182,8.166743618615184
481,1790598055.688384,0.1535256397480867,1.418144830197704,-0.3466424186862241,1.4679461324957295,3.5228166362714526,7.1650107777148735,-1.8514752750596266,8.196070838622513
482,1790598055.697951,0.22058618662308668,1.456465142697704,-0.1837810905612241,1.484494684015484,3.525488176432563,7.179069897784905,-1.8536521119783702,8.210002291819963
483,1790598055.717951,0.2589064991230867,1.5810061583227042,-0.1550408561862241,1.6095498485692967,3.5309545699391585,7.208608253162886,-1.8580284437110555,8.239171245955605
484,1790598055.7432635,0.21100610849808668,1.5905862364477041,-0.1071404655612241,1.6080942860296015,3.5377272984893113,7.246406048350067,-1.863234142985292,8.276325061742504
485,1790598055.7632635,0.20621606943558668,1.523525689572704,-0.1167205436862241,1.541842819291206,3.54290173847122,7.276462449991799,-1.8670661147222252,8.30572058230633
486,1790598055.7883937,0.2397463428730867,1.652856744260204,-0.0879803093112241,1.6724695096754258,3.5492687715517417,7.3145505678778795,-1.8715446186300837,8.342819552302341
487,1790598055.8083937,0.3068068897480867,1.8348782286352041,0.07967105787627592,1.862056943001337,3.554395735039184,7.345547799274992,-1.8745866754139526,8.372865502104878
488,1790598055.8179555,0.2349563038105867,1.9450491270727042,0.19463199537627593,1.9688326960538756,3.556867725935156,7.360855039260783,-1.8756261821734883,8.387578226405086
489,1790598055.8379555,0.20621606943558668,1.9833694395727042,0.1275714485012759,1.9981376017674857,3.561924462396639,7.393962563957899,-1.8769910274355706,8.419090425343114
490,1790598055.8628523,0.21579614756058668,2.036059869260204,0.13236148756377591,2.051737637200226,3.5680630924998846,7.4364995550464865,-1.8779498306336633,8.459272748330285
491,1790598055.8828523,0.19184595224808668,2.1270706114477043,0.17068180006377592,2.1425140681805326,3.572866112223413,7.471789198887207,-1.878149952660162,8.492376188862535
492,1790598055.9076097,0.12478540537308669,2.151020806760204,0.09404117506377592,2.156688584640077,3.578507723292087,7.516864181694485,-1.8778689803794966,8.53436327790036
493,1790598055.9276097,-0.06681615712691333,2.136650689572704,-0.016129723373724092,2.1377560048052335,3.582468563427744,7.554247011836678,-1.8775591800061582,8.568894759431744
494,1790598055.953768,0.03377466318558668,2.107910455197704,-0.1310906608737241,2.1122528201835595,3.586807125765168,7.604133931498531,-1.8775035935592408,8.61470010792221
495,1790598055.973768,0.3211770069355867,2.2132913145727042,-0.2029412468112241,2.245662098937497,3.590159131896,7.643036633047864,-1.8779685159841,8.650550116233962
496,1790598055.9976962,0.3930275928730867,2.146230767697704,-0.1981512077487241,2.190899609316723,3.594849668266057,7.690422310036863,-1.8791611234101964,8.694641221573296
497,1790598056.0176961,0.3259670459980867,2.256401666135204,-0.2747918327487241,2.296326097347641,3.59926059362169,7.73069183961299,-1.8807178361382144,8.732432233863898
498,1790598056.0287735,0.3451272022480867,2.2132913145727042,-0.1310906608737241,2.243870760597159,3.601894762358208,7.753363780896637,-1.8817879304376814,8.753823256906905
499,1790598056.0487735,0.5798391163105867,2.069590142697704,-0.1502508171237241,2.154528270318515,3.607324748432823,7.794581685190131,-1.8838521668840504,8.793019644833684
500,1790598056.0729008,0.7953908741230867,2.103120416135204,-0.2268914421237241,2.259920762750762,3.6153812427298893,7.84439759133952,-1.8866513085588341,8.841097684189625
501,1790598056.0929008,0.8193410694355867,1.968999322385204,-0.1550408561862241,2.1382974037079596,3.623479919839857,7.885605901862904,-1.8891964732144022,8.881522982202064
502,1790598056.1028008,0.7618606006855867,1.724707330197704,-0.1550408561862241,1.8918468798509178,3.628061526798921,7.905687081039424,-1.8904976001688636,8.90149986473046
503,1790598056.1228008,0.6612697803730867,1.695967095822704,-0.2412615593112241,1.8362432443849181,3.638063544753423,7.945300563629023,-1.8933262884950783,8.941364092618869
504,1790598056.1477163,0.6804299366230867,1.691177056760204,-0.2604217155612241,1.841435365659315,3.6511619404054736,7.9935770124657095,-1.8972590840705528,8.99043096861179
505,1790598056.1677163,0.6900100147480868,1.604956353635204,-0.2173113639987241,1.760461003955967,3.6621547218519788,8.031460553713128,-1.9006590558876284,9.029299013730821
506,1790598056.1927152,0.6085793506855867,1.6289065489477041,-0.3658025749362241,1.7769403183887695,3.676268799139961,8.077773315832932,-1.9053646615845377,9.077212596338574
507,1790598056.2127151,0.4552981006855867,1.686387017697704,-0.4616033561862241,1.8067305256705122,3.6874625982521567,8.114240281260221,-1.9098057184985584,9.115132123998219
508,1790598056.223109,0.2924367725605867,1.5139456114477041,-0.46639339524872414,1.6109231451248838,3.692990228935696,8.132843961326035,-1.9124909182272036,9.134492281599094
509,1790598056.243109,0.3499172413105867,1.2361233458227041,-0.5861443718112241,1.4120935615108166,3.7029946399503615,8.167396863559917,-1.9184615817222022,9.170552637160617
510,1790598056.2680707,0.4888283741230867,1.255283502072704,-0.7011053093112242,1.5186304700841875,3.71517829569663,8.208717361442712,-1.927205598000848,9.214103966519595
511,1790598056.2880707,0.5894191944355867,1.260073541135204,-0.5095037468112241,1.4814838452891697,3.7250932521049362,8.240631405974934,-1.9349765560065975,9.248159815785696
512,1790598056.3278508,0.6181594288105867,1.3079739317602042,-0.46639339524872414,1.5200130541292436,3.7454588715995367,8.302248923188847,-1.9510261842648469,9.314628415193013
513,1790598056.3478508,0.6181594288105867,1.1163723692602041,-0.4616033561862241,1.357013634683697,3.7560165653987037,8.332217593752217,-1.9592769628931426,9.3473138754675
514,1790598056.3428667,0.8528713428730867,1.010991509885204,-0.5334539421237241,1.426207021761374,3.7560165653987037,8.332217593752217,-1.9592769628931426,9.3473138754675
515,1790598056.3628666,0.9726223194355867,0.953511041135204,-0.6436248405612242,1.506462882788176,3.768258299495894,8.359529095609714,-1.9682724637877094,9.378464362771231
516,1790598056.387452,1.0396828663105868,0.6469485411352041,-0.6915252311862241,1.4063036737290873,3.78475984562417,8.391017250748602,-1.9801335033265688,9.415652196338078
517,1790598056.4074519,1.0109426319355868,0.3308059630102041,-0.7442156608737241,1.2981889462315084,3.7992461204883106,8.414257025219513,-1.990488676725162,9.444365385915164
518,1790598056.4479184,1.0109426319355868,0.2254251036352041,-0.8543865593112241,1.3426830881281948,3.830296452599372,8.455913640244793,-2.01314955682565,9.498758737025621
519,1790598056.4679184,1.0827932178730868,-0.07634735730229592,-0.7777459343112241,1.3353496957638615,3.8464812882212684,8.4736371876399,-2.025117581898723,9.523604711920036
520,1790598056.4630837,1.1690139209980868,-0.2871090760522959,-0.8112762077487241,1.45161780586285,3.8464812882212684,8.4736371876399,-2.025117581898723,9.523604711920036
521,1790598056.4830837,1.2552346241230867,-0.3637497010522959,-0.7250555046237241,1.4945344731381156,3.8646822526718654,8.485002756887681,-2.0380949766838157,9.543839470176154
522,1790598056.5077374,1.2408645069355868,-0.24399872448979593,-0.5190838249362241,1.3670143084238602,3.8883682485043582,8.495787654675649,-2.0539929040926053,9.566436241327215
523,1790598056.5277374,1.1450637256855867,-0.24399872448979593,-0.3753826530612241,1.2294789342046033,3.908279857612755,8.502492404478204,-2.0662970463946833,9.58314207437052
524,1790598056.5527365,1.0588430225605867,-0.3445895448022959,-0.42807308274872413,1.1929530858278916,3.9335674194100783,8.508512398245104,-2.0808761890105005,9.601967589412391
525,1790598056.5727365,1.0588430225605867,-0.24399872448979593,-0.23168148118622411,1.1110176563414864,3.9539400614534093,8.511723249087831,-2.0917799678120756,9.615540448272702
526,1790598056.58294,0.9343020069355867,-0.21046845105229592,-0.04486995774872409,0.9587651027027372,3.9643000212442763,8.512767855413612,-2.0967200651958176,9.621804729383951
527,1790598056.60294,0.8959816944355867,-0.06197724011479592,-0.0975603874362241,0.903406001890965,3.984305935543471,8.514099581904254,-2.1051642934423582,9.633083731649684
528,1790598056.6277492,1.0588430225605867,0.2637454161352041,-0.0879803093112241,1.0947377429247929,4.009037256776769,8.51587916610812,-2.1144130248713964,9.646933198572711
529,1790598056.6477492,1.0013625538105868,0.4074465880102041,-0.1215105827487241,1.0878899337594552,4.029074234412577,8.518105379722767,-2.1210647799806805,9.658699407650273
530,1790598056.6728282,0.9438820850605867,0.4505569395727041,-0.3897527702487241,1.1161640418020986,4.054089688829542,8.522092050642964,-2.129116261661625,9.674442215465344
531,1790598056.6928282,0.9151418506855867,0.1966848692602041,-0.5095037468112241,1.0657221085662154,4.073835122964948,8.525765305221302,-2.135922898370685,9.687464749695987
532,1790598056.7175493,0.7762307178730867,-0.06197724011479592,-0.5238738639987242,0.9385196487250378,4.097716607311493,8.529874368528723,-2.1449902600080555,9.703144920707365
533,1790598056.7375493,0.6708498584980868,-0.502660833864796,-0.8160662468112241,1.1699023744454546,4.116309800237128,8.53185309072169,-2.1532355184770293,9.714573934620937
534,1790598056.8081403,0.6133693897480867,-0.4739205994897959,-0.7585857780612242,1.0845621815172521,4.178890666958801,8.532619155670607,-2.186308993177441,9.7492904293472
535,1790598056.8281403,0.8528713428730867,-0.28231903698979594,-0.5334539421237241,1.0448285383297728,4.196160985829017,8.531669283942048,-2.1962119295703126,9.758098924951558
536,1790598056.8091414,1.0348928272480866,-0.22483856823979592,-0.6436248405612242,1.239277402781605,4.196160985829017,8.531669283942048,-2.1962119295703126,9.758098924951558
537,1790598056.8291414,1.1977541553730868,-0.32063934948979594,-0.42807308274872413,1.3117435623355398,4.21439465551436,8.529518160191884,-2.2064751204827235,9.76638801270871
538,1790598056.8376484,1.3270852100605868,0.024243463010204084,0.19942203443877593,1.3422041752579894,4.2225979229732955,8.528551316536689,-2.210331646161802,9.769958380869513
539,1790598056.8576484,1.5905373584980869,0.3499661192602041,0.36707340162627594,1.6694395034231113,4.243367346120989,8.527180539070427,-2.2171885890608696,9.779309772140826
540,1790598056.8833816,1.7342385303730867,0.12483428332270409,-0.0879803093112241,1.7409501467158086,4.2724988968801965,8.526597731079141,-2.2241491291537203,9.793056470796117
541,1790598056.9033816,1.6575979053730867,-0.19130829480229591,-0.45681331712372414,1.7300023370674928,4.296831640121564,8.526113003373606,-2.229564616705273,9.804505263903446
542,1790598056.9133801,1.5138967334980868,-0.14340790417729593,-0.2077312858737241,1.5347968705361152,4.309549855092589,8.52565602256997,-2.2323642063494207,9.810325199426483
543,1790598056.9333801,1.4899465381855868,0.0817239317602041,-0.2460515983737241,1.5123362313770787,4.335679674503201,8.52478651818563,-2.2378048633434258,9.82231510525615
544,1790598056.9734728,1.3989357959980868,0.2637454161352041,-0.3035320671237241,1.4555805445352497,4.388890095741321,8.524343743534954,-2.2487279976996755,9.84802366660835
545,1790598056.9934728,1.1354836475605867,0.3547561583227041,-0.2604217155612241,1.217782622507494,4.4152538372687005,8.52508375109268,-2.254205520750381,9.861691636856321
546,1790598056.9879844,0.8624514209980867,0.3739163145727041,-0.2077312858737241,0.9626983696963465,4.4152538372687005,8.52508375109268,-2.254205520750381,9.861691636856321
547,1790598057.0079844,0.7043801319355867,0.5559377989477041,-0.1742010124362241,0.9140920081141821,4.439199250393316,8.527942242910173,-2.259332823563208,9.876075824472718
548,1790598057.0330763,0.7427004444355867,0.7427493223852041,-0.1837810905612241,1.066328277462607,4.467458035890795,8.53343454453074,-2.265474294514794,9.894951248356056
549,1790598057.0530763,0.8097609913105868,0.929560845822704,-0.1598308952487241,1.2431179124326597,4.488932312781452,8.539664092229513,-2.2701506150302744,9.91110286152706
550,1790598057.0780387,0.7618606006855867,0.9630911192602041,-0.1454607780612241,1.2365819490955916,4.514656822324382,8.54981643356296,-2.2756833041064444,9.93278519709211
551,1790598057.0980387,0.6804299366230867,0.848130181760204,-0.2221014030612241,1.109792204472197,4.534339236739438,8.55944724009002,-2.280002534937016,9.951019089974587
552,1790598057.107583,0.7522805225605868,0.709219048947704,-0.3658025749362241,1.09669009653789,4.543348711114079,8.56446863814547,-2.282175409501565,9.95994303017306
553,1790598057.127583,0.9774123584980867,0.618208306760204,-0.5047137077487241,1.2618448224253154,4.561990496469576,8.57540365337145,-2.287351403812491,9.979042115987793
554,1790598057.153404,1.0827932178730868,0.6086282286352042,-0.46639339524872414,1.3267977511645146,4.586437586132079,8.589779513070944,-2.2949121196766455,10.004316241087999
555,1790598057.173404,1.0109426319355868,0.6229983458227041,-0.3562224968112241,1.2397686926185463,4.6056736364358235,8.601091714762422,-2.3011238586031366,10.024279492499566
556,1790598057.2132163,0.9534621631855867,0.5846780333227041,-0.3131121452487241,1.161454999033067,4.644087088189393,8.623838278805392,-2.313632861879775,10.064344417856862
557,1790598057.2332163,0.9869924366230868,0.5750979551977041,-0.3610125358737241,1.1980074202949393,4.663400427382911,8.635290792766147,-2.3199854301662644,10.084536827139393
558,1790598057.2277431,0.9247219288105867,0.5894680723852042,-0.3562224968112241,1.1530298006639388,4.663400427382911,8.635290792766147,-2.3199854301662644,10.084536827139393
559,1790598057.2477431,0.8097609913105868,0.5942581114477041,-0.1694109733737241,1.0186047535571041,4.682393470340619,8.64682564195434,-2.326278084001168,10.104651009191347
560,1790598057.2728176,0.7379104053730867,0.6613186583227041,-0.1071404655612241,0.9966610324299282,4.705544249338597,8.66147916459425,-2.3335040331927757,10.129590765381925
561,1790598057.2928176,0.7618606006855867,0.7187991270727041,-0.1454607780612241,1.0574793605133204,4.723489656388093,8.673484126691296,-2.338781979840952,10.14941291795737
562,1790598057.3183706,0.8049709522480867,0.757119439572704,-0.1358806999362241,1.1134054267683604,4.745981214877497,8.68935011159122,-2.345053029539008,10.174891486651369
563,1790598057.3383706,0.7953908741230867,0.814599908322704,-0.0831902702487241,1.1415516958691365,4.763345020245804,8.70226306785767,-2.349553662176563,10.195059621971192
564,1790598057.3633459,0.8001809131855867,0.7810696348852041,-0.06882015306122409,1.1203104399377861,4.784764594535092,8.718958465891967,-2.3546156022817457,10.220490379114615
565,1790598057.3833458,0.8145510303730867,0.7235891661352041,-0.0975603874362241,1.0938887930803585,4.801766391607847,8.732579539570935,-2.3583106930400017,10.240924529524392
566,1790598057.3938956,0.8624514209980867,0.6996389708227041,-0.2221014030612241,1.132539701872405,4.8107163243370925,8.739812875270545,-2.360220374177917,10.251729652242725
567,1790598057.4138956,0.8768215381855867,0.670898736447704,-0.2556316764987241,1.1332557868472644,4.827747205759256,8.753524519748003,-2.3640142445808907,10.272287863427854
568,1790598057.437644,0.7666506397480867,0.5511477598852041,-0.2891619499362241,0.9874875644500788,4.847863845747628,8.769540413909416,-2.3688137760202195,10.296499484949274
569,1790598057.457644,0.8145510303730867,0.6038381895727041,-0.3466424186862241,1.0715758987122348,4.8646358828469065,8.782737662113242,-2.373203164241047,10.316649474172698
570,1790598057.482719,0.8576613819355867,0.6852688536352041,-0.3514324577487241,1.1526843540993674,4.885654420112857,8.799226117813303,-2.379193692083574,10.34198056513482
571,1790598057.502719,0.7906008350605868,0.6469485411352041,-0.23168148118622411,1.0475058014159677,4.902376676677115,8.812403063739591,-2.3841297397660144,10.362230428526063
572,1790598057.5128255,0.7427004444355867,0.694848931760204,-0.1215105827487241,1.0242967391596292,4.910721607372026,8.81908002101603,-2.3865176340277245,10.372406930877705
573,1790598057.5328255,0.7906008350605868,0.7427493223852041,-0.2077312858737241,1.1044811104916767,4.9270583447325045,8.832467549918894,-2.3910281102622957,10.392564764139454
574,1790598057.558538,0.8241311084980867,0.795439752072704,-0.3035320671237241,1.1849253980500927,4.948024743576606,8.8500634991456,-2.396943015961345,10.418824723725871
575,1790598057.578538,0.7427004444355867,0.7619094786352041,-0.2268914421237241,1.0879291016918196,4.96423706267221,8.864033199595772,-2.4016493296993255,10.439475737832321
576,1790598057.6026108,0.6708498584980868,0.714009088010204,-0.1981512077487241,0.9995561072497854,4.983375981399834,8.88099030210985,-2.407231752971613,10.464262498173332
577,1790598057.6226108,0.6852199756855867,0.6852688536352041,-0.2173113639987241,0.9931485517101905,4.998925759675266,8.895064119973737,-2.4117971867723647,10.484664521066573
578,1790598057.632693,0.7331203663105867,0.7044290098852041,-0.2604217155612241,1.0495261651826833,5.006661278700227,8.902145537602006,-2.414114702694976,10.494894098086535
579,1790598057.652693,0.7714406788105868,0.6613186583227041,-0.30832210618622413,1.0618500882575608,5.021961215131052,8.916134353643464,-2.4188754526305924,10.515155952901534
580,1790598057.678005,0.7714406788105868,0.6469485411352041,-0.3274822624362241,1.058729317630836,5.041349255715268,8.93366655439015,-2.4252038795951996,10.54074068937917
581,1790598057.698005,0.7953908741230867,0.5750979551977041,-0.29874202806122413,1.025978118695034,5.056720876729493,8.947274581064994,-2.4303935067605043,10.560821987507756
582,1790598057.7382286,0.8432912647480867,0.6661086973852041,-0.1789910514987241,1.0894396497508525,5.08794225996513,8.974281999647914,-2.440706408861949,10.60103493175093
583,1790598057.7582285,0.9007717334980867,0.709219048947704,-0.2029412468112241,1.1642879905404537,5.103753665884905,8.987759325545381,-2.4456379214855346,10.62117055785141
584,1790598057.753247,0.9103518116230868,0.670898736447704,-0.2460515983737241,1.1573188517235975,5.103753665884905,8.987759325545381,-2.4456379214855346,10.62117055785141
585,1790598057.773247,0.9295119678730868,0.613418267697704,-0.2795818718112241,1.148233640253593,5.120246380017061,9.001182815673536,-2.450561854141093,10.641591444620763
586,1790598057.7979443,0.9151418506855867,0.6229983458227041,-0.2556316764987241,1.1362038108559636,5.140974581469997,9.017562811431006,-2.4567215680121666,10.666842999133353
587,1790598057.8179443,0.8959816944355867,0.5990481505102041,-0.2508416374362241,1.1065999324349551,5.1579591815330135,9.030670780723781,-2.4617212152255044,10.68726480488204
588,1790598057.8577292,0.9343020069355867,0.632578423947704,-0.2700017936862241,1.1601623469160705,5.192139091239088,9.05650953577494,-2.4717290478985734,10.727913021672997
589,1790598057.8777292,0.8959816944355867,0.6852688536352041,-0.23168148118622411,1.1515437061834928,5.209489497212175,9.069527135005005,-2.4767578919462245,10.748461886682854
590,1790598057.8732138,0.8289211475605868,0.694848931760204,-0.23647152024872412,1.1071784349101998,5.209489497212175,9.069527135005005,-2.4767578919462245,10.748461886682854
591,1790598057.8932137,0.7570705616230867,0.690058892697704,-0.2556316764987241,1.0557862779450327,5.226603399848902,9.082769358702533,-2.4817262803694002,10.7690783103
592,1790598057.9179945,0.7283303272480867,0.6996389708227041,-0.2173113639987241,1.0330459738105287,5.247388170441646,9.09929867381893,-2.4878378933064145,10.794519736886174
593,1790598057.9379945,0.7427004444355867,0.714009088010204,-0.1837810905612241,1.046512502158409,5.26385339347704,9.112758513592611,-2.492632193851798,10.81497737070683
594,1790598057.9629927,0.7379104053730867,0.6469485411352041,-0.2412615593112241,1.0105747479707403,5.284122385791611,9.129610181060661,-2.498522671039444,10.84040345115663
595,1790598057.9829926,0.7283303272480867,0.632578423947704,-0.29874202806122413,1.0098848089577344,5.300105645469321,9.142989423236717,-2.503338486653824,10.860574525563392
596,1790598057.9936464,0.7474904834980867,0.6613186583227041,-0.2747918327487241,1.0351787005688184,5.3085218370858955,9.150081194510998,-2.5059772823624415,10.871260833071675
597,1790598058.0136464,0.8049709522480867,0.690058892697704,-0.23647152024872412,1.0863140840673637,5.324280101875046,9.163424478583167,-2.5109548584171124,10.891336055733852
598,1790598058.0388932,0.8289211475605868,0.694848931760204,-0.1694109733737241,1.0948175120726236,5.344282400232383,9.18036406540113,-2.5170643046041503,10.916778437810962
599,1790598058.0588932,0.8672414600605868,0.670898736447704,-0.2221014030612241,1.1187233339199234,5.360295198468146,9.193818963484095,-2.5217653709940815,10.93701843897071
600,1790598058.0984857,0.8576613819355867,0.613418267697704,-0.3035320671237241,1.0972678492425234,5.39236165434431,9.220272991882059,-2.531236611621797,10.977165255205337
601,1790598058.1184857,0.8193410694355867,0.613418267697704,-0.29874202806122413,1.0662310061798221,5.408645651373909,9.233471911413728,-2.536206724405089,10.99739950487886
602,1790598058.1427617,0.8528713428730867,0.6229983458227041,-0.2843719108737241,1.093793330609554,5.428490967622161,9.249340801236885,-2.542396223931611,11.021914443618336
603,1790598058.1627617,0.8337111866230867,0.656528619260204,-0.2173113639987241,1.0832028432067429,5.444918095650008,9.2623727388946,-2.547483124175298,11.042117192391716
604,1790598058.1583452,0.7762307178730867,0.627788384885204,-0.1933611686862241,1.016878028635806,5.444918095650008,9.2623727388946,-2.547483124175298,11.042117192391716
605,1790598058.1783452,0.7618606006855867,0.637368463010204,-0.2268914421237241,1.01889639268474,5.461146504398356,9.27532354993296,-2.5523123948962234,11.062099559287297
606,1790598058.203038,0.7714406788105868,0.637368463010204,-0.3131121452487241,1.0485220522554528,5.481016918400269,9.291275458718012,-2.5583805075217736,11.086688276073831
607,1790598058.223038,0.7474904834980867,0.709219048947704,-0.2795818718112241,1.0676608568997727,5.496975295558529,9.304277587065535,-2.563447199712667,11.106645774619157
608,1790598058.24849,0.7427004444355867,0.7427493223852041,-0.23647152024872412,1.0766611750951367,5.517082381863628,9.321113885776946,-2.5699130256709988,11.132197224241372
609,1790598058.26849,0.6660598194355867,0.747539361447704,-0.2029412468112241,1.021585008522297,5.53262543936217,9.334594612309855,-2.5748907967483134,11.152338922558837
610,1790598058.27801,0.6756398975605867,0.714009088010204,-0.2604217155612241,1.0169157875029253,5.53987199953662,9.341092339092015,-2.577235600544707,11.161914316075377
611,1790598058.2980099,0.7427004444355867,0.6613186583227041,-0.2747918327487241,1.0317251908119536,5.55494003257111,9.35475862616003,-2.5822256469185083,11.181983590167727
612,1790598058.322685,0.7618606006855867,0.714009088010204,-0.2268914421237241,1.0685131160388952,5.5735261823739926,9.371635609651083,-2.5883871114484998,11.206761171025343
613,1790598058.342685,0.7379104053730867,0.771489556760204,-0.1742010124362241,1.0816902954550969,5.588580804108141,9.385491289104122,-2.593233703627092,11.226956096089573
614,1790598058.3833683,0.7139602100605867,0.733169244260204,-0.1550408561862241,1.0350429891389985,5.619040869609708,9.414039404419881,-2.6026182559641233,11.268157790366276
615,1790598058.4033682,0.7283303272480867,0.6421585020727041,-0.2029412468112241,0.9919766917780167,5.633932400824678,9.428031560618514,-2.607076674437712,11.288304664185766
616,1790598058.3982005,0.7139602100605867,0.656528619260204,-0.2125213249362241,0.992942255627242,5.633932400824678,9.428031560618514,-2.607076674437712,11.288304664185766
617,1790598058.4182005,0.6660598194355867,0.6996389708227041,-0.1406707389987241,0.9761755115607368,5.648600478878941,9.441830967417719,-2.61135738364934,11.308140730129757
618,1790598058.4433107,0.6516897022480868,0.6996389708227041,-0.1837810905612241,0.9736373281453035,5.66673572855678,9.459192722822461,-2.616536728250284,11.332893947932366
619,1790598058.4633107,0.6325295459980868,0.733169244260204,-0.2460515983737241,0.9990856601672796,5.680939871024114,9.473096082182028,-2.6206879647623835,11.352560619045132
620,1790598058.4884603,0.6325295459980868,0.690058892697704,-0.2221014030612241,0.9620831228087786,5.6985082652678045,9.490641323319004,-2.6260080874806966,11.377222317100506
621,1790598058.5084603,0.6181594288105867,0.714009088010204,-0.1502508171237241,0.9562977388004956,5.712259738677607,9.504607214562887,-2.630162778165898,11.396719960799572
622,1790598058.5185077,0.6373195850605867,0.7619094786352041,-0.1885711296237241,1.0110595324032776,5.719077919575352,9.511683069316456,-2.6321922212186286,11.406507044259408
623,1790598058.5385077,0.6612697803730867,0.7810696348852041,-0.23168148118622411,1.049296814871283,5.732561975520543,9.525969686581044,-2.6362563611238428,11.426119764574974
624,1790598058.5632617,0.6516897022480868,0.728379205197704,-0.2556316764987241,1.0102392234565967,5.749185429440603,9.543802266561162,-2.641436754429231,11.45052326022526
625,1790598058.5832617,0.6373195850605867,0.7427493223852041,-0.2221014030612241,1.003584497014199,5.7625351936918925,9.55825558365745,-2.645711018130193,11.470259301886422
626,1790598058.608165,0.6564797413105867,0.7187991270727041,-0.2029412468112241,0.994395789154897,5.779080956236028,9.576282649739039,-2.651028733268188,11.494821417970634
627,1790598058.628165,0.6852199756855867,0.733169244260204,-0.1933611686862241,1.0219843919372433,5.79238830113171,9.59076659431696,-2.655253270710227,11.514553227519121
628,1790598058.638289,0.6995900928730867,0.6996389708227041,-0.1933611686862241,1.0081217828693758,5.799165522827257,9.598086515324539,-2.657364595792099,11.524546503519018
629,1790598058.658289,0.7091701709980868,0.675688775510204,-0.2077312858737241,1.0013141065193705,5.81265884904852,9.612440983666193,-2.6615115327119656,11.544248273432373
630,1790598058.683331,0.6995900928730867,0.6661086973852041,-0.2077312858737241,0.9880685107365472,5.829665509266425,9.630238381034903,-2.6667053725397345,11.568829187494325
631,1790598058.703331,0.6756398975605867,0.7235891661352041,-0.2125213249362241,1.0125393158176963,5.8432734481031305,9.644404819365455,-2.6708616270531795,11.588437804120616
632,1790598058.7435107,0.6564797413105867,0.7619094786352041,-0.2125213249362241,1.027928508184315,5.8705252260586995,9.673072517991823,-2.679239871454664,11.627971648439491
633,1790598058.7635107,0.6564797413105867,0.7044290098852041,-0.2221014030612241,0.9881876916663292,5.884024850133738,9.687401284286626,-2.6834366276726547,11.64767462691694
634,1790598058.773355,0.6804299366230867,0.7044290098852041,-0.2747918327487241,1.0172097521977213,5.890659937970645,9.694436392463254,-2.6855593478859823,11.657366790289565
635,1790598058.793355,0.6277395069355867,0.7427493223852041,-0.2700017936862241,1.0092742011293026,5.904080226872617,9.708755983801577,-2.6900422321852675,11.677090103672723
636,1790598058.8026965,0.5989992725605867,0.747539361447704,-0.2125213249362241,0.9812138090112682,5.910267725358297,9.715485163162207,-2.6921600574086897,11.68630148146725
637,1790598058.8226964,0.6421096241230867,0.7044290098852041,-0.1742010124362241,0.9689535551785473,5.923389636111801,9.72990913464388,-2.6965942406572982,11.705951351700092
638,1790598058.8783054,0.6421096241230867,0.757119439572704,-0.1550408561862241,1.0047747420478554,5.95975781306844,9.77009416370358,-2.7084470799748432,11.760490582585803
639,1790598058.8983054,0.6373195850605867,0.7858596739477041,-0.1310906608737241,1.0202629278805047,5.97279491355137,9.784693422058032,-2.7124997572203955,11.780159564960549
640,1790598058.8929033,0.6660598194355867,0.771489556760204,-0.1933611686862241,1.0374104109812687,5.97279491355137,9.784693422058032,-2.7124997572203955,11.780159564960549
641,1790598058.9129033,0.6852199756855867,0.675688775510204,-0.23647152024872412,0.9909593918611285,5.985902943565856,9.799397770022841,-2.716486240637005,11.799937635449146
642,1790598058.9229512,0.6516897022480868,0.6804788145727041,-0.2173113639987241,0.9669411119719021,5.992508039720068,9.80669906515134,-2.7185305831374977,11.809822508911967
643,1790598058.9429512,0.6468996631855867,0.675688775510204,-0.2077312858737241,0.9582206336282136,6.005631031809808,9.821086318029371,-2.7226269533984238,11.829371838089807
644,1790598058.983542,0.6421096241230867,0.7235891661352041,-0.1837810905612241,0.9847139381503669,6.032193764871365,9.85016573051385,-2.730885522875638,11.868903162238462
645,1790598059.003542,0.7043801319355867,0.714009088010204,-0.2412615593112241,1.0315849398028458,6.045338344638089,9.864500993717112,-2.7349818915598387,11.888423844368845
646,1790598059.0133357,0.6852199756855867,0.7187991270727041,-0.2125213249362241,1.0155608862651642,6.051830286066738,9.871520277151502,-2.7370202621008275,11.898018419414148
647,1790598059.0333357,0.6421096241230867,0.757119439572704,-0.1933611686862241,1.011396636699015,6.0650899758967025,9.885918209286537,-2.7411672842606216,11.917663082027724
648,1790598059.0436523,0.6277395069355867,0.747539361447704,-0.2173113639987241,1.0000481060450845,6.071886311600626,9.893395297555537,-2.7433033286281825,11.92781568635094
649,1790598059.0636523,0.6181594288105867,0.733169244260204,-0.23168148118622411,0.9865771783703251,6.084954340222168,9.907937302455226,-2.7474966477439438,11.947494663791925
650,1790598059.08816,0.5989992725605867,0.757119439572704,-0.2221014030612241,0.9906356583268955,6.100802985988877,9.925823248990758,-2.7526984187592496,11.971596085263482
651,1790598059.10816,0.6037893116230867,0.733169244260204,-0.1694109733737241,0.9647791205549548,6.113600693687877,9.94046539468445,-2.756893932450622,11.991223034351544
652,1790598059.1333253,0.5846291553730867,0.709219048947704,-0.1646209343112241,0.9337467326400852,6.129531208618972,9.958847928413718,-2.7620115995010033,12.015761023525819
653,1790598059.1533253,0.6037893116230867,0.714009088010204,-0.1885711296237241,0.9539022913899575,6.142075410532327,9.973400762166893,-2.765998536009814,12.035138595490517
