imu_index,t_imu,ax,ay,az,mag,vx,vy,vz,velocity
0,1791618143.3183627,0.03531479779411766,-0.019488884420955855,-0.08485882927389612,0.09395729064287157,0.0,0.0,0.0,0.0
1,1791618143.3383627,-0.07006606158088234,0.052361701516544144,-0.02258832146139612,0.09033954304515286,-7.100521721055356e-06,2.446087467893353e-05,-0.00026936547653997424,0.00027056701896272775
2,1791618143.3968983,-0.07964613970588234,0.07631189682904414,0.06363238166360388,0.12734242483900704,-0.0006820266902471396,0.0006502125049479439,-0.0007592929778605568,0.0012101497981772751
3,1791618143.4168983,0.011364602481617659,0.03320154526654415,0.03489214728860388,0.04948695525147205,-0.000980461899949833,0.000996214174818545,-0.0007537917553219301,0.0015880649324740937
4,1791618143.4069173,0.07363511029411766,-0.009908806295955856,-0.07048871208639612,0.10241568454995795,-0.000980461899949833,0.000996214174818545,-0.0007537917553219301,0.0015880649324740937
5,1791618143.4269173,0.06884507123161766,-0.033859001608455855,-0.12317914177389612,0.1451178031495844,-0.0008739867400560028,0.0012102469459188375,-0.0010857042026182083,0.0018458884331081422
6,1791618143.4374313,0.08321518841911767,0.023621467141544145,0.01573199103860388,0.08792176542578645,-0.0007065013508652859,0.0012978138771586204,-0.001318745675969241,0.001980544161690805
7,1791618143.4574313,0.04489487591911766,0.06673181870404415,0.11153277228860389,0.13750725364766747,-0.0002435314884382245,0.0015749295097984134,-0.0015046504427424674,0.002191730709174809
8,1791618143.5058842,-0.022165670955882344,0.11463220932904415,0.1402730066636039,0.18250582670980592,0.0007924355117332018,0.0028046497556198403,-0.0009724213600189784,0.003072396067139693
9,1791618143.5258842,-0.04611586626838234,-0.024278923483455856,0.1259028894761039,0.1362632629347722,0.0010534887378687739,0.003371634514934424,-0.00038642202858607934,0.003553460258296132
10,1791618143.5274303,-0.04132582720588234,-0.10570958754595586,0.05884234260110388,0.12784663537290386,0.001060503047570987,0.0033938181892588567,-0.0003264920957502652,0.003570611390817967
11,1791618143.5474303,0.02094468060661766,-0.12965978285845586,-0.08006879021139612,0.15382246293221194,0.0011070542598542114,0.003284675765450659,0.0003006027264195345,0.0034792277904056646
12,1791618143.5654848,0.0017845243566176577,-0.029068962545955857,-0.14233929802389614,0.14528821312347767,0.0011735510738224526,0.0029859965630253255,0.0004806230741093575,0.003244132570755273
13,1791618143.5854847,-0.06527602251838234,0.028411506204044146,-0.07048871208639612,0.10018398740418373,0.0011409268769706467,0.002703776020864707,0.00033088733034823627,0.0029532364170485846
14,1791618143.6255348,-0.10838637408088235,0.06673181870404415,0.03968218635110388,0.13332448247622833,0.0005637575103608708,0.0025091875400439084,-1.651722534036157e-05,0.00257179265500406
15,1791618143.6455348,-0.14191664751838234,0.11463220932904415,0.06363238166360388,0.1932096225727309,-5.668699070403066e-05,0.002698636604508908,-9.007878832157347e-06,0.0026992469468337834
16,1791618143.6469543,-0.07964613970588234,0.07152185776654414,0.006151912913603881,0.10722280420191996,-0.00011770769667439788,0.0027298852414454414,-1.1251928983774405e-06,0.002732421965834905
17,1791618143.6669543,-0.022165670955882344,-0.029068962545955857,0.006151912913603881,0.03706976645352917,-0.0010011887033485173,0.0031677876818186077,0.00011173092182663858,0.003324115132736323
18,1791618143.682965,0.011364602481617659,-0.09612950942095586,0.025312069163603883,0.10005367367779106,-0.0016153304240736194,0.0033154226883290476,0.0002263069411272674,0.0036949336682580987
19,1791618143.702965,0.04010483685661766,-0.04822911879595586,0.020522030101103882,0.06599696628331453,-0.002190212715187234,0.0032556415661553276,0.0004167131062372388,0.0039458691764877405
20,1791618143.7375085,0.02094468060661766,0.03320154526654415,0.025312069163603883,0.046708918839368056,-0.0028760329755187063,0.0031289439654816195,0.0008149938557291604,0.00432736305390143
21,1791618143.7575085,-0.012585592830882343,0.10026209214154415,0.049262264476103886,0.11241732503852711,-0.0032010087506090658,0.0032667872319245236,0.0011228621246324646,0.004709477167486326
22,1791618143.7735052,0.016154641544117658,0.09068201401654415,0.044472225413603884,0.10228381564428478,-0.00341766486179175,0.0035895869690064776,0.0014446276478285878,0.005162607553984506
23,1791618143.7935052,0.02094468060661766,0.009251349954044145,0.025312069163603883,0.034131627078539416,-0.0035922603963697932,0.0040825321351875225,0.0018912501747841563,0.005757450009664588
24,1791618143.7975087,0.03531479779411766,-0.04822911879595586,-0.03695843864889612,0.07027879502693582,-0.0036050751043496575,0.004154703103413877,0.0019637459926429867,0.005840755320088317
25,1791618143.8175087,0.030524758731617658,0.0044613108915441445,-0.04653851677389612,0.05583455680856336,-0.0035607303709248492,0.004395507728854402,0.002146336347745027,0.006050293272767598
26,1791618143.8620558,0.030524758731617658,0.018831428079044147,-0.056118594898896125,0.06660090294092183,-0.0032728062475895436,0.004929233512358536,0.0021490454391398252,0.006294998018514963
27,1791618143.8820558,0.0017845243566176577,0.023621467141544145,-0.027378360523896122,0.03620404483030653,-0.003114465238743172,0.005196592350205893,0.0020248339644517535,0.006387833620340732
28,1791618143.8910785,-0.04132582720588234,-0.005118767233455856,-0.0034281652113961193,0.04178250936644869,-0.003080504636127213,0.005311636123205992,0.001956356247514242,0.006444401980458391
29,1791618143.9110785,-0.012585592830882343,0.028411506204044146,-0.0034281652113961193,0.03126280774984586,-0.0030973854232231196,0.005563332878570797,0.0018170506883722088,0.006621641970228819
30,1791618143.9220705,-0.055695944393382345,0.018831428079044147,0.006151912913603881,0.05911435475299986,-0.0031615630514565075,0.005719863436416434,0.0017542178121184215,0.006766801223025702
31,1791618143.9420705,-0.04132582720588234,-0.005118767233455856,0.010941951976103882,0.0430552213475684,-0.003406350815676483,0.00598251799758638,0.0016826830935283098,0.007086971840225612
32,1791618143.9875813,-0.012585592830882343,-0.029068962545955857,0.010941951976103882,0.03351310256377802,-0.0040638379035477104,0.006373853710749644,0.0016190164567848563,0.007730588846891823
33,1791618144.0075812,-0.050905905330882344,0.028411506204044146,0.049262264476103886,0.07632427912304708,-0.0044046712146080785,0.006519046133723861,0.0016855408120886553,0.008046125703196136
34,1791618144.0075798,-0.07006606158088234,0.023621467141544145,0.010941951976103882,0.074745923022078,-0.0044046712146080785,0.006519046133723861,0.0016855408120886553,0.008046125703196136
35,1791618144.0275798,-0.04132582720588234,0.023621467141544145,-0.04174847771139612,0.06331455674162485,-0.004972250066400448,0.006761153970912729,0.0017641552170339662,0.008576054883861015
36,1791618144.0761046,-0.07485610064338234,0.03320154526654415,0.006151912913603881,0.08211957406194416,-0.006565601037434317,0.0074672546297162076,0.0017967334973419372,0.010104219907951692
37,1791618144.0961046,-0.050905905330882344,-0.014698845358455856,0.03489214728860388,0.06344232967694505,-0.007312451403649877,0.00774238083720621,0.0018697128596701518,0.010812596022079754
38,1791618144.098111,-0.017375631893382343,0.028411506204044146,0.044472225413603884,0.055559923521502075,-0.007386407926056539,0.0077679035332112395,0.0018878777378734033,0.010884090669621625
39,1791618144.118111,0.0017845243566176577,0.009251349954044145,-0.0034281652113961193,0.0100261817192878,-0.008036452831584212,0.008040660074387175,0.002103360837438267,0.011561181399778781
40,1791618144.1336267,0.016154641544117658,0.0044613108915441445,-0.02258832146139612,0.028126642258423085,-0.008444231401547639,0.008236479045321973,0.002215180197318607,0.012002152070920601
41,1791618144.1536267,0.02573471966911766,0.06673181870404415,0.03010210822610388,0.07759863622289737,-0.00882818244918416,0.008557818864776804,0.0023489664172792646,0.012517616079266802
42,1791618144.1956286,0.06405503216911766,0.0044613108915441445,0.020522030101103882,0.06740997077976167,-0.009230716814097331,0.00935570663133604,0.002747259694777077,0.013426943632272797
43,1791618144.2156286,0.016154641544117658,-0.033859001608455855,0.03489214728860388,0.05123344977404874,-0.009273325225770453,0.009634549310538698,0.002991587140324138,0.013702871771211503
44,1791618144.2166328,-0.017375631893382343,-0.019488884420955855,0.044472225413603884,0.05157041819595898,-0.009275235685741628,0.009642432162714095,0.003007992318173658,0.013713296934901902
45,1791618144.2366328,-0.007795553768382342,-0.009908806295955856,0.044472225413603884,0.04622481945886766,-0.009345333766871104,0.00973178101459643,0.0034191249252795795,0.01391880886372641
46,1791618144.2471716,-0.012585592830882343,0.03799158432904415,0.001361873851103881,0.040045128631606995,-0.00939284019349859,0.009793997319881353,0.00363949905890845,0.014049689811602293
47,1791618144.2671716,-0.08922621783088235,0.10505213120404415,0.006151912913603881,0.13796780150242424,-0.009622189564596238,0.010108922741885656,0.0040062514577722105,0.014519879536736512
48,1791618144.3111453,-0.11796645220588235,0.08589197495404415,0.03489214728860388,0.15003658603806772,-0.010734143668912966,0.011327220312840721,0.00482703330623595,0.016334871008367557
49,1791618144.3311453,-0.07006606158088234,0.052361701516544144,0.001361873851103881,0.08748060054406336,-0.011446067493592602,0.01200558775034723,0.005198724021113701,0.017383133484699165
50,1791618144.3416681,-0.07006606158088234,0.057151740579044145,-0.03216839958639612,0.09597072662338453,-0.011875049059901919,0.012395397521282301,0.005340639083201794,0.0179773495182886
51,1791618144.361668,-0.09401625689338235,0.06194177964154415,-0.04174847771139612,0.12007820791726954,-0.012814205552862445,0.013203787610357664,0.005459032131639449,0.01919231364439205
52,1791618144.3976674,-0.08922621783088235,-0.014698845358455856,-0.03216839958639612,0.09598010176711586,-0.01474583337685069,0.01456815494669329,0.00544059845920967,0.021430605500616696
53,1791618144.4176674,-0.031745749080882346,-0.04822911879595586,-0.04653851677389612,0.07415978713598749,-0.015839465652793074,0.015118059613604408,0.00531383324608,0.022531782495258855
54,1791618144.4266827,-0.026955710018382345,0.018831428079044147,-0.01300824333639612,0.035361665413130995,-0.01629818348290517,0.015308879210032699,0.005225000469543535,0.022962865618570878
55,1791618144.4466827,-0.017375631893382343,0.03320154526654415,0.010941951976103882,0.039038205707077125,-0.017229674040699115,0.01574675269754221,0.0050543911222371155,0.02388239430381391
56,1791618144.462204,-0.017375631893382343,0.03799158432904415,0.044472225413603884,0.06101681650793979,-0.017884590612974215,0.01611847397270675,0.005006355206013058,0.024591205278539814
57,1791618144.482204,-0.017375631893382343,0.04757166245404415,0.06363238166360388,0.08132684457495196,-0.018654027206021263,0.016653953468875972,0.005115899717346954,0.02552448485404589
58,1791618144.4871988,-0.026955710018382345,0.03799158432904415,0.05405230353860389,0.0713556045469125,-0.018833972050473102,0.016799679496984698,0.0051832405321568156,0.025764582605072476
59,1791618144.5071988,-0.017375631893382343,0.009251349954044145,0.03489214728860388,0.04006197701157727,-0.019512909345434228,0.017366520802419145,0.005545850821136226,0.026704047207011312
60,1791618144.5507565,-0.031745749080882346,0.023621467141544145,0.020522030101103882,0.04457488097680134,-0.02093023004455783,0.01852324803598973,0.006398143904825644,0.02867266107196481
61,1791618144.5707564,-0.04132582720588234,0.03320154526654415,0.006151912913603881,0.053366774633974184,-0.021592999201081455,0.019059938118317955,0.006770793723769802,0.02958686369356939
62,1791618144.5817275,-0.026955710018382345,0.06194177964154415,-0.01779828239889612,0.06985823662323282,-0.021958213277461794,0.019388467882517763,0.006934966502511668,0.030102650673335746
63,1791618144.6017275,-0.055695944393382345,0.03799158432904415,-0.01300824333639612,0.06866304025019941,-0.022648100233368662,0.020047433993569702,0.007143147145232449,0.031078297975366834
64,1791618144.6087406,-0.055695944393382345,0.03320154526654415,0.025312069163603883,0.06960662091568721,-0.02291231541841255,0.020281289235183148,0.007211668276316557,0.03143744662343957
65,1791618144.6287405,-0.04611586626838234,0.0044613108915441445,0.025312069163603883,0.05279467077174931,-0.023705500837162802,0.020904657634446332,0.007453702288723763,0.032473268368968765
66,1791618144.6723087,-0.017375631893382343,0.0044613108915441445,-0.04653851677389612,0.049876341306069626,-0.02538166607311679,0.02208807180510076,0.007832504202380915,0.03454649057132735
67,1791618144.6923087,-0.060485983455882346,0.04278162339154415,-0.051328555836396124,0.09013014001371142,-0.026152486432760542,0.022620696139335598,0.007833509612536507,0.03545436945277096
68,1791618144.706275,-0.060485983455882346,0.023621467141544145,0.010941951976103882,0.06585024083169086,-0.02673673670226703,0.023006401085809813,0.0077918024697033106,0.03612284271945355
69,1791618144.726275,-0.06527602251838234,-0.014698845358455856,0.044472225413603884,0.08034173264207434,-0.027636536351885524,0.023489269946893064,0.007824157194540273,0.037104465768583436
70,1791618144.7328196,-0.08443617876838234,0.018831428079044147,0.020522030101103882,0.0889114429529352,-0.027960296804569837,0.023625606124949818,0.007865058567068609,0.037440707905090735
71,1791618144.7528195,-0.12275649126838235,0.07631189682904414,-0.02258832146139612,0.14629727958036157,-0.02911207363468321,0.02412246276628478,0.007968203018431206,0.038638042141973875
72,1791618144.7928133,-0.04611586626838234,0.10984217026654415,-0.03695843864889612,0.12473131795147527,-0.031576328885029696,0.025525363280938993,0.007964908986343998,0.04137690770998013
73,1791618144.8128133,-0.012585592830882343,0.03320154526654415,0.006151912913603881,0.036035895819137104,-0.032711851799984,0.026336253782173136,0.007917299061183977,0.04273578285099467
74,1791618144.8168194,-0.031745749080882346,0.07631189682904414,0.044472225413603884,0.09385668338265217,-0.03291850739270041,0.026507221679645157,0.007924403509375896,0.043000663961345185
75,1791618144.8368194,-0.017375631893382343,0.06194177964154415,0.049262264476103886,0.08102757154308368,-0.03386912710698107,0.02744009988922991,0.00809515265400562,0.04433518184705471
76,1791618144.847366,-0.022165670955882344,0.057151740579044145,0.049262264476103886,0.07864101424481003,-0.03432650489035212,0.027952451226899832,0.008249621345408437,0.04503004241528316
77,1791618144.867366,-0.050905905330882344,0.06194177964154415,0.044472225413603884,0.09168409947181007,-0.03517335000687349,0.028956939936762353,0.008639207857764376,0.0463713794664009
78,1791618144.9063652,-0.050905905330882344,0.03799158432904415,0.049262264476103886,0.08038371961225255,-0.03687475656432962,0.030914140512857596,0.009559099815740308,0.049059230982706606
79,1791618144.9263651,-0.07485610064338234,-0.0003287281709558557,0.05405230353860389,0.09233198461839719,-0.03780505492487094,0.031823792753643304,0.010115059135781215,0.050440959392340064
80,1791618144.9369793,-0.055695944393382345,0.028411506204044146,-0.01300824333639612,0.06386287107038072,-0.03832864195049246,0.032256494407028144,0.010398527154090476,0.051163420450298716
81,1791618144.9569793,-0.08443617876838234,0.03320154526654415,-0.051328555836396124,0.10424217734363878,-0.03937743419894471,0.033041943147908884,0.010756033782946288,0.052517088588589375
82,1791618144.9669726,-0.14670668658088235,0.08589197495404415,-0.01779828239889612,0.17092999182530327,-0.03999611459820282,0.03346479644389568,0.010856062200132788,0.05326758742872722
83,1791618144.9869726,-0.11317641314338235,0.03320154526654415,-0.0034281652113961193,0.11799574321476422,-0.04143839814779588,0.03436276736261955,0.010994384463734078,0.054943763172985896
84,1791618145.0269887,-0.06527602251838234,0.018831428079044147,0.001361873851103881,0.06795172183030311,-0.044426847742191224,0.03604609869353703,0.011223426239449427,0.05830121206188098
85,1791618145.0469887,-0.050905905330882344,0.04757166245404415,0.01573199103860388,0.07142807437021512,-0.04587069697082876,0.0368608292008712,0.011346370328811054,0.059929806353799624
86,1791618145.0567641,-0.07485610064338234,0.06673181870404415,0.03968218635110388,0.10784826074019618,-0.046562754257194125,0.03728311515494932,0.011438075235437753,0.060736729618613775
87,1791618145.076764,-0.050905905330882344,0.052361701516544144,0.05405230353860389,0.09085598770083228,-0.04795492455864094,0.03819613485595548,0.01173815694953968,0.06242118098795719
88,1791618145.08721,-0.022165670955882344,0.04278162339154415,0.025312069163603883,0.054426878601325564,-0.048630223257860275,0.03867600727941523,0.011933554751754548,0.06327038708748223
89,1791618145.10721,-0.031745749080882346,0.057151740579044145,0.010941951976103882,0.06628604942948454,-0.0498100995245052,0.03960687153996198,0.012305934248734374,0.06481655888396373
90,1791618145.146466,-0.07485610064338234,0.08589197495404415,0.044472225413603884,0.12230554361220397,-0.052092446108319444,0.04158106246545987,0.01309035768348515,0.06792617434823059
91,1791618145.166466,-0.07006606158088234,0.057151740579044145,0.03968218635110388,0.09874335598041062,-0.05329820697577153,0.04265055782575171,0.013556286376108138,0.06959555912550043
92,1791618145.177474,-0.060485983455882346,-0.019488884420955855,0.020522030101103882,0.066779671533104,-0.053970095924390234,0.04318200663542174,0.01382397185351053,0.07048800712856153
93,1791618145.197474,-0.03653578814338235,-0.024278923483455856,0.025312069163603883,0.0506461329828516,-0.05515324436841161,0.04393708547979232,0.014306116720033662,0.0719514615586614
94,1791618145.2067766,-0.06527602251838234,0.03320154526654415,0.025312069163603883,0.07748549909015108,-0.055692049499785214,0.04424183991061844,0.014532058537022843,0.07259563004401005
95,1791618145.2267766,-0.08443617876838234,0.057151740579044145,-0.008218204273896119,0.10229041312707692,-0.056901252273153013,0.04493429050711727,0.014970594690778938,0.07403351726769834
96,1791618145.2667265,-0.10359633501838235,0.052361701516544144,-0.01300824333639612,0.11680395031696261,-0.05951771486388126,0.046438111843803774,0.01565157342158717,0.07709622795446762
97,1791618145.2867265,-0.11796645220588235,0.0044613108915441445,0.001361873851103881,0.11805863730070772,-0.06096344895797064,0.04716327134261101,0.015923882560215128,0.07870505897576957
98,1791618145.296744,-0.12275649126838235,-0.0003287281709558557,-0.0034281652113961193,0.12280479032778582,-0.06175983056421891,0.0474751127762953,0.016038265677709575,0.07953231400123967
99,1791618145.316744,-0.07006606158088234,0.04757166245404415,-0.01779828239889612,0.08653955691155557,-0.0634005284608638,0.0480751738859704,0.016200534870345618,0.08119917908063096
100,1791618145.3267283,-0.03653578814338235,0.07152185776654414,0.001361873851103881,0.0803249317087927,-0.06417655332854665,0.048418978062012175,0.01625708286043353,0.08202024248216051
101,1791618145.3467283,-0.03653578814338235,0.03320154526654415,0.044472225413603884,0.0664453554176881,-0.06560748204755054,0.04916145126196534,0.01642211703453109,0.08361145805867816
102,1791618145.3872924,-0.055695944393382345,0.03799158432904415,0.049262264476103886,0.08349951738192993,-0.06835496326196715,0.05065804708483201,0.016991800555184036,0.08676035974511105
103,1791618145.4072924,-0.031745749080882346,0.018831428079044147,0.044472225413603884,0.05779441237213983,-0.06963756702340912,0.051370489562792505,0.017371150707350177,0.08826140048604625
104,1791618145.4162817,-0.0030055147058823425,0.014041389016544146,-0.0034281652113961193,0.014762995660699363,-0.07015101132863975,0.05166483897486721,0.017543752226933,0.08887183591515321
105,1791618145.4362817,-0.04132582720588234,-0.024278923483455856,-0.027378360523896122,0.05519841252012944,-0.07118849731480559,0.052206135179963885,0.017823954094190103,0.09006095735622924
106,1791618145.476803,-0.055695944393382345,-0.009908806295955856,-0.02258832146139612,0.06091350367960195,-0.07327007385850139,0.053034434028727186,0.01815465273253958,0.09225370633105627
107,1791618145.496803,-0.07485610064338234,-0.033859001608455855,0.025312069163603883,0.0859684165190721,-0.07433918800512207,0.053316279573764565,0.018297476740514775,0.09329382721229947
108,1791618145.5068276,-0.07485610064338234,0.018831428079044147,0.044472225413603884,0.08908331673364432,-0.07490723711004618,0.05342505973955607,0.01841079270480894,0.09383117002177507
109,1791618145.5268276,-0.050905905330882344,0.06194177964154415,-0.01779828239889612,0.08212779139286057,-0.07605919778463739,0.05373069270390201,0.018642968817668488,0.09497130720602037
110,1791618145.5364246,0.011364602481617659,0.028411506204044146,-0.06090863396139612,0.06816325671056926,-0.07655751542879347,0.05392038738688488,0.018681016138866902,0.09548529577145524
111,1791618145.5564246,0.011364602481617659,-0.024278923483455856,-0.03216839958639612,0.041873932786767765,-0.07740612835430831,0.05426260640138342,0.018608796740577103,0.09634535005077942
112,1791618145.5964231,0.0017845243566176577,0.03320154526654415,0.03010210822610388,0.04485157806501141,-0.07880927280259044,0.05487112480273942,0.01847982950771229,0.09779184994377108
113,1791618145.6164231,-0.017375631893382343,0.07631189682904414,0.049262264476103886,0.09247804540892185,-0.07942901715954653,0.05529402437912187,0.018544062918997677,0.09854075384587946
114,1791618145.6274269,-0.022165670955882344,0.052361701516544144,-0.008218204273896119,0.057450880203175236,-0.07975147888290439,0.055597988948987986,0.018607975097338973,0.0989832889754898
115,1791618145.6474268,0.011364602481617659,0.014041389016544146,-0.01300824333639612,0.022260484940315448,-0.08026586088111869,0.05616719711516548,0.01867487522279282,0.0997302031450244
116,1791618145.655943,-0.0030055147058823425,-0.05301915785845586,0.010941951976103882,0.05421983522397039,-0.08044669394084035,0.05634831727965382,0.018697768864852946,0.09998204832260259
117,1791618145.675943,-0.012585592830882343,-0.08175939223345587,0.020522030101103882,0.08522997761796874,-0.08083106374680211,0.056507705939502446,0.01879066561462768,0.10039855980653117
118,1791618145.716891,0.030524758731617658,-0.04343907973345586,0.006151912913603881,0.053446801365559474,-0.08144488862860043,0.05640059126859668,0.019034252307285084,0.10087913233206271
119,1791618145.736891,0.04489487591911766,0.04278162339154415,0.025312069163603883,0.06698147526855432,-0.08158659405460977,0.056355135492240305,0.019182575382013532,0.1009962614360902
120,1791618145.7474718,-0.0030055147058823425,0.09547205307904415,0.049262264476103886,0.10747426082131807,-0.08161707499365976,0.056444407140322964,0.019308452907082503,0.10109468028342661
121,1791618145.7674718,0.030524758731617658,0.04278162339154415,0.025312069163603883,0.05833291558787759,-0.08162476945266736,0.056795218928230445,0.01962255990706703,0.10135750953241285
122,1791618145.7794032,0.04968491498161766,-0.033859001608455855,-0.01300824333639612,0.06151615366187068,-0.08155689505951146,0.056981095072461276,0.01979284926655341,0.1014402741000513
123,1791618145.7994032,0.04010483685661766,-0.029068962545955857,-0.03216839958639612,0.05906105700666178,-0.08132550257037771,0.0571515410649361,0.01996771403725279,0.10138464192517074
124,1791618145.837278,0.04489487591911766,-0.06738927504595586,-0.051328555836396124,0.09587223226389638,-0.08071158519351927,0.0571519044260521,0.0200120080498401,0.10090183660450476
125,1791618145.8572779,0.016154641544117658,-0.029068962545955857,-0.01300824333639612,0.03570982248088067,-0.08034445540082237,0.05700738030156914,0.019935384223308532,0.10051115593123684
126,1791618145.8672354,0.011364602481617659,-0.024278923483455856,0.010941951976103882,0.028954216068269888,-0.08016853558560715,0.056906377141889126,0.019901414158430365,0.10030651096943335
127,1791618145.8872354,0.02094468060661766,0.009251349954044145,0.020522030101103882,0.03074769651788622,-0.07981973342929888,0.056711398633333236,0.019890614852895633,0.09991500957763752
128,1791618145.897237,0.03531479779411766,0.009251349954044145,-0.01300824333639612,0.038754829555947015,-0.07962926616192649,0.056642398265125654,0.0198916606572511,0.09972391626092143
129,1791618145.917237,0.05926499310661766,-0.024278923483455856,-0.0034281652113961193,0.06413702402013653,-0.07916365628638705,0.05650257587378176,0.019868783638681768,0.09926829363035532
130,1791618145.9568238,0.06884507123161766,-0.005118767233455856,-0.0034281652113961193,0.06912017019360873,-0.07799993577955419,0.05618005111039151,0.019809937926222203,0.09814592077626842
131,1791618145.9768238,0.04010483685661766,0.014041389016544146,0.020522030101103882,0.047188052134840855,-0.07733676776194091,0.05605493133263788,0.019810308240235244,0.09754783076595944
132,1791618145.9868212,0.07363511029411766,0.057151740579044145,-0.02258832146139612,0.09590976585147418,-0.07696971276479404,0.05605515016596155,0.019808916271802857,0.09725692626793576
133,1791618146.0068212,0.006574563419117658,0.04757166245404415,-0.051328555836396124,0.07029159691629967,-0.07622524118192263,0.056212607234944326,0.019695674094497635,0.09673708794164239
134,1791618146.0178607,-0.03653578814338235,0.014041389016544146,-0.03695843864889612,0.053832616582665416,-0.07590075750588168,0.05633749606106126,0.019569444951779962,0.09652876062665207
135,1791618146.0378606,-0.055695944393382345,-0.005118767233455856,-0.01300824333639612,0.057423465539445925,-0.07553942477921623,0.05654319927901959,0.01930011171655939,0.09631112289322277
136,1791618146.0773776,-0.03653578814338235,0.028411506204044146,0.025312069163603883,0.05275204588813237,-0.0752059305518894,0.05695770616546723,0.018884240075426658,0.09621188494689036
137,1791618146.0973775,-0.08922621783088235,-0.0003287281709558557,0.049262264476103886,0.1019225034618364,-0.07525110583276762,0.057178149081184064,0.018817195569728957,0.0963647057304381
138,1791618146.106374,-0.07485610064338234,0.06194177964154415,0.049262264476103886,0.10893571760450016,-0.07537909097799252,0.057304008235690075,0.018858039128531127,0.0965473063131112
139,1791618146.126374,-0.012585592830882343,0.06194177964154415,0.05405230353860389,0.08316749803796998,-0.07575209729009337,0.05772765996971082,0.01909018983200859,0.0971354637465043
140,1791618146.1369398,-0.022165670955882344,0.057151740579044145,0.07800249885110389,0.09920699696672242,-0.07594713196660581,0.0580122722151558,0.01929908040435094,0.09749792349569286
141,1791618146.1569397,0.011364602481617659,0.03799158432904415,0.03968218635110388,0.05609982694269028,-0.07627713843343188,0.0586129195377156,0.019811705859544282,0.09821496766477478
142,1791618146.1969411,0.016154641544117658,0.10026209214154415,0.020522030101103882,0.10360797886016808,-0.07675560888453334,0.06004883197037491,0.020863819235680668,0.0996623533203031
143,1791618146.216941,-0.0030055147058823425,0.07152185776654414,0.001361873851103881,0.0715979326336408,-0.0769392278826966,0.06091674860944014,0.021343777254453158,0.10042933772468558
144,1791618146.226992,-0.007795553768382342,-0.014698845358455856,0.020522030101103882,0.026419319311786843,-0.07702580419133132,0.06133032003614889,0.02156529156156376,0.10079406960329071
145,1791618146.2469919,0.02094468060661766,0.023621467141544145,-0.008218204273896119,0.03262195943102989,-0.07715251659522818,0.062043222999511476,0.0219584189021966,0.10141027806799671
146,1791618146.2565043,0.04968491498161766,0.057151740579044145,-0.02258832146139612,0.07902622662375007,-0.07715335428436651,0.06238906046487833,0.022095373448290965,0.10165254778331265
147,1791618146.2765043,0.04968491498161766,0.028411506204044146,0.044472225413603884,0.07248160659609726,-0.0770057967448928,0.06313546334531203,0.022372955493667555,0.10206139623611178
148,1791618146.31751,0.04489487591911766,0.014041389016544146,0.11153277228860389,0.12104656039594212,-0.07645776963527161,0.06456681013051534,0.023336489891974708,0.10275823698618285
149,1791618146.3375099,0.04010483685661766,-0.014698845358455856,0.049262264476103886,0.06520141636100649,-0.07610307074703573,0.06515922741784261,0.023977141427265626,0.10301604538052098
150,1791618146.347073,-0.08443617876838234,0.04278162339154415,0.05405230353860389,0.10900177568669012,-0.07599070433427688,0.06542014965985374,0.024311627130488938,0.10317673352296569
151,1791618146.367073,-0.08922621783088235,0.07631189682904414,0.06363238166360388,0.13354363909311928,-0.07605145014103279,0.06606261676775929,0.025082750672785623,0.1038134711107906
152,1791618146.3780713,-0.07006606158088234,-0.009908806295955856,0.044472225413603884,0.08357760621664853,-0.07621123952445889,0.06641769644734899,0.025532365993675442,0.10426583881819411
153,1791618146.3980713,-0.20897719439338236,-0.06738927504595586,0.044472225413603884,0.2240324998766639,-0.07687679031718783,0.06685059578106153,0.026360752544564842,0.10523275307845713
154,1791618146.4367201,-0.13233656939338234,-0.033859001608455855,-0.08006879021139612,0.1583363848098329,-0.07895936270038303,0.067268181792624,0.027618259138119362,0.10734224460833891
155,1791618146.45672,-0.04611586626838234,-0.029068962545955857,-0.16628949333639612,0.17499678082541073,-0.08014307618015694,0.06735746827539581,0.027801845771399533,0.10831843712123101
156,1791618146.4667158,-0.050905905330882344,-0.014698845358455856,-0.17586957146139612,0.18367790672381826,-0.08071867354248485,0.06736258700828361,0.027623327681294788,0.10870267070819839
157,1791618146.4867158,-0.11317641314338235,-0.08654943129595585,-0.10401898552389613,0.17640763560309816,-0.08194373241542818,0.06721942032008212,0.026899884197171476,0.10934728858165803
158,1791618146.4967158,-0.13712660845588234,-0.11049962660845586,0.05884234260110388,0.18567793490344164,-0.08265210952359787,0.06701078782510864,0.026558538266539828,0.10966846788616046
159,1791618146.5167158,-0.08443617876838234,-0.06738927504595586,0.010941951976103882,0.10858411020620409,-0.08418869447137463,0.06638927948564423,0.026082926526504603,0.11034306395784234
160,1791618146.5564003,-0.10359633501838235,0.03320154526654415,0.006151912913603881,0.10896049407846799,-0.08733993859835247,0.06523929274927677,0.02533163962840258,0.11192015975262488
161,1791618146.5764003,-0.12275649126838235,-0.06738927504595586,0.09716265510110389,0.17044369183410688,-0.08902939136519387,0.06469538211435186,0.02516477650740587,0.11289371537178915
162,1791618146.6174026,-0.06527602251838234,-0.13444982192095586,0.17380328010110388,0.22922760284114974,-0.09255166090723539,0.06312687473285945,0.02570726757343757,0.11494205434182185
163,1791618146.6374025,0.030524758731617658,-0.11049962660845586,0.1306929285386039,0.173846397564713,-0.09406415860368922,0.06210913087352544,0.026388934083797607,0.11576694655109344
164,1791618146.6174026,0.06405503216911766,0.028411506204044146,0.044472225413603884,0.08299421464299504,-0.09406415860368922,0.06210913087352544,0.026388934083797607,0.11576694655109344
165,1791618146.6374025,0.030524758731617658,0.009251349954044145,-0.0034281652113961193,0.03207959925423458,-0.0948944795199279,0.06132564291181477,0.02716633952742171,0.11620588076867963
166,1791618146.6776268,0.02573471966911766,-0.038649040670955856,0.020522030101103882,0.05076591238916016,-0.09614421723944044,0.059897555202216624,0.02854691048841404,0.11681760880201593
167,1791618146.6976268,0.04010483685661766,-0.07217931410845586,0.010941951976103882,0.083294523454489,-0.09657363409426545,0.05912776075633439,0.029177576506488032,0.11693540894452523
168,1791618146.706612,-0.031745749080882346,-0.07217931410845586,0.10195269416360389,0.12888753941747366,-0.09673198441608039,0.058736512938588066,0.029494491228812873,0.1169486202317251
169,1791618146.726612,-0.12754653033088234,-0.04822911879595586,0.1354829676011039,0.19222330714375632,-0.09727051845818971,0.05781566689888129,0.030450241116419557,0.11718115157368744
170,1791618146.7372048,-0.07006606158088234,-0.07217931410845586,0.020522030101103882,0.10266576883311081,-0.09766995497707141,0.05730545232029874,0.03100444884050092,0.11740788226844238
171,1791618146.7572048,-0.06527602251838234,-0.09133947035845585,-0.03695843864889612,0.11819384141548074,-0.09851401456943937,0.056241342508281396,0.03186922972736595,0.11782931501598895
172,1791618146.7972162,-0.10359633501838235,-0.033859001608455855,0.010941951976103882,0.10953702082953366,-0.10045608793918306,0.054056135755702096,0.03326170612657716,0.11882690146315587
173,1791618146.8172162,-0.08922621783088235,-0.005118767233455856,-0.03695843864889612,0.09671321478349577,-0.10157046659862955,0.053069221919490206,0.03381431463567138,0.11948351298184867
174,1791618146.827231,-0.012585592830882343,-0.019488884420955855,-0.14233929802389614,0.1442175076917281,-0.10212124927743269,0.052630680524388004,0.03391484846719479,0.11978712381970161
175,1791618146.847231,-0.055695944393382345,-0.029068962545955857,-0.16628949333639612,0.17776174616447785,-0.10315862000183887,0.051813423850799026,0.03362256097322849,0.12023646858680109
176,1791618146.8867955,-0.060485983455882346,0.018831428079044147,-0.17107953239889612,0.18243185928983577,-0.10524770823605695,0.05040883048630684,0.03212998974760762,0.12103911153474631
177,1791618146.9067955,-0.026955710018382345,0.04757166245404415,-0.09443890739889613,0.10912552681171307,-0.10627650281630363,0.04990491423645091,0.03109038965575368,0.12145702056595127
178,1791618146.9167945,-0.07006606158088234,0.04757166245404415,0.07800249885110389,0.11513776913382495,-0.10678645813439876,0.04976212087503934,0.030636275633920927,0.12173001971407586
179,1791618146.9367945,-0.08922621783088235,0.04278162339154415,0.1354829676011039,0.16777133175373482,-0.10789240305069213,0.04965487880760514,0.030184436060928525,0.1225458192096623
180,1791618146.9467485,-0.03653578814338235,0.03799158432904415,0.07800249885110389,0.0941414580411067,-0.10845415421691901,0.04966981174565611,0.030152665059090634,0.12303892463737592
181,1791618146.9667485,0.011364602481617659,0.03799158432904415,0.049262264476103886,0.06323990331040734,-0.10945130256612473,0.04980928973785604,0.030289301640682897,0.1240080431725755
182,1791618147.0403304,0.07363511029411766,-0.0003287281709558557,0.001361873851103881,0.07364843671540879,-0.11210053671575777,0.05045331815602055,0.030995973015304944,0.126778618024015
183,1791618147.0603304,0.05447495404411766,-0.009908806295955856,-0.03216839958639612,0.0640352324292616,-0.11252043695437952,0.05058675481413553,0.031113028915783044,0.12723163546596544
184,1791618147.0403304,0.04489487591911766,-0.014698845358455856,-0.07527875114889612,0.08887348487148572,-0.11252043695437952,0.05058675481413553,0.031113028915783044,0.12723163546596544
185,1791618147.0603304,0.04489487591911766,-0.06259923598345586,-0.09922894646139613,0.12562085036069445,-0.11256243396509576,0.05053584106224845,0.030798845520559524,0.12717209464900178
186,1791618147.0668228,0.0017845243566176577,-0.11528966567095586,-0.08485882927389612,0.14316393555444187,-0.11255129252557057,0.05043517349420505,0.030622516538481456,0.12707965491657858
187,1791618147.0868227,-0.031745749080882346,-0.09612950942095586,-0.03695843864889612,0.10777105990749186,-0.11256706098144711,0.049854451714958246,0.0299780816175855,0.1267102795801136
188,1791618147.1273403,-0.031745749080882346,-0.014698845358455856,-0.04653851677389612,0.05822097717397358,-0.11278715332063963,0.048517662634153316,0.028614633753316018,0.12607022965986617
189,1791618147.1473403,-0.10838637408088235,0.023621467141544145,0.010941951976103882,0.11146885712775285,-0.1130896955972472,0.047970169050974516,0.027989176210056085,0.12599131062884725
190,1791618147.1565206,-0.09401625689338235,0.07631189682904414,0.010941951976103882,0.12158243487830182,-0.11334709540909237,0.04782536349829305,0.027760213118233536,0.12611684607454904
191,1791618147.1765206,-0.11317641314338235,0.10984217026654415,0.006151912913603881,0.15783551214274502,-0.11413453402098879,0.04783644513634427,0.02736186276703949,0.12674260875314594
192,1791618147.1875286,-0.13712660845588234,0.03799158432904415,0.049262264476103886,0.15057834481676755,-0.11470958109214165,0.04796368140252572,0.027221247996531344,0.1272784312855335
193,1791618147.2075286,-0.060485983455882346,0.014041389016544146,0.15464312385110388,0.16664396345072643,-0.1158940601426043,0.04823822512895552,0.027309950667387315,0.12846864576769115
194,1791618147.246443,0.02094468060661766,-0.033859001608455855,0.16901324103860388,0.17363924464822997,-0.11796843360002399,0.04863444413897165,0.02840127095696166,0.13072296154356655
195,1791618147.266443,-0.012585592830882343,-0.038649040670955856,0.19775347541360389,0.20188754921948207,-0.11886209620733058,0.04869877258966389,0.029428169658358767,0.1317793061750655
196,1791618147.2774448,-0.007795553768382342,0.052361701516544144,0.2264937097886039,0.23259819220722186,-0.11929677043820813,0.04874016598189272,0.030258386929731193,0.13237406542264354
197,1791618147.2974448,0.04010483685661766,0.10026209214154415,0.2696040613511039,0.29042595434448554,-0.11991996373070551,0.04903306238557933,0.03228538183380253,0.13351923003161853
198,1791618147.306444,-0.14191664751838234,0.04278162339154415,0.16422320197610388,0.22122355708684577,-0.12022702797139366,0.04924162923087147,0.03335343581078464,0.1341332471258674
199,1791618147.326444,-0.22334731158088236,0.028411506204044146,-0.0034281652113961193,0.2251732390669611,-0.12135499047615486,0.0497424170384587,0.03561226118734064,0.1359028142209386
200,1791618147.3670173,0.011364602481617659,0.09547205307904415,-0.09443890739889613,0.13476933753413753,-0.12394507826817391,0.05098293810593064,0.03920950081959891,0.13963891778203896
201,1791618147.3870173,0.10237534466911766,-0.10570958754595586,-0.12796918083639613,0.1950162540384647,-0.1248596991161885,0.05148735239730857,0.04038310994138686,0.14096697304265243
202,1791618147.397017,0.13590561810661766,-0.27815099379595587,-0.07527875114889612,0.3185988116066303,-0.1250696974180709,0.05141383506252955,0.04072944975694259,0.1412257049038457
203,1791618147.417017,0.08321518841911767,-0.11528966567095586,-0.04653851677389612,0.14960717943221924,-0.1250980221466227,0.0506986921872096,0.041135515753666176,0.14110989756502001
204,1791618147.427072,-0.022165670955882344,0.08589197495404415,0.01573199103860388,0.09009019853718442,-0.12506408718960427,0.05037091286981396,0.04128581214970337,0.14100628728098588
205,1791618147.447072,-0.04611586626838234,0.19606287339154416,0.044472225413603884,0.2062646413650929,-0.12510913595360842,0.050239671991655646,0.04163022278803787,0.14110065907099545
206,1791618147.4866002,0.13590561810661766,0.10026209214154415,0.03489214728860388,0.17245372160655426,-0.1249186239143708,0.05089768216214036,0.04244409887414946,0.1414098234896602
207,1791618147.5066001,0.15027573529411767,-0.033859001608455855,-0.08485882927389612,0.1758699790010944,-0.12440741820123313,0.05128027913922309,0.04271917508753953,0.14118002922599573
208,1791618147.5176063,0.05447495404411766,-0.005118767233455856,-0.06090863396139612,0.08187541808835158,-0.12399928315459771,0.05142706831828156,0.04272751982052147,0.14087656486683778
209,1791618147.5376062,0.006574563419117658,0.16253259995404415,-0.0034281652113961193,0.16270163874002613,-0.12327730595805017,0.05188991855024341,0.04264390393958986,0.14038646784727712
210,1791618147.5472105,0.0017845243566176577,0.26791345932904415,0.03968218635110388,0.27084217199402033,-0.12297658844243545,0.052388901808648525,0.04263588800438464,0.14030558536130625
211,1791618147.5672104,0.05926499310661766,0.34455408432904416,-0.01300824333639612,0.3498557857610081,-0.12235272790231706,0.054190829742777856,0.042661710239646836,0.14045233203446914
212,1791618147.607168,0.09279526654411767,0.2631234202665442,-0.07527875114889612,0.28898405866119276,-0.12083759384973786,0.059071953810365556,0.04244098174237409,0.1410406209062648
213,1791618147.627168,0.16464585248161767,0.17211267807904415,-0.11359906364889613,0.2638859184512225,-0.11980681665307687,0.06180148834714533,0.042063756044728694,0.14121776393590418
214,1791618147.6367111,0.11195542279411766,0.13858240464154414,-0.01779828239889612,0.1790415550245059,-0.11919077411852529,0.06313092457478882,0.04181671260623603,0.14121116006121306
215,1791618147.656711,0.08321518841911767,0.13379236557904414,0.001361873851103881,0.15756592071654382,-0.11780061566666421,0.06590771089599165,0.041351980993937686,0.1411764772868261
216,1791618147.6667094,0.11195542279411766,0.17211267807904415,-0.11359906364889613,0.23465195057884408,-0.1170635435386435,0.06731703840005805,0.04107033925856729,0.14114612871627966
217,1791618147.6867094,0.11674546185661766,0.21043299057904416,-0.15191937614889614,0.2845892535525979,-0.11546726076537486,0.07028711303158175,0.040193191108293135,0.14102644850680032
218,1791618147.7267525,-0.022165670955882344,0.33976404526654413,-0.08006879021139612,0.3497741193838207,-0.11246660719703117,0.07699405739479487,0.03800371585842501,0.14149595410319044
219,1791618147.7467525,0.0017845243566176577,0.47388513901654417,-0.06569867302389612,0.47842097063674954,-0.11122327546569243,0.0810619094802603,0.03685554070349412,0.14247800200188845
220,1791618147.7583709,0.03531479779411766,0.48346521714154417,-0.06569867302389612,0.4891851048080478,-0.11057701379121425,0.08390475356094203,0.03617409633972262,0.14344284190959247
221,1791618147.7783709,0.10237534466911766,0.4307747874540442,-0.04174847771139612,0.4447365108616747,-0.10942487000796265,0.08943575593177937,0.035015837761446164,0.14559761505424548
222,1791618147.78636,0.10237534466911766,0.4020345530790442,-0.027378360523896122,0.4157668429427289,-0.10891098706460074,0.09181276135634237,0.03458114273230435,0.1465845888350283
223,1791618147.80636,-0.04611586626838234,0.41640467026654415,-0.04174847771139612,0.4210254837093494,-0.10773311716413742,0.0980983991300419,0.03355247411633713,0.14951752059576912
224,1791618147.8473542,-0.07485610064338234,0.35413416245404417,-0.10401898552389613,0.3766090680931356,-0.10605290476499571,0.11141864509492883,0.03131210115561247,0.15697700711461618
225,1791618147.8673542,-0.055695944393382345,0.20564295151654416,-0.08485882927389612,0.2293296375003517,-0.10555196075342839,0.11778211933140884,0.030099718290190074,0.16099638845092246
226,1791618147.8763597,-0.11796645220588235,0.10505213120404415,-0.06569867302389612,0.171079951349231,-0.1054775257590168,0.12042749903410277,0.029534006662696843,0.16278989069781052
227,1791618147.8963597,-0.11317641314338235,0.09068201401654415,-0.04653851677389612,0.15230877092804765,-0.1056837270225327,0.12571484596047433,0.02829774378592748,0.16665543782191145
228,1791618147.908098,-0.14191664751838234,0.11463220932904415,0.049262264476103886,0.1889646764869778,-0.10601117326759778,0.12853334128788396,0.027683397051026414,0.16889511287330097
229,1791618147.928098,0.0017845243566176577,-0.005118767233455856,0.16901324103860388,0.1691001536118252,-0.10669559500693729,0.13277949483378748,0.02712108284359541,0.1724815856165792
230,1791618147.967519,0.04968491498161766,0.009251349954044145,0.19775347541360389,0.2041093219107388,-0.10769009994895291,0.13990570845427666,0.027263358538361114,0.17864505479833398
231,1791618147.987519,0.12632553998161766,0.07631189682904414,0.18338335822610388,0.2353956323375128,-0.10785495575239307,0.1431071681769112,0.02789641834624333,0.18135755628182146
232,1791618147.998301,0.15985581341911767,0.09547205307904415,0.2073335535386039,0.2786682551457211,-0.10769907792290442,0.1447131040698872,0.028502462205920932,0.18262903445724557
233,1791618148.018301,0.17422593060661767,0.009251349954044145,0.17380328010110388,0.24626782685851784,-0.10695218322515102,0.14740226800148698,0.03002971620976851,0.18457513907416595
234,1791618148.026416,0.27481675091911767,-0.024278923483455856,0.05884234260110388,0.2820924210148893,-0.10642128625347608,0.14832058777213106,0.030698045848944283,0.18511309230807693
235,1791618148.046416,0.16464585248161767,-0.06259923598345586,-0.08485882927389612,0.1955196716211626,-0.10464993268496572,0.15011403145981428,0.03205908505999527,0.18577840506089502
236,1791618148.0924096,0.10716538373161766,0.052361701516544144,-0.008218204273896119,0.11955628857379276,-0.10024979987268531,0.15358441228924116,0.03439847626012592,0.1866050622083
237,1791618148.1124096,0.11195542279411766,0.03320154526654415,0.09237261603860389,0.1488927785183397,-0.09829475702743566,0.15499546725737057,0.03538938548277563,0.18691672673750132
238,1791618148.1174083,0.13590561810661766,0.014041389016544146,0.07321245978860388,0.15500826399503242,-0.09778649595299067,0.15531294923667444,0.03566197652813728,0.18696547157497154
239,1791618148.1374083,0.06405503216911766,0.07152185776654414,-0.01779828239889612,0.09764835964272685,-0.09575801428216461,0.15652101588269,0.036672150398654686,0.18711833776269518
240,1791618148.146619,-0.03653578814338235,0.10505213120404415,0.03010210822610388,0.11522565254936026,-0.09494493334563779,0.1571159055846747,0.0370760931297844,0.18728209961837908
241,1791618148.166619,-0.050905905330882344,0.22480310776654416,0.10674273322610389,0.2540115342964418,-0.09357543075091981,0.15870864774425014,0.038026898180622465,0.1881245361303732
242,1791618148.2068264,-0.031745749080882346,0.12421228745404415,0.08279253791360389,0.1526141843782811,-0.09148444396437684,0.16248282504447975,0.040223202458391394,0.19075633131803243
243,1791618148.2268264,-0.012585592830882343,-0.07217931410845586,0.01573199103860388,0.07493828176646837,-0.09066685604802023,0.16415662484488394,0.04129960300035034,0.1920248251505074
244,1791618148.2374218,0.016154641544117658,-0.08654943129595585,-0.04653851677389612,0.09958719819628689,-0.09029585875988172,0.16478420591422213,0.041759827507715966,0.19248651854464888
245,1791618148.2574217,0.06884507123161766,-0.06259923598345586,-0.04174847771139612,0.10198648719226407,-0.08957310150997388,0.1655674245250671,0.042365818250995155,0.19295277954477935
246,1791618148.2962377,0.07842514935661767,0.009251349954044145,-0.07048871208639612,0.10585249198379237,-0.0879520501628453,0.16670417874280052,0.04303876467666823,0.19333437770622397
247,1791618148.3162377,0.08321518841911767,0.03320154526654415,-0.08964886833639613,0.1267439536455768,-0.08699962842217263,0.1672657149814176,0.043093284566612815,0.19340058409575708
248,1791618148.3272674,0.016154641544117658,0.06673181870404415,0.006151912913603881,0.06893441885926736,-0.08647096620897304,0.1676116104867803,0.043049770399461666,0.19345325714118097
249,1791618148.3472674,0.03531479779411766,0.10026209214154415,0.06842242072610388,0.1264169676976112,-0.0855789410035814,0.16839522596411285,0.04309456389708954,0.19374686760894855
250,1791618148.3569038,0.07842514935661767,0.10984217026654415,0.06842242072610388,0.15131898122341503,-0.08513141103745553,0.16886800239614588,0.04321181085533795,0.19398716446169947
251,1791618148.3769038,0.07842514935661767,0.12421228745404415,0.07321245978860388,0.16413183930752687,-0.08410662930854954,0.17005312860937918,0.043631103281992996,0.19466808885148013
252,1791618148.4170563,0.08800522748161767,0.07152185776654414,0.07800249885110389,0.1376396964159886,-0.08185665936970711,0.17266497058052543,0.04480199447630198,0.19626747936883626
253,1791618148.4370563,0.04968491498161766,-0.07696935317095586,0.05405230353860389,0.10636974956309374,-0.08069752102574473,0.17376261383142888,0.04549581415763701,0.19691471496842747
254,1791618148.450704,0.006574563419117658,-0.08654943129595585,0.01573199103860388,0.08821294963804405,-0.07996759755620088,0.17423190654345366,0.045969681785884585,0.19714153687179364
255,1791618148.470704,-0.06527602251838234,-0.12965978285845586,-0.08485882927389612,0.16814767114788873,-0.07914644144081077,0.1744921540289224,0.046456251237915726,0.1971543920116344
256,1791618148.4770362,-0.07006606158088234,-0.038649040670955856,-0.11359906364889613,0.13895232488932005,-0.07898972992753077,0.17448225918770877,0.046492945336308995,0.19709142592034806
257,1791618148.4970362,-0.007795553768382342,-0.029068962545955857,-0.06569867302389612,0.07226403586262492,-0.0786857979384628,0.1743541175426585,0.046322511844715065,0.19681612790850128
258,1791618148.5364792,0.11674546185661766,-0.07217931410845586,-0.008218204273896119,0.13750234591005925,-0.07785400922080095,0.17383979458178744,0.04581814626376041,0.1959102433744544
259,1791618148.5564792,0.15985581341911767,0.0044613108915441445,-0.03695843864889612,0.16413320982093474,-0.07708060584113051,0.17351654390566157,0.04553299923764873,0.19525026203664061
260,1791618148.5665545,0.11195542279411766,0.057151740579044145,-0.03695843864889612,0.13102009132796474,-0.07654403888688972,0.17342468522142904,0.045355043446954756,0.19491585697255262
261,1791618148.5865545,0.09279526654411767,0.08110193589154414,0.05884234260110388,0.13656832275874103,-0.07533157020830154,0.17347707349056804,0.045087606616535617,0.19442744859537625
262,1791618148.5965254,0.10716538373161766,0.03320154526654415,0.06363238166360388,0.12898000649175745,-0.07466823575098813,0.17358475191513387,0.045065865342734206,0.19426256393523988
263,1791618148.6165254,0.12632553998161766,0.014041389016544146,0.020522030101103882,0.12874958786975524,-0.0731870414931873,0.17383920357292088,0.04515502885453582,0.19394686997280183
264,1791618148.6562655,0.12153550091911766,-0.05301915785845586,-0.06569867302389612,0.1479804876353012,-0.06994661925329085,0.17415278754562766,0.04517097276152215,0.19303403776303166
265,1791618148.6762655,0.04968491498161766,-0.019488884420955855,-0.06569867302389612,0.0846446869555601,-0.06830360349734584,0.1741781703008042,0.044980697402897826,0.1924231805134445
266,1791618148.6870253,0.016154641544117658,-0.014698845358455856,-0.0034281652113961193,0.022108387888024716,-0.06749913182824249,0.17416218859968194,0.04483790128976705,0.19209122345247462
267,1791618148.7070253,0.06405503216911766,0.0044613108915441445,0.03010210822610388,0.07091605855314986,-0.06610779319422952,0.17412158203934283,0.044652301584829385,0.1915264829983498
268,1791618148.7165346,0.14069565716911767,0.04278162339154415,0.044472225413603884,0.15363370098876158,-0.0653994602138859,0.1741388646633215,0.04463047844502295,0.1912937876375757
269,1791618148.7365346,0.17422593060661767,0.057151740579044145,0.01573199103860388,0.1840339422198933,-0.0636607792397041,0.17431966101024318,0.04468177108147408,0.1908834715084302
270,1791618148.7792275,0.14548569623161767,0.014041389016544146,0.03489214728860388,0.1502687936862544,-0.059482323370651985,0.17487566502170376,0.04493693584854719,0.19010253342291472
271,1791618148.7992275,0.14069565716911767,-0.029068962545955857,0.11153277228860389,0.18187861838085764,-0.05738922281061997,0.17507452019722586,0.045258177663097955,0.18971798323427427
272,1791618148.8071702,0.14548569623161767,-0.05301915785845586,0.09716265510110389,0.18280508869917836,-0.05651218881184922,0.17509274660648377,0.04549093737979612,0.18952710302803913
273,1791618148.8271701,0.17422593060661767,-0.04822911879595586,-0.04174847771139612,0.18553613714528855,-0.0541554757967118,0.17497988494695185,0.04607224219378485,0.1888741040894159
274,1791618148.838661,0.11674546185661766,-0.024278923483455856,-0.08964886833639613,0.14918407617311896,-0.052753787968091256,0.17486227950777408,0.04624288867969135,0.18840961677440873
275,1791618148.858661,0.016154641544117658,-0.009908806295955856,-0.06090863396139612,0.06378885934607267,-0.0504807246780801,0.1746370077472579,0.04626951391328541,0.18758266432885437
276,1791618148.8986359,0.016154641544117658,-0.029068962545955857,-0.01300824333639612,0.03570982248088067,-0.04652206840228531,0.17413742541845784,0.046093136844584576,0.186044948988059
277,1791618148.9186358,0.07363511029411766,-0.08654943129595585,-0.03216839958639612,0.11810054808353052,-0.04470390137928864,0.17375154253823644,0.04595036474742122,0.18520116995679806
278,1791618148.927376,0.09758530560661766,-0.12965978285845586,-0.056118594898896125,0.17170861322212494,-0.04391629078845827,0.17346647497673146,0.045839457507478795,0.18471739063241818
279,1791618148.947376,0.08321518841911767,-0.07217931410845586,-0.027378360523896122,0.11350857057408847,-0.04211315880986117,0.1726092497539037,0.04549849354296991,0.1834055183472672
280,1791618148.9579718,0.13590561810661766,-0.029068962545955857,0.03010210822610388,0.1422022451865513,-0.0411270370603588,0.17214276201721643,0.045347114535576695,0.18270447309516766
281,1791618148.9779718,0.21733628216911766,0.018831428079044147,0.049262264476103886,0.22364358459813719,-0.039015033098841675,0.17137896907704483,0.04522328729174911,0.18148848327948108
282,1791618149.0178626,0.18859604779411768,0.03799158432904415,0.06363238166360388,0.20263491732565378,-0.03421995642549716,0.1702540692183521,0.04535111468205145,0.17948308306376656
283,1791618149.0378625,0.12153550091911766,0.018831428079044147,0.06363238166360388,0.13847231009606079,-0.03171127345676203,0.1698599125281315,0.04559648699787873,0.17870935726721685
284,1791618149.0470917,0.13590561810661766,0.04757166245404415,0.025312069163603883,0.14619884044316625,-0.03054906814977185,0.16975127171939172,0.04575429834429884,0.17844381645814816
285,1791618149.0670917,0.19338608685661768,0.06194177964154415,-0.0034281652113961193,0.20309287277399352,-0.02791437050474522,0.16971542737687836,0.04607780973376122,0.1780609528230526
286,1791618149.1100886,0.16464585248161767,0.057151740579044145,-0.01779828239889612,0.17518948897397876,-0.021945235631999557,0.17003397529138875,0.0466005341788687,0.1776647289309065
287,1791618149.1300886,0.08800522748161767,0.009251349954044145,0.001361873851103881,0.08850063412456313,-0.01920620003763046,0.1702595263882034,0.04678255287355291,0.17761135014178453
288,1791618149.1371028,0.03531479779411766,0.023621467141544145,0.001361873851103881,0.042508391566193,-0.018324799438796294,0.1703440581612406,0.04683824679589318,0.1776139571886884
289,1791618149.1571028,0.04010483685661766,0.057151740579044145,-0.03695843864889612,0.07899775679014245,-0.016075483995499712,0.17067009132654873,0.04691983328153554,0.17773061642347707
290,1791618149.1667924,0.05447495404411766,-0.014698845358455856,-0.03695843864889612,0.06745000267119898,-0.015080467127181585,0.17083520536815858,0.04689971447137043,0.17779671284770984
291,1791618149.1867924,0.06884507123161766,-0.04343907973345586,0.001361873851103881,0.08141530680014887,-0.013149767739501331,0.1710376849154091,0.04681102198229506,0.17781472895081696
292,1791618149.1968014,0.08321518841911767,-0.029068962545955857,-0.0034281652113961193,0.08821294963804388,-0.012214328681091137,0.1710693864384544,0.04677174240264414,0.17776816556666797
293,1791618149.2168014,0.10716538373161766,-0.014698845358455856,-0.008218204273896119,0.10848047938087362,-0.01033995114144831,0.17105757859635545,0.04668755802274761,0.17761570273763322
294,1791618149.2573595,0.11195542279411766,-0.038649040670955856,-0.01300824333639612,0.11915107818435272,-0.0064425131689725855,0.17087494850613083,0.04647787982063039,0.17720030280878815
295,1791618149.2773595,0.08800522748161767,0.014041389016544146,0.020522030101103882,0.09145072109653271,-0.004508955945329336,0.17076148740811428,0.046401263580660504,0.17701099832335399
296,1791618149.2873483,0.11195542279411766,0.018831428079044147,0.03968218635110388,0.12026352435426789,-0.0035383126729449234,0.170737947438504,0.046413840688630956,0.1769695198602135
297,1791618149.3073483,0.17422593060661767,0.023621467141544145,0.03968218635110388,0.18024240488648818,-0.001457096372184824,0.17076156387911426,0.046554292203546545,0.17699982189497213
298,1791618149.3174002,0.17901596966911767,-0.005118767233455856,-0.008218204273896119,0.1792776005418754,-0.0003016739808498019,0.17078560217179706,0.046638014962972305,0.17703931019991148
299,1791618149.3374002,0.12153550091911766,-0.005118767233455856,-0.02258832146139612,0.1237227223596964,0.0021032145657218556,0.17081089968296725,0.04673339797685526,0.17710109386584066
300,1791618149.3772075,0.06405503216911766,-0.04822911879595586,0.001361873851103881,0.08019320261971985,0.006725925172008576,0.17069442560724618,0.04683139557206854,0.1771299088636211
301,1791618149.3972075,0.07363511029411766,0.009251349954044145,0.025312069163603883,0.07841184725117839,0.008906619867655643,0.17058621797174198,0.04691325698107051,0.1771435556827895
302,1791618149.4077485,0.10237534466911766,0.023621467141544145,0.025312069163603883,0.10807120685632578,0.0100227011329644,0.1705637302243384,0.046989952216585334,0.1772018516137983
303,1791618149.4277484,0.09758530560661766,-0.009908806295955856,0.010941951976103882,0.09869550458655703,0.0121226068559979,0.17054803198116456,0.047168023779248565,0.17736519184122113
304,1791618149.4383137,0.14069565716911767,-0.019488884420955855,-0.01779828239889612,0.14314979363790267,0.013254329642286013,0.1705176884650608,0.04724254940973256,0.17743679947650356
305,1791618149.4583137,0.07842514935661767,0.023621467141544145,-0.02258832146139612,0.0849629921081538,0.01540400036131645,0.17047506333261847,0.0473018844527876,0.1775851872149718
306,1791618149.4973524,0.04010483685661766,0.0044613108915441445,-0.0034281652113961193,0.04049757462964362,0.01931765869708476,0.1704865656241407,0.04732415621159771,0.1779843160421479
307,1791618149.5173523,0.07363511029411766,-0.04822911879595586,0.025312069163603883,0.09159081948101765,0.021192531137901198,0.1704259228245502,0.04736668061595465,0.1781508377168188
308,1791618149.5264285,0.08800522748161767,-0.029068962545955857,0.03968218635110388,0.10081964372677178,0.02202576582820374,0.17034991325904494,0.04742732595141383,0.17819533819543276
309,1791618149.5464284,0.08321518841911767,0.009251349954044145,0.025312069163603883,0.08747031442120529,0.02384328277973191,0.17017781748608077,0.04763840872061123,0.17832108591939452
310,1791618149.5574586,0.09758530560661766,-0.019488884420955855,0.001361873851103881,0.09952167194484154,0.02484487521144273,0.17008867261949176,0.04775942732244183,0.17840512121545282
311,1791618149.5774586,0.11195542279411766,-0.05780919692095586,-0.01300824333639612,0.12666938989493232,0.026702862411813726,0.1698353335680909,0.047928474330529255,0.17847751130274414
312,1791618149.61713,0.10237534466911766,-0.04343907973345586,-0.0034281652113961193,0.11126282919702699,0.03047320804101087,0.16910694482718724,0.04816458966503831,0.1784533633605643
313,1791618149.63713,0.06884507123161766,0.0044613108915441445,0.025312069163603883,0.07348637950736576,0.03234570564010064,0.16873634933542234,0.048298595552091775,0.1784683573990254
314,1791618149.6469586,0.10716538373161766,-0.009908806295955856,0.03968218635110388,0.11470518657043967,0.03325761986875224,0.16857753063773476,0.048402481788602195,0.1785140144597807
315,1791618149.6669586,0.14069565716911767,-0.038649040670955856,0.044472225413603884,0.15253457025957587,0.035206703706938534,0.16822999314392997,0.04870840013601401,0.1786430822140195
316,1791618149.7070196,0.10237534466911766,0.018831428079044147,0.044472225413603884,0.11319502070698713,0.03925552714955905,0.16757873439447135,0.04949649513116513,0.17909084751408152
317,1791618149.7270195,0.09758530560661766,0.018831428079044147,-0.051328555836396124,0.11185765596544212,0.04127359614380152,0.16735886535359962,0.04982064071799808,0.1794285255822991
318,1791618149.737087,0.08800522748161767,0.009251349954044145,-0.06090863396139612,0.10742611056492181,0.04227719438084907,0.16728599469317512,0.049874586325515745,0.17960912990809358
319,1791618149.757087,0.05926499310661766,-0.009908806295955856,-0.01300824333639612,0.06147957583488282,0.04419278205342139,0.1671619586354183,0.04985480402127572,0.17994894799484187
320,1791618149.768228,0.12632553998161766,-0.033859001608455855,-0.01300824333639612,0.13142978519448165,0.04525488001403286,0.16706665662174366,0.0498236983413041,0.18011572068050413
321,1791618149.788228,0.10237534466911766,-0.024278923483455856,-0.03216839958639612,0.11002264882098682,0.04721857081130475,0.16683402986368412,0.049708469737858745,0.1803721677912046
322,1791618149.8272152,0.05926499310661766,-0.014698845358455856,-0.027378360523896122,0.06691763659735504,0.05094496212717864,0.16633460515422663,0.04934342409855793,0.18082412322398328
323,1791618149.8472152,0.05926499310661766,-0.009908806295955856,0.025312069163603883,0.06520141636100614,0.05274761477208888,0.1660799242713695,0.049181149951748424,0.18106252406476853
324,1791618149.8567781,0.10716538373161766,-0.019488884420955855,0.07321245978860388,0.13124138202036803,0.05359962836222678,0.1659553305005985,0.04918586145315554,0.18119972640437598
325,1791618149.8767781,0.12632553998161766,0.028411506204044146,0.05884234260110388,0.14222438967777434,0.05546447947783311,0.16574722546272655,0.04939231905137899,0.1816261336196201
326,1791618149.8877795,0.08321518841911767,0.0044613108915441445,-0.01300824333639612,0.08434385142498035,0.0565092973757877,0.1656770477367752,0.049526667670334916,0.18192052013779725
327,1791618149.9077795,0.09758530560661766,-0.07696935317095586,-0.027378360523896122,0.12726644421397468,0.05839501696313778,0.16545984268904285,0.049673691857865646,0.18235792610028811
328,1791618149.946957,0.11674546185661766,-0.06738927504595586,0.006151912913603881,0.13493948009322929,0.06216461137055066,0.1646740125426218,0.04985612458676065,0.18294152746861428
329,1791618149.966957,0.07842514935661767,-0.029068962545955857,0.020522030101103882,0.08612004618308439,0.06409307087794054,0.16418833760178603,0.049975296743723134,0.18320278989039973
330,1791618149.976939,0.07842514935661767,-0.0003287281709558557,0.06363238166360388,0.1009935250894864,0.06502860553040808,0.16396029147071556,0.05008885452079124,0.18335918319952346
331,1791618149.996939,0.11674546185661766,-0.014698845358455856,0.006151912913603881,0.11782786152469768,0.06691465710226296,0.16354936796724634,0.05038692951890894,0.18375203336002208
332,1791618150.0069375,0.11195542279411766,-0.06259923598345586,-0.051328555836396124,0.138156801073896,0.06788761531737474,0.16331678524857007,0.05047971566815293,0.18392743773386552
333,1791618150.0269375,0.05926499310661766,0.0044613108915441445,-0.02258832146139612,0.0635804605931871,0.06979871130680255,0.16283413125312116,0.050526599479290515,0.18422744544716918
334,1791618150.0670233,0.08321518841911767,-0.005118767233455856,0.001361873851103881,0.08338359588075989,0.07348290312441394,0.16200988223248858,0.05054265705820606,0.18493647334985128
335,1791618150.0870233,0.10716538373161766,-0.005118767233455856,0.01573199103860388,0.1084348504419768,0.07533090262085876,0.16164497017768475,0.05057510768974141,0.18536904485713585
336,1791618150.1027808,0.08800522748161767,-0.005118767233455856,0.01573199103860388,0.08954673296173506,0.07679915824054688,0.16138849078754516,0.05063402444997453,0.18576372115442435
337,1791618150.1227808,0.10716538373161766,-0.029068962545955857,0.001361873851103881,0.1110462910422017,0.07867593580633646,0.1610605074381891,0.050723227343030704,0.1862880450360208
338,1791618150.127081,0.10716538373161766,-0.033859001608455855,0.006151912913603881,0.11255530859432106,0.07908805016633884,0.16098027196320774,0.05074195289515571,0.18639826561445216
339,1791618150.147081,0.11674546185661766,0.014041389016544146,0.001361873851103881,0.11759471999207795,0.08105315937360053,0.16063334452497885,0.05082725272377603,0.1869654931723216
340,1791618150.187232,0.12153550091911766,0.023621467141544145,0.001361873851103881,0.12381722979442814,0.08512401282121666,0.16015475458768283,0.05098101252904718,0.1884003891034051
341,1791618150.207232,0.09758530560661766,0.0044613108915441445,0.010941951976103882,0.09829812550733273,0.08717629305760197,0.15999424373624535,0.05106457015137382,0.18922329250053377
342,1791618150.217233,0.08321518841911767,-0.033859001608455855,-0.0034281652113961193,0.08990523839169383,0.08818420851250026,0.15990396976898996,0.05110572139968026,0.1896247055070618
343,1791618150.237233,0.08800522748161767,-0.009908806295955856,-0.01300824333639612,0.08951155735993506,0.09015433177224819,0.15968486700966172,0.05115101726149077,0.19037722252433267
344,1791618150.2467396,0.12153550091911766,0.014041389016544146,0.010941951976103882,0.1228322632789209,0.09109973409426185,0.1595992883166467,0.051167845114530236,0.190759646563129
345,1791618150.2667396,0.10237534466911766,-0.005118767233455856,0.01573199103860388,0.10370346434015429,0.09312617827142813,0.15945963953088654,0.05123794773208111,0.19163817210190032
346,1791618150.306735,0.07842514935661767,-0.009908806295955856,0.025312069163603883,0.08300234538349884,0.09711308277359339,0.15917718590869465,0.051480226804142146,0.19343872702074902
347,1791618150.326735,0.08321518841911767,-0.009908806295955856,0.006151912913603881,0.08402855501754505,0.09905016937707248,0.15902740313246697,0.051630403000279795,0.19433566197343763
348,1791618150.336768,0.14548569623161767,-0.0003287281709558557,-0.02258832146139612,0.14722916876982048,0.10004822971229106,0.15895583260137652,0.05168207002529585,0.19480154349660522
349,1791618150.356768,0.13590561810661766,-0.0003287281709558557,-0.03216839958639612,0.1396612008651731,0.10216145470212289,0.1588335755179825,0.051687480922850894,0.19579750566039045
350,1791618150.3662994,0.08321518841911767,-0.033859001608455855,-0.01300824333639612,0.09077672591721717,0.10317414021842601,0.1587596109915483,0.05165737773722448,0.19626003660115188
351,1791618150.3862994,0.06405503216911766,-0.009908806295955856,0.01573199103860388,0.06669877907755273,0.10520122915567383,0.15856203928565116,0.05160777256357025,0.1971613073279394
352,1791618150.4267707,0.09279526654411767,-0.038649040670955856,-0.01300824333639612,0.10136036815480663,0.10916398344070743,0.15807481952627933,0.051530717574447084,0.1988965527671263
353,1791618150.4467707,0.14548569623161767,-0.014698845358455856,-0.027378360523896122,0.14876733004207196,0.11118596024130858,0.15779014102019964,0.05143777076347338,0.19976458800065636
354,1791618150.4577134,0.13111557904411766,-0.019488884420955855,0.010941951976103882,0.13300690958403252,0.11235331836746817,0.1576296890366696,0.051381055048082304,0.20027580940251594
355,1791618150.4777133,0.09758530560661766,-0.05780919692095586,0.020522030101103882,0.11526469033686522,0.11450991389536683,0.15726447249069125,0.051340140504347195,0.2011975266127937
356,1791618150.4877064,0.08800522748161767,-0.04343907973345586,0.03489214728860388,0.10416014427116754,0.11556492980375394,0.1570334791462385,0.05136429570385514,0.2016260336525811
357,1791618150.5077064,0.11195542279411766,0.028411506204044146,0.03968218635110388,0.12213069348610042,0.11765963846604982,0.15661797742334907,0.051517249348578494,0.20255124871643188
358,1791618150.5467894,0.09758530560661766,0.04278162339154415,0.025312069163603883,0.10951648284936814,0.12175322191713857,0.15613650000919252,0.05196182263307667,0.2047009640760783
359,1791618150.5667894,0.08800522748161767,0.009251349954044145,-0.0034281652113961193,0.08855653480562625,0.1238121986337134,0.1560051205536577,0.05218802506276491,0.20588989321826157
360,1791618150.5777724,0.13590561810661766,-0.04822911879595586,-0.03695843864889612,0.14887011493291877,0.12495772350050778,0.1559116886415446,0.05226034384871688,0.20652852310679368
361,1791618150.5977724,0.20296616498161768,-0.04822911879595586,-0.01779828239889612,0.20937547822878047,0.1272391274239695,0.1556223831586384,0.05229014723011067,0.20770744133259614
362,1791618150.6077735,0.17901596966911767,-0.005118767233455856,0.020522030101103882,0.1802611241894252,0.12849536015611815,0.15545939802499398,0.05230485822951193,0.20836141727861557
363,1791618150.6277735,0.11674546185661766,-0.014698845358455856,0.020522030101103882,0.1194433448897735,0.13107434297223206,0.15515262993323578,0.05239142997916667,0.20975624876523669
364,1791618150.6673129,0.12632553998161766,-0.033859001608455855,0.03968218635110388,0.13667205257539827,0.13612894109877,0.15449313376249904,0.05271543978676713,0.2125514868833951
365,1791618150.6873128,0.09758530560661766,-0.005118767233455856,0.05405230353860389,0.11167249064186145,0.13863803736327288,0.15415111602285939,0.052995349779411144,0.21398967048265538
366,1791618150.6972263,0.08800522748161767,0.014041389016544146,0.010941951976103882,0.08978756585770974,0.13983316241138566,0.15401365053896224,0.05316160573058974,0.21470834680133238
367,1791618150.7172263,0.09758530560661766,0.0044613108915441445,-0.056118594898896125,0.11265918452853449,0.1421609977006535,0.1538056730773905,0.053378943397269035,0.2161370998608133
368,1791618150.7281022,0.11195542279411766,-0.014698845358455856,-0.08964886833639613,0.14417694802525793,0.14340790956281668,0.15370118938009358,0.05336050106417788,0.21688067506316122
369,1791618150.7481022,0.09758530560661766,-0.07696935317095586,-0.06090863396139612,0.13840894078395236,0.14567124552608646,0.15340037065344916,0.053105838151899946,0.2181100995725616
370,1791618150.7866085,0.05926499310661766,-0.0003287281709558557,0.025312069163603883,0.0644449246681295,0.14982821458838455,0.15268484083264824,0.0525862758901479,0.2202872463826013
371,1791618150.8066084,0.09279526654411767,0.014041389016544146,0.006151912913603881,0.09405300702797512,0.15189154893393877,0.1523895133145784,0.05240409228729923,0.22144930637566007
372,1791618150.8172517,0.09279526654411767,0.04278162339154415,-0.0034281652113961193,0.10223982154584577,0.1529730204652024,0.152301283957387,0.05232385788078649,0.2221130617249796
373,1791618150.8372517,0.13111557904411766,0.04278162339154415,0.03010210822610388,0.14116550317887958,0.15503627318196214,0.15228870384508422,0.05223571387910142,0.22350987701984695
374,1791618150.846905,0.08800522748161767,-0.0003287281709558557,0.020522030101103882,0.09036692893847986,0.15604140090498161,0.15231427852633062,0.052236203174828404,0.22422573260334724
375,1791618150.866905,0.06884507123161766,-0.009908806295955856,0.006151912913603881,0.0698260288688527,0.15804675497841794,0.15234396049792268,0.05227707572478716,0.22565538262079154
376,1791618150.9062898,0.07842514935661767,-0.033859001608455855,-0.008218204273896119,0.08581651894021738,0.16183844776627362,0.15226435977040273,0.05233938700219422,0.2282882604591243
377,1791618150.9262898,0.08321518841911767,-0.019488884420955855,0.01573199103860388,0.08690270272920943,0.16371754571194563,0.15214997934028932,0.052377553569966026,0.22955709334535523
378,1791618150.9372382,0.09279526654411767,-0.014698845358455856,0.03489214728860388,0.1002221506967161,0.16473643325980888,0.1520686845588652,0.05243688186281002,0.23024466084172596
379,1791618150.9572382,0.11674546185661766,-0.014698845358455856,0.001361873851103881,0.11767503396801332,0.1666328054344685,0.15189835889018793,0.052583383902684466,0.23152670589621163
380,1791618150.9667559,0.13111557904411766,0.0044613108915441445,-0.08006879021139612,0.1536951838180424,0.16757681999715274,0.15182215411741523,0.05258646119281636,0.23215790527568492
381,1791618150.9867558,0.07363511029411766,-0.04822911879595586,-0.03695843864889612,0.09546781423718421,0.16957009716021904,0.15162038932855249,0.0524164170180871,0.23343144836135934
382,1791618151.026739,0.006574563419117658,-0.05780919692095586,0.06363238166360388,0.08622185412632,0.1731977612756828,0.1509595543231145,0.052207452143768415,0.23560957028882684
383,1791618151.0467389,0.030524758731617658,-0.019488884420955855,0.10674273322610389,0.11271906940786917,0.17479582019260792,0.15056263352812072,0.05237416690104751,0.2365707901037414
384,1791618151.0565417,0.07842514935661767,0.028411506204044146,0.03968218635110388,0.09237095674503953,0.17554170498968236,0.15040382833005583,0.052551276898472436,0.23706083284819846
385,1791618151.0765417,0.09758530560661766,-0.009908806295955856,-0.04174847771139612,0.10660211866453066,0.17709922898815716,0.15015618341099074,0.05285532047093979,0.23812748943967085
386,1791618151.1172514,0.11674546185661766,-0.06738927504595586,-0.056118594898896125,0.14601408818590372,0.1804484041711617,0.1494917079299987,0.0530825554361914,0.2402647602112788
387,1791618151.1372514,0.10716538373161766,-0.11049962660845586,-0.01300824333639612,0.15447912915876993,0.18218285267603848,0.14894739641824314,0.05307375636025471,0.241231719148084
388,1791618151.147521,0.12153550091911766,-0.005118767233455856,-0.01300824333639612,0.12233680622098178,0.183116021124055,0.14862077414671848,0.05304987741377141,0.24173105136471698
389,1791618151.167521,0.11195542279411766,0.06673181870404415,-0.01300824333639612,0.1309823145132882,0.1850109895702312,0.14817251525697878,0.052971324399741386,0.2428788211186773
390,1791618151.1761858,0.09279526654411767,0.06673181870404415,-0.01300824333639612,0.1150361313468171,0.18584188368024485,0.1480941742300791,0.052925489590944806,0.24345471369261243
391,1791618151.1961858,0.16464585248161767,0.03320154526654415,-0.03695843864889612,0.17197827053104472,0.18785821657281607,0.14809037306065445,0.05276061409793463,0.244959487522231
392,1791618151.2364995,0.13590561810661766,-0.038649040670955856,0.006151912913603881,0.14142818463878962,0.19222159591631038,0.14806738972431607,0.05238498275847955,0.24822828254449977
393,1791618151.2564995,0.05926499310661766,-0.024278923483455856,0.07321245978860388,0.0972721429893517,0.19435435482836816,0.1479633059731775,0.052345628377447585,0.24981357041900912
394,1791618151.2754588,0.04968491498161766,0.057151740579044145,0.03489214728860388,0.0833808981143437,0.19622778960052129,0.1479261817547712,0.05246763672946852,0.2512774434047504
395,1791618151.2954588,0.09279526654411767,0.052361701516544144,0.01573199103860388,0.10770424699490833,0.19812133898328863,0.1480571640528824,0.05265297256682062,0.25287412739945475
396,1791618151.2973928,0.06405503216911766,0.03320154526654415,0.001361873851103881,0.07216123928162126,0.19829973531066936,0.14808034171942858,0.05267068619740648,0.2530311716222528
397,1791618151.3173928,0.05447495404411766,0.03320154526654415,-0.0034281652113961193,0.0638875225917529,0.20004560348961975,0.14838367400623229,0.05282328656275814,0.25461001117474785
398,1791618151.3564057,0.11674546185661766,0.009251349954044145,-0.027378360523896122,0.12026913554633871,0.2034413260791159,0.1490108299885173,0.052986166716993376,0.25768223546464547
399,1791618151.3764057,0.10237534466911766,-0.04343907973345586,-0.04653851677389612,0.12055496002954164,0.2052497025568219,0.1492328334097561,0.05294626698789843,0.2592319157725794
400,1791618151.3866937,0.04010483685661766,-0.029068962545955857,-0.01300824333639612,0.05121149204517475,0.20615033555941562,0.14927395507323477,0.05288287493295212,0.25995629050984714
401,1791618151.4066937,0.09279526654411767,-0.019488884420955855,0.03489214728860388,0.10103583548116404,0.2078378995877429,0.14926906817835078,0.05281095115656851,0.26127924483574905
402,1791618151.416825,0.13590561810661766,-0.029068962545955857,0.049262264476103886,0.14745206786530188,0.20873831506986146,0.14923006718979137,0.05284392688117219,0.2619804911437053
403,1791618151.436825,0.12632553998161766,-0.005118767233455856,0.01573199103860388,0.12740423608215032,0.21064251979217993,0.14911334366663487,0.05299675001570579,0.263464828612986
404,1791618151.4778106,0.08321518841911767,-0.024278923483455856,-0.0034281652113961193,0.08675244103690331,0.21460354422535635,0.14881965813177492,0.053300771913265155,0.2665388229265912
405,1791618151.4978106,0.10237534466911766,-0.033859001608455855,0.010941951976103882,0.10838297605754059,0.2165248818452975,0.14861063656190507,0.053438144660333226,0.2679995915336316
406,1791618151.5366004,0.09758530560661766,-0.038649040670955856,0.01573199103860388,0.10613263285700998,0.22027406530855959,0.14805510806935043,0.05374221335510312,0.2707936564421184
407,1791618151.5566003,0.05447495404411766,-0.05780919692095586,0.020522030101103882,0.0820400974293985,0.22214527149688168,0.14766695510097502,0.053929855389617545,0.27214422753305223
408,1791618151.5376017,0.03531479779411766,-0.005118767233455856,0.006151912913603881,0.03621025757608312,0.22214527149688168,0.14766695510097502,0.053929855389617545,0.27214422753305223
409,1791618151.5576017,0.08321518841911767,-0.005118767233455856,-0.027378360523896122,0.08775274347048069,0.223789494602121,0.14729092521648776,0.054067596363413434,0.273312384501542
410,1791618151.5960407,0.10237534466911766,0.023621467141544145,-0.01300824333639612,0.10586736655239225,0.22701064112672675,0.14672996196891575,0.054176186703025236,0.27567838531493183
411,1791618151.6160407,0.07842514935661767,0.014041389016544146,0.020522030101103882,0.08227282890840894,0.2287064205066851,0.1465383655276184,0.054235482355176876,0.27698665473048567
412,1791618151.6271546,0.05447495404411766,0.023621467141544145,0.03968218635110388,0.07141547620531222,0.22961818338779835,0.1464792603211932,0.05431367278160745,0.27772406971233876
413,1791618151.6471546,0.03531479779411766,0.06194177964154415,0.044472225413603884,0.08403390887992433,0.23114751595936844,0.1465171967359373,0.054559505690322384,0.2790577050266059
414,1791618151.657359,0.08321518841911767,0.023621467141544145,0.03010210822610388,0.09159081948101772,0.23190147653457174,0.14659913272016803,0.05472319294293711,0.27975744561868215
415,1791618151.6773589,0.09758530560661766,-0.009908806295955856,0.020522030101103882,0.10021092770760258,0.2334287453882297,0.146756203787082,0.05507182553926915,0.2811748005987489
416,1791618151.7168238,0.06884507123161766,-0.038649040670955856,0.025312069163603883,0.08291015030148466,0.23648298789238972,0.1468759281414249,0.05579223677912315,0.28391814932253784
417,1791618151.7368238,0.07363511029411766,-0.029068962545955857,0.010941951976103882,0.07991783508436913,0.23801235823572692,0.14682592388347662,0.05615694323065205,0.28523908720611757
418,1791618151.7474673,0.09279526654411767,0.014041389016544146,0.006151912913603881,0.09405300702797512,0.23883702140875934,0.14679130860777623,0.05633556298818918,0.285944936544412
419,1791618151.7674673,0.07842514935661767,-0.019488884420955855,0.001361873851103881,0.08082187431610012,0.24041102038883908,0.14672784915811724,0.056632128725766666,0.2872868226128407
420,1791618151.776845,0.09279526654411767,-0.038649040670955856,-0.03695843864889612,0.10710105520088614,0.24115876728218183,0.1466616670992078,0.05672528991608227,0.28789747159265566
421,1791618151.796845,0.09758530560661766,-0.033859001608455855,-0.03216839958639612,0.10818562655088904,0.24279985795325454,0.1464329299033334,0.05679048292618172,0.2891704219542242
422,1791618151.8367336,0.15506577435661767,-0.029068962545955857,-0.04174847771139612,0.16319722531812417,0.246337789150924,0.14585690083321412,0.056679869379555076,0.2918375395272489
423,1791618151.8567336,0.08321518841911767,0.014041389016544146,0.01573199103860388,0.08584534775502918,0.24820302808381986,0.1455888637926173,0.05659370270788303,0.2932638873038939
424,1791618151.866962,0.02573471966911766,-0.005118767233455856,0.049262264476103886,0.05581440921260369,0.24909743962406716,0.1454791909631969,0.056606104454549236,0.2939693529810402
425,1791618151.886962,0.04010483685661766,-0.009908806295955856,0.05405230353860389,0.06803112448972208,0.2506827449940253,0.14527436919449277,0.05678168833524805,0.2952467461510771
426,1791618151.8970776,0.09758530560661766,-0.0003287281709558557,0.03968218635110388,0.10534550700505019,0.25146875223588705,0.14517854643682904,0.05692828808578103,0.29589554521986666
427,1791618151.9170775,0.07842514935661767,-0.019488884420955855,0.044472225413603884,0.09223935982442397,0.25305370556056006,0.14498778347440464,0.05730089029748349,0.2972221850461969
428,1791618151.9570546,0.04968491498161766,-0.04822911879595586,0.03968218635110388,0.07980798575436378,0.2561306943621583,0.14446063443246146,0.0581862701429537,0.2997623217287646
429,1791618151.9770546,0.08800522748161767,-0.04822911879595586,-0.027378360523896122,0.10402183707713554,0.25764569833221984,0.1440917806019457,0.058581227734722505,0.3009576504245139
430,1791618151.98727,0.11195542279411766,-0.06259923598345586,-0.07048871208639612,0.14636030735934139,0.25845665519697414,0.14384672630149595,0.058677720308605144,0.30155397219051844
431,1791618152.00727,0.07363511029411766,-0.09612950942095586,-0.01779828239889612,0.12239195605059741,0.26008458068544904,0.14320083050032129,0.058705866404647575,0.302649707940761
432,1791618152.0173216,0.04010483685661766,-0.09612950942095586,0.006151912913603881,0.10434139424651237,0.2608657562195868,0.1427799744184058,0.05870911034689395,0.3031234459764887
433,1791618152.0373216,0.07363511029411766,-0.04343907973345586,0.03010210822610388,0.09063785101033937,0.26235756043734654,0.14185883200273092,0.05876897777419986,0.3039888328285093
434,1791618152.0762725,0.17422593060661767,-0.009908806295955856,0.006151912913603881,0.17461587949109697,0.2655511977057683,0.14017811220788448,0.05897399281334151,0.3060151525226853
435,1791618152.0962725,0.14548569623161767,-0.04343907973345586,0.010941951976103882,0.1522260416917402,0.2674246157617715,0.13936454657001007,0.05908911163532222,0.30729452495911347
436,1791618152.1070561,0.12632553998161766,-0.06738927504595586,-0.01300824333639612,0.14376602810666247,0.2685030497031469,0.1389020488911353,0.059140200175326674,0.3080344626219989
437,1791618152.1270561,0.13111557904411766,-0.038649040670955856,-0.027378360523896122,0.13940809889613984,0.2705893145545425,0.138013884378301,0.0591601591572189,0.30946136085752557
438,1791618152.138389,0.14069565716911767,-0.033859001608455855,0.006151912913603881,0.14484317715608103,0.27182520172164953,0.13752446777538427,0.05915173051848024,0.3103237772895417
439,1791618152.158389,0.15027573529411767,-0.06259923598345586,0.020522030101103882,0.164081122263869,0.27411554374490693,0.13664563403071703,0.059179098064368905,0.3119511600714683
440,1791618152.1971784,0.12153550091911766,-0.04822911879595586,0.03968218635110388,0.1366440697472781,0.2786820291178967,0.13487441514554344,0.059399360543921344,0.31525079737749656
441,1791618152.2171783,0.14069565716911767,-0.024278923483455856,0.06363238166360388,0.15631319223900442,0.281076706587375,0.13398938978774214,0.05965086560282746,0.3170417911393754
442,1791618152.2291718,0.17901596966911767,-0.009908806295955856,0.03968218635110388,0.18362891317107166,0.2825849047923085,0.13350752231120155,0.05987199487970663,0.3182187026260865
443,1791618152.2491717,0.13590561810661766,-0.04822911879595586,0.044472225413603884,0.15091111213563638,0.2851950731306415,0.13273729537182052,0.060311664730624485,0.32030128976199446
444,1791618152.2580938,0.09758530560661766,-0.04822911879595586,0.020522030101103882,0.11077045404638368,0.2863410640605339,0.13238068756200988,0.06052187436575295,0.32121449015175707
445,1791618152.2780938,0.13111557904411766,0.028411506204044146,0.08758257697610389,0.16021615568547345,0.288867662328621,0.13167148807212575,0.06108456018576451,0.3232850609035599
446,1791618152.3172584,0.28918686810661764,0.023621467141544145,0.1450630457261039,0.32439220957132586,0.2943077431820879,0.1306438678725403,0.06270450719951796,0.32804987903178073
447,1791618152.3372583,0.3801976102941177,-0.13444982192095586,0.11632281135110388,0.41971177482715327,0.2976731712998766,0.13003157084521805,0.06379974900224007,0.331040683754957
448,1791618152.3471131,0.28918686810661764,-0.14881993910845587,0.1450630457261039,0.3561175454774624,0.29957745905245775,0.12956575564086414,0.06445166094275316,0.332697994591784
449,1791618152.367113,0.16943589154411767,0.03799158432904415,0.19775347541360389,0.2631697529377944,0.30355037874700413,0.128595960064121,0.06609046408647178,0.3362256724663182
450,1791618152.3776467,0.15985581341911767,0.06194177964154415,0.2073335535386039,0.26903135053743177,0.3055891106532198,0.12824075383179104,0.06714414487797292,0.33814010658980703
451,1791618152.3976467,0.13590561810661766,-0.13923986098345587,0.1259028894761039,0.23175334624998611,0.309323033380159,0.1275515444337071,0.06934451980648779,0.34169986522402856
452,1791618152.4372613,0.33708725873161766,-0.08175939223345587,-0.06569867302389612,0.35302795052896513,0.31701487002949075,0.12573456292805404,0.07322799971377143,0.3488121959975078
453,1791618152.4572613,0.40414780560661767,-0.12486974379595586,-0.12796918083639613,0.4419321361207514,0.32142754607870666,0.12464489195034874,0.07460402939864924,0.35272904285018514
454,1791618152.4670858,0.31792710248161765,-0.04343907973345586,-0.008218204273896119,0.3209861913259417,0.32380207745710365,0.12406589183355919,0.07507823182338681,0.3547913073564779
455,1791618152.4870858,0.22691636029411766,-0.10091954848345586,-0.02258832146139612,0.24937125355918188,0.32872814494723746,0.12284747327100096,0.07585256477575653,0.3590366367831862
456,1791618152.5282104,0.04010483685661766,-0.13923986098345587,-0.06569867302389612,0.15909887637280426,0.3381614931821756,0.11997719152157774,0.07693363370054779,0.3669693528770134
457,1791618152.5482104,-0.050905905330882344,0.04757166245404415,0.06363238166360388,0.0943586469931655,0.34204482705822375,0.11865317898841557,0.0773774240139328,0.3702168369325997
458,1791618152.5571713,0.07842514935661767,-0.009908806295955856,0.06363238166360388,0.10147792119471662,0.3435422557456334,0.11817425254357394,0.0776319687823242,0.37150122210303743
459,1791618152.5771713,0.12632553998161766,-0.05301915785845586,0.1402730066636039,0.1960757240203759,0.34669017721485856,0.11717128172795782,0.07842072749304323,0.37426327463375386
460,1791618152.5902915,0.22212632123161766,-0.07696935317095586,0.2264937097886039,0.3264410888433799,0.34878836442293965,0.11648410683827488,0.07922144886264633,0.37616207711920785
461,1791618152.6102915,0.15027573529411767,0.08589197495404415,0.3366646082261039,0.3785542053811183,0.35206561593587016,0.115607109150398,0.08110369082007061,0.3793323216851594
462,1791618152.646925,0.14069565716911767,0.10505213120404415,0.2935542566636039,0.3420604037623803,0.3579674976882654,0.11476631083247127,0.08576573395092892,0.38557463171665646
463,1791618152.666925,0.15027573529411767,0.22001306870404416,0.2887642176011039,0.3929037037055465,0.361142756750403,0.11486373084100884,0.08880265892998113,0.3892347359229788
464,1791618152.6772182,0.09758530560661766,0.3301839671415442,0.3749849207261039,0.5090756670669182,0.3627231632823233,0.11533109700326795,0.09064361223724614,0.3912615743424447
465,1791618152.6972182,0.05447495404411766,0.40682459214154415,0.3175044519761039,0.5189247020656163,0.3655614006524355,0.1172084952957612,0.09472280294734223,0.3954053343275327
466,1791618152.7067256,0.16464585248161767,0.5696859202665442,0.2935542566636039,0.6616830102811005,0.36686448031972047,0.11866339443034477,0.09680678301652687,0.39754509346236316
467,1791618152.7267256,0.06405503216911766,0.6175863108915441,0.3749849207261039,0.7253479091572376,0.3695375365813271,0.12304577106094897,0.101535905224811,0.402501916477923
468,1791618152.7664216,0.07842514935661767,0.5122054515165442,0.3414546472886039,0.6205612014699756,0.37447138992241263,0.13380280819581303,0.11164729864875278,0.41303405749050875
469,1791618152.7864215,0.19817612591911768,0.4499349437040442,0.2743941004136039,0.5630340600639204,0.3769992366468544,0.13985276765121982,0.11690132126288766,0.41875188353609333
470,1791618152.7963533,0.23170639935661766,0.4307747874540442,0.2360737879136039,0.5431257739683899,0.3783864589874849,0.14306249540439514,0.11949929479659216,0.4218095202734322
471,1791618152.8163533,0.28439682904411767,0.5840560374540442,0.3031343347886039,0.7168636105875359,0.3815350820472211,0.15007873973290253,0.12475498348493605,0.4285515754922885
472,1791618152.82736,0.2604466337316177,0.5122054515165442,0.3606148035386039,0.6784024691262438,0.38345771237560905,0.1542657611258951,0.12776141438729635,0.43262075914399845
473,1791618152.84736,0.24128647748161766,0.36371424057904417,0.3318745691636039,0.5483137265042758,0.3871798662378983,0.16204660800382695,0.13344366187735568,0.4404254339621871
474,1791618152.8870912,0.28918686810661764,0.20564295151654416,0.2073335535386039,0.4109808640517161,0.3950457502993517,0.1768817891063289,0.14464534977408264,0.4563667268308463
475,1791618152.9070911,0.3706175321691177,0.21522302964154416,0.10195269416360389,0.44053678562230114,0.3994010649920155,0.18386067907293888,0.14990219221556972,0.46453915578447424
476,1791618152.917082,0.38498764935661767,0.17211267807904415,0.06363238166360388,0.4264825249747723,0.4018165866555735,0.1871142584243462,0.15225840229963206,0.46866932488489754
477,1791618152.937082,0.4903685087316177,0.09547205307904415,0.049262264476103886,0.5019989621265287,0.40723973019362714,0.19305173569554482,0.15643693354165797,0.47705941420242176
478,1791618152.9467428,0.5909593290441177,-0.17277013442095587,-0.07527875114889612,0.6202816604629274,0.4102498505121453,0.19543354457034148,0.1581337088377254,0.4811501637320097
479,1791618152.9667428,0.7059202665441177,-0.22067052504595586,-0.06569867302389612,0.7425195074736264,0.41749208093491025,0.19903465651268196,0.1609080607366263,0.4896997408070631
480,1791618153.007147,0.6340696806066177,-0.06738927504595586,0.010941951976103882,0.6377345847363501,0.4339889357043554,0.20434551822236022,0.1655062062285219,0.5074404314119265
481,1791618153.027147,0.7873509306066176,-0.27815099379595587,-0.16628949333639612,0.8514350585164203,0.44306206162154127,0.20606173579688242,0.16720783963290847,0.5164531837859643
482,1791618153.0368028,0.8735716337316177,-0.6326138844209559,-0.24772015739889613,1.1066584849918388,0.4479881888146061,0.2061064605874093,0.16760631902488418,0.5208312285091321
483,1791618153.0568027,0.8208812040441177,-0.5895035328584559,-0.14712933708639614,1.0212773414881011,0.4592028733724601,0.20435202929503957,0.1677156136813835,0.5298637163111354
484,1791618153.0674841,0.8352513212316177,-0.4841226734834559,-0.12796918083639613,0.9738560693674759,0.4656206213185235,0.20269550189382127,0.16754484642580297,0.5347516293092354
485,1791618153.0874841,0.8544114774816177,-0.5559732594209559,-0.24293011833639613,1.047921886611029,0.47836928964853825,0.19849891076597015,0.16671671312109054,0.5440895673398118
486,1791618153.127445,0.7969310087316177,-0.6709341969209559,-0.36747113396139613,1.1046659058606072,0.5049700204313624,0.18769455876280514,0.163480850698451,0.562983088084095
487,1791618153.147445,0.9166819852941177,-0.7379947437959559,-0.3195707433363961,1.219453797414974,0.5188568100014908,0.18098482476234984,0.16107370169819926,0.5726365631514827
488,1791618153.1571548,0.9502122587316177,-0.7044644703584559,-0.3004105870863961,1.2204179806422288,0.525946991640119,0.17716547660217538,0.15962885367789417,0.5774852509298276
489,1791618153.1771548,0.9645823759191177,-0.6086636891084559,-0.2908305089613961,1.1770611841852698,0.5412326742084884,0.16850886968198037,0.15621235228448557,0.5879883891699076
490,1791618153.1870794,1.0124827665441176,-0.5942935719209559,-0.47764203239889613,1.2674573418026922,0.549151771081988,0.16396211013866396,0.15419926712205337,0.593488546835224
491,1791618153.2070794,1.2040843290441177,-0.9391763844209559,-0.5351225011488961,1.6180937685250174,0.5660412798628509,0.15387373985286162,0.14923189795794334,0.6052685500612192
492,1791618153.2467752,1.0508030790441176,-1.025397087545956,-0.45848187614889613,1.5381261095350207,0.6012482794774567,0.13100505767096088,0.13789345618162538,0.6306159084321356
493,1791618153.2667751,1.1992942899816177,-0.963126579733456,-0.5063822667738962,1.6193648763248654,0.6197010711098953,0.11822859869519084,0.13159039275352433,0.6444559337528104
494,1791618153.2798667,1.1849241727941178,-1.1259879078584558,-0.37705121208639614,1.6775165216626353,0.6323090430797621,0.10906864579867112,0.12721600417849815,0.6541365355764377
495,1791618153.2998667,1.0268528837316178,-1.140358025045956,-0.36268109489889616,1.576826194198877,0.651998723096,0.09377452009990173,0.12042606683806337,0.6696255917397924
496,1791618153.306821,1.0651731962316178,-1.351119743795956,-0.40579144646139614,1.7677061967608652,0.6589094401492765,0.08795462204504813,0.11801838663858621,0.6751488765018387
497,1791618153.326821,1.2424046415441177,-1.293639275045956,-0.5926029698988962,1.8889812458584088,0.6792639281248414,0.06976085035698347,0.11063526515797441,0.6917414417184317
498,1791618153.367106,1.2136644071691176,-1.1259879078584558,-0.45848187614889613,1.7178578790545043,0.721533706026738,0.031300557791249926,0.09481884728313618,0.7284100683343313
499,1791618153.387106,1.1274437040441176,-1.3606998219209558,-0.15191937614889614,1.7736157441830265,0.7428829674576112,0.011340507993095078,0.08722880910747312,0.7480725737510203
500,1791618153.397128,1.1609739774816177,-1.427760368795956,-0.2525101964613961,1.8574503079250397,0.7536966392426946,0.0007426971962398946,0.08369189596354969,0.7583294198795345
501,1791618153.417128,1.4052659696691177,-1.3175894703584559,-0.49201214958639616,1.988187720827736,0.7758885666375696,-0.021351742966982563,0.07657566371429105,0.7799505093529425
502,1791618153.427105,1.1418138212316178,-1.3559097828584559,-0.45369183708639615,1.8297722329966764,0.7872042138686318,-0.032720649175360834,0.07285062242700102,0.7912447967620319
503,1791618153.447105,1.1034935087316178,-1.4325504078584559,-0.47764203239889613,1.8703049232631541,0.8098533628307515,-0.05627527678749104,0.06510637372187403,0.8144128043965161
504,1791618153.4870317,1.4627464384191178,-1.806173454733456,-0.5973930089613961,2.3997433402027712,0.855971084687254,-0.10594325377659963,0.048746040945730984,0.8638788383502227
505,1791618153.5070317,1.3861058134191178,-2.127106071920956,-0.7889945714613962,2.6586428870746865,0.8798803219270639,-0.1329907548764716,0.03970057349832398,0.8907592589096018
506,1791618153.5185409,1.0076927274816176,-2.103155876608456,-0.6548734777113961,2.422306451740127,0.8936416004244191,-0.1498722998058515,0.034029737645195575,0.9067607398329578
507,1791618153.5385408,1.1226536649816177,-2.2133267750459558,-0.6692435948988962,2.5704189646719438,0.9171636311003372,-0.18128241599386513,0.023667283692647277,0.9352072395352361
508,1791618153.5471568,1.4340062040441177,-2.3330777516084558,-0.8273148839613962,2.8607823240350614,0.9274290151004447,-0.19572202066125063,0.018905696837935304,0.9480448896517675
509,1791618153.5671568,1.4004759306066177,-2.237276970358456,-0.5590726964613961,2.6980184125082243,0.9519351396352886,-0.23106801539544908,0.007431134228998904,0.9796061247088941
510,1791618153.607118,1.0843333524816177,-2.055255485983456,-0.23814007927389613,2.3359290719809307,1.0010022542432804,-0.3039629011475441,-0.014445982724013135,1.046234985407687
511,1791618153.6271179,1.2040843290441177,-2.031305290670956,-0.34831097771139613,2.3869103025777294,1.0253086812829575,-0.34110319132450856,-0.024632475275226433,1.0808404312775064
512,1791618153.6371648,1.3334153837316178,-2.222906853170956,-0.6931937902113962,2.683249726401585,1.0375994939813078,-0.36016759476500604,-0.02976686516494075,1.0987353969408755
513,1791618153.6571648,1.1034935087316178,-2.4959390797334557,-0.6213432042738961,2.7988349703136945,1.0620515564184982,-0.3995038318774103,-0.04042632695715976,1.135425518511424
514,1791618153.66668,1.1561839384191177,-2.510309196920956,-0.4393217198988961,2.7984669262257147,1.0735525816366855,-0.4189840980356402,-0.045493953226606015,1.1533137126236364
515,1791618153.68668,1.4387962431066177,-2.4719888844209557,-0.5830228917738961,2.919037404044503,1.0979927493051922,-0.46126092980959366,-0.056081276315138706,1.192264581562633
516,1791618153.729195,1.5058567899816178,-2.428878532858456,-0.6500834386488962,2.9308128695841296,1.1515428688377858,-0.5532775952705797,-0.07914333137518806,1.2800120089673832
517,1791618153.749195,1.3573655790441177,-2.5486295094209557,-0.6836137120863962,2.9673694409051286,1.1772501484726294,-0.5975374611681941,-0.090365425196799,1.3233045150868177
518,1791618153.7868497,1.3861058134191178,-2.596529900045956,-0.6884037511488962,3.0227729938622265,1.2261379478609202,-0.6828980052044492,-0.11219911897962184,1.40796043800833
519,1791618153.8068497,1.5106468290441177,-2.6204800953584555,-0.6069730870863962,3.085026110216589,1.2525545049064601,-0.7292613378364817,-0.12399946576737854,1.4546789178836401
520,1791618153.7879426,1.5441771024816178,-2.6013199391084556,-0.6165531652113961,3.087310505110222,1.2525545049064601,-0.7292613378364817,-0.12399946576737854,1.4546789178836401
521,1791618153.8079426,1.3669456571691176,-2.5246793141084556,-0.7410941808363961,2.9650913398427075,1.2799020441451732,-0.777105625904727,-0.13612167988242593,1.5035197066063963
522,1791618153.8465662,1.4244261259191178,-2.5007291187959555,-0.7650443761488962,2.9779067835095168,1.3328790774656163,-0.8701996266419216,-0.1603832687156629,1.5998552491513889
523,1791618153.8665662,1.3813157743566178,-2.5007291187959555,-0.7458842198988962,2.9526297877611754,1.3604052790316656,-0.9186766946143576,-0.1733282839752457,1.6506701931247771
524,1791618153.878338,1.3669456571691176,-2.438458610983456,-0.8177348058363961,2.9126124080984694,1.3766032523541947,-0.9472908875529017,-0.1811852748059966,1.6808404575805032
525,1791618153.898338,1.3525755399816177,-2.553419548483456,-0.9326957433363962,3.0363355103762584,1.4040742408745739,-0.9961008376109869,-0.19515730400734715,1.732549487282899
526,1791618153.9376185,1.2280345243566178,-2.639640251608456,-0.9805961339613962,3.072025102251505,1.4575373943672776,-1.0928840216063205,-0.22411909534538332,1.8354945136283547
527,1791618153.9576185,1.1226536649816177,-2.649220329733456,-0.7650443761488962,2.9772491505493375,1.4842014871887501,-1.1427036387602194,-0.23927178952848233,1.8883528933632363
528,1791618153.967366,1.1992942899816177,-2.6779605641084556,-0.6931937902113962,3.015011974717552,1.4969450939856292,-1.1672368842063894,-0.24661515034124792,1.9141853595295626
529,1791618153.987366,1.1657640165441177,-2.5917398609834557,-0.7171439855238961,2.930941272910925,1.5227179659449297,-1.2179282498614963,-0.26153772842362244,1.967338610664453
530,1791618153.998258,0.9981126493566177,-2.448038689108456,-0.5878129308363962,2.708255218002175,1.5364163604797556,-1.245511194324073,-0.2695116767885752,1.996123721581863
531,1791618154.018258,0.8975218290441177,-2.529469353170956,-0.38663129021139614,2.7116866332252183,1.560639649594115,-1.2960276724762498,-0.2834187228723257,2.0483188267904064
532,1791618154.0572352,1.0076927274816176,-2.5677896656709556,-0.18065961052389612,2.7643491630075507,1.6063357487284236,-1.3946104944656266,-0.30811451949592056,2.1494621480828098
533,1791618154.0772352,1.0891233915441176,-2.553419548483456,-0.19502972771139612,2.782836277483316,1.629411442535521,-1.4452894554769464,-0.3194491889700041,2.2013384663681617
534,1791618154.086823,1.1274437040441176,-2.3330777516084558,-0.31478070427389615,2.610262054396504,1.6404082295370024,-1.4694539322660192,-0.3244344401947175,2.226093377324781
535,1791618154.106823,1.0076927274816176,-2.318707634420956,-0.3291508214613961,2.5495470166698397,1.6631092402572558,-1.5192774311372648,-0.3342396429380794,2.277246670148732
536,1791618154.1172566,1.0124827665441176,-2.409718376608456,-0.2525101964613961,2.625952285634736,1.6747564238153703,-1.5450708571749328,-0.33904274390693107,2.303693342222022
537,1791618154.1372566,1.0939134306066176,-2.428878532858456,-0.24293011833639613,2.6749042157499994,1.6968932166417368,-1.5943549609665446,-0.3476117797430634,2.3541980119903916
538,1791618154.1770117,1.0603831571691178,-2.280387321920956,-0.43453168083639615,2.5521356859768014,1.7407187221466467,-1.6916663702940973,-0.36410991040110774,2.4544679270400263
539,1791618154.1970117,1.0364329618566177,-2.237276970358456,-0.5638627355238961,2.5293364171323045,1.7626045016726455,-1.740054933498069,-0.37266239195923506,2.5046842234677853
540,1791618154.2069545,1.0412230009191177,-2.347447868795956,-0.48722211052389613,2.613817556628819,1.7734020587145158,-1.7639212629218424,-0.37706020019843733,2.5295350320195915
541,1791618154.2269545,1.1370237821691178,-2.400138298483456,-0.4297416417738961,2.690383766628796,1.7951309103069204,-1.8118488908913504,-0.3859549443415642,2.579583805117653
542,1791618154.2359564,1.2136644071691176,-2.309127556295956,-0.37705121208639614,2.635757762202422,1.8050310853792872,-1.8333646897591034,-0.3899026364417798,2.602188957540415
543,1791618154.2559564,1.1034935087316178,-2.270807243795956,-0.49680218864889614,2.573145133282485,1.8272030387970524,-1.880866604854245,-0.398668527843899,2.652407722304084
544,1791618154.2965074,0.9310521024816177,-2.366608025045956,-0.6405033605238961,2.6225819561244914,1.8716022643764356,-1.976836076694649,-0.4172347245169037,2.754062585614784
545,1791618154.3165073,0.9118919462316177,-2.4528287281709558,-0.5830228917738961,2.681013126352654,1.8929799573379102,-2.0242980574154337,-0.42685343187541913,2.8041682539467487
546,1791618154.327509,0.9789524931066177,-2.428878532858456,-0.49680218864889614,2.6654476783059615,1.9045356518317667,-2.0505177450887424,-0.4322418147877817,2.8317330485893453
547,1791618154.347509,1.0268528837316178,-2.371398064108456,-0.5255424230238962,2.6370723277307166,1.9254005645533747,-2.098233605010084,-0.44210162197388475,2.8818753337589063
548,1791618154.3570662,0.9118919462316177,-2.328287712545956,-0.49201214958639616,2.5484400227070667,1.9352652253354015,-2.1209836992243027,-0.4468358884400313,2.90576765347226
549,1791618154.3770661,0.9454222196691177,-2.409718376608456,-0.38663129021139614,2.6172599379081745,1.9555979906695211,-2.1685575040241547,-0.45657494387757613,2.9555821471830135
550,1791618154.4210734,0.9885325712316178,-2.395348259420956,-0.3291508214613961,2.6121313503661163,2.0000097173446982,-2.2733947174713633,-0.4771524899403724,3.065295566426869
551,1791618154.4410734,0.9310521024816177,-2.352237907858456,-0.34831097771139613,2.553664372993451,2.0200453045700173,-2.321014618016989,-0.4861177705456793,3.115124777020051
552,1791618154.448422,0.8496214384191177,-2.289967400045956,-0.3099906652113961,2.462092909378687,2.027284082677739,-2.338445445112625,-0.4892805620463609,3.1333054942094156
553,1791618154.468422,0.9118919462316177,-2.328287712545956,-0.37226117302389616,2.5280524074741204,2.046672418604609,-2.38569700544222,-0.4976206878593537,3.1824588826626545
554,1791618154.4774978,1.1130735868566177,-2.357027946920956,-0.4489017980238961,2.645000260225575,2.0555293655364086,-2.4071123785280735,-0.5013966433875273,3.20480725932869
555,1791618154.4974978,1.0987034696691178,-2.428878532858456,-0.42495160271139615,2.699478487836232,2.0754369292568495,-2.4544042555083627,-0.5097801449280656,3.254445343363987
556,1791618154.5364318,1.0364329618566177,-2.433668571920956,-0.4297416417738961,2.6798533320040465,2.114612604297685,-2.546856825109615,-0.5261480400467689,3.351849924132511
557,1791618154.5564318,0.9406321806066177,-2.395348259420956,-0.48243207146139616,2.618248056750601,2.1346837103251928,-2.5944684662129767,-0.5346631120222533,3.4020590542579607
558,1791618154.5667174,0.9454222196691177,-2.280387321920956,-0.5303324620863962,2.524924163567003,2.14491251775779,-2.6188883373718017,-0.5391666508927615,3.427816580549639
559,1791618154.5867174,1.0124827665441176,-2.371398064108456,-0.5063822667738962,2.627750583885242,2.1647554636082114,-2.6662269766744138,-0.548165134554125,3.4778466790686346
560,1791618154.5977178,0.9885325712316178,-2.519889275045956,-0.45369183708639615,2.74460833014772,2.1756832795099874,-2.6923940628859513,-0.5531641702365243,3.505506257566276
561,1791618154.6177177,0.9071019071691176,-2.443248650045956,-0.4489017980238961,2.644581377120077,2.195414549015351,-2.7402773149798363,-0.5622435571583887,3.555992494731604
562,1791618154.6597874,0.9310521024816177,-2.347447868795956,-0.46806195427389613,2.5683557984221763,2.2364931159220998,-2.8410065178201735,-0.5813703909263986,3.662132032479108
563,1791618154.6797874,0.9454222196691177,-2.294757439108456,-0.46327191521139616,2.5247486499078113,2.255907311065862,-2.888673601015483,-0.5904963751186014,3.712443795985654
564,1791618154.6872091,0.8831517118566177,-2.323497673483456,-0.46806195427389613,2.5293636310101806,2.2630488512988003,-2.906279597574097,-0.5938933369977394,3.731026735145513
565,1791618154.707209,0.9358421415441177,-2.371398064108456,-0.48243207146139616,2.594623285936081,2.282135525007447,-2.9536496717260516,-0.6031000498066688,3.780994394053664
566,1791618154.7173035,0.9597923368566177,-2.395348259420956,-0.49201214958639616,2.6269698454950556,2.291759095852255,-2.977580839671534,-0.6077875780398481,3.8062518506031795
567,1791618154.7373035,0.8639915556066177,-2.380978142233456,-0.46327191521139616,2.5749095497466814,2.310701822491496,-3.025047796782661,-0.6171147679719268,3.856304931165869
568,1791618154.7775419,0.8496214384191177,-2.313917595358456,-0.46327191521139616,2.5081252150071105,2.3482678764924954,-3.1203912220785686,-0.6358616981350136,3.956706142455704
569,1791618154.7975419,0.9023118681066177,-2.323497673483456,-0.47285199333639616,2.5370055485968668,2.3667667484267163,-3.1676282012174872,-0.6451861196417983,4.0064595831713
570,1791618154.807138,0.9358421415441177,-2.361817985983456,-0.48243207146139616,2.585870340210306,2.375634171086937,-3.190265156520637,-0.6496764712204479,4.030323684395959
571,1791618154.827138,0.8783616727941177,-2.352237907858456,-0.43453168083639615,2.5482072492343537,2.394064553312909,-3.23743872281454,-0.6590067960968735,4.08005447594885
572,1791618154.8372455,0.8448313993566177,-2.289967400045956,-0.4489017980238961,2.481774286852288,2.4032879809006182,-3.2612221543794266,-0.6636845216847881,4.105099292791897
573,1791618154.8572454,0.9645823759191177,-2.304337517233456,-0.46327191521139616,2.5406714507560895,2.4215151192051114,-3.308115312953444,-0.672920317284333,4.154537778110828
574,1791618154.8969812,0.9550022977941177,-2.342657829733456,-0.4297416417738961,2.566077351655253,2.458017332256816,-3.401156110158473,-0.691178823428584,4.2529331357663445
575,1791618154.9169812,0.9118919462316177,-2.318707634420956,-0.42495160271139615,2.5275553169359317,2.476434246502132,-3.447953372173235,-0.7002723155926447,4.302498152226779
576,1791618154.9274418,0.8975218290441177,-2.3330777516084558,-0.47764203239889613,2.544983131530583,2.4860415436215093,-3.472407878574993,-0.7050231954814703,4.328403486040621
577,1791618154.9474418,0.9118919462316177,-2.313917595358456,-0.45848187614889613,2.5290249485658616,2.5043688826016237,-3.5191204074644484,-0.7141482338809605,4.377908135437671
578,1791618154.956807,0.8687815946691178,-2.357027946920956,-0.3914213292738961,2.542355769520225,2.5129141747700547,-3.5409935419976186,-0.7183771043860413,4.4010724350248065
579,1791618154.9768069,0.9454222196691177,-2.299547478170956,-0.4201615636488961,2.5215625150636995,2.531147336908921,-3.587683650483445,-0.7272709433615657,4.450517255572138
580,1791618155.0168471,0.9837425321691177,-2.304337517233456,-0.5063822667738962,2.5561971291414958,2.567968254383423,-3.680962343612345,-0.7451881286275637,4.549642851659961
581,1791618155.036847,0.8496214384191177,-2.318707634420956,-0.4297416417738961,2.5065792549245116,2.5863514400748433,-3.7275004558786335,-0.754199454068238,4.599161905898668
582,1791618155.049203,0.8065110868566177,-2.347447868795956,-0.4010014073988961,2.514313774904241,2.5975395725187442,-3.756262709161045,-0.7597013384145578,4.629672504035637
583,1791618155.069203,0.8639915556066177,-2.428878532858456,-0.43453168083639615,2.614335502033106,2.615438742710795,-3.8030003206361913,-0.7685245158601242,4.679098330566439
584,1791618155.0772543,0.8687815946691178,-2.361817985983456,-0.42495160271139615,2.552165653478972,2.6226099068025084,-3.821886097396551,-0.7720626745659169,4.699039991124738
585,1791618155.0972543,0.8496214384191177,-2.261227165670956,-0.4201615636488961,2.4518443308981834,2.6403289430173644,-3.868696715037856,-0.7808009289523828,4.748452515392019
586,1791618155.1361961,0.8352513212316177,-2.256437126608456,-0.4201615636488961,2.442476001012922,2.674575396767268,-3.9593641902097128,-0.797717288605171,4.844199749829417
587,1791618155.156196,0.7346605009191177,-2.304337517233456,-0.41537152458639615,2.4540234205030735,2.6918804766398097,-4.005786033376549,-0.8063553868020324,4.89313307151296
588,1791618155.1667888,0.8017210477941177,-2.222906853170956,-0.35789105583639613,2.390012034320788,2.7008916350059695,-4.0302813696902975,-0.8108584937650881,4.918889614519613
589,1791618155.1867888,0.8783616727941177,-2.270807243795956,-0.34831097771139613,2.459553883106474,2.7178735614978553,-4.07633394716291,-0.8191447306022144,4.967326568160701
590,1791618155.1964076,0.7298704618566177,-2.189376579733456,-0.4201615636488961,2.3457656401576106,2.7259759230251146,-4.098377740341484,-0.8230865062033387,4.990502603158646
591,1791618155.2164075,0.7586106962316177,-2.160636345358456,-0.48243207146139616,2.340209458338184,2.7425285785395195,-4.143862469682048,-0.8314070030354792,5.0382831179323215
592,1791618155.2578905,0.8065110868566177,-2.309127556295956,-0.46327191521139616,2.4894077753336457,2.776580778035176,-4.237959646826764,-0.8490185479748669,5.13717191457438
593,1791618155.2778904,0.8639915556066177,-2.237276970358456,-0.4105814855238961,2.433200938375387,2.7930413515887067,-4.283340907601287,-0.8575466572202275,5.184927732546007
594,1791618155.2870355,0.8735716337316177,-2.222906853170956,-0.5063822667738962,2.441488332398498,2.800630734302911,-4.304038095788195,-0.8614901483991139,5.206768836400062
595,1791618155.3070354,0.8448313993566177,-2.280387321920956,-0.5734428136488962,2.498548196821957,2.8173164917404168,-4.34926772047012,-0.8704405710740305,5.254623555187143
596,1791618155.3502557,0.8256712431066177,-2.385768181295956,-0.49201214958639616,2.572100070354586,2.8533809238116046,-4.447473818722195,-0.8903349725283637,5.3585914593201105
597,1791618155.3702557,0.8448313993566177,-2.342657829733456,-0.3914213292738961,2.5209118305805283,2.8700720239721424,-4.493194197400223,-0.899485255648121,5.40695674510782
598,1791618155.378737,0.7921409696691177,-2.313917595358456,-0.39621136833639614,2.4776370602525275,2.877129668560425,-4.512636317367081,-0.9032845214976509,5.427493398366154
599,1791618155.398737,0.7777708524816177,-2.266017204733456,-0.41537152458639615,2.4315211236086838,2.893630991693919,-4.558476314615345,-0.9121172049618242,5.475834586854136
600,1791618155.4067268,0.8496214384191177,-2.261227165670956,-0.36268109489889616,2.442650703638721,2.900209552686041,-4.576755131016113,-0.9155827637772482,5.495106439014596
601,1791618155.4267268,0.9310521024816177,-2.261227165670956,-0.34352093864889616,2.4694155072798023,2.9168776896061637,-4.622430435123006,-0.9240156957639876,5.543360315701285
602,1791618155.469307,0.8592015165441177,-2.261227165670956,-0.36268109489889616,2.4459994107515803,2.952758494904122,-4.719529577176433,-0.9415316744195663,5.6461689713474685
603,1791618155.489307,0.7586106962316177,-2.246857048483456,-0.3914213292738961,2.4035530869459385,2.969510511021201,-4.76505822803948,-0.9496560270715704,5.694349757560165
604,1791618155.4973068,0.8113011259191177,-2.246857048483456,-0.38184125114889617,2.4191690421126775,2.9761480635691764,-4.7832339785451525,-0.9528822256192622,5.713560109572365
605,1791618155.5173068,0.8208812040441177,-2.251647087545956,-0.41537152458639615,2.4323433272143826,2.992701302038187,-4.8286056585721555,-0.9609337972833182,5.761517808006622
606,1791618155.5271032,0.7538206571691177,-2.256437126608456,-0.46327191521139616,2.423710988739281,3.000750164872749,-4.850808221097139,-0.9649316061273489,5.784974931177397
607,1791618155.5471032,0.7681907743566176,-2.275597282858456,-0.47764203239889613,2.4487960247177707,3.017000637594955,-4.896135106939233,-0.9732805055474256,5.832812938465442
608,1791618155.5867727,0.7729808134191177,-2.275597282858456,-0.45369183708639615,2.445747046345083,3.0489835331685167,-4.9860950150147065,-0.9901272992461533,5.927714243534329
609,1791618155.6067727,0.7442405790441177,-2.275597282858456,-0.41537152458639615,2.429973361312,3.064965321529053,-5.031473242910992,-0.9986504224276154,5.975536635526536
610,1791618155.6172993,0.7538206571691177,-2.222906853170956,-0.4010014073988961,2.3812523154393315,3.0732980258739344,-5.055326272476843,-1.0031080517040045,6.000642485636737
611,1791618155.6372993,0.8256712431066177,-2.103155876608456,-0.40579144646139614,2.2955749478131056,3.0891241298099814,-5.100336717341646,-1.0115170708249,6.048081456479221
612,1791618155.6463256,0.8735716337316177,-2.1366861500459557,-0.40579144646139614,2.3437623175313593,3.096345641869941,-5.120473771279449,-1.0152923375896108,6.069384359805856
613,1791618155.6663256,0.7921409696691177,-2.155846306295956,-0.37705121208639614,2.3275154626197585,3.1124451010878156,-5.164838403666878,-1.0235768839740587,6.116418877144028
614,1791618155.706877,0.7586106962316177,-2.1366861500459557,-0.37226117302389616,2.297715446519946,3.1449078965631307,-5.254353182706516,-1.0401337054251605,6.21132442975286
615,1791618155.726877,0.7634007352941177,-2.074415642233456,-0.37705121208639614,2.2423533521562256,3.1607999773064894,-5.29819624993322,-1.0481986300735902,6.257815942278527
616,1791618155.7361746,0.6723899931066177,-2.117525993795956,-0.38184125114889617,2.2542908814770164,3.1680809201133115,-5.318443911841809,-1.0519146665789123,6.279260053983832
617,1791618155.7561746,0.8113011259191177,-2.1366861500459557,-0.44411175896139615,2.3282767179103994,3.183619114439373,-5.361846560531976,-1.0599480899388942,6.325212973321723
618,1791618155.7671332,0.7202903837316177,-2.112735954733456,-0.39621136833639614,2.2670365898500027,3.1921147506232623,-5.385553684721515,-1.0643802704422225,6.350329946724876
619,1791618155.7871332,0.8927317899816177,-2.246857048483456,-0.3914213292738961,2.449193194130286,3.207713404289454,-5.428869489685112,-1.072437277705034,6.3962622628143935
620,1791618155.8263125,0.6580198759191177,-2.232486931295956,-0.34352093864889616,2.352656942863125,3.238243885070064,-5.514157954226601,-1.0880127756968025,6.486596426742889
621,1791618155.8463125,0.5526390165441177,-2.146266228170956,-0.35789105583639613,2.24498432347349,3.2533071054391316,-5.557732904915772,-1.0958231309304935,6.532475066846145
622,1791618155.856828,0.6867601102941177,-2.323497673483456,-0.38184125114889617,2.452770602574398,3.2610164288513555,-5.580731979176534,-1.0998970306679028,6.5565670171755395
623,1791618155.876828,0.7825608915441177,-2.328287712545956,-0.41537152458639615,2.491156102054633,3.2756838173485736,-5.62489149601374,-1.1076789881393654,6.602761661148497
624,1791618155.8874469,0.6628099149816177,-2.352237907858456,-0.4297416417738961,2.4813339229613556,3.283454400726897,-5.64854855690648,-1.111864086992307,6.627474281302519
625,1791618155.9074469,0.7250804227941177,-2.309127556295956,-0.44411175896139615,2.460700498884904,3.2979762684582514,-5.693413513824258,-1.1198748483759915,6.674258354509185
626,1791618155.9474576,0.8017210477941177,-2.328287712545956,-0.4489017980238961,2.5030367826177997,3.3272516938279924,-5.7836203620205,-1.1361765521336538,6.768438925164185
627,1791618155.9674575,0.6963401884191177,-2.304337517233456,-0.36268109489889616,2.4344195669469717,3.3419375029937313,-5.828896923440219,-1.1443202916110813,6.815721131897908
628,1791618155.9773974,0.6819700712316177,-2.309127556295956,-0.35789105583639613,2.434181434722704,3.349168993073011,-5.8514631566287525,-1.1482977677513233,6.839235467577359
629,1791618155.9973974,0.6819700712316177,-2.318707634420956,-0.4105814855238961,2.4515434787563306,3.3635827423629396,-5.896999380779481,-1.156253055852515,6.886596524467196
630,1791618156.0066411,0.7825608915441177,-2.242067009420956,-0.4105814855238961,2.409946717245666,3.37026063934661,-5.918050576952727,-1.1599476559348616,6.908506204166593
631,1791618156.0266411,0.7202903837316177,-2.285177360983456,-0.39621136833639614,2.4285463257773268,3.3847961231684156,-5.963556341106255,-1.1679525215042421,6.955929996876958
632,1791618156.0690925,0.6723899931066177,-2.246857048483456,-0.41537152458639615,2.381807801353193,3.4154549219422963,-6.06008651251473,-1.184978744567503,7.056497395171317
633,1791618156.0890925,0.7107103056066177,-2.227696892233456,-0.45848187614889613,2.382844563314834,3.42980712326014,-6.10545458998724,-1.1931078059940707,7.1037777900133
634,1791618156.097264,0.7921409696691177,-2.261227165670956,-0.4201615636488961,2.4325236587060197,3.435712569449039,-6.1239616533691015,-1.1964694518996828,7.123100893651196
635,1791618156.117264,0.7777708524816177,-2.285177360983456,-0.3914213292738961,2.4454393730231465,3.450353033937238,-6.169283062344877,-1.2046803412761526,7.170512135600394
636,1791618156.1270227,0.6292796415441176,-2.242067009420956,-0.4105814855238961,2.3646214281044506,3.457454927190486,-6.19139342278734,-1.208672760094164,7.193624742108929
637,1791618156.1470227,0.5957493681066177,-2.2133267750459558,-0.4010014073988961,2.3269153081860674,3.471664192214269,-6.2365934561429786,-1.2168450534607531,7.240736294386094
638,1791618156.187184,0.7777708524816177,-2.237276970358456,-0.40579144646139614,2.403123475622409,3.5000546011248694,-6.3271492569789425,-1.2332241563892596,7.3351238401847425
639,1791618156.207184,0.8783616727941177,-2.222906853170956,-0.38184125114889617,2.420462114387878,3.514556228134489,-6.3721710647970875,-1.2413387461739824,7.38224840021717
640,1791618156.217191,0.7538206571691177,-2.175006462545956,-0.36747113396139613,2.3310799492051806,3.521948662898953,-6.394619275255992,-1.2453522036308848,7.405820695281482
641,1791618156.237191,0.6867601102941177,-2.141476189108456,-0.36747113396139613,2.2787265636544767,3.5366679879899063,-6.439229583337269,-1.2532727794807885,7.45267675026805
642,1791618156.2472272,0.7250804227941177,-2.160636345358456,-0.4105814855238961,2.3157435507107107,3.5440090883772335,-6.461495946765312,-1.2572368770061801,7.476066803705625
643,1791618156.2672272,0.7442405790441177,-2.2133267750459558,-0.3914213292738961,2.367682434289235,3.5586478751193056,-6.505773021027994,-1.2651545122764405,7.522610799460537
644,1791618156.3072283,0.6963401884191177,-2.175006462545956,-0.38663129021139614,2.316252690164606,3.587856421219079,-6.594211670033303,-1.2809491185706823,7.615587429269878
645,1791618156.3272283,0.7202903837316177,-2.160636345358456,-0.4105814855238961,2.3142482170318712,3.6023946271988097,-6.638300433739763,-1.2888574442204088,7.6619470900145705
646,1791618156.33721,0.6915501493566177,-2.251647087545956,-0.36747113396139613,2.3839444729741968,3.609618957133457,-6.660306893425369,-1.2927947799767612,7.685073537282638
647,1791618156.35721,0.7011302274816177,-2.227696892233456,-0.35310101677389616,2.3619689599149654,3.624011924489806,-6.704505690777107,-1.3005814185977873,7.731453357093266
648,1791618156.3682678,0.7490306181066176,-2.141476189108456,-0.38663129021139614,2.301401940111763,3.6319787073367995,-6.728900849318276,-1.304854310163419,7.75706263615656
649,1791618156.3882678,0.7442405790441177,-2.198956657858456,-0.3914213292738961,2.3542546760379386,3.64646648422617,-6.772915813832399,-1.312590392175265,7.803332620071797
650,1791618156.4289064,0.7155003446691177,-2.232486931295956,-0.39621136833639614,2.377587451604643,3.6759381331799243,-6.8624426766608995,-1.328352360288078,7.897478119153355
651,1791618156.4489064,0.7250804227941177,-2.275597282858456,-0.43453168083639615,2.4275301017541655,3.6904275889757066,-6.906655693582545,-1.3361920236587517,7.943963606617197
652,1791618156.4575486,0.7969310087316177,-2.208536735983456,-0.4489017980238961,2.390448989444355,3.6967359890814033,-6.925801314116666,-1.3396440931278515,7.964121239147615
653,1791618156.4775486,0.6771800321691177,-2.237276970358456,-0.4393217198988961,2.3784416351131688,3.711356348071003,-6.970131198463889,-1.347766960530783,8.010828337073823
