imu_index,t_imu,ax,ay,az,mag
0,1788018414.966729,-0.0067624080882356784,-0.001596679687499637,-0.0028646312040442354,0.0075156943199875545
1,1788018414.986729,-0.0067624080882356784,0.003193359375000363,0.0067154469209557656,0.0100511160871772
2,1788018414.9886205,-0.0067624080882356784,-0.0063867187499996375,0.011505485983455766,0.014795152829860506
3,1788018415.0086205,-0.0019723690257356786,0.003193359375000363,0.0067154469209557656,0.0076931795130335085
4,1788018415.0456073,-0.0067624080882356784,0.003193359375000363,0.001925407858455765,0.007722363800750471
5,1788018415.0656073,0.0028176700367643216,0.007983398437500363,0.011505485983455766,0.014284611397005513
6,1788018415.075056,0.007607709099264322,-0.001596679687499637,0.016295525045955765,0.018054660348144874
7,1788018415.095056,-0.0019723690257356786,-0.001596679687499637,0.0067154469209557656,0.007178917254456255
8,1788018415.1045713,-0.0019723690257356786,-0.001596679687499637,0.001925407858455765,0.0031854075123221933
9,1788018415.1245713,-0.0019723690257356786,-0.001596679687499637,0.001925407858455765,0.0031854075123221933
10,1788018415.164583,-0.01155244715073568,-0.001596679687499637,0.001925407858455765,0.011820136065901191
11,1788018415.184583,-0.01155244715073568,-0.001596679687499637,0.0067154469209557656,0.01345754987147323
12,1788018415.1949298,0.0028176700367643216,-0.001596679687499637,0.0067154469209557656,0.007455593726104426
13,1788018415.2149298,-0.0019723690257356786,-0.001596679687499637,0.016295525045955765,0.01649193021212275
14,1788018415.2545104,-0.0019723690257356786,0.003193359375000363,0.0067154469209557656,0.0076931795130335085
15,1788018415.2745104,0.0028176700367643216,0.003193359375000363,0.0067154469209557656,0.007951983141465809
16,1788018415.2853866,-0.0019723690257356786,0.003193359375000363,0.011505485983455766,0.012102230843405745
17,1788018415.3053865,-0.0019723690257356786,-0.001596679687499637,0.0067154469209557656,0.007178917254456255
18,1788018415.3153372,-0.0019723690257356786,-0.0063867187499996375,0.0067154469209557656,0.009475106506707602
19,1788018415.3353372,-0.0067624080882356784,0.003193359375000363,0.0067154469209557656,0.0100511160871772
20,1788018415.3742912,-0.01155244715073568,-0.001596679687499637,0.0067154469209557656,0.01345754987147323
21,1788018415.3942912,-0.0019723690257356786,0.003193359375000363,0.011505485983455766,0.012102230843405745
22,1788018415.4067771,-0.0019723690257356786,-0.001596679687499637,0.011505485983455766,0.011782013126526915
23,1788018415.4267771,0.0028176700367643216,0.003193359375000363,0.011505485983455766,0.012268374637639627
24,1788018415.4353774,0.0028176700367643216,0.007983398437500363,0.0067154469209557656,0.010806069701613857
25,1788018415.4553773,-0.0067624080882356784,-0.001596679687499637,0.011505485983455766,0.013440824263853996
26,1788018415.4947846,-0.0019723690257356786,0.003193359375000363,0.0067154469209557656,0.0076931795130335085
27,1788018415.5147846,-0.0067624080882356784,0.003193359375000363,0.0067154469209557656,0.0100511160871772
28,1788018415.5241752,-0.0019723690257356786,-0.001596679687499637,0.011505485983455766,0.011782013126526915
29,1788018415.5441751,0.0028176700367643216,0.003193359375000363,0.0067154469209557656,0.007951983141465809
30,1788018415.5544753,-0.0019723690257356786,0.003193359375000363,0.0067154469209557656,0.0076931795130335085
31,1788018415.5744753,-0.0019723690257356786,-0.001596679687499637,0.0067154469209557656,0.007178917254456255
32,1788018415.6163316,0.0028176700367643216,0.003193359375000363,0.0067154469209557656,0.007951983141465809
33,1788018415.6363316,-0.0019723690257356786,-0.001596679687499637,0.0067154469209557656,0.007178917254456255
34,1788018415.6442182,0.0028176700367643216,-0.001596679687499637,0.001925407858455765,0.003767737501731856
35,1788018415.6642182,-0.0067624080882356784,-0.001596679687499637,0.011505485983455766,0.013440824263853996
36,1788018415.6750455,-0.0019723690257356786,-0.001596679687499637,0.0067154469209557656,0.007178917254456255
37,1788018415.6950455,-0.0019723690257356786,0.003193359375000363,0.001925407858455765,0.004218409545431481
38,1788018415.737618,-0.0067624080882356784,-0.001596679687499637,0.0067154469209557656,0.00966316596796741
39,1788018415.757618,0.0028176700367643216,-0.001596679687499637,-0.0028646312040442354,0.004323744025232914
40,1788018415.7656372,-0.0019723690257356786,-0.001596679687499637,0.0067154469209557656,0.007178917254456255
41,1788018415.7856371,0.0028176700367643216,0.003193359375000363,0.0067154469209557656,0.007951983141465809
42,1788018415.7959518,-0.0019723690257356786,0.003193359375000363,0.0067154469209557656,0.0076931795130335085
43,1788018415.8159518,-0.0067624080882356784,-0.001596679687499637,0.001925407858455765,0.007210183395567167
44,1788018415.8553839,-0.0019723690257356786,-0.001596679687499637,0.0067154469209557656,0.007178917254456255
45,1788018415.8753839,-0.0019723690257356786,0.003193359375000363,0.011505485983455766,0.012102230843405745
46,1788018415.8868124,-0.0019723690257356786,-0.001596679687499637,0.0067154469209557656,0.007178917254456255
47,1788018415.9068124,-0.0019723690257356786,0.007983398437500363,0.001925407858455765,0.00844583244014277
48,1788018415.916543,-0.0067624080882356784,-0.001596679687499637,0.011505485983455766,0.013440824263853996
49,1788018415.936543,-0.0067624080882356784,-0.001596679687499637,0.016295525045955765,0.017715069452296284
50,1788018415.9751713,0.0028176700367643216,0.007983398437500363,-0.0028646312040442354,0.008937562698137934
51,1788018415.9951713,-0.0067624080882356784,-0.001596679687499637,0.011505485983455766,0.013440824263853996
52,1788018416.0075927,-0.0019723690257356786,0.003193359375000363,0.011505485983455766,0.012102230843405745
53,1788018416.0275927,-0.0019723690257356786,0.003193359375000363,0.001925407858455765,0.004218409545431481
54,1788018416.034261,-0.0067624080882356784,-0.001596679687499637,0.011505485983455766,0.013440824263853996
55,1788018416.054261,-0.0019723690257356786,-0.001596679687499637,0.001925407858455765,0.0031854075123221933
56,1788018416.0952673,-0.0067624080882356784,0.003193359375000363,0.0067154469209557656,0.0100511160871772
57,1788018416.1152673,-0.0019723690257356786,0.003193359375000363,0.016295525045955765,0.016722198425893522
58,1788018416.1262789,0.007607709099264322,0.003193359375000363,0.0067154469209557656,0.010638233367674643
59,1788018416.1462789,-0.0019723690257356786,0.003193359375000363,0.011505485983455766,0.012102230843405745
60,1788018416.1553378,-0.0019723690257356786,-0.001596679687499637,0.0067154469209557656,0.007178917254456255
61,1788018416.1753378,0.0028176700367643216,0.003193359375000363,0.001925407858455765,0.004673756942266615
62,1788018416.2151608,-0.0067624080882356784,-0.001596679687499637,0.001925407858455765,0.007210183395567167
63,1788018416.2351608,-0.0019723690257356786,-0.001596679687499637,0.001925407858455765,0.0031854075123221933
64,1788018416.246788,0.0028176700367643216,-0.001596679687499637,0.0067154469209557656,0.007455593726104426
65,1788018416.266788,0.0028176700367643216,-0.001596679687499637,0.0067154469209557656,0.007455593726104426
66,1788018416.2757678,0.0028176700367643216,0.007983398437500363,0.0067154469209557656,0.010806069701613857
67,1788018416.2957678,0.0028176700367643216,0.003193359375000363,0.011505485983455766,0.012268374637639627
68,1788018416.3359313,0.007607709099264322,-0.001596679687499637,0.0067154469209557656,0.010272480280422902
69,1788018416.3559313,0.0028176700367643216,-0.001596679687499637,0.0067154469209557656,0.007455593726104426
70,1788018416.3646874,-0.0019723690257356786,-0.001596679687499637,0.011505485983455766,0.011782013126526915
71,1788018416.3846874,-0.0019723690257356786,-0.0063867187499996375,0.0067154469209557656,0.009475106506707602
72,1788018416.396401,-0.0019723690257356786,-0.0063867187499996375,0.0067154469209557656,0.009475106506707602
73,1788018416.416401,-0.0019723690257356786,0.003193359375000363,0.0067154469209557656,0.0076931795130335085
74,1788018416.4564347,0.007607709099264322,0.003193359375000363,0.0067154469209557656,0.010638233367674643
75,1788018416.4764347,-0.0019723690257356786,-0.001596679687499637,0.011505485983455766,0.011782013126526915
76,1788018416.4854379,0.0028176700367643216,0.003193359375000363,0.0067154469209557656,0.007951983141465809
77,1788018416.5054379,0.0028176700367643216,0.007983398437500363,0.0067154469209557656,0.010806069701613857
78,1788018416.5157468,0.0028176700367643216,-0.001596679687499637,0.011505485983455766,0.011952608843932377
79,1788018416.5357468,0.0028176700367643216,0.003193359375000363,-0.0028646312040442354,0.005132535481530165
80,1788018416.5747652,-0.0019723690257356786,0.003193359375000363,0.011505485983455766,0.012102230843405745
81,1788018416.5947652,-0.0019723690257356786,-0.0063867187499996375,0.016295525045955765,0.017613192569453446
82,1788018416.6064878,0.007607709099264322,0.003193359375000363,0.0067154469209557656,0.010638233367674643
83,1788018416.6264877,0.007607709099264322,-0.001596679687499637,0.011505485983455766,0.013885345925795302
84,1788018416.6651495,0.0028176700367643216,0.007983398437500363,0.0067154469209557656,0.010806069701613857
85,1788018416.6851494,-0.0019723690257356786,-0.001596679687499637,0.011505485983455766,0.011782013126526915
86,1788018416.6953962,-0.0019723690257356786,-0.0063867187499996375,0.016295525045955765,0.017613192569453446
87,1788018416.7153962,0.0028176700367643216,0.007983398437500363,-0.0028646312040442354,0.008937562698137934
88,1788018416.7248876,-0.0067624080882356784,-0.001596679687499637,0.016295525045955765,0.017715069452296284
89,1788018416.7448876,0.0028176700367643216,0.007983398437500363,0.001925407858455765,0.008682229579397559
90,1788018416.7853756,0.0028176700367643216,0.003193359375000363,0.001925407858455765,0.004673756942266615
91,1788018416.8053756,-0.0067624080882356784,-0.0063867187499996375,0.011505485983455766,0.014795152829860506
92,1788018416.8150213,0.017187787224264322,0.007983398437500363,-0.0028646312040442354,0.019166658347600684
93,1788018416.8350213,-0.0019723690257356786,-0.001596679687499637,0.016295525045955765,0.01649193021212275
94,1788018416.845337,-0.0019723690257356786,0.003193359375000363,0.011505485983455766,0.012102230843405745
95,1788018416.865337,0.007607709099264322,0.007983398437500363,0.001925407858455765,0.01119460065265017
96,1788018416.9049325,-0.01155244715073568,-0.015966796874999637,0.021085564108455766,0.028861716016027824
97,1788018416.9249325,-0.0019723690257356786,0.007983398437500363,-0.007654670266544235,0.011234717044727078
98,1788018416.9362826,0.0028176700367643216,-0.0063867187499996375,0.016295525045955765,0.01772776289753019
99,1788018416.9562826,-0.0067624080882356784,-0.0063867187499996375,0.025875603170955767,0.02749667578097775
100,1788018416.964375,0.0028176700367643216,0.017563476562500364,-0.0028646312040442354,0.01801724411037279
101,1788018416.984375,-0.0067624080882356784,-0.0063867187499996375,0.021085564108455766,0.023046070235839128
102,1788018417.0244155,0.0028176700367643216,0.003193359375000363,0.0067154469209557656,0.007951983141465809
103,1788018417.0444155,-0.0067624080882356784,0.007983398437500363,0.001925407858455765,0.010638233367675377
104,1788018417.0551348,-0.01155244715073568,-0.0063867187499996375,0.011505485983455766,0.01751072297986679
105,1788018417.0751348,0.012397748161764323,0.012773437500000364,-0.0028646312040442354,0.018029724817204787
106,1788018417.0850224,-0.0067624080882356784,-0.001596679687499637,0.016295525045955765,0.017715069452296284
107,1788018417.1050224,-0.0019723690257356786,0.003193359375000363,0.011505485983455766,0.012102230843405745
108,1788018417.144543,0.007607709099264322,0.007983398437500363,0.0067154469209557656,0.012911588426645526
109,1788018417.164543,-0.0067624080882356784,-0.001596679687499637,0.011505485983455766,0.013440824263853996
110,1788018417.1765587,0.007607709099264322,0.007983398437500363,0.001925407858455765,0.01119460065265017
111,1788018417.1965587,0.0028176700367643216,-0.001596679687499637,0.011505485983455766,0.011952608843932377
112,1788018417.2055516,-0.0019723690257356786,0.003193359375000363,0.011505485983455766,0.012102230843405745
113,1788018417.2255516,-0.0019723690257356786,0.003193359375000363,0.011505485983455766,0.012102230843405745
114,1788018417.2675335,-0.0067624080882356784,0.003193359375000363,0.0067154469209557656,0.0100511160871772
115,1788018417.2875335,0.007607709099264322,0.007983398437500363,0.0067154469209557656,0.012911588426645526
116,1788018417.2964573,0.0028176700367643216,0.003193359375000363,0.016295525045955765,0.01684283067234703
117,1788018417.3164573,0.007607709099264322,0.007983398437500363,0.011505485983455766,0.01593700398652173
118,1788018417.3267145,-0.0019723690257356786,0.003193359375000363,0.001925407858455765,0.004218409545431481
119,1788018417.3467145,-0.0019723690257356786,-0.001596679687499637,0.011505485983455766,0.011782013126526915
120,1788018417.3876288,0.007607709099264322,0.003193359375000363,0.0067154469209557656,0.010638233367674643
121,1788018417.4076288,-0.0067624080882356784,0.003193359375000363,0.001925407858455765,0.007722363800750471
122,1788018417.4166932,-0.0019723690257356786,0.003193359375000363,0.0067154469209557656,0.0076931795130335085
123,1788018417.4366932,0.0028176700367643216,0.003193359375000363,0.011505485983455766,0.012268374637639627
124,1788018417.4473042,0.0028176700367643216,0.003193359375000363,0.0067154469209557656,0.007951983141465809
125,1788018417.4673042,0.0028176700367643216,0.003193359375000363,0.011505485983455766,0.012268374637639627
126,1788018417.5044172,0.0028176700367643216,0.003193359375000363,0.011505485983455766,0.012268374637639627
127,1788018417.5244172,0.0028176700367643216,0.003193359375000363,0.0067154469209557656,0.007951983141465809
128,1788018417.5378199,-0.0067624080882356784,-0.001596679687499637,0.011505485983455766,0.013440824263853996
129,1788018417.5578198,0.0028176700367643216,0.003193359375000363,0.0067154469209557656,0.007951983141465809
130,1788018417.5674868,-0.0067624080882356784,-0.001596679687499637,0.001925407858455765,0.007210183395567167
131,1788018417.5874867,-0.0019723690257356786,-0.0063867187499996375,0.016295525045955765,0.017613192569453446
132,1788018417.6277483,0.012397748161764323,0.003193359375000363,0.0067154469209557656,0.014456795320146426
133,1788018417.6477482,-0.0019723690257356786,-0.001596679687499637,0.011505485983455766,0.011782013126526915
134,1788018417.655493,0.007607709099264322,0.003193359375000363,0.011505485983455766,0.014158071533666898
135,1788018417.675493,0.007607709099264322,0.007983398437500363,0.0067154469209557656,0.012911588426645526
136,1788018417.6856155,-0.0067624080882356784,-0.001596679687499637,0.0067154469209557656,0.00966316596796741
137,1788018417.7056155,-0.0019723690257356786,0.003193359375000363,0.0067154469209557656,0.0076931795130335085
138,1788018417.7466238,0.0028176700367643216,0.012773437500000364,0.001925407858455765,0.013221466084511892
139,1788018417.7666237,-0.0019723690257356786,0.003193359375000363,0.0067154469209557656,0.0076931795130335085
140,1788018417.7755883,-0.0019723690257356786,0.003193359375000363,0.011505485983455766,0.012102230843405745
141,1788018417.7955883,0.0028176700367643216,0.007983398437500363,0.0067154469209557656,0.010806069701613857
142,1788018417.8073914,0.0028176700367643216,-0.001596679687499637,0.016295525045955765,0.01661423446878986
143,1788018417.8273914,-0.0019723690257356786,0.007983398437500363,0.0067154469209557656,0.010617067275558681
144,1788018417.8657556,-0.0019723690257356786,-0.001596679687499637,0.0067154469209557656,0.007178917254456255
145,1788018417.8857555,-0.0019723690257356786,-0.001596679687499637,0.016295525045955765,0.01649193021212275
146,1788018417.8963733,0.0028176700367643216,0.007983398437500363,-0.0028646312040442354,0.008937562698137934
147,1788018417.9163733,-0.0067624080882356784,-0.0063867187499996375,0.016295525045955765,0.018763381253569515
148,1788018417.925309,0.0028176700367643216,-0.0063867187499996375,0.011505485983455766,0.013457549871472647
149,1788018417.945309,0.0028176700367643216,0.012773437500000364,0.001925407858455765,0.013221466084511892
150,1788018417.9847813,-0.0019723690257356786,-0.001596679687499637,0.021085564108455766,0.021237717376638043
151,1788018418.0047812,0.007607709099264322,0.003193359375000363,0.011505485983455766,0.014158071533666898
152,1788018418.0166218,-0.0019723690257356786,0.007983398437500363,-0.0028646312040442354,0.008708099799654841
153,1788018418.0366218,-0.0019723690257356786,-0.0063867187499996375,0.016295525045955765,0.017613192569453446
154,1788018418.0771604,0.012397748161764323,0.003193359375000363,0.001925407858455765,0.012946385557437897
155,1788018418.0971603,-0.0019723690257356786,0.003193359375000363,0.001925407858455765,0.004218409545431481
156,1788018418.1074848,-0.0019723690257356786,-0.001596679687499637,0.016295525045955765,0.01649193021212275
157,1788018418.1274848,0.012397748161764323,0.007983398437500363,0.001925407858455765,0.01487097863342615
158,1788018418.1362576,-0.0067624080882356784,-0.0063867187499996375,0.011505485983455766,0.014795152829860506
159,1788018418.1562576,0.0028176700367643216,0.003193359375000363,0.011505485983455766,0.012268374637639627
160,1788018418.1966045,0.012397748161764323,0.003193359375000363,0.001925407858455765,0.012946385557437897
161,1788018418.2166045,-0.0067624080882356784,0.003193359375000363,0.011505485983455766,0.013722387363911395
162,1788018418.2265604,0.0028176700367643216,-0.001596679687499637,0.001925407858455765,0.003767737501731856
163,1788018418.2465603,0.0028176700367643216,0.003193359375000363,0.011505485983455766,0.012268374637639627
164,1788018418.2546268,0.0028176700367643216,0.003193359375000363,0.0067154469209557656,0.007951983141465809
165,1788018418.2746267,0.007607709099264322,0.007983398437500363,0.0067154469209557656,0.012911588426645526
166,1788018418.3151402,0.0028176700367643216,-0.0063867187499996375,0.016295525045955765,0.01772776289753019
167,1788018418.3351402,-0.0019723690257356786,0.003193359375000363,0.001925407858455765,0.004218409545431481
168,1788018418.3461235,0.0028176700367643216,0.003193359375000363,0.016295525045955765,0.01684283067234703
169,1788018418.3661234,0.0028176700367643216,0.003193359375000363,0.0067154469209557656,0.007951983141465809
170,1788018418.3761728,0.0028176700367643216,0.003193359375000363,0.001925407858455765,0.004673756942266615
171,1788018418.3961728,-0.0067624080882356784,-0.001596679687499637,0.016295525045955765,0.017715069452296284
172,1788018418.437604,0.007607709099264322,0.012773437500000364,-0.0028646312040442354,0.015140807615204305
173,1788018418.457604,-0.0019723690257356786,-0.001596679687499637,0.021085564108455766,0.021237717376638043
174,1788018418.4683013,-0.0019723690257356786,0.003193359375000363,0.0067154469209557656,0.0076931795130335085
175,1788018418.4883013,0.0028176700367643216,0.003193359375000363,0.0067154469209557656,0.007951983141465809
176,1788018418.4967434,-0.0067624080882356784,-0.001596679687499637,0.016295525045955765,0.017715069452296284
177,1788018418.5167434,0.0028176700367643216,0.007983398437500363,0.001925407858455765,0.008682229579397559
178,1788018418.5564406,-0.0067624080882356784,-0.001596679687499637,0.011505485983455766,0.013440824263853996
179,1788018418.5764406,-0.0067624080882356784,0.003193359375000363,0.011505485983455766,0.013722387363911395
180,1788018418.5864515,-0.0019723690257356786,0.007983398437500363,0.001925407858455765,0.00844583244014277
181,1788018418.6064515,-0.0067624080882356784,-0.001596679687499637,0.011505485983455766,0.013440824263853996
182,1788018418.6154888,-0.0019723690257356786,-0.001596679687499637,0.0067154469209557656,0.007178917254456255
183,1788018418.6354887,-0.0067624080882356784,-0.001596679687499637,0.0067154469209557656,0.00966316596796741
184,1788018418.675578,0.0028176700367643216,0.003193359375000363,0.0067154469209557656,0.007951983141465809
185,1788018418.695578,0.0028176700367643216,0.007983398437500363,0.001925407858455765,0.008682229579397559
186,1788018418.7072496,-0.0019723690257356786,-0.001596679687499637,0.016295525045955765,0.01649193021212275
187,1788018418.7272496,0.0028176700367643216,0.007983398437500363,0.001925407858455765,0.008682229579397559
188,1788018418.7356472,-0.0019723690257356786,-0.001596679687499637,0.011505485983455766,0.011782013126526915
189,1788018418.7556472,-0.0067624080882356784,0.003193359375000363,0.0067154469209557656,0.0100511160871772
190,1788018418.797329,-0.0019723690257356786,0.003193359375000363,0.001925407858455765,0.004218409545431481
191,1788018418.817329,-0.0067624080882356784,-0.001596679687499637,0.011505485983455766,0.013440824263853996
192,1788018418.8272202,0.0028176700367643216,0.003193359375000363,0.001925407858455765,0.004673756942266615
193,1788018418.8472202,-0.0019723690257356786,-0.001596679687499637,0.0067154469209557656,0.007178917254456255
194,1788018418.8552146,-0.0019723690257356786,0.003193359375000363,0.0067154469209557656,0.0076931795130335085
195,1788018418.8752146,0.0028176700367643216,0.003193359375000363,0.001925407858455765,0.004673756942266615
196,1788018418.9164395,-0.0067624080882356784,-0.001596679687499637,0.0067154469209557656,0.00966316596796741
197,1788018418.9364395,-0.0067624080882356784,0.003193359375000363,0.001925407858455765,0.007722363800750471
198,1788018418.9474285,-0.0019723690257356786,-0.001596679687499637,0.0067154469209557656,0.007178917254456255
199,1788018418.9674284,-0.0067624080882356784,-0.001596679687499637,0.011505485983455766,0.013440824263853996
200,1788018418.9756134,-0.0019723690257356786,0.003193359375000363,0.001925407858455765,0.004218409545431481
201,1788018418.9956133,-0.0067624080882356784,0.003193359375000363,0.011505485983455766,0.013722387363911395
202,1788018419.0364072,0.007607709099264322,0.003193359375000363,0.011505485983455766,0.014158071533666898
203,1788018419.0564072,-0.0019723690257356786,0.003193359375000363,0.0067154469209557656,0.0076931795130335085
204,1788018419.0660913,-0.0067624080882356784,-0.001596679687499637,0.011505485983455766,0.013440824263853996
205,1788018419.0860913,0.0028176700367643216,0.003193359375000363,0.011505485983455766,0.012268374637639627
206,1788018419.0953884,-0.0019723690257356786,0.003193359375000363,0.0067154469209557656,0.0076931795130335085
207,1788018419.1153884,-0.0019723690257356786,-0.001596679687499637,0.011505485983455766,0.011782013126526915
208,1788018419.15543,0.0028176700367643216,0.003193359375000363,0.001925407858455765,0.004673756942266615
209,1788018419.17543,-0.0019723690257356786,-0.001596679687499637,0.011505485983455766,0.011782013126526915
210,1788018419.1855183,-0.0019723690257356786,0.003193359375000363,0.0067154469209557656,0.0076931795130335085
211,1788018419.2055182,-0.0019723690257356786,0.007983398437500363,0.011505485983455766,0.014142174440341973
212,1788018419.216686,-0.0019723690257356786,-0.001596679687499637,0.011505485983455766,0.011782013126526915
213,1788018419.236686,-0.0019723690257356786,0.003193359375000363,0.0067154469209557656,0.0076931795130335085
214,1788018419.2776818,-0.0067624080882356784,-0.001596679687499637,0.0067154469209557656,0.00966316596796741
215,1788018419.2976818,-0.0019723690257356786,0.003193359375000363,0.0067154469209557656,0.0076931795130335085
216,1788018419.305656,-0.0067624080882356784,-0.001596679687499637,0.011505485983455766,0.013440824263853996
217,1788018419.325656,-0.0019723690257356786,0.007983398437500363,-0.0028646312040442354,0.008708099799654841
218,1788018419.3356652,-0.0019723690257356786,0.003193359375000363,0.011505485983455766,0.012102230843405745
219,1788018419.3556652,-0.0019723690257356786,-0.001596679687499637,0.011505485983455766,0.011782013126526915
220,1788018419.3970292,-0.0067624080882356784,-0.001596679687499637,0.0067154469209557656,0.00966316596796741
221,1788018419.4170291,-0.01155244715073568,-0.001596679687499637,0.016295525045955765,0.02003877635282121
222,1788018419.4253128,0.007607709099264322,0.007983398437500363,0.0067154469209557656,0.012911588426645526
223,1788018419.4453127,-0.0019723690257356786,0.007983398437500363,0.0067154469209557656,0.010617067275558681
224,1788018419.485512,-0.0067624080882356784,-0.001596679687499637,0.011505485983455766,0.013440824263853996
225,1788018419.505512,0.012397748161764323,0.003193359375000363,0.0067154469209557656,0.014456795320146426
226,1788018419.5145988,-0.0019723690257356786,-0.001596679687499637,0.0067154469209557656,0.007178917254456255
227,1788018419.5345988,-0.0019723690257356786,0.003193359375000363,0.001925407858455765,0.004218409545431481
228,1788018419.5452726,0.007607709099264322,-0.001596679687499637,0.0067154469209557656,0.010272480280422902
229,1788018419.5652726,-0.0067624080882356784,-0.001596679687499637,0.0067154469209557656,0.00966316596796741
230,1788018419.6052232,-0.0019723690257356786,-0.001596679687499637,0.0067154469209557656,0.007178917254456255
231,1788018419.6252232,0.0028176700367643216,0.007983398437500363,0.001925407858455765,0.008682229579397559
232,1788018419.6361423,0.0028176700367643216,0.003193359375000363,0.0067154469209557656,0.007951983141465809
233,1788018419.6561422,-0.01155244715073568,0.003193359375000363,0.0067154469209557656,0.013738770200298784
234,1788018419.6663787,-0.0019723690257356786,0.007983398437500363,0.0067154469209557656,0.010617067275558681
235,1788018419.6863787,0.0028176700367643216,-0.001596679687499637,0.016295525045955765,0.01661423446878986
236,1788018419.7275279,-0.0067624080882356784,0.007983398437500363,-0.007654670266544235,0.012963749097125991
237,1788018419.7475278,-0.0019723690257356786,-0.0063867187499996375,0.021085564108455766,0.022119706818515397
238,1788018419.7565916,0.007607709099264322,0.003193359375000363,0.011505485983455766,0.014158071533666898
239,1788018419.7765915,-0.0067624080882356784,0.012773437500000364,-0.017234748391544236,0.02249283043189735
240,1788018419.7845771,-0.0067624080882356784,-0.015966796874999637,0.03545568129595577,0.03946864707283138
241,1788018419.804577,0.007607709099264322,-0.001596679687499637,0.0067154469209557656,0.010272480280422902
242,1788018419.844494,-0.01155244715073568,0.003193359375000363,-0.0028646312040442354,0.012323258140752694
243,1788018419.864494,-0.01634248621323568,-0.011176757812499638,0.021085564108455766,0.028924000148680473
244,1788018419.8759508,0.021977826286764323,0.012773437500000364,-0.0028646312040442354,0.025581080231154987
245,1788018419.8959508,-0.0067624080882356784,-0.001596679687499637,0.021085564108455766,0.022200913561115167
246,1788018419.9047277,-0.0067624080882356784,0.003193359375000363,0.016295525045955765,0.01792963590743297
247,1788018419.9247277,0.017187787224264322,0.022353515625000365,-0.012444709329044236,0.03082159114562582
248,1788018419.9681857,-0.02113252527573568,-0.0063867187499996375,0.030665642233455765,0.037785650907606584
249,1788018419.9881856,-0.0019723690257356786,0.003193359375000363,-0.0028646312040442354,0.004721641198436
250,1788018419.9972618,0.007607709099264322,-0.001596679687499637,0.001925407858455765,0.008008359331655038
251,1788018420.0172617,-0.01634248621323568,-0.011176757812499638,0.016295525045955765,0.025642560467949403
252,1788018420.0280976,0.012397748161764323,0.012773437500000364,-0.007654670266544235,0.019376760357151107
253,1788018420.0480976,-0.0019723690257356786,-0.001596679687499637,0.016295525045955765,0.01649193021212275
254,1788018420.0870917,-0.0019723690257356786,-0.001596679687499637,0.016295525045955765,0.01649193021212275
255,1788018420.1070917,0.007607709099264322,0.007983398437500363,-0.0028646312040442354,0.011393770240183726
256,1788018420.115532,-0.01155244715073568,-0.011176757812499638,0.021085564108455766,0.026513769331077967
257,1788018420.135532,-0.0067624080882356784,0.003193359375000363,-0.0028646312040442354,0.008008359331656013
258,1788018420.1454828,-0.01155244715073568,-0.001596679687499637,0.011505485983455766,0.016382448806894285
259,1788018420.1654828,-0.0067624080882356784,-0.001596679687499637,0.016295525045955765,0.017715069452296284
260,1788018420.2074604,0.0028176700367643216,0.007983398437500363,-0.007654670266544235,0.011413496043609035
261,1788018420.2274604,-0.0019723690257356786,-0.0063867187499996375,0.025875603170955767,0.026725030503744137
262,1788018420.2372544,0.007607709099264322,0.007983398437500363,-0.0028646312040442354,0.011393770240183726
263,1788018420.2572544,-0.0067624080882356784,-0.001596679687499637,0.001925407858455765,0.007210183395567167
264,1788018420.266156,-0.0019723690257356786,-0.001596679687499637,0.021085564108455766,0.021237717376638043
265,1788018420.286156,0.0028176700367643216,0.012773437500000364,-0.007654670266544235,0.0151556572570117
266,1788018420.325269,-0.01634248621323568,-0.0063867187499996375,0.016295525045955765,0.023946005273213458
267,1788018420.345269,-0.0019723690257356786,0.003193359375000363,0.011505485983455766,0.012102230843405745
268,1788018420.3552139,0.007607709099264322,0.007983398437500363,-0.007654670266544235,0.013424077817132497
269,1788018420.3752139,-0.0067624080882356784,-0.011176757812499638,0.021085564108455766,0.024804255524464042
270,1788018420.3862133,0.012397748161764323,0.017563476562500364,-0.007654670266544235,0.022820469875389215
271,1788018420.4062133,0.007607709099264322,0.003193359375000363,0.011505485983455766,0.014158071533666898
272,1788018420.4465792,-0.0067624080882356784,-0.001596679687499637,0.021085564108455766,0.022200913561115167
273,1788018420.4665792,0.0028176700367643216,0.007983398437500363,-0.007654670266544235,0.011413496043609035
274,1788018420.47673,-0.0067624080882356784,-0.011176757812499638,0.021085564108455766,0.024804255524464042
275,1788018420.49673,-0.0019723690257356786,0.003193359375000363,0.0067154469209557656,0.0076931795130335085
276,1788018420.5078833,0.0028176700367643216,0.007983398437500363,0.001925407858455765,0.008682229579397559
277,1788018420.5278833,-0.0067624080882356784,-0.0063867187499996375,0.021085564108455766,0.023046070235839128
278,1788018420.5646682,0.007607709099264322,0.012773437500000364,-0.007654670266544235,0.016722198425893682
279,1788018420.5846682,-0.0019723690257356786,-0.001596679687499637,0.011505485983455766,0.011782013126526915
280,1788018420.5952015,0.0028176700367643216,0.003193359375000363,0.011505485983455766,0.012268374637639627
281,1788018420.6152015,0.0028176700367643216,0.007983398437500363,0.001925407858455765,0.008682229579397559
282,1788018420.6272132,-0.0067624080882356784,-0.011176757812499638,0.016295525045955765,0.020885263102831113
283,1788018420.6472132,0.0028176700367643216,0.007983398437500363,-0.0028646312040442354,0.008937562698137934
284,1788018420.687404,-0.0019723690257356786,-0.001596679687499637,0.0067154469209557656,0.007178917254456255
285,1788018420.707404,0.0028176700367643216,-0.001596679687499637,0.011505485983455766,0.011952608843932377
286,1788018420.7173028,0.007607709099264322,0.007983398437500363,0.0067154469209557656,0.012911588426645526
287,1788018420.7373028,-0.0067624080882356784,-0.0063867187499996375,0.021085564108455766,0.023046070235839128
288,1788018420.7475996,0.0028176700367643216,0.012773437500000364,0.001925407858455765,0.013221466084511892
289,1788018420.7675996,-0.0019723690257356786,0.003193359375000363,0.0067154469209557656,0.0076931795130335085
290,1788018420.8066537,-0.01155244715073568,-0.0063867187499996375,0.016295525045955765,0.020971250513155133
291,1788018420.8266537,0.0028176700367643216,0.012773437500000364,-0.0028646312040442354,0.013390522093543588
292,1788018420.838094,-0.01155244715073568,-0.001596679687499637,0.016295525045955765,0.02003877635282121
293,1788018420.858094,-0.0067624080882356784,-0.001596679687499637,0.011505485983455766,0.013440824263853996
294,1788018420.8968277,0.0028176700367643216,0.003193359375000363,0.0067154469209557656,0.007951983141465809
295,1788018420.9168277,-0.0067624080882356784,-0.0063867187499996375,0.016295525045955765,0.018763381253569515
296,1788018420.9258227,0.007607709099264322,0.012773437500000364,0.0067154469209557656,0.016313649826253444
297,1788018420.9458227,-0.0019723690257356786,0.003193359375000363,0.016295525045955765,0.016722198425893522
298,1788018420.956651,0.0028176700367643216,-0.001596679687499637,0.011505485983455766,0.011952608843932377
299,1788018420.976651,0.0028176700367643216,0.007983398437500363,-0.0028646312040442354,0.008937562698137934
300,1788018421.01661,-0.0067624080882356784,-0.0063867187499996375,0.016295525045955765,0.018763381253569515
301,1788018421.03661,0.0028176700367643216,0.003193359375000363,0.011505485983455766,0.012268374637639627
302,1788018421.0464213,-0.0019723690257356786,0.003193359375000363,-0.0028646312040442354,0.004721641198436
303,1788018421.0664213,-0.0067624080882356784,-0.001596679687499637,0.016295525045955765,0.017715069452296284
304,1788018421.0765579,0.007607709099264322,0.007983398437500363,0.001925407858455765,0.01119460065265017
305,1788018421.0965579,0.0028176700367643216,-0.001596679687499637,0.011505485983455766,0.011952608843932377
306,1788018421.136597,0.0028176700367643216,-0.001596679687499637,0.011505485983455766,0.011952608843932377
307,1788018421.156597,0.007607709099264322,-0.001596679687499637,0.0067154469209557656,0.010272480280422902
308,1788018421.1686237,-0.0019723690257356786,-0.001596679687499637,0.0067154469209557656,0.007178917254456255
309,1788018421.1886237,-0.0019723690257356786,-0.001596679687499637,0.001925407858455765,0.0031854075123221933
310,1788018421.1957452,-0.0019723690257356786,-0.001596679687499637,0.0067154469209557656,0.007178917254456255
311,1788018421.2157452,-0.0019723690257356786,-0.001596679687499637,0.011505485983455766,0.011782013126526915
312,1788018421.2565656,-0.0019723690257356786,0.003193359375000363,0.001925407858455765,0.004218409545431481
313,1788018421.2765656,0.0028176700367643216,0.003193359375000363,0.0067154469209557656,0.007951983141465809
314,1788018421.285479,0.0028176700367643216,0.003193359375000363,0.0067154469209557656,0.007951983141465809
315,1788018421.305479,-0.0019723690257356786,0.003193359375000363,0.001925407858455765,0.004218409545431481
316,1788018421.315438,-0.0067624080882356784,-0.001596679687499637,0.011505485983455766,0.013440824263853996
317,1788018421.335438,-0.0019723690257356786,0.003193359375000363,0.0067154469209557656,0.0076931795130335085
318,1788018421.3758137,-0.0019723690257356786,0.003193359375000363,0.0067154469209557656,0.0076931795130335085
319,1788018421.3958137,-0.0067624080882356784,0.003193359375000363,0.0067154469209557656,0.0100511160871772
320,1788018421.4072397,-0.0019723690257356786,0.003193359375000363,0.0067154469209557656,0.0076931795130335085
321,1788018421.4272397,-0.0019723690257356786,0.003193359375000363,0.0067154469209557656,0.0076931795130335085
322,1788018421.4372308,-0.0067624080882356784,0.003193359375000363,0.001925407858455765,0.007722363800750471
323,1788018421.4572308,-0.0067624080882356784,0.003193359375000363,0.0067154469209557656,0.0100511160871772
324,1788018421.4965265,-0.0019723690257356786,0.003193359375000363,0.0067154469209557656,0.0076931795130335085
325,1788018421.5165265,-0.0067624080882356784,-0.001596679687499637,0.001925407858455765,0.007210183395567167
326,1788018421.525546,-0.01155244715073568,-0.001596679687499637,0.0067154469209557656,0.01345754987147323
327,1788018421.545546,0.0028176700367643216,0.003193359375000363,0.011505485983455766,0.012268374637639627
328,1788018421.5544977,-0.0067624080882356784,0.003193359375000363,0.011505485983455766,0.013722387363911395
329,1788018421.5744977,-0.0019723690257356786,0.007983398437500363,0.011505485983455766,0.014142174440341973
330,1788018421.6164875,0.0028176700367643216,0.003193359375000363,0.011505485983455766,0.012268374637639627
331,1788018421.6364875,-0.0067624080882356784,-0.001596679687499637,0.011505485983455766,0.013440824263853996
332,1788018421.6475954,-0.0019723690257356786,0.007983398437500363,0.001925407858455765,0.00844583244014277
333,1788018421.6675954,-0.0019723690257356786,0.003193359375000363,0.016295525045955765,0.016722198425893522
334,1788018421.6766493,-0.0019723690257356786,0.003193359375000363,0.011505485983455766,0.012102230843405745
335,1788018421.6966493,-0.01155244715073568,-0.001596679687499637,0.0067154469209557656,0.01345754987147323
336,1788018421.7365792,-0.0067624080882356784,-0.001596679687499637,0.011505485983455766,0.013440824263853996
337,1788018421.7565792,-0.0019723690257356786,0.003193359375000363,0.001925407858455765,0.004218409545431481
338,1788018421.76658,-0.01155244715073568,0.003193359375000363,0.011505485983455766,0.01661423446879033
339,1788018421.78658,-0.0019723690257356786,0.003193359375000363,0.011505485983455766,0.012102230843405745
340,1788018421.7968783,0.007607709099264322,0.003193359375000363,0.0067154469209557656,0.010638233367674643
341,1788018421.8168783,-0.0067624080882356784,0.003193359375000363,0.016295525045955765,0.01792963590743297
342,1788018421.8567417,0.0028176700367643216,0.003193359375000363,0.0067154469209557656,0.007951983141465809
343,1788018421.8767416,0.0028176700367643216,0.003193359375000363,0.0067154469209557656,0.007951983141465809
344,1788018421.8845725,-0.0067624080882356784,0.003193359375000363,0.0067154469209557656,0.0100511160871772
345,1788018421.9045725,-0.0019723690257356786,0.003193359375000363,0.0067154469209557656,0.0076931795130335085
346,1788018421.9154546,-0.0019723690257356786,0.003193359375000363,0.011505485983455766,0.012102230843405745
347,1788018421.9354546,-0.0019723690257356786,0.003193359375000363,0.0067154469209557656,0.0076931795130335085
348,1788018421.977358,0.0028176700367643216,0.003193359375000363,0.001925407858455765,0.004673756942266615
349,1788018421.997358,-0.0019723690257356786,-0.001596679687499637,0.011505485983455766,0.011782013126526915
350,1788018422.0053551,-0.0067624080882356784,0.003193359375000363,0.0067154469209557656,0.0100511160871772
351,1788018422.025355,-0.0067624080882356784,0.003193359375000363,0.011505485983455766,0.013722387363911395
352,1788018422.036536,-0.0019723690257356786,-0.001596679687499637,0.016295525045955765,0.01649193021212275
353,1788018422.056536,-0.0019723690257356786,0.003193359375000363,0.001925407858455765,0.004218409545431481
354,1788018422.0953836,-0.0019723690257356786,-0.001596679687499637,0.011505485983455766,0.011782013126526915
355,1788018422.1153836,0.007607709099264322,0.003193359375000363,0.011505485983455766,0.014158071533666898
356,1788018422.1264675,0.0028176700367643216,0.007983398437500363,0.001925407858455765,0.008682229579397559
357,1788018422.1464674,-0.0067624080882356784,-0.001596679687499637,0.0067154469209557656,0.00966316596796741
358,1788018422.1574244,0.0028176700367643216,0.003193359375000363,0.0067154469209557656,0.007951983141465809
359,1788018422.1774244,0.0028176700367643216,-0.001596679687499637,0.0067154469209557656,0.007455593726104426
360,1788018422.2166023,-0.0067624080882356784,-0.0063867187499996375,0.011505485983455766,0.014795152829860506
361,1788018422.2366023,0.0028176700367643216,-0.001596679687499637,-0.0028646312040442354,0.004323744025232914
362,1788018422.2465715,-0.0067624080882356784,-0.001596679687499637,0.016295525045955765,0.017715069452296284
363,1788018422.2665715,-0.0067624080882356784,0.003193359375000363,0.016295525045955765,0.01792963590743297
364,1788018422.3060248,-0.0019723690257356786,0.003193359375000363,0.001925407858455765,0.004218409545431481
365,1788018422.3260248,-0.0019723690257356786,-0.001596679687499637,0.016295525045955765,0.01649193021212275
366,1788018422.3380103,-0.0019723690257356786,0.003193359375000363,0.0067154469209557656,0.0076931795130335085
367,1788018422.3580103,-0.0067624080882356784,-0.001596679687499637,0.0067154469209557656,0.00966316596796741
368,1788018422.3666284,-0.0067624080882356784,-0.001596679687499637,0.0067154469209557656,0.00966316596796741
369,1788018422.3866284,0.0028176700367643216,0.003193359375000363,0.001925407858455765,0.004673756942266615
370,1788018422.425581,-0.0019723690257356786,-0.001596679687499637,0.011505485983455766,0.011782013126526915
371,1788018422.445581,0.0028176700367643216,0.003193359375000363,0.0067154469209557656,0.007951983141465809
372,1788018422.4568942,-0.0067624080882356784,0.003193359375000363,0.001925407858455765,0.007722363800750471
373,1788018422.4768941,-0.0019723690257356786,-0.001596679687499637,0.011505485983455766,0.011782013126526915
374,1788018422.4856,0.0028176700367643216,0.003193359375000363,0.011505485983455766,0.012268374637639627
375,1788018422.5056,-0.0067624080882356784,-0.001596679687499637,0.0067154469209557656,0.00966316596796741
376,1788018422.5456629,-0.0019723690257356786,-0.001596679687499637,0.011505485983455766,0.011782013126526915
377,1788018422.5656629,0.0028176700367643216,0.003193359375000363,0.001925407858455765,0.004673756942266615
378,1788018422.5757554,-0.0067624080882356784,-0.001596679687499637,0.011505485983455766,0.013440824263853996
379,1788018422.5957553,0.0028176700367643216,0.007983398437500363,0.0067154469209557656,0.010806069701613857
380,1788018422.606594,0.0028176700367643216,0.003193359375000363,0.0067154469209557656,0.007951983141465809
381,1788018422.626594,-0.0019723690257356786,-0.001596679687499637,0.011505485983455766,0.011782013126526915
382,1788018422.6667683,0.0028176700367643216,-0.001596679687499637,0.011505485983455766,0.011952608843932377
383,1788018422.6867683,-0.0019723690257356786,0.007983398437500363,0.001925407858455765,0.00844583244014277
384,1788018422.6956162,-0.0067624080882356784,0.003193359375000363,0.011505485983455766,0.013722387363911395
385,1788018422.7156162,-0.0019723690257356786,-0.001596679687499637,0.011505485983455766,0.011782013126526915
386,1788018422.7257056,-0.0019723690257356786,-0.001596679687499637,-0.0028646312040442354,0.003826974984676458
387,1788018422.7457056,-0.0067624080882356784,-0.001596679687499637,0.011505485983455766,0.013440824263853996
388,1788018422.785418,0.0028176700367643216,0.007983398437500363,0.0067154469209557656,0.010806069701613857
389,1788018422.805418,-0.0019723690257356786,0.003193359375000363,0.0067154469209557656,0.0076931795130335085
390,1788018422.8150682,-0.0019723690257356786,-0.001596679687499637,0.011505485983455766,0.011782013126526915
391,1788018422.8350682,0.0028176700367643216,0.012773437500000364,0.0067154469209557656,0.014703645716306868
392,1788018422.8456047,-0.0067624080882356784,0.003193359375000363,0.011505485983455766,0.013722387363911395
393,1788018422.8656046,-0.0019723690257356786,0.003193359375000363,0.011505485983455766,0.012102230843405745
394,1788018422.907684,0.007607709099264322,0.003193359375000363,-0.0028646312040442354,0.00873389339138713
395,1788018422.927684,-0.0067624080882356784,-0.0063867187499996375,0.011505485983455766,0.014795152829860506
396,1788018422.9363518,-0.0067624080882356784,0.007983398437500363,0.0067154469209557656,0.012432298303688374
397,1788018422.9563518,0.0028176700367643216,0.007983398437500363,0.001925407858455765,0.008682229579397559
398,1788018422.9655738,0.0028176700367643216,-0.0063867187499996375,0.011505485983455766,0.013457549871472647
399,1788018422.9855738,0.0028176700367643216,0.003193359375000363,0.001925407858455765,0.004673756942266615
400,1788018423.0256257,0.0028176700367643216,0.003193359375000363,0.011505485983455766,0.012268374637639627
401,1788018423.0456257,-0.0019723690257356786,-0.001596679687499637,0.011505485983455766,0.011782013126526915
402,1788018423.0555902,-0.0019723690257356786,0.003193359375000363,0.001925407858455765,0.004218409545431481
403,1788018423.0755901,-0.0067624080882356784,-0.0063867187499996375,0.011505485983455766,0.014795152829860506
404,1788018423.0855052,0.0028176700367643216,-0.001596679687499637,-0.0028646312040442354,0.004323744025232914
405,1788018423.1055052,0.0028176700367643216,0.003193359375000363,0.0067154469209557656,0.007951983141465809
406,1788018423.1445506,-0.0019723690257356786,-0.001596679687499637,0.0067154469209557656,0.007178917254456255
407,1788018423.1645505,0.007607709099264322,0.007983398437500363,0.001925407858455765,0.01119460065265017
408,1788018423.1770856,-0.0019723690257356786,-0.001596679687499637,0.016295525045955765,0.01649193021212275
409,1788018423.1970856,0.0028176700367643216,0.003193359375000363,0.0067154469209557656,0.007951983141465809
410,1788018423.206624,-0.0019723690257356786,0.003193359375000363,0.001925407858455765,0.004218409545431481
411,1788018423.226624,-0.0019723690257356786,-0.001596679687499637,0.011505485983455766,0.011782013126526915
412,1788018423.2676594,0.007607709099264322,0.007983398437500363,0.0067154469209557656,0.012911588426645526
413,1788018423.2876594,-0.0067624080882356784,-0.001596679687499637,0.016295525045955765,0.017715069452296284
414,1788018423.2995796,0.007607709099264322,-0.001596679687499637,0.011505485983455766,0.013885345925795302
415,1788018423.3195796,0.0028176700367643216,0.007983398437500363,0.001925407858455765,0.008682229579397559
416,1788018423.3286424,-0.0067624080882356784,-0.011176757812499638,0.021085564108455766,0.024804255524464042
417,1788018423.3486423,0.0028176700367643216,0.012773437500000364,-0.007654670266544235,0.0151556572570117
418,1788018423.3869443,-0.0067624080882356784,-0.0063867187499996375,0.016295525045955765,0.018763381253569515
419,1788018423.4069443,-0.0019723690257356786,-0.0063867187499996375,0.011505485983455766,0.01330626257371977
420,1788018423.414529,-0.0019723690257356786,0.007983398437500363,-0.007654670266544235,0.011234717044727078
421,1788018423.434529,-0.0067624080882356784,-0.0063867187499996375,0.025875603170955767,0.02749667578097775
422,1788018423.445791,0.012397748161764323,0.007983398437500363,-0.0028646312040442354,0.015021482018416087
423,1788018423.465791,-0.0067624080882356784,-0.001596679687499637,0.011505485983455766,0.013440824263853996
424,1788018423.5068543,-0.0067624080882356784,-0.0063867187499996375,0.016295525045955765,0.018763381253569515
425,1788018423.5268543,0.012397748161764323,0.012773437500000364,-0.007654670266544235,0.019376760357151107
426,1788018423.536583,-0.0067624080882356784,-0.001596679687499637,0.021085564108455766,0.022200913561115167
427,1788018423.556583,0.0028176700367643216,0.003193359375000363,0.001925407858455765,0.004673756942266615
428,1788018423.5666964,0.007607709099264322,0.007983398437500363,0.0067154469209557656,0.012911588426645526
429,1788018423.5866964,-0.01155244715073568,-0.011176757812499638,0.025875603170955767,0.030461874365025354
430,1788018423.6251132,0.012397748161764323,0.007983398437500363,-0.0028646312040442354,0.015021482018416087
431,1788018423.6451132,-0.0067624080882356784,-0.0063867187499996375,0.011505485983455766,0.014795152829860506
432,1788018423.656819,-0.0067624080882356784,-0.0063867187499996375,0.025875603170955767,0.02749667578097775
433,1788018423.676819,0.012397748161764323,0.017563476562500364,-0.007654670266544235,0.022820469875389215
434,1788018423.7149723,-0.01155244715073568,-0.0063867187499996375,0.021085564108455766,0.024876700451103555
435,1788018423.7349722,-0.0067624080882356784,-0.001596679687499637,0.021085564108455766,0.022200913561115167
436,1788018423.7455952,0.0028176700367643216,0.007983398437500363,0.001925407858455765,0.008682229579397559
437,1788018423.7655952,-0.02113252527573568,-0.011176757812499638,0.021085564108455766,0.03187639492635071
438,1788018423.7757947,-0.0019723690257356786,0.007983398437500363,0.001925407858455765,0.00844583244014277
439,1788018423.7957947,-0.0067624080882356784,0.003193359375000363,0.0067154469209557656,0.0100511160871772
440,1788018423.8356965,-0.0067624080882356784,-0.0063867187499996375,0.021085564108455766,0.023046070235839128
441,1788018423.8556964,-0.0019723690257356786,0.017563476562500364,-0.007654670266544235,0.019260319972022728
442,1788018423.8656158,-0.0019723690257356786,-0.001596679687499637,0.025875603170955767,0.025999739711368874
443,1788018423.8856158,-0.0067624080882356784,0.003193359375000363,0.011505485983455766,0.013722387363911395
444,1788018423.8968556,-0.0067624080882356784,0.012773437500000364,-0.0028646312040442354,0.01473421123282257
445,1788018423.9168556,-0.01155244715073568,-0.0063867187499996375,0.021085564108455766,0.024876700451103555
446,1788018423.9551105,0.0028176700367643216,0.007983398437500363,-0.0028646312040442354,0.008937562698137934
447,1788018423.9751105,-0.0067624080882356784,-0.0063867187499996375,0.011505485983455766,0.014795152829860506
448,1788018423.985155,-0.0019723690257356786,-0.001596679687499637,0.011505485983455766,0.011782013126526915
449,1788018424.005155,0.007607709099264322,0.007983398437500363,-0.012444709329044236,0.016627768299904623
450,1788018424.016455,-0.0067624080882356784,-0.011176757812499638,0.025875603170955767,0.028986150448306915
451,1788018424.036455,0.007607709099264322,0.012773437500000364,-0.0028646312040442354,0.015140807615204305
452,1788018424.0763898,0.0028176700367643216,0.003193359375000363,0.016295525045955765,0.01684283067234703
453,1788018424.0963898,-0.01634248621323568,-0.0063867187499996375,0.011505485983455766,0.02098197416204901
454,1788018424.1054094,0.007607709099264322,0.007983398437500363,-0.007654670266544235,0.013424077817132497
455,1788018424.1254094,-0.01634248621323568,-0.011176757812499638,0.025875603170955767,0.032581338374748296
456,1788018424.13456,-0.0019723690257356786,0.003193359375000363,-0.0028646312040442354,0.004721641198436
457,1788018424.15456,-0.0019723690257356786,0.007983398437500363,-0.0028646312040442354,0.008708099799654841
458,1788018424.1967597,-0.01155244715073568,-0.0063867187499996375,0.021085564108455766,0.024876700451103555
459,1788018424.2167597,0.007607709099264322,0.017563476562500364,0.001925407858455765,0.019236947318166987
460,1788018424.2257864,-0.0067624080882356784,-0.001596679687499637,0.011505485983455766,0.013440824263853996
461,1788018424.2457864,-0.0019723690257356786,-0.001596679687499637,0.0067154469209557656,0.007178917254456255
462,1788018424.257542,0.007607709099264322,0.003193359375000363,-0.0028646312040442354,0.00873389339138713
463,1788018424.2775419,-0.0019723690257356786,-0.001596679687499637,0.016295525045955765,0.01649193021212275
464,1788018424.3146737,0.0028176700367643216,0.007983398437500363,-0.007654670266544235,0.011413496043609035
465,1788018424.3346736,-0.0067624080882356784,-0.001596679687499637,0.011505485983455766,0.013440824263853996
466,1788018424.3469508,-0.0019723690257356786,0.003193359375000363,0.0067154469209557656,0.0076931795130335085
467,1788018424.3669508,0.0028176700367643216,0.012773437500000364,0.0067154469209557656,0.014703645716306868
468,1788018424.3745992,-0.0067624080882356784,-0.0063867187499996375,0.021085564108455766,0.023046070235839128
469,1788018424.3945992,0.007607709099264322,0.007983398437500363,0.001925407858455765,0.01119460065265017
470,1788018424.4358392,-0.0019723690257356786,-0.001596679687499637,0.0067154469209557656,0.007178917254456255
471,1788018424.4558392,-0.0019723690257356786,-0.001596679687499637,0.011505485983455766,0.011782013126526915
472,1788018424.4665453,0.0028176700367643216,0.007983398437500363,-0.0028646312040442354,0.008937562698137934
473,1788018424.4865453,-0.01155244715073568,-0.001596679687499637,0.011505485983455766,0.016382448806894285
474,1788018424.4986742,-0.0067624080882356784,0.007983398437500363,0.001925407858455765,0.010638233367675377
475,1788018424.5186741,0.0028176700367643216,0.003193359375000363,0.0067154469209557656,0.007951983141465809
476,1788018424.5566874,-0.0067624080882356784,0.003193359375000363,0.011505485983455766,0.013722387363911395
477,1788018424.5766873,0.007607709099264322,0.003193359375000363,0.0067154469209557656,0.010638233367674643
478,1788018424.5870278,-0.0067624080882356784,-0.001596679687499637,0.011505485983455766,0.013440824263853996
479,1788018424.6070278,-0.0067624080882356784,-0.001596679687499637,0.0067154469209557656,0.00966316596796741
480,1788018424.6157298,-0.01155244715073568,0.003193359375000363,-0.0028646312040442354,0.012323258140752694
481,1788018424.6357298,-0.01155244715073568,-0.0063867187499996375,0.011505485983455766,0.01751072297986679
482,1788018424.675177,0.0028176700367643216,0.003193359375000363,0.011505485983455766,0.012268374637639627
483,1788018424.695177,-0.0067624080882356784,-0.001596679687499637,0.001925407858455765,0.007210183395567167
484,1788018424.706611,-0.0019723690257356786,0.003193359375000363,0.0067154469209557656,0.0076931795130335085
485,1788018424.726611,0.0028176700367643216,0.003193359375000363,0.0067154469209557656,0.007951983141465809
486,1788018424.738111,-0.0019723690257356786,-0.001596679687499637,0.016295525045955765,0.01649193021212275
487,1788018424.758111,-0.0019723690257356786,0.007983398437500363,0.001925407858455765,0.00844583244014277
488,1788018424.7956982,-0.0067624080882356784,0.007983398437500363,0.016295525045955765,0.019365147825077148
489,1788018424.8156981,-0.0019723690257356786,-0.001596679687499637,0.016295525045955765,0.01649193021212275
490,1788018424.8272982,-0.0019723690257356786,0.007983398437500363,0.0067154469209557656,0.010617067275558681
491,1788018424.8472981,-0.0067624080882356784,-0.001596679687499637,0.011505485983455766,0.013440824263853996
492,1788018424.858204,0.0028176700367643216,0.007983398437500363,0.001925407858455765,0.008682229579397559
493,1788018424.8782039,-0.0067624080882356784,0.003193359375000363,0.0067154469209557656,0.0100511160871772
494,1788018424.917632,-0.0019723690257356786,0.003193359375000363,0.016295525045955765,0.016722198425893522
495,1788018424.937632,0.0028176700367643216,0.007983398437500363,0.001925407858455765,0.008682229579397559
496,1788018424.9455707,-0.01155244715073568,0.003193359375000363,0.011505485983455766,0.01661423446879033
497,1788018424.9655707,0.0028176700367643216,0.003193359375000363,0.0067154469209557656,0.007951983141465809
498,1788018424.9777582,-0.0019723690257356786,0.003193359375000363,0.0067154469209557656,0.0076931795130335085
499,1788018424.9977582,-0.01155244715073568,-0.001596679687499637,0.016295525045955765,0.02003877635282121
500,1788018425.0365674,-0.0019723690257356786,0.007983398437500363,-0.0028646312040442354,0.008708099799654841
501,1788018425.0565674,-0.0067624080882356784,-0.001596679687499637,0.011505485983455766,0.013440824263853996
502,1788018425.0660222,-0.0067624080882356784,0.003193359375000363,0.011505485983455766,0.013722387363911395
503,1788018425.0860221,-0.0019723690257356786,0.007983398437500363,-0.0028646312040442354,0.008708099799654841
504,1788018425.125802,-0.0067624080882356784,0.003193359375000363,0.016295525045955765,0.01792963590743297
505,1788018425.145802,-0.0019723690257356786,0.007983398437500363,0.001925407858455765,0.00844583244014277
506,1788018425.155622,-0.0067624080882356784,0.003193359375000363,0.0067154469209557656,0.0100511160871772
507,1788018425.175622,-0.0067624080882356784,-0.001596679687499637,0.016295525045955765,0.017715069452296284
508,1788018425.1856031,0.0028176700367643216,0.003193359375000363,0.001925407858455765,0.004673756942266615
509,1788018425.2056031,-0.0067624080882356784,0.003193359375000363,0.011505485983455766,0.013722387363911395
510,1788018425.2455595,-0.0067624080882356784,-0.001596679687499637,0.0067154469209557656,0.00966316596796741
511,1788018425.2655594,0.0028176700367643216,0.007983398437500363,0.001925407858455765,0.008682229579397559
512,1788018425.2752411,-0.01155244715073568,-0.0063867187499996375,0.016295525045955765,0.020971250513155133
513,1788018425.295241,-0.0019723690257356786,0.007983398437500363,-0.0028646312040442354,0.008708099799654841
514,1788018425.3076723,-0.0067624080882356784,0.003193359375000363,0.0067154469209557656,0.0100511160871772
515,1788018425.3276722,-0.01155244715073568,-0.0063867187499996375,0.021085564108455766,0.024876700451103555
516,1788018425.3668854,-0.0019723690257356786,0.007983398437500363,0.0067154469209557656,0.010617067275558681
517,1788018425.3868854,-0.01155244715073568,0.003193359375000363,0.011505485983455766,0.01661423446879033
518,1788018425.3977118,-0.0019723690257356786,0.003193359375000363,0.011505485983455766,0.012102230843405745
519,1788018425.4177117,0.0028176700367643216,0.003193359375000363,0.001925407858455765,0.004673756942266615
520,1788018425.4256194,-0.01155244715073568,-0.001596679687499637,0.011505485983455766,0.016382448806894285
521,1788018425.4456193,0.0028176700367643216,0.003193359375000363,0.001925407858455765,0.004673756942266615
522,1788018425.4854255,-0.01155244715073568,0.003193359375000363,0.0067154469209557656,0.013738770200298784
523,1788018425.5054255,0.0028176700367643216,-0.0063867187499996375,0.016295525045955765,0.01772776289753019
524,1788018425.515815,-0.0019723690257356786,0.012773437500000364,-0.012444709329044236,0.017942177555260615
525,1788018425.535815,-0.01155244715073568,-0.0063867187499996375,0.021085564108455766,0.024876700451103555
526,1788018425.545338,-0.0067624080882356784,-0.001596679687499637,0.016295525045955765,0.017715069452296284
527,1788018425.565338,-0.0067624080882356784,0.017563476562500364,-0.007654670266544235,0.020317476442778305
528,1788018425.6066725,-0.01155244715073568,-0.0063867187499996375,0.025875603170955767,0.0290481677739391
529,1788018425.6266725,-0.0019723690257356786,0.007983398437500363,-0.007654670266544235,0.011234717044727078
530,1788018425.634994,-0.0019723690257356786,-0.001596679687499637,0.0067154469209557656,0.007178917254456255
531,1788018425.654994,-0.01155244715073568,-0.011176757812499638,0.021085564108455766,0.026513769331077967
532,1788018425.6664557,0.012397748161764323,0.017563476562500364,-0.007654670266544235,0.022820469875389215
533,1788018425.6864557,-0.0067624080882356784,-0.0063867187499996375,0.025875603170955767,0.02749667578097775
534,1788018425.726217,-0.0067624080882356784,0.003193359375000363,0.001925407858455765,0.007722363800750471
535,1788018425.746217,0.007607709099264322,0.012773437500000364,-0.0028646312040442354,0.015140807615204305
536,1788018425.7572634,-0.02113252527573568,-0.011176757812499638,0.030665642233455765,0.038882967393438286
537,1788018425.7772634,0.0028176700367643216,0.012773437500000364,-0.012444709329044236,0.018054660348145454
538,1788018425.7872114,-0.0067624080882356784,-0.001596679687499637,0.021085564108455766,0.022200913561115167
539,1788018425.8072114,-0.01155244715073568,-0.001596679687499637,0.021085564108455766,0.02409583854043708
540,1788018425.8465037,0.007607709099264322,0.017563476562500364,-0.007654670266544235,0.0206142407958684
541,1788018425.8665037,-0.01634248621323568,-0.015966796874999637,0.03545568129595577,0.04217962534491842
542,1788018425.8765814,0.0028176700367643216,0.007983398437500363,-0.007654670266544235,0.011413496043609035
543,1788018425.8965814,-0.0019723690257356786,0.003193359375000363,0.0067154469209557656,0.0076931795130335085
544,1788018425.9071536,-0.01155244715073568,-0.001596679687499637,0.021085564108455766,0.02409583854043708
545,1788018425.9271536,0.012397748161764323,0.003193359375000363,-0.0028646312040442354,0.013118986832664223
546,1788018425.9656136,-0.01155244715073568,0.003193359375000363,-0.012444709329044236,0.017277944598616014
547,1788018425.9856136,-0.0019723690257356786,0.003193359375000363,0.011505485983455766,0.012102230843405745
548,1788018425.9963033,0.017187787224264322,0.003193359375000363,0.016295525045955765,0.02389898973362385
549,1788018426.0163033,-0.01155244715073568,0.007983398437500363,-0.007654670266544235,0.015993363081976866
550,1788018426.0263708,-0.0019723690257356786,0.003193359375000363,0.016295525045955765,0.016722198425893522
551,1788018426.0463707,0.007607709099264322,0.003193359375000363,0.0067154469209557656,0.010638233367674643
552,1788018426.086178,-0.0067624080882356784,0.003193359375000363,0.001925407858455765,0.007722363800750471
553,1788018426.106178,-0.0067624080882356784,-0.011176757812499638,0.016295525045955765,0.020885263102831113
554,1788018426.1150715,0.017187787224264322,0.012773437500000364,-0.0028646312040442354,0.021605250453724977
555,1788018426.1350715,-0.01155244715073568,-0.001596679687499637,0.016295525045955765,0.02003877635282121
556,1788018426.1450746,-0.01155244715073568,0.003193359375000363,0.021085564108455766,0.02425402220334272
557,1788018426.1650746,0.021977826286764323,0.017563476562500364,-0.0028646312040442354,0.02827908536689036
558,1788018426.2086203,-0.01634248621323568,-0.0063867187499996375,0.021085564108455766,0.02743115101108944
559,1788018426.2286203,-0.0067624080882356784,0.012773437500000364,-0.0028646312040442354,0.01473421123282257
560,1788018426.2362747,0.007607709099264322,-0.001596679687499637,0.011505485983455766,0.013885345925795302
561,1788018426.2562747,-0.0067624080882356784,-0.0063867187499996375,0.016295525045955765,0.018763381253569515
562,1788018426.2654846,-0.0019723690257356786,0.012773437500000364,-0.012444709329044236,0.017942177555260615
563,1788018426.2854846,0.0028176700367643216,-0.001596679687499637,0.021085564108455766,0.02133283066619035
564,1788018426.3266191,-0.0019723690257356786,0.003193359375000363,0.0067154469209557656,0.0076931795130335085
565,1788018426.3466191,0.0028176700367643216,0.012773437500000364,-0.007654670266544235,0.0151556572570117
566,1788018426.3561566,-0.0067624080882356784,-0.0063867187499996375,0.021085564108455766,0.023046070235839128
567,1788018426.3761566,0.012397748161764323,0.007983398437500363,0.001925407858455765,0.01487097863342615
568,1788018426.3855004,-0.0067624080882356784,0.003193359375000363,0.011505485983455766,0.013722387363911395
569,1788018426.4055004,-0.01155244715073568,-0.001596679687499637,0.011505485983455766,0.016382448806894285
570,1788018426.446493,0.007607709099264322,0.003193359375000363,-0.0028646312040442354,0.00873389339138713
571,1788018426.466493,-0.01155244715073568,-0.0063867187499996375,0.011505485983455766,0.01751072297986679
572,1788018426.474598,0.0028176700367643216,0.007983398437500363,0.001925407858455765,0.008682229579397559
573,1788018426.494598,0.0028176700367643216,0.007983398437500363,0.001925407858455765,0.008682229579397559
574,1788018426.5355585,0.0028176700367643216,-0.001596679687499637,0.016295525045955765,0.01661423446878986
575,1788018426.5555584,-0.0019723690257356786,0.012773437500000364,-0.0028646312040442354,0.013238468834245183
576,1788018426.566175,-0.0019723690257356786,0.003193359375000363,0.016295525045955765,0.016722198425893522
577,1788018426.586175,-0.0019723690257356786,0.007983398437500363,0.001925407858455765,0.00844583244014277
578,1788018426.5969553,-0.01155244715073568,0.007983398437500363,0.001925407858455765,0.014173950797283988
579,1788018426.6169553,-0.01155244715073568,-0.001596679687499637,0.021085564108455766,0.02409583854043708
580,1788018426.657955,0.0028176700367643216,0.012773437500000364,0.001925407858455765,0.013221466084511892
581,1788018426.677955,-0.0067624080882356784,-0.001596679687499637,0.021085564108455766,0.022200913561115167
582,1788018426.6869843,0.0028176700367643216,0.003193359375000363,0.016295525045955765,0.01684283067234703
583,1788018426.7069843,0.0028176700367643216,0.012773437500000364,0.001925407858455765,0.013221466084511892
584,1788018426.7150059,-0.01634248621323568,-0.001596679687499637,0.021085564108455766,0.026725030503744432
585,1788018426.7350059,0.0028176700367643216,0.012773437500000364,0.001925407858455765,0.013221466084511892
586,1788018426.775585,-0.0019723690257356786,0.003193359375000363,0.0067154469209557656,0.0076931795130335085
587,1788018426.795585,-0.0067624080882356784,-0.011176757812499638,0.016295525045955765,0.020885263102831113
588,1788018426.8075905,0.012397748161764323,0.017563476562500364,-0.007654670266544235,0.022820469875389215
589,1788018426.8275905,-0.0067624080882356784,-0.001596679687499637,0.021085564108455766,0.022200913561115167
590,1788018426.836593,-0.0019723690257356786,-0.001596679687499637,0.001925407858455765,0.0031854075123221933
591,1788018426.856593,0.007607709099264322,0.007983398437500363,-0.0028646312040442354,0.011393770240183726
592,1788018426.8976562,-0.0067624080882356784,-0.0063867187499996375,0.021085564108455766,0.023046070235839128
593,1788018426.9176562,0.0028176700367643216,0.012773437500000364,-0.0028646312040442354,0.013390522093543588
594,1788018426.9263678,-0.0019723690257356786,0.003193359375000363,0.011505485983455766,0.012102230843405745
595,1788018426.9463677,-0.0067624080882356784,-0.001596679687499637,0.016295525045955765,0.017715069452296284
596,1788018426.9556797,0.012397748161764323,0.017563476562500364,-0.012444709329044236,0.024840504397625078
597,1788018426.9756796,-0.0019723690257356786,-0.0063867187499996375,0.021085564108455766,0.022119706818515397
598,1788018427.0168092,-0.0019723690257356786,0.003193359375000363,0.0067154469209557656,0.0076931795130335085
599,1788018427.0368092,0.0028176700367643216,0.012773437500000364,0.001925407858455765,0.013221466084511892
600,1788018427.0452917,-0.01155244715073568,-0.0063867187499996375,0.025875603170955767,0.0290481677739391
601,1788018427.0652916,0.0028176700367643216,0.012773437500000364,-0.007654670266544235,0.0151556572570117
602,1788018427.0761375,-0.0067624080882356784,-0.0063867187499996375,0.016295525045955765,0.018763381253569515
603,1788018427.0961375,-0.0067624080882356784,0.007983398437500363,0.001925407858455765,0.010638233367675377
604,1788018427.1386003,0.0028176700367643216,0.012773437500000364,-0.0028646312040442354,0.013390522093543588
605,1788018427.1586003,-0.01155244715073568,-0.0063867187499996375,0.011505485983455766,0.01751072297986679
606,1788018427.1674476,0.007607709099264322,0.007983398437500363,-0.0028646312040442354,0.011393770240183726
607,1788018427.1874475,-0.0067624080882356784,-0.001596679687499637,0.021085564108455766,0.022200913561115167
608,1788018427.1963704,-0.01155244715073568,0.003193359375000363,0.0067154469209557656,0.013738770200298784
609,1788018427.2163703,0.007607709099264322,0.012773437500000364,-0.0028646312040442354,0.015140807615204305
610,1788018427.256774,-0.01634248621323568,-0.0063867187499996375,0.025875603170955767,0.03126361897609059
611,1788018427.276774,0.0028176700367643216,0.012773437500000364,-0.007654670266544235,0.0151556572570117
612,1788018427.286545,-0.0019723690257356786,0.003193359375000363,0.011505485983455766,0.012102230843405745
613,1788018427.306545,-0.0019723690257356786,0.003193359375000363,0.0067154469209557656,0.0076931795130335085
614,1788018427.3151357,0.012397748161764323,0.012773437500000364,0.001925407858455765,0.017904526256518196
615,1788018427.3351357,-0.01155244715073568,-0.03512695312499964,0.05461583754595577,0.06595643700096826
616,1788018427.3755374,-0.02592256433823568,0.041513671875000366,-0.06992517807904423,0.08535159532077426
617,1788018427.3955374,0.0028176700367643216,-0.0063867187499996375,0.040245720358455764,0.04084663325169771
618,1788018427.407574,0.017187787224264322,-0.015966796874999637,0.03545568129595577,0.04251427958080049
619,1788018427.427574,-0.01155244715073568,0.04630371093750037,-0.05555506089154424,0.07323836066172781
620,1788018427.4353447,-0.04029268152573568,-0.04470703124999964,0.07377599379595577,0.0952109032007559
621,1788018427.4553447,0.06029813878676432,0.036723632812500365,-0.026814826516544238,0.07552169005794036
622,1788018427.4970443,-0.02113252527573568,0.003193359375000363,0.001925407858455765,0.021458992614960128
623,1788018427.5170443,-0.04987275965073568,-0.03512695312499964,0.05940587660845577,0.08514841846238275
624,1788018427.5270207,0.06987821691176432,0.05109375000000037,-0.06513513901654423,0.10833338738604395
625,1788018427.5470207,-0.03550264246323568,-0.03512695312499964,0.06898595473345577,0.08516690911501178
626,1788018427.5535448,-0.02592256433823568,0.007983398437500363,-0.007654670266544235,0.02818346978942387
627,1788018427.5735447,0.06029813878676432,0.05109375000000037,-0.026814826516544238,0.08345940181503096
628,1788018427.6080909,-0.04508272058823568,-0.04949707031249964,0.07377599379595577,0.09962584466762812
629,1788018427.6280909,0.012397748161764323,0.031933593750000364,-0.03639490464154424,0.04998047271824959
