imu_index,t_imu,ax,ay,az,mag,vx,vy,vz,velocity
0,1790943386.3958898,-0.11395502929687511,-0.30570029296875,0.03127895507812596,0.32774500889260033,0.0,0.0,0.0,0.0
1,1790943386.4158897,-0.0325243652343751,-0.38713095703125,0.10312954101562596,0.40195013926595946,-0.0003650114060480559,-0.0014290133857204927,0.00024149318155917399,0.0014945338871544854
2,1790943386.4407327,-0.0325243652343751,-0.30570029296875,0.18456020507812596,0.35857073605295586,-0.0008716008164040894,-0.004228704427945228,0.001032498578394243,0.0044393335576937655
3,1790943386.4607327,0.18302739257812492,-0.30570029296875,0.294731103515626,0.4624047133568875,-0.0009925042838071373,-0.007061625604731385,0.0022927177557872306,0.0074905390755589454
4,1790943386.470689,0.36504887695312493,-0.33444052734374996,0.333051416015626,0.5966861776551531,-0.000634400722981356,-0.008738374440469675,0.0032947562299260264,0.009360399070221811
5,1790943386.490689,0.2596680175781249,-0.32965048828125,0.29952114257812595,0.515567491826556,0.0009141175471794908,-0.012597474331674323,0.005954544467640547,0.013963830786870897
6,1790943386.5158496,0.1303369628906249,-0.30091025390625,0.03606899414062596,0.32990252672538367,0.0033059414969139255,-0.017913998344740376,0.00943199349432458,0.02051348549499474
7,1790943386.5358496,0.1351270019531249,-0.41108115234375,-0.18427280273437405,0.47032274694797266,0.005320197390498561,-0.0225741482865672,0.011559262011450647,0.025913571914870374
8,1790943386.5607665,0.09201665039062491,-0.69848349609375,-0.29923374023437405,0.7654326159493801,0.007877709833470616,-0.029582618598821577,0.01290841197657076,0.03322373752515781
9,1790943386.5807664,0.010585986328124903,-0.93319541015625,-0.39503452148437407,1.0134189705189158,0.00977652140543581,-0.03681178653463065,0.012787491826402191,0.04017720679530201
10,1790943386.590314,0.058486376953124905,-1.10084677734375,-0.5195755371093741,1.2187054698489368,0.010596458262766497,-0.0412016482287029,0.012083510260911267,0.04422524126222351
11,1790943386.610314,0.2117676269531249,-1.23975791015625,-0.5435257324218741,1.3701333604525818,0.012461797421965378,-0.05252902706111301,0.009235368356295296,0.054771225179374126
12,1790943386.6359558,0.17823735351562492,-1.20622763671875,-0.40940463867187404,1.2862215298844917,0.015244647194958844,-0.06957738908150846,0.004298890778723904,0.0713574999661968
13,1790943386.6559558,0.1159668457031249,-1.07210654296875,-0.19385288085937405,1.095645785916331,0.017530916491322723,-0.08429754689637961,0.00012123777186542287,0.086101243570406
14,1790943386.6807652,-0.0708446777343751,-0.8757149414062501,0.05522915039062596,0.8803101078701242,0.020025515065457897,-0.10344277943460162,-0.004541612115865624,0.10546115925497641
15,1790943386.7007651,-0.1283251464843751,-0.68890341796875,0.17977016601562595,0.7234449357750377,0.021436120889961937,-0.1189084887808583,-0.007384212862670958,0.12105066122313336
16,1790943386.725571,-0.0421044433593751,-0.38713095703125,0.20372036132812596,0.4394828183924789,0.02260617464351689,-0.1372150546494374,-0.009667556957596787,0.13940040176408983
17,1790943386.745571,-0.003784130859375098,-0.21947958984375,0.24204067382812597,0.3267557157748199,0.023339207036217544,-0.15067088712439441,-0.010563745126031716,0.152833332499881
18,1790943386.7558951,-0.0516845214843751,-0.05661826171874997,0.19893032226562596,0.21319050269143675,0.023617897059622125,-0.156788832996291,-0.010615523343725336,0.15891265698401408
19,1790943386.775895,-0.0708446777343751,0.07271279296875004,0.09354946289062596,0.13804934129407634,0.02389299687550763,-0.16683855461062108,-0.010262062552253308,0.16885286059786067
20,1790943386.8009737,-0.0277343261718751,0.04397255859375004,-0.07410190429687405,0.09052000319217746,0.024000792645850574,-0.17733046508167866,-0.009848751620463895,0.17921810679224118
21,1790943386.8209736,-0.1666454589843751,0.20204384765625005,0.04564907226562596,0.26585007649908127,0.023782294753041156,-0.18407359100922602,-0.009611259792410053,0.18585225520705834
22,1790943386.8460886,-0.2576562011718751,0.27868447265625007,0.09833950195312596,0.3920744966793975,0.022749846856997706,-0.19036561760454673,-0.009086542989763982,0.19193537756620635
23,1790943386.8660886,-0.27202631835937513,0.34574501953125003,0.03127895507812596,0.44104003156357585,0.021256475007086863,-0.19368795471830783,-0.008536942386820696,0.19503779356320677
24,1790943386.8760953,-0.3869872558593751,0.42238564453125005,-0.050151708984374044,0.5750512697296671,0.02012677861026443,-0.1945244085642169,-0.008317370199899945,0.19573965206755417
25,1790943386.8960953,-0.3726171386718751,0.37448525390625004,0.012118798828125959,0.5284218037801626,0.017068170437718376,-0.1947501262585031,-0.008001395813383707,0.1956603088384467
26,1790943386.9205587,-0.1953856933593751,0.36490517578125004,0.304311181640626,0.513747653768835,0.012846000660234894,-0.19362820294518088,-0.007092306616630151,0.19418342236629574
27,1790943386.9405587,0.0441162597656249,0.54692666015625,0.24683071289062597,0.6016647046249871,0.009685049401386946,-0.19148081563098127,-0.005633855228650647,0.19180835034312385
28,1790943386.9659162,-0.003784130859375098,0.8391190429687501,0.11749965820312597,0.8473141433948824,0.006355214877546225,-0.18653059145673312,-0.0033692030862520136,0.18666923108743677
29,1790943386.9859161,-0.1331151855468751,0.78642861328125,0.14623989257812597,0.8109104282175132,0.0039175022295694795,-0.18077357837707023,-0.0014553422294048244,0.18082187778024572
30,1790943386.9959323,-0.11395502929687511,0.5756668945312501,0.11270961914062597,0.5975630346734393,0.002694191790503401,-0.17729965418559399,-0.00044610584274273803,0.17732068422538344
31,1790943387.0159323,0.020166064453124903,0.49423623046875004,0.04085903320312596,0.4963321289799615,0.0004772468657362472,-0.16979868896230457,0.0014971716977389628,0.16980596002785303
32,1790943387.0409033,0.0393262207031249,0.40322548828125004,-0.08368198242187405,0.4136907301553882,-0.0017641090821055535,-0.16015735881207893,0.003479311730758046,0.16020486032775147
33,1790943387.0609033,0.09201665039062491,0.26431435546875004,-0.23696323242187406,0.3667161245102189,-0.0030929850802612,-0.15259234002739938,0.00434776318199312,0.15268559799938855
34,1790943387.0859084,0.053696337890624904,0.31700478515625,-0.28965366210937404,0.4327523246479397,-0.004231937719002662,-0.143462663652803,0.004283073852156344,0.1435889615563739
35,1790943387.1059084,-0.0756347167968751,0.42238564453125005,-0.08368198242187405,0.43718750813933127,-0.005039174281765282,-0.13614667179659654,0.0036790911927421788,0.13628956390984856
36,1790943387.1155589,-0.1426952636718751,0.56608681640625,0.07438930664062596,0.588515072811073,-0.005528282577375175,-0.13243061030271397,0.0034246446330341777,0.1325901830614438
37,1790943387.1355588,-0.0852147949218751,0.6139872070312501,0.02169887695312596,0.6202521204579952,-0.0067317462154564845,-0.12411439565378068,0.003120551149221018,0.124335986162846
38,1790943387.1603487,-0.0708446777343751,0.36490517578125004,-0.06931186523437405,0.3781254954872793,-0.008289828271215754,-0.11353270681201336,0.002711644234069402,0.11386724631464921
39,1790943387.1803486,-0.1043749511718751,0.12061318359375003,-0.08847202148437405,0.18239783187933598,-0.009621135580313769,-0.10554787828581948,0.002194554585483628,0.10600819275094547
40,1790943387.2053542,-0.2001757324218751,0.17330361328125005,0.007328759765625959,0.2648738887596765,-0.01160712657140739,-0.09651087964695731,0.001492846136009265,0.09721781661331398
41,1790943387.2253542,-0.21933588867187512,0.24036416015625003,-0.021411474609374044,0.32610061758918596,-0.013586564685023415,-0.08974659640975051,0.0009946672527594148,0.09077464221917199
42,1790943387.2360191,-0.1570653808593751,0.17330361328125005,-0.04536166992187404,0.23824642146092914,-0.014784837819286075,-0.08634973419324975,0.0007154526363315162,0.0876092454999032
43,1790943387.256019,-0.1762255371093751,0.22120400390625006,-0.06931186523437405,0.29118857452845237,-0.017194828917523254,-0.08034335278479446,9.8372576405381e-05,0.08216280274776794
44,1790943387.2804348,-0.20975581054687512,0.19246376953125005,0.04085903320312596,0.2875921821514779,-0.020402404626195112,-0.07335321344482185,-0.0005940548802486874,0.07614003505655437
45,1790943387.3004348,-0.2863964355468751,0.12061318359375003,0.11749965820312597,0.33222978197089204,-0.023379976602994203,-0.06801656198724579,-0.0008386347392129214,0.07192759775459778
46,1790943387.3255405,-0.3534569824218751,0.19725380859375005,0.05522915039062596,0.4085231480349527,-0.02776182603536682,-0.06172386660066257,-0.0007743639404832063,0.06768422513752137
47,1790943387.3455405,-0.3534569824218751,0.24036416015625003,-0.002251318359374042,0.42744805104802197,-0.0317893040545114,-0.056806429566922854,-0.0006513771953933117,0.0650995743815781
48,1790943387.3702643,-0.21933588867187512,0.13019326171875004,-0.016621435546874043,0.25560670878536623,-0.03708334136205878,-0.05095225957807397,-0.0005571429209510572,0.06302076936154283
49,1790943387.3902643,-0.1379052246093751,0.024812402343750033,-0.007041357421874042,0.14029642546755391,-0.04125936560394087,-0.04669444278452368,-0.0005278418915092626,0.06231360087540477
50,1790943387.4008896,-0.1858056152343751,0.029602441406250034,0.007328759765625959,0.18829164057264297,-0.043403133541434664,-0.04472834166921317,-0.0005143811499392448,0.062327531137218124
51,1790943387.4208896,-0.23370600585937512,0.09666298828125004,0.07917934570312596,0.26501245114933464,-0.047462308814908434,-0.04139329221234963,-0.0003630826840764366,0.06297783123650873
52,1790943387.4458373,-0.20975581054687512,0.22120400390625006,0.15102993164062598,0.34020398535835084,-0.05259590387086055,-0.03726246738794778,0.00022807384532393213,0.06445830123040473
53,1790943387.4658372,-0.2001757324218751,0.15414345703125004,0.16061000976562598,0.2993761921614567,-0.056708968010684035,-0.03388459347236293,0.0010983630019084996,0.06607025903466739
54,1790943387.4905276,-0.1091649902343751,0.08708291015625004,0.08396938476562596,0.16294565324693525,-0.06159781198807553,-0.029893348635274965,0.0024645014945837928,0.0685126010451012
55,1790943387.5105276,-0.0229442871093751,0.09187294921875004,0.04564907226562596,0.10512334140342382,-0.06516207360137838,-0.026876837873352283,0.0035995513409770906,0.07057915428763827
56,1790943387.5210805,-0.0756347167968751,0.09666298828125004,0.06959926757812596,0.14109713581719566,-0.06683865962244745,-0.025374719116903775,0.004199834053061751,0.07161648830025391
57,1790943387.5410805,-0.1570653808593751,0.12061318359375003,0.11270961914062597,0.22786077364905344,-0.0698885765617778,-0.022628993053353093,0.005440312129530404,0.07366194035257892
58,1790943387.5656369,-0.1762255371093751,0.09187294921875004,0.11270961914062597,0.228472179869812,-0.07368544789502375,-0.019372079679405484,0.007150095848991447,0.07652415679538886
59,1790943387.5856369,-0.1091649902343751,0.11582314453125003,0.03127895507812596,0.1622047130411366,-0.07674204378160128,-0.016805829194010097,0.00854973316930438,0.07902452224431195
60,1790943387.6104596,-0.1331151855468751,0.16851357421875005,0.012118798828125959,0.2150891503637358,-0.08041770314982112,-0.013569170872754555,0.010107097069523667,0.0821783596163828
61,1790943387.6304595,-0.22891596679687512,0.17330361328125005,0.02169887695312596,0.28793663103521927,-0.0834780468180235,-0.010839800634108445,0.011224393582206699,0.08492392236365219
62,1790943387.6411548,-0.21454584960937512,0.10145302734375004,0.05043911132812596,0.2426246943190066,-0.0852248366887508,-0.009378779233799543,0.011790122500242538,0.08654618002610699
63,1790943387.6611547,-0.0421044433593751,-0.09972861328124998,0.04085903320312596,0.11570670270947177,-0.0883863233380363,-0.007053908235040045,0.012826292164193374,0.08959025362887144
64,1790943387.6854782,-0.0995849121093751,-0.06619833984374997,0.05522915039062596,0.13171800928791386,-0.09191298260364936,-0.004953270929909062,0.014072720477153723,0.09311591016379496
65,1790943387.7054782,-0.1426952636718751,0.13498330078125004,0.06480922851562596,0.20683971056104772,-0.09474123038078307,-0.003381930953774777,0.015123922773246373,0.09600037099455311
66,1790943387.731069,0.0632764160156249,0.16372353515625004,0.15581997070312598,0.23471080941823988,-0.09796970262703525,-0.0010996061907055654,0.01669068268455234,0.0993873767391049
67,1790943387.751069,0.2452979003906249,0.15414345703125004,0.19893032226562596,0.351432124880893,-0.09965150954701767,0.0008933378282326154,0.01826360323619124,0.10131525359314716
68,1790943387.7611675,0.2165576660156249,0.26431435546875004,0.23246059570312597,0.41327621486319277,-0.10002351343617052,0.0020656125777847286,0.01926540560960712,0.10188290263209018
69,1790943387.7811675,0.1542871582031249,0.27868447265625007,0.25641079101562597,0.408920598937431,-0.10009348694444574,0.004853545299009113,0.021685169984775175,0.10253053022361709
70,1790943387.8054183,0.005795947265624902,0.26910439453125007,0.24683071289062597,0.36520702209408734,-0.0998744455760262,0.008723271206331802,0.02509441735070074,0.1033476178817344
71,1790943387.8254182,-0.0373144042968751,0.16372353515625004,0.380951806640626,0.41631963647520565,-0.09976817331139236,0.012085224012370891,0.028426002298578078,0.10444031143193691
72,1790943387.8507814,-0.008574169921875098,0.24994423828125004,0.380951806640626,0.4557081496117887,-0.09974090957633822,0.016496094007337772,0.03346656596915378,0.1064912259220539
73,1790943387.8707814,-0.12353510742187511,0.30263466796875005,0.313891259765626,0.45318471728373794,-0.09992079946850345,0.02028139838674534,0.03788732588013207,0.108770173987606
74,1790943387.8811848,-0.11874506835937511,0.31221474609375005,0.34742153320312597,0.4819545213723679,-0.10018937705248696,0.022434789727385385,0.04035793377907357,0.11031769524057998
75,1790943387.9011848,0.034536181640624906,0.46549599609375003,0.12228969726562597,0.482528797357158,-0.10075456763871689,0.02712016939757738,0.04509967199545316,0.11367043108177047
76,1790943387.9261158,0.08243657226562491,0.5565067382812501,0.09833950195312596,0.5711096180627062,-0.1011347065050296,0.03399560372708301,0.05053639645116335,0.1180587027664479
77,1790943387.9461157,-0.0612645996093751,0.47507607421875003,0.28994106445312595,0.5599253953131685,-0.10136215865588388,0.04023121552549516,0.05482602456740037,0.12206035752816968
78,1790943387.9705672,-0.0947948730468751,0.17809365234375005,0.390531884765626,0.4395663430924869,-0.10188471608871384,0.04790902098734866,0.06053165457309192,0.12782742612522618
79,1790943387.9905672,-0.0421044433593751,0.10624306640625004,0.31868129882812596,0.3385530143608043,-0.10245337468435797,0.053673545790234915,0.0655623318307694,0.13295097915020335
80,1790943388.0006106,-0.12353510742187511,0.32179482421875005,0.395321923828126,0.5244923785136264,-0.10282087189454542,0.05645652071624788,0.06824747265478366,0.13570994050659696
81,1790943388.0206106,-0.21933588867187512,0.60440712890625,0.45759243164062596,0.7891812485272052,-0.10395722395939724,0.06255643928115891,0.07407186052726038,0.14215151434596648
82,1790943388.0458581,-0.0947948730468751,0.7145780273437501,0.323471337890626,0.7900895718557548,-0.10577138373157415,0.07159937979864299,0.08180055955343705,0.1516752726956429
83,1790943388.0658581,0.0393262207031249,0.7528983398437501,0.13186977539062597,0.7653705634761766,-0.10707611733682557,0.07988948788374953,0.08768754616628244,0.1598021618468327
84,1790943388.0907726,0.0441162597656249,0.7289481445312501,0.12707973632812597,0.7412562992491103,-0.10830173761061028,0.09143657316862373,0.09440495420547165,0.17030034838730002
85,1790943388.1107726,-0.0708446777343751,0.76247841796875,0.14144985351562597,0.778717129188133,-0.1091781111679852,0.10155266643610988,0.09939125634645911,0.1791966122911376
86,1790943388.1358678,-0.1043749511718751,0.78642861328125,0.07438930664062596,0.7968047835963802,-0.11044259387232136,0.1152572287296848,0.10511562709971337,0.1911310816593141
87,1790943388.1558678,-0.1426952636718751,0.84390908203125,0.007328759765625959,0.8559194983927608,-0.11166978355015342,0.12698646490766938,0.10911600204604044,0.20125109870606014
88,1790943388.1808581,-0.1091649902343751,0.9588700195312501,-0.20822299804687405,0.9872717591242848,-0.11344522410016476,0.1428228669475591,0.11298822790850103,0.21455658889943266
89,1790943388.200858,-0.008574169921875098,0.76247841796875,-0.13158237304687403,0.7737963395846634,-0.11482959873169042,0.15617780144242469,0.11511265132714289,0.22545124728826596
90,1790943388.2104287,-0.0229442871093751,0.15414345703125004,0.16540004882812598,0.22725277073965175,-0.11541531804758601,0.16226787861552408,0.11600103646781401,0.2304512975272975
91,1790943388.2304287,-0.0133642089843751,-0.22426962890625,0.12707973632812597,0.25811766293059285,-0.11651017740545465,0.17298032140664088,0.11801776914262245,0.23963515365320803
92,1790943388.2554667,0.1255469238281249,-0.35839072265625,-0.12679233398437406,0.400352639714014,-0.11746457262054855,0.1832854562113444,0.12016434671419017,0.24865830873062914
93,1790943388.2754667,0.1015967285156249,-0.72243369140625,-0.12679233398437406,0.7404786490380013,-0.1177718605280057,0.18866106981319902,0.12124142587018075,0.25330356046120495
94,1790943388.2861836,0.1255469238281249,-1.03857626953125,-0.13158237304687403,1.0543797316966972,-0.11772924980119273,0.18969405235274336,0.1215243289034021,0.2541892449970676
95,1790943388.3061836,0.19260747070312492,-1.1631172851562501,-0.4141946777343741,1.249598610700005,-0.11718442629711075,0.18803011043867787,0.1211544263608757,0.2525191224937177
96,1790943388.3304136,0.2596680175781249,-1.44572958984375,-0.48604526367187406,1.5471914957886088,-0.11580148231546103,0.18157569514219468,0.11913754829392718,0.24611678485287647
97,1790943388.3504136,0.20697758789062493,-1.86246298828125,-0.17469272460937404,1.8820535732645847,-0.11413122889547946,0.1720849363810649,0.11673138283906333,0.2372032429752752
98,1790943388.3760853,0.16386723632812492,-1.71397177734375,-0.22259311523437406,1.736116188399398,-0.11159488345050268,0.1548440594603921,0.11334121220792949,0.22198272713719783
99,1790943388.3960853,0.2596680175781249,-1.48883994140625,-0.4525149902343741,1.5776063092122619,-0.10927999637962287,0.13862282328154918,0.11008355751161,0.20803075344210517
100,1790943388.4062483,0.46563969726562493,-1.46967978515625,-0.37108432617187403,1.5857120090662673,-0.10772727386087494,0.12936129824070042,0.10804870376249925,0.20003508042533868
101,1790943388.4262483,0.681191455078125,-1.82414267578125,-0.11242221679687404,1.9504248395945318,-0.10340975640970484,0.10892861706793076,0.10391970099464203,0.18264261712936056
102,1790943388.451222,0.7626221191406249,-1.75229208984375,-0.016621435546874043,1.9111243645694942,-0.09612293328387347,0.0805430291357788,0.09929555705133832,0.15995751153227686
103,1790943388.471222,0.6859814941406249,-1.12958701171875,-0.021411474609374044,1.321739716658332,-0.08898976302617949,0.05689765248120954,0.096090772740904,0.14279340806659155
104,1790943388.496067,0.714721728515625,-0.77512412109375,-0.15074252929687404,1.0650670694620785,-0.07884766650688323,0.028380847275192567,0.09238599184893218,0.12473010260377983
105,1790943388.516067,0.6668213378906249,-0.88050498046875,-0.3136038574218741,1.14816684183371,-0.06983574346668017,0.00638511697998749,0.08915452012316566,0.1134298428227071
106,1790943388.5554652,0.5949707519531249,-1.08647666015625,-0.5578958496093741,1.358554197577451,-0.0510175312455094,-0.0362572438680754,0.0811685001299998,0.1024973250414341
107,1790943388.5754652,0.5853906738281249,-1.22059775390625,-0.5626858886718741,1.4660001797941176,-0.041127093018517455,-0.058117666527233935,0.07604172973693858,0.10417027217066376
108,1790943388.5713487,0.657241259765625,-1.14395712890625,-0.31839389648437405,1.3571951442708003,-0.041127093018517455,-0.058117666527233935,0.07604172973693858,0.10417027217066376
109,1790943388.5913486,0.7099316894531249,-1.15353720703125,-0.38066440429687404,1.4069671212910124,-0.030346139727071564,-0.0803728647162317,0.07016567602205223,0.11092298080497219
110,1790943388.6157618,0.695561572265625,-1.19185751953125,-0.6393265136718741,1.520877588354712,-0.01658683966017209,-0.10775830444130982,0.06220134261232148,0.12552283636356243
111,1790943388.6357617,0.575810595703125,-1.35471884765625,-0.5770560058593741,1.5810802105577817,-0.005098542274158478,-0.13064792146525547,0.05483083458390062,0.14177903560710242
112,1790943388.6461086,0.561440478515625,-1.51279013671875,-0.45730502929687405,1.677163468028565,0.0008358844840709841,-0.14293871032157812,0.05078702217901962,0.15169540280799207
113,1790943388.6661086,0.580600634765625,-1.57027060546875,-0.4237747558593741,1.7269718918364345,0.012299233118490575,-0.16775711579268063,0.042821402649037235,0.1735724447002254
114,1790943388.6906157,0.599760791015625,-1.6373311523437502,-0.4237747558593741,1.7944780167443326,0.02640842676323755,-0.19950240009511125,0.03296698804347011,0.2039250718976885
115,1790943388.7106156,0.7099316894531249,-1.57027060546875,-0.5962161621093741,1.8235203563572837,0.03816019238140732,-0.22633478443716692,0.02460121841833693,0.23084378890598628
116,1790943388.7361705,0.7243018066406249,-1.61817099609375,-0.6584866699218741,1.8912152638361164,0.053672474575385924,-0.26158803204774816,0.013110504152863292,0.26735915611177674
117,1790943388.7561705,0.4991699707031249,-1.56548056640625,-0.5387356933593741,1.7292010324848865,0.06582697711392398,-0.28981516168943855,0.003670659181219959,0.297219603323632
118,1790943388.7804885,0.3410986816406249,-1.46488974609375,-0.3519241699218741,1.544700909627098,0.07992136206621181,-0.32451526349123094,-0.007709992043002843,0.3343007991773348
119,1790943388.8004885,0.6524512207031249,-1.42656943359375,-0.40940463867187404,1.621235671463911,0.09126465509256307,-0.35311026775432286,-0.016807862401515487,0.36510081169617026
120,1790943388.8105567,0.8105225097656249,-1.22059775390625,-0.22259311523437406,1.4820098888426803,0.09722313828579418,-0.3673449236516203,-0.021178052705146014,0.38058263421645416
121,1790943388.8305566,0.8057324707031249,-1.0050459960937501,0.07438930664062596,1.290293004534983,0.10970833738343184,-0.3947184116181752,-0.028779365907817205,0.410690632549451
122,1790943388.8556318,0.815312548828125,-0.79428427734375,0.12707973632812597,1.1453258596999034,0.12606237710236073,-0.42727414494651966,-0.03650117111097248,0.44697567422953766
123,1790943388.8756318,0.6237109863281249,-0.66495322265625,0.12228969726562597,0.9198548542268249,0.139308297123416,-0.4515344880756642,-0.041362193321425676,0.47434273116127446
124,1790943388.9002802,0.5853906738281249,-0.66016318359375,0.17019008789062598,0.8985890807225516,0.1554193664757443,-0.4793982861329216,-0.04591371427984041,0.5060493704984477
125,1790943388.9202802,0.781782275390625,-0.79428427734375,0.16540004882812598,1.1266890500500895,0.16858190430553877,-0.5007975749612447,-0.04854950673144237,0.5306365273425979
126,1790943388.9305677,0.9254834472656249,-0.77033408203125,0.16061000976562598,1.2147961904527473,0.17565409633656012,-0.5113609789429822,-0.04945039061332577,0.5429454424499289
127,1790943388.9505677,0.8248926269531249,-0.62663291015625,0.11749965820312597,1.0425559072636679,0.18996635324644467,-0.5309123001170788,-0.05052192412719406,0.5661338627911902
128,1790943388.975797,0.5901807128906249,-0.69369345703125,-0.08368198242187405,0.9146182593727875,0.20799015532630613,-0.5543743711531611,-0.05160687859322343,0.5943518469915438
129,1790943388.995797,0.5710205566406249,-0.94277548828125,-0.10763217773437404,1.107463219747709,0.22187677797454677,-0.5726383162911605,-0.05262491502804953,0.616371095664658
130,1790943389.0205045,0.8105225097656249,-1.03378623046875,-0.14116245117187404,1.3212068523756628,0.23901882470911104,-0.5954794765801744,-0.054154959744813665,0.6439398770525752
131,1790943389.0405045,0.935063525390625,-1.03378623046875,-0.17469272460937404,1.4048399605841861,0.25343175185792016,-0.6142966464641352,-0.05568148623015037,0.6668496461839472
132,1790943389.0505438,0.820102587890625,-0.92840537109375,-0.17469272460937404,1.251008527457775,0.26090289486447277,-0.6238028359212092,-0.05659588187848091,0.6785303180386328
133,1790943389.0705438,0.8057324707031249,-0.88529501953125,-0.12679233398437406,1.2037559478189106,0.2759928196518684,-0.6426205810598844,-0.05859649044367346,0.701831031227209
134,1790943389.0951197,0.8871631347656249,-0.8757149414062501,-0.10284213867187404,1.250804377900848,0.2948742651032314,-0.6655212040178433,-0.06110934508684694,0.7304817980446016
135,1790943389.1151197,0.9302734863281249,-0.78470419921875,-0.04057163085937404,1.2177091183313087,0.31066132793242346,-0.6838529367751471,-0.06306268889775657,0.7537520829422266
136,1790943389.140172,0.8632129394531249,-0.73201376953125,-0.030991552734374043,1.1322284283498367,0.3308400181897302,-0.7062209718884929,-0.06527692294971864,0.7826009554304748
137,1790943389.160172,0.7674121582031249,-0.80865439453125,-0.07889194335937405,1.1176167899059584,0.34697879940978654,-0.7237104624137213,-0.06694428191211774,0.8053773385982922
138,1790943389.1702304,0.7913623535156249,-0.80865439453125,-0.16990268554687404,1.144134269617221,0.35505375519946386,-0.7324069799437117,-0.06784473449790589,0.8167533662927878
139,1790943389.1902304,0.8488428222656249,-0.77033408203125,-0.19385288085937405,1.1625522243186663,0.3711617656553674,-0.7494736840437846,-0.06991224702682952,0.8392613309589051
140,1790943389.2153158,0.776992236328125,-0.78949423828125,-0.13637241210937404,1.116071468311058,0.39139390107114336,-0.7706037283641158,-0.07273777828879392,0.8673581015674863
141,1790943389.2353158,0.7290918457031249,-0.80386435546875,-0.11721225585937405,1.0915638022523564,0.40736400031690767,-0.7873132368994747,-0.07503296957714134,0.8896277357832805
142,1790943389.2598867,0.781782275390625,-1.0050459960937501,-0.19864291992187405,1.2887047722477438,0.4268253024397339,-0.8080959063422741,-0.07801182430520887,0.9172157201996369
143,1790943389.2798867,0.776992236328125,-1.0433663085937501,-0.11721225585937405,1.3061657253757553,0.44262822134980206,-0.82554750028455,-0.0805465972879391,0.9401787978337014
144,1790943389.290658,0.8632129394531249,-0.9954659179687501,-0.02620151367187404,1.3178677824407756,0.45118750785870426,-0.8351835457055744,-0.0818228208460185,0.9527836565959155
145,1790943389.310658,0.9063232910156249,-1.21580771484375,-0.12200229492187405,1.5213463995018288,0.4673506781903284,-0.8537087382246155,-0.08405935220869501,0.9768834325648943
146,1790943389.3355072,0.8823730957031249,-1.41219931640625,-0.13158237304687403,1.670390107183242,0.48775402938497764,-0.8781708131736854,-0.08689393562313913,1.0082849430292469
147,1790943389.3555071,0.8440527832031249,-1.52716025390625,-0.10284213867187404,1.7479187759820387,0.5043021420163917,-0.8993150056887323,-0.08918478610822182,1.0349116174690547
148,1790943389.3806393,0.8105225097656249,-1.53195029296875,-0.18427280273437405,1.7429213708000106,0.5250962207431442,-0.9276656703806333,-0.0921728730195519,1.0699464825691802
149,1790943389.4006393,0.8632129394531249,-1.63254111328125,-0.23217319335937406,1.8612445989465158,0.5416724143855508,-0.9515894442828753,-0.09481875209461393,1.0990550808424677
150,1790943389.41025,0.9254834472656249,-1.7235518554687501,-0.14116245117187404,1.961396810253674,0.549732303219758,-0.9637802531774401,-0.09616856965543426,1.1136994098084287
151,1790943389.43025,0.9685937988281249,-1.74750205078125,-0.054941748046874045,1.9987385922854992,0.5668303020041664,-0.9905507701701687,-0.09885037579829094,1.1455386577284559
152,1790943389.454943,0.935063525390625,-1.69481162109375,-0.054941748046874045,1.936426818443913,0.5882993930986018,-1.0250202788925293,-0.10186830962680624,1.1862292782457042
153,1790943389.474943,0.8057324707031249,-1.62775107421875,-0.08368198242187405,1.8181806973311843,0.6056910494979046,-1.0537347624557922,-0.10415395128632884,1.219863370471543
154,1790943389.5008295,0.719511767578125,-1.54153037109375,-0.07889194335937405,1.7030082229439913,0.6277862281111751,-1.0914789577126787,-0.10698420149611665,1.2636801346485484
155,1790943389.5208294,0.5949707519531249,-1.46967978515625,0.09833950195312596,1.5885904205367023,0.6442681063077972,-1.1207828130030744,-0.10881368784274287,1.2973341610357978
156,1790943389.5601964,0.6237109863281249,-1.3211885742187501,0.11749965820312597,1.4657287650825537,0.6754420788524148,-1.1780511179648199,-0.11123732684808117,1.3624977729548553
157,1790943389.5801964,0.5231201660156249,-1.08647666015625,-0.04536166992187404,1.206707886049725,0.6906242986719058,-1.20639300158419,-0.11217572918753807,1.3946072531025102
158,1790943389.5749962,0.2165576660156249,-0.96193564453125,-0.016621435546874043,0.9861509413114836,0.6906242986719058,-1.20639300158419,-0.11217572918753807,1.3946072531025102
159,1790943389.5949962,0.0968066894531249,-1.01941611328125,0.14144985351562597,1.0337256929185403,0.7030065869128597,-1.232453760499298,-0.11274551081351628,1.4233313329019108
160,1790943389.6204796,0.2884082519531249,-0.77991416015625,0.08875942382812596,0.8362557338070615,0.7171533961117494,-1.2641176905167226,-0.11292262141617342,1.4577565117191034
161,1790943389.6404796,0.5901807128906249,-0.43982138671875,-0.15553256835937404,0.7522941618168746,0.7279086301381694,-1.2870703343191194,-0.11314093171352597,1.482970630101271
162,1790943389.6650617,0.4991699707031249,-0.25300986328124997,-0.3231839355468741,0.646244927844638,0.7411534711882416,-1.3123272774946004,-0.11425160069074335,1.5114776807386758
163,1790943389.6850617,0.19260747070312492,-0.17636923828124998,-0.36629428710937406,0.4498613683697768,0.7513507137418465,-1.3304379896812566,-0.11605390918865086,1.5323386209534278
164,1790943389.6960025,0.08722661132812491,-0.22426962890625,-0.40940463867187404,0.4748868352982451,0.7563218890860861,-1.3391879294801283,-0.11752846078902059,1.5424850240671562
165,1790943389.7160025,0.39378911132812494,-0.14762900390624997,-0.5243655761718741,0.6721781344770205,0.7647677078412813,-1.3533415805207143,-0.12122029785242719,1.5591976914857666
166,1790943389.7401705,0.820102587890625,0.14935341796875004,-0.6536966308593741,1.0593365769767158,0.7756430610213786,-1.3678762585781115,-0.1271476941092741,1.5776166052021547
167,1790943389.7601705,0.9254834472656249,0.47028603515625006,-0.629746435546874,1.2141948522002732,0.7859112520681515,-1.3771706145358158,-0.13324223703273277,1.5912287363536939
168,1790943389.7857032,0.7722021972656249,0.6331473632812501,-0.45730502929687405,1.098316760735296,0.8003046849977327,-1.385143283727014,-0.14193733369752132,1.6060061369685164
169,1790943389.8057032,1.260786181640625,0.8103788085937501,-0.610586279296874,1.6183668353310299,0.8129374798216746,-1.3882862924723187,-0.1493284656908722,1.6157057797231964
170,1790943389.815834,1.826010791015625,0.50860634765625,-0.8644583496093741,2.083334842023985,0.8207220909346303,-1.3886373692044374,-0.15363157572661654,1.6203398269373546
171,1790943389.835834,1.811640673828125,0.17809365234375005,-0.711177099609374,1.9543623377159007,0.8392414195752849,-1.3881964395348334,-0.1632157996199735,1.6303542290905724
172,1790943389.8599017,1.011704150390625,0.5756668945312501,-0.5004153808593741,1.2670253410163121,0.8632807341843145,-1.386384830466639,-0.1752062821341724,1.6425631693974816
173,1790943389.8799016,1.299106494140625,1.0259305664062501,-0.8261380371093741,1.8500581792375947,0.8837269230062189,-1.3827028210993055,-0.1856654910658063,1.6514575503156974
174,1790943389.9051828,2.386445361328125,0.50860634765625,-0.9027786621093741,2.6016939082529955,0.9126834995456737,-1.3758370610612003,-0.20018158570208963,1.6631270114415981
175,1790943389.9251828,2.4822461425781253,0.16851357421875005,-0.5435257324218741,2.5466375790136877,0.9394579753949721,-1.3702045976795842,-0.21211218536729096,1.6748234253845327
176,1790943389.9356918,1.845170947265625,0.54692666015625,-0.553105810546874,2.002426186875189,0.9548271205131139,-1.3671250578319412,-0.21830512989695858,1.6817796774722547
177,1790943389.9556918,1.414067431640625,1.03072060546875,-0.6776468261718741,1.8764799196328732,0.9845779837479074,-1.359776948968229,-0.23016931923339165,1.6945102751363896
178,1790943389.9807632,2.075092822265625,0.9397098632812501,-0.8836185058593741,2.4433269351569664,1.0228394184183602,-1.3482421772541267,-0.2457467565562552,1.710072779958583
179,1790943390.0007632,2.980410205078125,0.19725380859375005,-1.1997610839843742,3.218878797684363,1.0563663394956984,-1.3387154282669804,-0.2594343111562384,1.7249275355517684
180,1790943390.025453,2.9516699707031253,-0.05661826171874997,-0.9171487792968741,3.0913950130768453,1.1025315759174472,-1.3284583772061294,-0.27771694134987845,1.7485720561008873
181,1790943390.045453,1.821220751953125,0.16372353515625004,-0.4333548339843741,1.8792144197633196,1.141477500663232,-1.3212353331547133,-0.29233101053803656,1.7703364397252335
182,1790943390.0555067,1.715839892578125,0.2882645507812501,-0.888408544921874,1.9535794662336696,1.1607853343661647,-1.3178082625294234,-0.29957194772193774,1.7815118751028023
183,1790943390.0755067,2.510986376953125,-0.27217001953125,-1.262031591796874,2.823446979043377,1.19977374637371,-1.3119891871684415,-0.3150415165401582,1.8055536067584472
184,1790943390.099573,2.7265381347656255,-0.40150107421875,-1.1327005371093741,2.9796348467048595,1.2491052270535314,-1.307253303474191,-0.33518643133060155,1.838892332749469
185,1790943390.1195729,2.7025879394531254,-0.60747275390625,-0.8213479980468741,2.8892243338154864,1.2920958734578372,-1.3054214106501116,-0.35234754536172885,1.8702367760026894
186,1790943390.1458282,2.894189501953125,-0.46856162109375,-0.9171487792968741,3.071977335421508,1.3510880785037493,-1.3054961612313876,-0.37492021307064627,1.9158090690446636
187,1790943390.1658282,3.0762109863281255,-0.38234091796874997,-0.9458890136718741,3.24098204810582,1.3982402971550325,-1.3068209137770954,-0.39233025325970655,1.9536580706193758
188,1790943390.1907148,2.7456982910156253,-0.28175009765625,-0.9123587402343741,2.906998571327046,1.4589789112995333,-1.3094616034704862,-0.41421294811774934,2.003716926356781
189,1790943390.2107148,2.4487158691406252,-0.23384970703125,-0.8596683105468741,2.6057483948797215,1.508260930334202,-1.3120388513916506,-0.4318190038223347,2.0451808315148634
190,1790943390.2206278,2.434345751953125,-0.48772177734375,-0.806977880859374,2.6105794514520833,1.5326539426723622,-1.313661118489912,-0.44047556773482827,2.0660959241992183
191,1790943390.2406278,3.066630908203125,-0.63142294921875,-0.8596683105468741,3.2468368718039016,1.5827375561753447,-1.318121898367042,-0.457820881751854,2.110000822381518
192,1790943390.295834,3.4689941894531255,-0.8757149414062501,-0.9650491699218741,3.705687148887315,1.7273078083251545,-1.3348283549491506,-0.5060728629790032,2.2408633926504913
193,1790943390.315834,3.0522607910156254,-0.64100302734375,-0.9746292480468741,3.267580601696552,1.7816080062756505,-1.342247942171785,-0.5238408797773855,2.291324048146799
194,1790943390.3098454,2.434345751953125,-0.21468955078125,-1.0416897949218742,2.6565482250678714,1.7816080062756505,-1.342247942171785,-0.5238408797773855,2.291324048146799
195,1790943390.3298454,2.257114306640625,-0.27696005859375,-0.9794192871093741,2.4759915200298805,1.8348724993425167,-1.3494370746475335,-0.5422807369741165,2.341325672556028
196,1790943390.3401492,2.697797900390625,-0.9140352539062501,-1.108750341796874,3.0566159845767693,1.8620265681059862,-1.3535056393719693,-0.5519694159358435,2.3672327076721538
197,1790943390.3601491,2.937299853515625,-1.0433663085937501,-1.2141312011718741,3.3452142318587788,1.9152803099556992,-1.3631544047046271,-0.5714389454898036,2.4193038389570094
198,1790943390.3855255,2.6451074707031252,-0.86613486328125,-1.142280615234374,3.0085857370035067,1.9833387557793616,-1.3771947546827237,-0.5969215079414482,2.487290352802649
199,1790943390.4055254,2.391235400390625,-0.42545126953125,-1.156650732421874,2.6901405984890685,2.036486653918409,-1.3885379766594708,-0.617441058977696,2.5409740387349244
200,1790943390.4456725,2.6498975097656254,-0.57394248046875,-1.1997610839843742,2.9649272236923534,2.142349360292154,-1.4109015756526622,-0.6595478092570923,2.648642548631128
201,1790943390.4656725,2.9325098144531254,-0.88050498046875,-1.103960302734374,3.254785888888476,2.1955497580290073,-1.4225529484577168,-0.6808331858660346,2.703262743079827
202,1790943390.4596944,2.8414990722656253,-0.69369345703125,-0.9602591308593741,3.0785427053093115,2.1955497580290073,-1.4225529484577168,-0.6808331858660346,2.703262743079827
203,1790943390.4796944,2.7217480957031253,-0.42545126953125,-0.9458890136718741,2.9126667343509265,2.249693762497296,-1.4346568818919532,-0.7017029672239012,2.758939913805665
204,1790943390.5056698,2.707377978515625,-0.49251181640624997,-0.9458890136718741,2.9098401045480635,2.3200432941263984,-1.4498074591572323,-0.7284278227349187,2.831103962800228
205,1790943390.5256698,2.7456982910156253,-0.71764365234375,-0.9363089355468741,2.988401903998243,2.3742640731015117,-1.4615381843538389,-0.7487415486818844,2.8868386965446207
206,1790943390.5498483,2.697797900390625,-0.85655478515625,-0.9650491699218741,2.990504892437569,2.439851834536808,-1.4764471625818811,-0.773063578053047,2.9547251131198133
207,1790943390.5698483,2.6594775878906254,-0.92840537109375,-0.9315188964843741,2.9668982166693434,2.494002703940212,-1.4896071503110881,-0.793009323708822,3.0112858942664564
208,1790943390.5806751,2.6259473144531253,-0.87092490234375,-0.8548782714843741,2.895673728661805,2.5232115428754396,-1.4971236719719108,-0.8036377459035162,3.042007463159714
209,1790943390.600675,2.6498975097656254,-0.80386435546875,-0.8836185058593741,2.906705416472816,2.5769882160323268,-1.511438088507941,-0.8229339440359074,3.098795513939006
210,1790943390.6256218,2.6067871582031255,-1.01462607421875,-1.036899755859374,2.98328115710848,2.6438394103285643,-1.5300171372180276,-0.8469857477970655,3.1698933932797635
211,1790943390.6456218,2.611577197265625,-1.2828682617187501,-1.0416897949218742,3.090502234758526,2.697222862312563,-1.5461241144693094,-0.8664937907489103,3.2274327933717686
212,1790943390.6711316,2.6163672363281254,-1.3595088867187501,-0.8788284667968741,3.076683507033356,2.7651018453126963,-1.568642294986954,-0.8913182136927618,3.301647319541273
213,1790943390.6911316,2.5588867675781253,-1.13437705078125,-0.926728857421874,2.9484808220173395,2.818099885769727,-1.5873894390410224,-0.9105697665773937,3.360153195489624
214,1790943390.700682,2.419975634765625,-1.01462607421875,-1.0512698730468741,2.8268209156789244,2.843177470613163,-1.5965379858914237,-0.9198005615275767,3.388011915974168
215,1790943390.720682,2.4535059082031254,-0.96193564453125,-1.1231204589843742,2.864683401564066,2.895126813695266,-1.6157876135924463,-0.9394933368505102,3.4460378131417224
216,1790943390.7456145,2.707377978515625,-1.07689658203125,-0.6824368652343741,2.992544375940457,2.959824862791939,-1.6399977482924895,-0.9637368357436864,3.518372425053239
217,1790943390.7656145,2.937299853515625,-0.96193564453125,-0.39982456054687404,3.1165542339094894,3.012405392522297,-1.6595633583395293,-0.9818903398979293,3.5767087425209034
218,1790943390.7911174,2.9899902832031255,-0.70806357421875,-0.5435257324218741,3.1203871779939862,3.080733362078832,-1.6839642759244107,-1.0033708357955728,3.6514937717241525
219,1790943390.8111174,2.8223389160156254,-0.60747275390625,-0.6536966308593741,2.960057328632605,3.134998568010359,-1.7022029787669908,-1.0194853448557777,3.7101295625255357
220,1790943390.8201668,2.8367090332031255,-0.73680380859375,-0.7207571777343741,3.018159853399102,3.1597098256881697,-1.710129962329789,-1.0266158438486515,3.736609527559647
221,1790943390.8401668,2.750488330078125,-0.94756552734375,-0.6441165527343741,2.97958933680677,3.2145125042802905,-1.7275479277105847,-1.042058312222596,3.795180892761725
222,1790943390.8657959,2.5253564941406252,-1.03857626953125,-0.7015970214843741,2.8192737488025923,3.2843466355870046,-1.7503379106405819,-1.0614654966860573,3.870054860692842
223,1790943390.8857958,2.5540967285156255,-1.08168662109375,-0.869248388671874,2.90672475581643,3.338287439173376,-1.7686351103070805,-1.0766947291251832,3.9282953961839002
224,1790943390.9106247,2.611577197265625,-1.05773642578125,-0.8740384277343741,2.9500991469539883,3.4048267323457764,-1.7919268249282794,-1.0960113612231055,4.00063591534197
225,1790943390.9306247,2.654687548828125,-0.83739462890625,-0.7782376464843741,2.8903718758716246,3.458284580496867,-1.810717007341716,-1.111715581979297,4.058859427917466
226,1790943390.9555147,2.6882178222656252,-0.73201376953125,-0.7734476074218741,2.891466828472447,3.524807406880499,-1.8335233946425546,-1.1312244812530243,4.131070578105312
227,1790943390.9755147,2.7648584472656252,-0.99067587890625,-1.0895901855468741,3.1325848277265895,3.5784225066247908,-1.851684327244301,-1.1473437315857113,4.189300672199366
