imu_index,t_imu,ax,ay,az,mag,vx,vy,vz,velocity
0,1791353875.7826524,0.1932301757812499,0.07362290039062502,-0.05513334960937605,0.2140044825080314,0.0,0.0,0.0,0.0
1,1791353875.8026524,0.1453297851562499,0.07362290039062502,-0.026393115234376048,0.16503840294690414,0.0007542076962581483,0.0003147375990124712,-0.00019258453435448328,0.0008396295660585634
2,1791353875.8132272,0.11179951171874988,0.04009262695312502,0.021507275390623956,0.12070257847818114,0.0012971035533937472,0.0005463792469774535,-0.0002830128510210119,0.0014356546184919883
3,1791353875.8332272,0.1453297851562499,0.06883286132812502,0.03587739257812396,0.16476011820335484,0.002555551732289526,0.0010821523979592977,-0.00034230769708835164,0.002796260543708863
4,1791353875.8426971,0.1884401367187499,0.09278305664062503,-0.007232958984376046,0.2101682574077928,0.003299105130906851,0.0014125751184731416,-0.00034582769884054305,0.003605420908491915
5,1791353875.8626971,0.1740700195312499,0.14068344726562504,-0.031183154296876046,0.22597476218828597,0.00517765490050729,0.002355930740836131,-0.000409770722089117,0.005703194891378452
6,1791353875.888423,0.10221943359374988,0.11673325195312503,-0.021603076171876047,0.15665936810758138,0.007764649391405426,0.0038840175478678735,-0.0005815305472401579,0.008701353358011135
7,1791353875.908423,0.03994892578124988,0.08799301757812503,0.0071371582031239545,0.09690008689777554,0.0096874226524152,0.005200887074960726,-0.0007167306174597659,0.011018579163895178
8,1791353875.9323044,0.07347919921874989,0.08320297851562503,-0.007232958984376046,0.11123957950014896,0.011842126376435008,0.006844090026344967,-0.0008541251368841019,0.01370427142002192
9,1791353875.9523044,0.1357497070312499,0.07841293945312502,-0.03597319335937605,0.16084353475729352,0.013689793839039018,0.008256226592285622,-0.001016738500206109,0.016019035241747748
10,1791353875.9633155,0.1309596679687499,0.09278305664062503,-0.045553271484376046,0.16683593970422536,0.014774710440389048,0.00905844818351922,-0.0011601645454131983,0.01736932738661108
11,1791353875.9833155,0.07347919921874989,0.09278305664062503,-0.012022998046876046,0.11896403153660082,0.01675636231927335,0.010575340443735136,-0.0014679631658916343,0.01986878002123126
12,1791353876.00782,0.06868916015624989,0.05925278320312503,0.021507275390623956,0.0932290509177028,0.019081413346866218,0.012434507458403491,-0.0017710861403426878,0.022844125222112804
13,1791353876.0278199,0.1261696289062499,0.025722509765625023,0.0023471191406239547,0.1287863802396968,0.020986709219541818,0.013851770445239603,-0.0019455966438844548,0.025221000270288833
14,1791353876.0529566,0.1309596679687499,0.08799301757812503,-0.007232958984376046,0.15794151282249738,0.02350691189158707,0.015580230872066654,-0.0021412392075785343,0.028282563639985114
15,1791353876.0729566,0.08305927734374989,0.19337387695312502,0.031087353515623955,0.21274097722195806,0.02553235581227056,0.01717124047844667,-0.0022377709285744955,0.030850612824088353
16,1791353876.083071,0.1357497070312499,0.15026352539062504,0.045457470703123955,0.20754154202138558,0.026569005352927194,0.01811583509348377,-0.0022212008626318618,0.03223397679235884
17,1791353876.103071,0.1932301757812499,0.03530258789062502,0.016717236328123955,0.1971386302445018,0.028804839128250943,0.01998182570870837,-0.002100088501640812,0.03511983040352472
18,1791353876.1281366,0.1453297851562499,0.06404282226562502,0.021507275390623956,0.16026475729877834,0.03182312121463525,0.022156411685102913,-0.0018992093250450024,0.03882299085157493
19,1791353876.1481366,0.08784931640624989,0.15984360351562504,-0.0024429199218760455,0.18241010891847645,0.03421994297461352,0.023967084500154143,-0.001734372932334735,0.041814276103882816
20,1791353876.1726239,0.12137958984374989,0.10236313476562503,-0.026393115234376048,0.16095904050862603,0.0370985960966774,0.02633302303068108,-0.001615784801768466,0.04552301280456308
21,1791353876.1926239,0.12137958984374989,0.006562353515625022,-0.016813037109376046,0.12271408856012517,0.039461204841583206,0.028138935488640614,-0.0015982655845055134,0.04849268842683279
22,1791353876.2025528,0.04473896484374988,0.06883286132812502,-0.026393115234376048,0.08623302328970166,0.040581883094486126,0.028957139798735862,-0.0016230471704090828,0.0498802512316793
23,1791353876.2225528,0.015998730468749882,0.08320297851562503,-0.045553271484376046,0.096196650427198,0.04259177532400059,0.03058609389913836,-0.0017733968047970177,0.05246630729796331
24,1791353876.2475662,0.01120869140624988,0.09757309570312503,-0.045553271484376046,0.10826469558937947,0.04477947784249915,0.03265692766592979,-0.0021041460169546234,0.05546263598933347
25,1791353876.2675662,0.03036884765624988,0.13110336914062504,-0.016813037109376046,0.13562093689704685,0.04632868065724813,0.03440735064842891,-0.0024224837329803613,0.05775881627528193
26,1791353876.2926693,0.054319042968749884,0.14547348632812504,0.031087353515623955,0.15836513884723954,0.04814094252407303,0.03679556625608792,-0.0027352379397687834,0.06065431204621324
27,1791353876.3126693,0.06868916015624989,0.08799301757812503,0.06940766601562395,0.1314473125142221,0.04955273064402394,0.03876308143724964,-0.002796294817998457,0.06297514479141117
28,1791353876.3231108,0.04952900390624988,0.08799301757812503,0.06940766601562395,0.12252884342956126,0.050271812623646994,0.03977401508343899,-0.0027146813256632876,0.06416071161563446
29,1791353876.3431108,0.06868916015624989,0.13110336914062504,0.040667431640623954,0.1534931077255222,0.05161988463272695,0.041748571049323245,-0.0024166930516140907,0.06643339581462136
30,1791353876.3680809,0.11179951171874988,0.10236313476562503,0.026297314453123957,0.15384697243378853,0.05338850774433156,0.0442812511384773,-0.0019750509494847984,0.06939065346146057
31,1791353876.3880808,0.1501198242187499,0.08320297851562503,-0.045553271484376046,0.17757758248233135,0.054985491237297644,0.046283886236896526,-0.0017032583596404977,0.07189230460095573
32,1791353876.413055,0.09742939453124988,0.025722509765625023,-0.08866362304687606,0.1342213562707781,0.057144204525538096,0.048613508080490524,-0.001666173582939231,0.07504338354016915
33,1791353876.433055,0.08305927734374989,0.001772314453125022,-0.05034331054687605,0.0971413072189474,0.05888438280173002,0.050240534001207184,-0.0018494400156446981,0.07742675392290835
34,1791353876.457953,0.09263935546874988,0.025722509765625023,0.011927197265623956,0.09688114225648446,0.061053875695239145,0.052013543704825374,-0.0021151032116290165,0.08023377174070366
35,1791353876.477953,0.06389912109374989,0.07362290039062502,0.05503754882812396,0.11194892102869833,0.06276997753389933,0.05337314377310978,-0.002196046683634042,0.08242320775648065
36,1791353876.488079,0.07826923828124989,0.15505356445312504,0.03587739257812396,0.17735520519271855,0.06361649052652293,0.054131931894057156,-0.0021618354077134936,0.08355834757715155
37,1791353876.508079,0.10221943359374988,0.15984360351562504,0.016717236328123955,0.19046851755483826,0.06530837133991198,0.055878150459501875,-0.002025508758368643,0.08597472740042153
38,1791353876.53328,0.06868916015624989,0.10715317382812503,0.0023471191406239547,0.12730087333821244,0.06744346615162974,0.05825305575584415,-0.0018434650503919726,0.08913718637488807
39,1791353876.5532799,0.09263935546874988,0.06883286132812502,-0.016813037109376046,0.11663057573862673,0.06912575083117609,0.060119098036824914,-0.0017423608724581436,0.09162811357953998
40,1791353876.5770977,0.10700947265624988,0.044882666015625024,-0.031183154296876046,0.12015768830475065,0.07118529381226758,0.06221114532841118,-0.001725754705735022,0.09455448634261583
41,1791353876.5970976,0.07347919921874989,0.06404282226562502,0.0071371582031239545,0.09773236326208218,0.07292602925596063,0.06386773611211512,-0.0017499709826031195,0.09695543232623922
42,1791353876.6076357,0.054319042968749884,0.11673325195312503,0.011927197265623956,0.12930378407148715,0.07380665827625095,0.06475255071805938,-0.0017457490618984618,0.09820062764661566
43,1791353876.6276357,0.1309596679687499,0.12631333007812504,-0.016813037109376046,0.1827243010843162,0.07550520003907683,0.06654449635946842,-0.0017462670446703992,0.10065910131362994
44,1791353876.6526213,0.1740700195312499,0.054462744140625026,-0.040763232421876044,0.18689088612454272,0.07788045952772131,0.0687860993271799,-0.0018547101988334164,0.10392465244983672
45,1791353876.6726213,0.1405397460937499,0.02093247070312502,-0.06950346679687605,0.15817812888834326,0.07996848263041394,0.07042436204232683,-0.00209389400611985,0.10657829692478861
46,1791353876.6978061,0.1453297851562499,0.016142431640625024,-0.03597319335937605,0.15058351567587022,0.08274338385159502,0.0722479191164191,-0.002549137500537954,0.10987596411345696
47,1791353876.717806,0.07826923828124989,0.054462744140625026,0.031087353515623955,0.10029300927312748,0.08495186206333077,0.07358474204619074,-0.002863759167525265,0.11242657268902755
48,1791353876.72747,0.059109082031249885,0.13589340820312504,0.0071371582031239545,0.14836388037138493,0.08595848218436511,0.07427175984519876,-0.0029652736877064877,0.11363955217258513
49,1791353876.74747,0.1453297851562499,0.09278305664062503,-0.03597319335937605,0.1761349275232208,0.08803592289202866,0.07582333264487771,-0.003187105647626028,0.11623105925369571
50,1791353876.7726698,0.1692799804687499,0.06404282226562502,-0.016813037109376046,0.18176873517766481,0.0908554641765587,0.07778146107242198,-0.00352445240814032,0.11965405476654722
51,1791353876.7926698,0.1309596679687499,0.12631333007812504,0.016717236328123955,0.18271551105574188,0.09320790119963253,0.07938795918131442,-0.0037521720798800685,0.12249179443673577
52,1791353876.847432,0.10700947265624988,0.13589340820312504,-0.007232958984376046,0.17311950013473215,0.09966032274798664,0.08420383574740434,-0.004243211704822959,0.13053915401281205
53,1791353876.8674319,0.1596999023437499,0.12631333007812504,-0.03597319335937605,0.20676843764099898,0.10206343254306859,0.08609215363589356,-0.004460455892282642,0.1335990226270642
54,1791353876.8484278,0.1644899414062499,0.12152329101562503,0.0071371582031239545,0.20463574983447108,0.10206343254306859,0.08609215363589356,-0.004460455892282642,0.1335990226270642
55,1791353876.8684278,0.12137958984374989,0.14547348632812504,0.0023471191406239547,0.1894757214615013,0.1046418249145382,0.08817294948494207,-0.004639954325035493,0.13691570296520933
56,1791353876.8924217,0.1261696289062499,0.12631333007812504,0.0071371582031239545,0.17867504481875077,0.10771660337023617,0.09078392325976545,-0.00480592948292223,0.14095277337551956
57,1791353876.9124217,0.12137958984374989,0.08799301757812503,-0.031183154296876046,0.15312793698422228,0.11026644028552851,0.0929552853360626,-0.004959593618247704,0.14430512982568916
58,1791353876.9383938,0.1549098632812499,0.07362290039062502,-0.05992338867187605,0.18168161633380564,0.11361917919335073,0.09566688379665257,-0.005306677933681688,0.14862580989392385
59,1791353876.9583938,0.1596999023437499,0.04009262695312502,-0.040763232421876044,0.16962640909388368,0.1162856192798185,0.09761232612401727,-0.0056848907905671505,0.15193034405915454
60,1791353876.967472,0.09263935546874988,0.06883286132812502,-0.05034331054687605,0.12591450233035706,0.11748621297163052,0.0984370935961462,-0.005892847065765393,0.15338708316091115
61,1791353876.987472,0.059109082031249885,0.07841293945312502,-0.05034331054687605,0.11034908957066968,0.11996207062015846,0.10020242403331457,-0.006433296373977948,0.15643788374899317
62,1791353877.0134184,0.054319042968749884,0.006562353515625022,-0.012022998046876046,0.05601941980010251,0.12291298236287675,0.10231445308757776,-0.007150625284928999,0.16008429025333018
63,1791353877.0334184,0.10700947265624988,0.08799301757812503,0.0071371582031239545,0.13872540289323124,0.1250884027780472,0.10384008064502073,-0.00762794563051262,0.1627515173891458
64,1791353877.0575402,0.1596999023437499,0.12631333007812504,0.0071371582031239545,0.20374016587615962,0.12780110370764405,0.10579182564099392,-0.008091458789815329,0.1661038957601348
65,1791353877.0775402,0.1644899414062499,0.15026352539062504,-0.021603076171876047,0.22383645991379156,0.13019918338829622,0.10758219677148241,-0.008439821859697633,0.16910643692710395
66,1791353877.1027951,0.12137958984374989,0.11194321289062503,0.021507275390623956,0.1665138151555026,0.1333146029794068,0.11000052004765616,-0.008813914300479482,0.17306236697678634
67,1791353877.122795,0.1453297851562499,0.13589340820312504,0.040667431640623954,0.20308029161606928,0.13581176253439223,0.1120001310390239,-0.008972466792743817,0.1762650542671563
68,1791353877.1333992,0.2028102539062499,0.13110336914062504,-0.031183154296876046,0.24350047556718102,0.1372140532065394,0.11311365415211605,-0.009036379729550717,0.1780563150006991
69,1791353877.1533992,0.2459206054687499,0.08320297851562503,-0.07429350585937605,0.27003556217814206,0.14013522475865334,0.11522025287475855,-0.009297056302479487,0.1816590849546839
70,1791353877.1780083,0.21718037109374988,0.03530258789062502,-0.016813037109376046,0.22067230120029896,0.14404517789738286,0.11764224122493322,-0.009737848289280699,0.18623516285927075
71,1791353877.1980083,0.1549098632812499,0.044882666015625024,0.040667431640623954,0.16632906975850764,0.14730431234508495,0.1194356310212688,-0.010006566287054396,0.18990408569002465
72,1791353877.2232,0.1453297851562499,0.09757309570312503,0.0071371582031239545,0.1751918790522819,0.15136097855433922,0.12162488070859626,-0.010203948487734388,0.19443990845772313
73,1791353877.2432,0.1549098632812499,0.06404282226562502,-0.05992338867187605,0.17801505929410213,0.15454886742264995,0.12334465940518291,-0.010416325717394188,0.19800948782029423
74,1791353877.2525983,0.1740700195312499,-0.0030177246093749783,-0.08866362304687606,0.19537327456237785,0.15605407629009949,0.12407459624828236,-0.010605888481827534,0.19964935519910762
75,1791353877.2725983,0.1309596679687499,0.025722509765625023,-0.08387358398437605,0.15762886865518028,0.15923431904292337,0.12542900042713032,-0.01120758485325646,0.20301136043939882
76,1791353877.297507,0.06868916015624989,0.03530258789062502,-0.012022998046876046,0.07816025791143115,0.1629739766675636,0.12697681003294606,-0.012023705218083157,0.2069497447308254
77,1791353877.317507,0.059109082031249885,0.03530258789062502,0.0023471191406239547,0.06888878906333465,0.1657179512500427,0.12813908164014326,-0.012595212676444338,0.20985876915786889
78,1791353877.342661,0.10700947265624988,0.06404282226562502,-0.012022998046876046,0.1252879196249595,0.16896476122501636,0.12956901647296454,-0.01322443136121429,0.21333566544397967
79,1791353877.362661,0.1405397460937499,0.09757309570312503,-0.016813037109376046,0.17191453531923395,0.17153040729009775,0.1307778466320759,-0.013692936245204576,0.21613195575352762
80,1791353877.3730936,0.1644899414062499,0.11673325195312503,-0.016813037109376046,0.20240126272388853,0.1729066634465858,0.13148151594415847,-0.013926977965339373,0.21766502708164198
81,1791353877.3930936,0.1788600585937499,0.07362290039062502,-0.03597319335937605,0.19673668357110882,0.1756642797181073,0.13291367002300455,-0.014387525217955971,0.2207509540857364
82,1791353877.4183228,0.1836500976562499,0.03530258789062502,-0.03597319335937605,0.19044080897065233,0.1793070521147165,0.1346553946072859,-0.01501747995914428,0.22474122661237933
83,1791353877.4383228,0.1980202148437499,0.054462744140625026,-0.012022998046876046,0.2057249339971391,0.18233413480208707,0.13596365366400104,-0.015513951123194345,0.22797485499752587
84,1791353877.46387,0.2028102539062499,0.06404282226562502,-0.007232958984376046,0.21280460020623063,0.18638882881427102,0.1376111708011789,-0.01608989485443997,0.23224236166654394
85,1791353877.48387,0.1932301757812499,0.05925278320312503,-0.012022998046876046,0.20246813485535065,0.18968101449415967,0.1388924256545559,-0.016502030500268012,0.23567416102401154
86,1791353877.4929004,0.1932301757812499,0.016142431640625024,-0.05513334960937605,0.2015890998315005,0.1912062623133929,0.13943522167717703,-0.016705687360295297,0.2372363711200318
87,1791353877.5129004,0.1788600585937499,0.011352392578125023,-0.07429350585937605,0.19400856267259095,0.19463573776472723,0.1404982993129885,-0.01728321972406657,0.24066896810576166
88,1791353877.5377853,0.1549098632812499,0.011352392578125023,-0.012022998046876046,0.15578990673692114,0.1988857267826391,0.14166499737390603,-0.018055122832490732,0.24484789412879113
89,1791353877.5577853,0.1501198242187499,0.06883286132812502,-0.012022998046876046,0.16558525569663635,0.20224662313567787,0.14258229730539992,-0.018618512362583266,0.24815329350477303
90,1791353877.583222,0.1309596679687499,0.06883286132812502,-0.026393115234376048,0.15028304616581725,0.20641617660553732,0.1438365834431186,-0.019300857508869538,0.25232741389237767
91,1791353877.603222,0.1405397460937499,0.05925278320312503,-0.05992338867187605,0.16386923158217637,0.20961004896408328,0.14486698455618602,-0.01988636157446613,0.2555744181599521
92,1791353877.6134646,0.1549098632812499,0.05925278320312503,-0.045553271484376046,0.1719972633563143,0.2112273552569271,0.14540657008965266,-0.02022226782641574,0.2572333694335096
93,1791353877.6334646,0.1549098632812499,0.05925278320312503,-0.03597319335937605,0.1697116044930432,0.2143763550753253,0.1464798875270026,-0.02090206670789685,0.2604812382072203
94,1791353877.657632,0.1549098632812499,0.08320297851562503,-0.016813037109376046,0.17664223615129068,0.2181723284550503,0.14784052513647256,-0.02169598113115515,0.2644365734412881
95,1791353877.677632,0.1549098632812499,0.03530258789062502,-0.0024429199218760455,0.15890030305614755,0.2213072297451327,0.1489753860880182,-0.022283322110689306,0.2677071198937894
96,1791353877.7034736,0.1692799804687499,-0.01259780273437498,-0.012022998046876046,0.17017334956822633,0.22537849385160424,0.15026576707727318,-0.02295641394567784,0.2718497069841795
97,1791353877.7234735,0.1596999023437499,0.016142431640625024,-0.040763232421876044,0.16560881022866927,0.2285502710438856,0.15111996962652033,-0.023478391101403637,0.27499764810424193
98,1791353877.733013,0.1692799804687499,0.049672705078125025,-0.045553271484376046,0.18220370457322763,0.23007155329553156,0.15151337095515813,-0.023751768223895405,0.2765020211639973
99,1791353877.753013,0.21239033203124988,0.07362290039062502,-0.031183154296876046,0.22694134421514128,0.23335511619028892,0.15239938974810602,-0.02435405468533207,0.27977366607204923
100,1791353877.7784846,0.23634052734374988,0.07362290039062502,-0.026393115234376048,0.24894532102215686,0.23776697470266694,0.15363984231770855,-0.025116050890098215,0.28419914042618605
101,1791353877.7984846,0.1596999023437499,0.08320297851562503,-0.026393115234376048,0.181998326844644,0.2413055402721957,0.15470296770658637,-0.025703791802321383,0.2877882153534061
102,1791353877.8381996,0.1501198242187499,0.07841293945312502,-0.040763232421876044,0.17420158384649578,0.24820109231192158,0.15697880164618713,-0.0268958684137665,0.2949059411555397
103,1791353877.8581996,0.1836500976562499,-0.0030177246093749783,-0.045553271484376046,0.189239439794926,0.2516533801159035,0.15806606255295902,-0.027535610116834353,0.29845018626106046
104,1791353877.86821,0.1788600585937499,0.054462744140625026,-0.040763232421876044,0.19136026802073286,0.2533943091856436,0.15856725739001631,-0.02787259079350928,0.300215143457827
105,1791353877.88821,0.1740700195312499,0.06404282226562502,-0.007232958984376046,0.18561834628889953,0.25688018174476757,0.15959615391259335,-0.028516851829951312,0.3037623593456049
106,1791353877.8977947,0.21239033203124988,0.08320297851562503,-0.012022998046876046,0.22842272491206148,0.25857795425748875,0.1601211211648941,-0.028793132844931808,0.30550020682499796
107,1791353877.9177947,0.23155048828124988,0.08799301757812503,-0.05513334960937605,0.253767779682408,0.26225514425519375,0.1613090308686536,-0.02938389719097849,0.30929238196603986
108,1791353877.943365,0.1932301757812499,0.07362290039062502,-0.03597319335937605,0.20988640483569126,0.2670659393500366,0.16290992677949337,-0.030200628300088447,0.3142863951142929
109,1791353877.963365,0.1836500976562499,0.049672705078125025,-0.031183154296876046,0.1927877722025733,0.27082962382457726,0.16415919487118272,-0.030844350697029174,0.3181953808144271
110,1791353877.9877546,0.1980202148437499,0.011352392578125023,-0.031183154296876046,0.20078165109370805,0.2754290459232885,0.1655657578134066,-0.03162568560169372,0.32291386388372634
111,1791353878.0077546,0.2459206054687499,0.030512548828125024,-0.045553271484376046,0.2519584496956483,0.27930084773590175,0.16660895828718242,-0.03228539653000661,0.326817770870302
112,1791353878.0180929,0.2507106445312499,0.044882666015625024,-0.03597319335937605,0.2572243216152313,0.281387108438004,0.16712577749878646,-0.03263847270813212,0.3288996810585173
113,1791353878.0380929,0.20760029296874988,0.07362290039062502,-0.031183154296876046,0.2224648336581345,0.28550515523812686,0.1681533768284254,-0.03331979442279955,0.33301495537997533
114,1791353878.0632734,0.1980202148437499,0.011352392578125023,-0.045553271484376046,0.20350917140743807,0.29067822034424823,0.1694135680788346,-0.034193848362433533,0.3381774742609779
115,1791353878.0832734,0.22676044921874988,-0.01738784179687498,-0.040763232421876044,0.23105038301141653,0.29480784520002995,0.17025529882451512,-0.03491341678322799,0.34222431100199346
116,1791353878.108237,0.1453297851562499,0.054462744140625026,-0.03597319335937605,0.15931417888361346,0.29988584416528014,0.17121775133136036,-0.035820517723466144,0.3471745200784
117,1791353878.128237,0.1501198242187499,0.03530258789062502,-0.031183154296876046,0.1573360208189671,0.30378708671139154,0.1720078201201587,-0.036538979182471204,0.35101051442197634
118,1791353878.1376164,0.1644899414062499,-0.02696791992187498,-0.021603076171876047,0.1680800476821448,0.30556353038570994,0.17232862381226965,-0.03686250808141759,0.35273937998026533
119,1791353878.1576164,0.1453297851562499,0.006562353515625022,-0.040763232421876044,0.15108094537268976,0.30924803434054543,0.17287946688328323,-0.0375424482388867,0.3562739005780649
120,1791353878.183528,0.1501198242187499,0.07841293945312502,-0.040763232421876044,0.17420158384649578,0.313879734871379,0.17365121706737055,-0.03844966331326704,0.3607680830683471
121,1791353878.203528,0.1932301757812499,0.030512548828125024,0.031087353515623955,0.19807912564691624,0.3174335113802872,0.1743209326579913,-0.039059380025101315,0.3642491686715512
122,1791353878.2282722,0.20760029296874988,0.006562353515625022,0.016717236328123955,0.20837565144427303,0.32191464788124996,0.17509403174832772,-0.039611861245555276,0.3685865705987274
123,1791353878.2482722,0.1596999023437499,0.05925278320312503,0.011927197265623956,0.17075482177828213,0.3255442595367503,0.17572389432888766,-0.039948464166517594,0.37209384803393974
124,1791353878.2728736,0.21718037109374988,0.049672705078125025,0.0071371582031239545,0.22290273718690337,0.3300346326413607,0.1765834348037504,-0.040265227912446876,0.37646494759625304
125,1791353878.2928736,0.3129811523437499,0.006562353515625022,-0.016813037109376046,0.31350110753062244,0.3339327904795848,0.177261742890763,-0.04049863029731843,0.38022752807511473
126,1791353878.3027756,0.2459206054687499,-0.01738784179687498,-0.05513334960937605,0.2526241624936526,0.3359883417770514,0.1775391594098908,-0.04065028527426975,0.3821789693676809
127,1791353878.3227756,0.1309596679687499,0.016142431640625024,-0.05034331054687605,0.14122840242166826,0.34008267974781586,0.1780135664049091,-0.04106886489227255,0.3860462544206202
128,1791353878.3484368,0.1309596679687499,-0.06049819335937498,-0.05992338867187605,0.15620908598463235,0.34505206625276363,0.178445589492596,-0.04173758764831546,0.3906990952860814
129,1791353878.3684368,0.1549098632812499,-0.05091811523437498,-0.11740385742187605,0.20093129656271275,0.3487729761594198,0.1785646707007307,-0.042446591945221254,0.39411881925293
130,1791353878.377755,0.1453297851562499,0.016142431640625024,-0.12219389648437605,0.19055884364381626,0.35045635665298713,0.17858752598183028,-0.04289481689126537,0.3956679512810354
131,1791353878.397755,0.1501198242187499,0.030512548828125024,-0.06950346679687605,0.16821922944848347,0.35397069323865066,0.17869920560437316,-0.04400010511137164,0.3989544673334248
132,1791353878.4232583,0.1453297851562499,0.006562353515625022,-0.016813037109376046,0.14644619883789076,0.3583449891686641,0.17889116983061137,-0.04536322424001531,0.40307692072246526
133,1791353878.4432583,0.1596999023437499,0.011352392578125023,-0.012022998046876046,0.1605536922897954,0.36171833933941316,0.1790460009068196,-0.04631510242805142,0.4062544967973999
134,1791353878.4678075,0.1884401367187499,0.016142431640625024,-0.016813037109376046,0.18987612130727408,0.36587889696286124,0.1792581662622839,-0.04736133148867978,0.41017551503576766
135,1791353878.4878075,0.20760029296874988,0.001772314453125022,-0.016813037109376046,0.20828754392923451,0.36935408066570746,0.17943195967580472,-0.048136268452522994,0.4134433037286284
136,1791353878.4979022,0.21718037109374988,-0.007807763671874979,-0.040763232421876044,0.2211106417146281,0.37116661411024277,0.1795019515712923,-0.04851232490750251,0.4151373889640579
137,1791353878.5179021,0.23634052734374988,-0.03175795898437498,-0.0024429199218760455,0.238477212080567,0.3748993098646127,0.17956047359476077,-0.04921043570423133,0.4185846667004633
138,1791353878.543548,0.1980202148437499,-0.06049819335937498,0.06461762695312395,0.21690429825055632,0.37980324982686464,0.17944681005866317,-0.04985175512536606,0.42300929506141727
139,1791353878.563548,0.23155048828124988,-0.046128076171874983,0.08377778320312396,0.25052374137600847,0.38369828736771333,0.17921152648679153,-0.050054274597185144,0.4264347281356113
140,1791353878.5879836,0.3129811523437499,-0.10360854492187499,0.05982758789062396,0.33506905642876084,0.38874126867404984,0.17869276508704127,-0.05000141281924915,0.43075633431057436
141,1791353878.6079836,0.3273512695312499,-0.137138818359375,-0.031183154296876046,0.35628401350134903,0.3932102081938046,0.17797073799600943,-0.04992166985469424,0.4344882329036547
142,1791353878.6329424,0.21239033203124988,-0.18503920898437498,-0.012022998046876046,0.2819462971630288,0.39896099482200326,0.17660175679458687,-0.049917960525475265,0.43914673934269377
143,1791353878.6529424,0.1644899414062499,-0.15629897460937497,-0.05034331054687605,0.232423663176951,0.40344329338175233,0.1751573088410981,-0.05000898339896167,0.44265954438571425
144,1791353878.6629398,0.08305927734374989,-0.14671889648437497,-0.13177397460937607,0.2139851829515567,0.4055333837143249,0.17431637587579274,-0.05018420998669948,0.4442544081235995
145,1791353878.6829398,0.08305927734374989,-0.15150893554687497,-0.15572416992187604,0.23260227471215839,0.40933664697104294,0.172439073490774,-0.05091342013545238,0.447083773995145
146,1791353878.7076824,0.10221943359374988,-0.18503920898437498,-0.14135405273437604,0.25430157233140144,0.4136798335541101,0.16984044351762131,-0.05223151620366383,0.4502276226849616
147,1791353878.7276824,0.09263935546874988,-0.11318862304687498,-0.11261381835937605,0.1845957384513291,0.41695620929309335,0.16760765274795997,-0.053518096352133455,0.4525582751037736
148,1791353878.752945,0.1740700195312499,-0.14671889648437497,-0.10303374023437605,0.2498854895985106,0.4209792598612418,0.16471794639069473,-0.055308033896700984,0.45542784028867334
149,1791353878.772945,0.21718037109374988,-0.17545913085937498,-0.07429350585937605,0.2889165021303271,0.42427337048773034,0.1622901067081064,-0.05677852904443593,0.45778791268533653
150,1791353878.7828171,0.23634052734374988,-0.16108901367187498,-0.07908354492187605,0.2967502691966929,0.4259912702064352,0.1610222756317351,-0.05750906560503554,0.4590250844654122
151,1791353878.802817,0.2938209960937499,-0.127558740234375,-0.08866362304687606,0.33236011795566367,0.42974474525488326,0.1584060917680628,-0.05901867441451253,0.4617967517350709
152,1791353878.8271039,0.3848317382812499,-0.15629897460937497,-0.08387358398437605,0.4237447514045391,0.43485520619185236,0.15518865034464482,-0.06089115166808546,0.46571482679792003
153,1791353878.8471038,0.4231520507812499,-0.14671889648437497,-0.06471342773437605,0.4525173150224227,0.43964434785325046,0.1524820128886982,-0.06242470906712615,0.46950480418842827
154,1791353878.8730235,0.3848317382812499,-0.17066909179687498,-0.07429350585937605,0.4274844215830744,0.4464907061984676,0.1488834209814767,-0.0643842824798718,0.47504269239217
155,1791353878.8930235,0.3848317382812499,-0.18024916992187498,-0.09824370117187604,0.4361617301713233,0.4521355335112581,0.14599682922983423,-0.0659283169357178,0.4796750543676957
156,1791353878.9024076,0.3800416992187499,-0.19461928710937498,-0.10782377929687605,0.44037975366937293,0.4549251697707123,0.14458174177496533,-0.06668915222645813,0.48198364409000216
157,1791353878.9224076,0.3800416992187499,-0.208989404296875,-0.07429350585937605,0.44003157757860356,0.461118894217328,0.14141280994776187,-0.06834062857505342,0.487133101868028
158,1791353878.947506,0.3656715820312499,-0.19940932617187498,-0.07908354492187605,0.42395045977916895,0.46912932635141247,0.1372638151754974,-0.07039093801930758,0.4938406260674603
159,1791353878.967506,0.3465114257812499,-0.132348779296875,-0.07429350585937605,0.3782933948553751,0.47562334928388017,0.1339559173619621,-0.07200975059118153,0.49934673560613657
160,1791353878.9926124,0.3321413085937499,-0.07965834960937498,-0.040763232421876044,0.3439839279011999,0.4838305205797835,0.13002710436849352,-0.07395371273061234,0.506426867515539
161,1791353879.0126123,0.2698708007812499,-0.05091811523437498,0.03587739257812396,0.2769658658960324,0.49029075086249935,0.12717097485617115,-0.07527733076797476,0.5120782691686236
162,1791353879.022454,0.2028102539062499,-0.08923842773437499,0.03587739257812396,0.22446087269772796,0.4933417813435928,0.12587288316926468,-0.07577799881976015,0.5147546998733865
163,1791353879.042454,0.1884401367187499,-0.18024916992187498,0.0023471191406239547,0.260777601324129,0.4991988405190816,0.12322639916376854,-0.0765854888750319,0.519855330772602
164,1791353879.0680795,0.22676044921874988,-0.237729638671875,-0.05992338867187605,0.33395582783187094,0.5063756446113267,0.11954083969604086,-0.07757556929991548,0.5260458865564649
165,1791353879.0880795,0.22676044921874988,-0.261679833984375,-0.05992338867187605,0.3514078106045738,0.5118170308067201,0.11634671903477443,-0.07841216053306611,0.5306992547323081
166,1791353879.1129248,0.2459206054687499,-0.20419936523437499,-0.05992338867187605,0.3252155246389061,0.5184435425191477,0.11210583449207503,-0.07951886411659125,0.5363531249627997
167,1791353879.1329248,0.24113056640624989,-0.19461928710937498,-0.05992338867187605,0.31561278408879595,0.523708187876377,0.10860585949378389,-0.08045587577250345,0.5408684190368879
168,1791353879.1430638,0.24113056640624989,-0.218569482421875,-0.03597319335937605,0.327430358003097,0.5263434856406695,0.10678349557674813,-0.08093256312515883,0.543130057700701
169,1791353879.1630638,0.23155048828124988,-0.16587905273437498,0.03587739257812396,0.2870865306097512,0.5314710951750611,0.10315127620896468,-0.08173196577307608,0.5475233556837994
170,1791353879.188139,0.24113056640624989,-0.06049819335937498,0.040667431640623954,0.25190835923286076,0.5378245155510241,0.09885469723834851,-0.08243993345309317,0.5530133843963722
171,1791353879.208139,0.2842409179687499,-0.19940932617187498,-0.10782377929687605,0.3635697267291383,0.5429199376846118,0.09555192712411921,-0.08302064173382444,0.5574806332658487
172,1791353879.2325191,0.23634052734374988,-0.26646987304687497,-0.11740385742187605,0.37502893734254117,0.5491515004609606,0.09127786219110406,-0.08403418053448446,0.5629926838625925
173,1791353879.2525191,0.20760029296874988,-0.132348779296875,0.13646821289062397,0.28149183674068484,0.5541625942576645,0.08769938796304723,-0.08471231072433576,0.5674183105185576
174,1791353879.2773597,0.4423122070312499,0.054462744140625026,0.24663911132812397,0.5093497130900431,0.5606637532970219,0.0837763937302564,-0.08471448455540403,0.5731831053869597
175,1791353879.2973597,0.5524831054687499,0.030512548828125024,0.05503754882812396,0.5560555091404011,0.5666050977580731,0.08121910431826046,-0.08426345768634376,0.5785656488359417
176,1791353879.3079243,0.4614723632812499,-0.046128076171874983,-0.19883452148437605,0.504598561648387,0.5700761284919652,0.0800585226726572,-0.08417488555884275,0.5817916901157667
177,1791353879.3279243,0.2602907226562499,-0.218569482421875,-0.05513334960937605,0.3443306044867764,0.5767441854512432,0.07779392533487658,-0.08441331105457237,0.588057273872216
178,1791353879.3673902,0.22676044921874988,-0.09402846679687499,0.13167817382812397,0.27856919312940887,0.5893701778747518,0.07307023843702438,-0.08458665443900891,0.5998761275651369
179,1791353879.3873901,0.3848317382812499,-0.022177880859374978,0.23705903320312396,0.45253100491699005,0.5957262260861086,0.07086119550007283,-0.0841082170188041,0.6057930650350656
180,1791353879.3979428,0.2842409179687499,0.05925278320312503,0.347229931640624,0.4526283433372092,0.5991063728006372,0.06989980950019174,-0.08343120911913081,0.608913126770625
181,1791353879.4179428,0.21239033203124988,0.20774399414062503,0.308909619140624,0.428593482264313,0.6052966306210759,0.06875154121772553,-0.08135636197575759,0.6145971388600587
182,1791353879.4280105,0.3321413085937499,0.442455908203125,0.26579926757812394,0.6137868768744473,0.6083564676370979,0.0687511741909171,-0.08003463131393128,0.6174381409324129
183,1791353879.4480104,0.4135719726562499,0.5047264160156251,0.289749462890624,0.7139644828954482,0.6146417749471704,0.07017132657309583,-0.07696947882010195,0.6234042246031657
184,1791353879.4723978,0.4135719726562499,0.49993637695312504,0.23226899414062396,0.6891495071513121,0.6226691575354311,0.0734808435304236,-0.0728377604158295,0.6312065061881253
185,1791353879.4923978,0.3704616210937499,0.43766586914062505,0.15562836914062397,0.5941493204535356,0.6294409488605347,0.07719424949386833,-0.06937576935103311,0.6379403245056857
186,1791353879.517942,0.3560915039062499,0.27959458007812504,0.16041840820312397,0.4803210947415301,0.6381845354607952,0.0825997639366594,-0.06501184815526806,0.6467833970536554
187,1791353879.537942,0.2938209960937499,0.24606430664062504,0.11251801757812396,0.3994229901091898,0.6449783768644092,0.08698569352397727,-0.06169819610589847,0.6537356383915573
188,1791353879.5476465,0.3417213867187499,0.23648422851562503,0.07898774414062396,0.4230098819200805,0.6482430417803394,0.08914587044859812,-0.060192108991224985,0.6571066256091751
189,1791353879.5676465,0.4997926757812499,0.13589340820312504,0.06940766601562395,0.5225678532586742,0.6552241778497129,0.09348851929339962,-0.05733123286926953,0.664338540761271
190,1791353879.5922253,0.6195436523437499,0.07362290039062502,-0.007232958984376046,0.6239446965212788,0.6645800720487566,0.09841107666896175,-0.05422814697698727,0.6740119465558697
191,1791353879.6122253,0.5381129882812499,-0.11797866210937498,-0.12698393554687606,0.5653401389933921,0.6727875786210947,0.101749239918903,-0.05228321645280806,0.6824438207600398
192,1791353879.6379642,0.6578639648437499,-0.18024916992187498,-0.16530424804687605,0.701854866706648,0.6840745640557204,0.10482517332185892,-0.050719883514131765,0.6939155804085024
193,1791353879.6579642,0.9069459960937499,-0.11797866210937498,-0.14135405273437604,0.9254463640687315,0.6938765694181668,0.10640941482529868,-0.050147325301584625,0.703777245572695
194,1791353879.6672237,0.8063551757812499,-0.06049819335937498,-0.13177397460937607,0.8192881552258102,0.6989237469108928,0.10690891248450958,-0.050111684286602655,0.7088265658584068
195,1791353879.6872237,0.7153444335937499,-0.371850732421875,-0.26589506835937604,0.8489351054433343,0.7104726999333922,0.10717744642684658,-0.05064275187637777,0.7202937947052133
196,1791353879.712899,0.78240498046875,-0.726313623046875,-0.46228666992187606,1.1633563502526818,0.7259590678519202,0.10535579379382393,-0.05262447461136356,0.7354493502685808
197,1791353879.732899,0.95963642578125,-0.9274952636718751,-0.5149770996093761,1.430507234145308,0.738825874709805,0.10166894038495042,-0.05540249603217304,0.7478433546848579
198,1791353879.7580407,0.85904560546875,-1.080776513671875,-0.41438627929687605,1.4414413665666086,0.7560037250215537,0.0939425943192191,-0.06012331271184561,0.7641869247804078
199,1791353879.7780406,0.8542555664062499,-1.114306787109375,-0.524557177734376,1.4988637100306132,0.7701887596617359,0.08542567684604213,-0.06472378420881818,0.7776100822495792
200,1791353879.7881184,0.8446754882812499,-1.2915382324218752,-0.6395181152343761,1.6704882837133335,0.7775483574161026,0.07995944653113872,-0.0675740227194175,0.7845643439237662
201,1791353879.8081183,0.73929462890625,-1.243637841796875,-0.4383364746093761,1.511730959811234,0.7923391328824654,0.06693576369748692,-0.073998838301958,0.7985972239049809
202,1791353879.8331695,0.7297145507812499,-0.951445458984375,-0.25152495117187607,1.225151659226679,0.8108465034070068,0.04894559726653727,-0.08213530404545664,0.8164642868795835
203,1791353879.8531694,0.7345045898437499,-0.8891749511718751,-0.48144682617187606,1.249768031565864,0.8256021502156914,0.03397632989760008,-0.08875626240037787,0.8310541351496714
204,1791353879.8780043,0.8494655273437499,-1.109516748046875,-0.663468310546876,1.5468708076118813,0.8441268121641896,0.014453728288121536,-0.09787710813394315,0.8499052379957236
205,1791353879.8980043,0.9165260742187499,-1.392129052734375,-0.5341372558593761,1.7502416839645107,0.8594563118329465,-0.0026623619946996475,-0.10591692258896891,0.8659622593459829
206,1791353879.922114,0.66265400390625,-1.329858544921875,-0.4670767089843761,1.5574963019122665,0.8780193278054934,-0.02512247181063713,-0.11596540658370409,0.8860005948722668
207,1791353879.9421139,0.5668532226562499,-1.2148976074218751,-0.543717333984376,1.446695307184706,0.8929526030766193,-0.044776508505440585,-0.12456690873372578,0.9027104750731125
208,1791353879.952215,0.6339137695312499,-1.4160792480468751,-0.38085600585937607,1.5975538805152953,0.9002730812537021,-0.0552070919395136,-0.1289599410317264,0.9111367132441537
209,1791353879.972215,0.6530739257812499,-1.483139794921875,-0.22757475585937606,1.63645943222577,0.9145238287939933,-0.07711045016022258,-0.13726600149140794,0.9279772681059469
210,1791353879.9978838,0.6195436523437499,-1.344228662109375,-0.32337553710937605,1.515043488219586,0.9325203602895524,-0.10644857675501615,-0.14738798175527007,0.950078280466203
211,1791353880.0178838,0.4327321289062499,-1.4543995605468751,-0.4574966308593761,1.5848780219166267,0.9460175234186847,-0.13007658274481226,-0.15526287852591206,0.9674583367990283
212,1791353880.0424669,0.4758424804687499,-1.703481591796875,-0.524557177734376,1.8448403271075038,0.9617942959338007,-0.16058500542540316,-0.16530107984471826,0.9890198474530741
213,1791353880.0624669,0.70097431640625,-1.981303857421875,-0.7209487792968761,2.2218679326336357,0.974469651328647,-0.18720970728519193,-0.1741110673271871,1.0074488769303356
214,1791353880.0730693,0.6195436523437499,-2.125005029296875,-0.7975894042968761,2.3527918670258727,0.9812312940741399,-0.20247222416542768,-0.17928841652465305,1.0178183483946552
215,1791353880.0930693,0.4758424804687499,-2.321396630859375,-0.6969985839843761,2.470043604890435,0.9937159747836652,-0.23361370622629357,-0.18983164666277208,1.0383076886702394
216,1791353880.1172075,0.8159352539062499,-2.0675245605468753,-0.9269204589843761,2.4082337270944887,1.0088622869497963,-0.27350652737252845,-0.20358757053388835,1.0649210456277234
217,1791353880.1372075,1.07459736328125,-1.765752099609375,-1.156842333984376,2.3687389379465924,1.0223652800243916,-0.3073520268505934,-0.21640119032249144,1.089277517155987
218,1791353880.163072,0.9883766601562499,-1.828022607421875,-1.1041519042968762,2.3532332020752875,1.0412102492253148,-0.35152794316366953,-0.23487249682554398,1.1237685561012052
219,1791353880.183072,0.95963642578125,-2.101054833984375,-0.8359097167968761,2.456436146072345,1.056518467935402,-0.3864569854597597,-0.24992319168375707,1.1524069925337186
220,1791353880.192945,1.0985475585937499,-2.3932472167968752,-0.7975894042968761,2.7514701228697582,1.0644658049467606,-0.40444107339948837,-0.2574480061237015,1.1674500021887682
221,1791353880.212945,1.05064716796875,-2.3405567871093753,-0.9365005371093761,2.7311350756142887,1.0813739640576554,-0.44250823534247996,-0.27300597498340046,1.1998814320024793
222,1791353880.2369819,1.03627705078125,-2.220805810546875,-1.161632373046876,2.7120542664639222,1.1024090444680437,-0.4896195219286009,-0.2926819501381496,1.241247639077395
223,1791353880.2569818,1.18955830078125,-2.3070265136718753,-1.1424722167968762,2.8359589298675236,1.1206247651102685,-0.5297305202073168,-0.3100538531372562,1.2777118924322564
224,1791353880.282517,1.25182880859375,-2.2734962402343752,-1.118522021484376,2.8261196069753636,1.1450688306829024,-0.5820330133193791,-0.33323669512177073,1.3270236435613445
225,1791353880.302517,1.23745869140625,-2.201645654296875,-1.1855825683593761,2.790009610452767,1.1650763821318413,-0.6235660769574201,-0.3521268135319299,1.3675638637159282
226,1791353880.3131745,1.26619892578125,-2.158535302734375,-1.1903726074218761,2.7711949258939774,1.1761399417525513,-0.6458634859488941,-0.3625821614103887,1.389931879208755
227,1791353880.3331745,1.17039814453125,-2.168115380859375,-1.051461474609376,2.6788294746080625,1.197442450211928,-0.6879203196819651,-0.3826223598379208,1.4330047655359777
228,1791353880.3578315,1.2230885742187498,-2.359716943359375,-0.9173403808593761,2.8117117717712445,1.2241920765424061,-0.7403658946469783,-0.40726382177874376,1.487498476891811
229,1791353880.3778315,1.24224873046875,-2.551318505859375,-0.8598599121093761,2.965091414298129,1.2463328339907263,-0.7838914838754879,-0.4269188830115715,1.533000692839934
230,1791353880.4031863,1.20392841796875,-2.412407373046875,-0.8742300292968761,2.834330805189839,1.2748430168968834,-0.8402329985338404,-0.4513964072724001,1.59216045863925
231,1791353880.4231863,1.07459736328125,-2.168115380859375,-0.8742300292968761,2.5728898037060244,1.2973763724555785,-0.8848797587898463,-0.47043083916656936,1.6393604892643152
232,1791353880.4327211,0.8255153320312499,-2.359716943359375,-0.883810107421876,2.6515768746496953,1.3078663792962988,-0.9062099163509038,-0.4794013761025374,1.6617931754569606
233,1791353880.452721,0.6674440429687499,-2.402827294921875,-0.8167495605468761,2.6241456522780062,1.3288088069903707,-0.9513839908882459,-0.497946089252012,1.7084538774737208
234,1791353880.477759,0.8686256835937499,-2.484257958984375,-0.8119595214843761,2.754147136502525,1.35397825249452,-1.008631123940694,-0.5207380733906277,1.766850869057308
235,1791353880.4977589,1.12249775390625,-2.326186669921875,-0.8167495605468761,2.708915922560225,1.3740543258450189,-1.0547160806122404,-0.5386562920334689,1.8140016267971484
236,1791353880.5231986,0.8973659179687499,-2.192065576171875,-0.586827685546876,2.440242572674679,1.3996142349337102,-1.1131634094494403,-0.5607072878553387,1.8741519269846472
237,1791353880.5431986,0.8350954101562499,-2.148955224609375,-0.36648588867187604,2.3344602819571767,1.4192932111689454,-1.158732081755794,-0.5768727291045047,1.9208944276416786
238,1791353880.5525227,0.9740065429687499,-2.139375146484375,-0.3569058105468761,2.377603104124635,1.4283565832427296,-1.1797885928231258,-0.5837845371333338,1.9423974975386467
239,1791353880.5725226,1.0171168945312499,-2.0339942871093752,-0.4766567871093761,2.3235449704776325,1.4478679286710965,-1.2244396227536187,-0.5976367346768265,1.9881507979221635
240,1791353880.5975773,0.88299580078125,-1.923823388671875,-0.5101870605468761,2.1773995618047963,1.472214611932358,-1.2794223200944224,-0.6142412877791634,2.044903346458102
241,1791353880.6175773,0.80156513671875,-1.923823388671875,-0.4479165527343761,2.1317205110936404,1.4912610393769299,-1.3225003666052892,-0.6269448792595046,2.0894799804890214
242,1791353880.6426198,0.7919850585937499,-2.029204248046875,-0.42396635742187605,2.2191569763206935,1.5145253080050787,-1.3757732436244667,-0.642102984051026,2.144489489036516
243,1791353880.6626198,0.8494655273437499,-2.0339942871093752,-0.5916177246093761,2.28226553542986,1.5327802999259446,-1.418032029649043,-0.6539163532161111,2.1881126300890252
244,1791353880.6878808,0.99795673828125,-2.148955224609375,-0.682628466796876,2.4657469116959945,1.5558787527574696,-1.4713255426113,-0.6690132201770846,2.243465229147599
245,1791353880.7078807,0.9740065429687499,-2.014834130859375,-0.6299380371093761,2.3248800509314456,1.574381387663581,-1.5134364491321588,-0.6811418896217194,2.287601563467884
246,1791353880.7175138,0.8255153320312499,-1.995673974609375,-0.6778384277343761,2.2635492286374634,1.5832565886551808,-1.5335744021809108,-0.6870522771839565,2.3088076368827783
247,1791353880.7375138,0.8159352539062499,-2.1968556152343752,-0.6922085449218761,2.443578851278739,1.6013813041081624,-1.5754017134874916,-0.6995377227593265,2.352799537905809
248,1791353880.7625077,0.92131611328125,-2.297446435546875,-0.6586782714843761,2.561433303860234,1.6238906821602253,-1.6282571831601222,-0.7153325770079055,2.4083071020632123
249,1791353880.7825077,1.0171168945312499,-2.244756005859375,-0.7401089355468761,2.573172660250174,1.6421084291945522,-1.6710209423935316,-0.7281738692940039,2.4533789489339326
250,1791353880.807583,0.9692165039062499,-2.1537452636718752,-0.8933901855468761,2.525103030742463,1.6652588234441519,-1.7248666564410355,-0.7449309774257784,2.5106122943794418
251,1791353880.827583,0.8159352539062499,-2.211225732421875,-0.8119595214843761,2.4928994851018063,1.683631443427248,-1.7679190065075352,-0.7588495426166751,2.5565611823692085
252,1791353880.837879,0.7728249023437499,-2.249546044921875,-0.6203579589843761,2.4581618610623543,1.692897663867879,-1.7902021939233743,-0.7660459774205312,2.580223407959001
253,1791353880.857879,0.98358662109375,-2.235175927734375,-0.6778384277343761,2.5343478457447897,1.7108321638456454,-1.8337220719820642,-0.7798756365399404,2.6263452436021324
254,1791353880.8827083,1.03148701171875,-2.206435693359375,-0.7305288574218761,2.542832345201086,1.7335100229566547,-1.8879176097850445,-0.7970920513757201,2.684147097197546
255,1791353880.9027083,0.9500563476562499,-2.019624169921875,-0.7161587402343761,2.344007720266434,1.7520092278266708,-1.9313628548481274,-0.8110496759925659,2.7308424319986977
256,1791353880.9269145,0.9069459960937499,-1.981303857421875,-0.6299380371093761,2.2682455655996554,1.7744118398532964,-1.98332124200102,-0.8278525492991543,2.787012804018872
257,1791353880.9469144,0.9261061523437499,-2.057944482421875,-0.663468310546876,2.3522326197124954,1.7928947667026247,-2.0258704766606677,-0.8415933125104246,2.833178804159252
258,1791353880.9729395,0.8542555664062499,-2.0771046386718752,-0.625147998046876,2.331292832784054,1.8168131542449393,-2.0810038538184674,-0.8593067265574957,2.8930598209079115
259,1791353880.9929395,0.8734157226562499,-2.139375146484375,-0.5772476074218761,2.3818051646288074,1.8350285323823217,-2.123342572107519,-0.8726810038923847,2.938959939797753
260,1791353881.0026712,1.0219069335937498,-2.1537452636718752,-0.6395181152343761,2.4681766268703185,1.8439457869742093,-2.1439873658195667,-0.8791007093053326,2.9613571124055604
261,1791353881.0226712,0.9740065429687499,-2.201645654296875,-0.687418505859376,2.5036925799762613,1.8625167991202647,-2.1865838932327177,-0.8923054025301114,3.0077112362283667
262,1791353881.0480497,0.8734157226562499,-2.091474755859375,-0.6347280761718761,2.3537207586417344,1.8860635851512122,-2.240699364298101,-0.9090643512560848,3.066654118599619
263,1791353881.0680497,0.9548463867187499,-2.168115380859375,-0.6730483886718761,2.462813444100599,1.9045789931177768,-2.283338457768583,-0.9222521402219097,3.113134218740726
264,1791353881.0779898,0.9931666992187499,-2.249546044921875,-0.7496890136718761,2.5707724749345338,1.9138532159533852,-2.304645042526444,-0.9288840760603471,3.136406946015666
265,1791353881.0979898,0.8255153320312499,-2.268706201171875,-0.682628466796876,2.5088812276263375,1.932442332970371,-2.3478616724108794,-0.9423747162179446,3.1835291594076587
266,1791353881.1232705,0.83988544921875,-2.1441651855468753,-0.605987841796876,2.381191545240803,1.9555727525231728,-2.4026620157840233,-0.9593127687499998,3.2430434071700605
267,1791353881.1432705,1.00274677734375,-2.125005029296875,-0.6778384277343761,2.4455290650744064,1.9738907192429573,-2.445916185742999,-0.9726284780582164,3.2900998032769317
268,1791353881.1674972,1.08417744140625,-2.148955224609375,-0.7927993652343761,2.5341626063349136,1.996543466575234,-2.4982179466670806,-0.9890109373728642,3.347449978299435
269,1791353881.1874971,1.04585712890625,-2.268706201171875,-0.8215395996093761,2.6297855948814686,2.0156340721800508,-2.541544864408471,-1.0029281048838214,3.395304963372224
270,1791353881.2126403,0.9452663085937499,-2.239965966796875,-0.826329638671876,2.567838896488311,2.0397887352444597,-2.596345513164605,-1.0209072241202284,3.4560092112754908
271,1791353881.2326403,1.01232685546875,-2.163325341796875,-0.8790200683593761,2.5450851611178624,2.05905676470141,-2.6400026934286003,-1.0356214310430267,3.5045457237719853
272,1791353881.2427301,0.9931666992187499,-2.163325341796875,-0.864649951171876,2.5325829038669516,2.0688369206877004,-2.661997920426178,-1.0432506840614837,3.5291204460245638
273,1791353881.2627301,1.03148701171875,-2.148955224609375,-0.7401089355468761,2.4959437592214964,2.0883520514841405,-2.7055251222084142,-1.058512011752371,3.577922324039878
274,1791353881.3182836,1.0554372070312499,-2.1537452636718752,-0.6682583496093761,2.4898063339540304,2.143122915741028,-2.826221094323253,-1.1004123350880908,3.713678609301844
275,1791353881.3382835,0.98358662109375,-2.101054833984375,-0.6682583496093761,2.414216907907485,2.162941956408139,-2.869537629561618,-1.115239084057774,3.7624888476739438
276,1791353881.3182836,0.90215595703125,-2.220805810546875,-0.6347280761718761,2.47966601574619,2.162941956408139,-2.869537629561618,-1.115239084057774,3.7624888476739438
277,1791353881.3382835,0.9261061523437499,-2.158535302734375,-0.586827685546876,2.42101507452635,2.1824079233330087,-2.912913198743238,-1.1294450481920233,3.810985930717239
278,1791353881.3637226,1.04106708984375,-2.125005029296875,-0.6203579589843761,2.446285154549242,2.2072069619160097,-2.9679817909840147,-1.1471071838220122,3.872535781050867
279,1791353881.3837225,0.9931666992187499,-2.163325341796875,-0.605987841796876,2.4563342385154487,2.226830614284662,-3.011214637854704,-1.1607496700847957,3.9209090752716778
280,1791353881.4075942,0.9165260742187499,-2.168115380859375,-0.6203579589843761,2.4342531394078732,2.250158787928476,-3.062831273611928,-1.1767862254195047,3.978564540364288
281,1791353881.4275942,0.9165260742187499,-2.1537452636718752,-0.6778384277343761,2.4368224472918167,2.2695213083293524,-3.106072371914964,-1.1901538038721988,4.0267702474074545
282,1791353881.4525971,0.9548463867187499,-2.220805810546875,-0.7496890136718761,2.5309570694914845,2.2936056770142654,-3.160224769009273,-1.2070354795928184,4.087123957171797
283,1791353881.4725971,0.8973659179687499,-2.326186669921875,-0.682628466796876,2.585032231469382,2.3127594114235475,-3.2038644920498554,-1.220662124948659,4.1356522825100095
284,1791353881.4826977,0.88299580078125,-2.378877099609375,-0.6107778808593761,2.6099401255565815,2.3223303552394134,-3.2261622782283896,-1.2274915311358388,4.160297679654716
285,1791353881.5026977,0.9308961914062499,-2.278286279296875,-0.6490981933593761,2.5452867332050166,2.34115972277021,-3.2706766671165455,-1.2408756862350587,4.209290578830524
286,1791353881.52748,0.9261061523437499,-2.225595849609375,-0.7017886230468761,2.510668588771814,2.3644431778536887,-3.3259323678188837,-1.2574833072086131,4.270091559265736
287,1791353881.5474799,0.95963642578125,-2.239965966796875,-0.7592690917968761,2.552418295627213,2.383243682794588,-3.370534794365077,-1.2710673227983331,4.319255420867313
288,1791353881.5733073,0.9931666992187499,-2.330976708984375,-0.7880093261718761,2.6534489270378936,2.4076630437979083,-3.4283475261963847,-1.2889751975283492,4.383134170053471
289,1791353881.5933073,0.88299580078125,-2.388457177734375,-0.864649951171876,2.6892431671624086,2.42655047129373,-3.473479869808536,-1.30324141344531,4.433017908538141
290,1791353881.6033068,0.70097431640625,-2.3836671386718753,-0.6347280761718761,2.56439344698239,2.4357651650221923,-3.4962391203692937,-1.310428744922746,4.458011150889603
291,1791353881.6233068,0.72013447265625,-2.374087060546875,-0.48144682617187606,2.5271869887673466,2.4535625525120146,-3.5420683158227053,-1.3243220518412824,4.507776175681029
292,1791353881.6630285,0.86383564453125,-2.235175927734375,-0.4479165527343761,2.437796686948974,2.488326509738291,-3.6331676105078126,-1.3505450794788716,4.60604469331486
293,1791353881.6830285,1.00274677734375,-2.158535302734375,-0.5580874511718761,2.444634401250906,2.506004553135742,-3.678746569488847,-1.3632769354723333,4.655293669109809
294,1791353881.6929843,0.97879658203125,-2.216015771484375,-0.6107778808593761,2.4983631177654337,2.5149641839298584,-3.701298625112923,-1.3695368890303603,4.679774316046422
295,1791353881.7129843,0.8542555664062499,-2.268706201171875,-0.5580874511718761,2.4876177365357615,2.5330126112587465,-3.746534046820719,-1.3819792531886839,4.728904408954218
296,1791353881.7232864,0.83988544921875,-2.297446435546875,-0.864649951171876,2.5944724377179167,2.5422238897600207,-3.7698679057137268,-1.388526281402916,4.75424142911817
297,1791353881.7432864,0.7728249023437499,-2.498628076171875,-1.3436538574218762,2.9403751939644844,2.5598429694604423,-3.8155664418640205,-1.402642330519224,4.8040346385032775
298,1791353881.767826,0.6913942382812499,-2.977631982421875,-1.3867642089843761,3.3566997462969783,2.5809134517044177,-3.873306147751194,-1.4223897783382236,4.86690943422179
299,1791353881.787826,0.5716432617187499,-3.044692529296875,-1.075411669921876,3.2792436439564554,2.5974046688550847,-3.9223390431882867,-1.4397631638356023,4.919773628069415
300,1791353881.8133323,0.52374287109375,-2.953681787109375,-0.7736392089843761,3.0979122518562603,2.6173768686842886,-3.9869662415870777,-1.4621333867089186,4.98842615709679
301,1791353881.8333323,0.4327321289062499,-2.9824220214843753,-0.36648588867187604,3.0358540999557766,2.632123100194815,-4.0389445757213895,-1.4787533813685774,5.042604174753101
302,1791353881.842985,0.3992018554687499,-2.958471826171875,0.03587739257812396,2.9854990964595265,2.638774818125697,-4.064568873086872,-1.4858108527277334,5.068677002426225
303,1791353881.862985,0.4614723632812499,-2.910571435546875,0.19394868164062395,2.9533030516023775,2.651780695307474,-4.118501408427779,-1.4978955855172986,5.122273508154285
304,1791353881.8878913,0.21718037109374988,-2.747710107421875,0.20352875976562396,2.763784019070319,2.6668154234057635,-4.18615978628874,-1.5099450718112724,5.188041285373797
305,1791353881.9078913,-0.3911545898437501,-2.148955224609375,0.27058930664062397,2.2009609363639364,2.676816490001475,-4.23968533615304,-1.517458331575869,5.238602681899435
306,1791353881.932631,-0.5827561523437501,-1.598100732421875,0.24663911132812397,1.7188256267866593,2.685524939401495,-4.302916832857912,-1.5243983664633511,5.29631266546033
307,1791353881.952631,-0.14686259765625012,-1.578940576171875,0.14125825195312397,1.592035131338868,2.690414547923547,-4.351132091842005,-1.5285853855492477,5.33921850098409
308,1791353881.962685,-0.10854228515625013,-1.526250146484375,0.15562836914062397,1.537999065861838,2.692311288168804,-4.374075974045201,-1.5301506295746719,5.359332201712113
309,1791353881.982685,-0.6210764648437501,-1.004135888671875,0.05503754882812396,1.1819703845201344,2.6944239623296844,-4.416666188489874,-1.5324812222077393,5.395865028495931
310,1791353882.0074663,-1.0090696289062502,-0.467651513671875,0.045457470703123955,1.1130974062782282,2.693619260881829,-4.464257789126877,-1.5347490304830904,5.435129889610951
311,1791353882.0274663,-0.9515891601562502,-0.290420068359375,0.05982758789062396,0.9967171545155386,2.690126248296836,-4.49804285250016,-1.5361468251954955,5.461585466076823
312,1791353882.0526865,-0.5156956054687502,-0.10839858398437498,-0.06950346679687605,0.5315288725990178,2.6836068498003876,-4.535010000937702,-1.537663364175274,5.489305061155497
313,1791353882.0726864,-0.24266337890625014,-0.007807763671874979,-0.15093413085937604,0.28588037444712683,2.67807482452396,-4.56010251187695,-1.5390162636699727,5.507739168153861
314,1791353882.0975,-0.31930400390625013,0.23169418945312503,-0.12698393554687606,0.41444199138585897,2.6711950198413823,-4.586147944620131,-1.5409602182306945,5.526535460678638
315,1791353882.1175,-0.6977170898437501,0.41850571289062505,-0.12698393554687606,0.8234567924724983,2.6649560936636285,-4.6030165299297,-1.5426729847556888,5.538013370682306
316,1791353882.1276252,-0.48695537109375014,0.5622068847656251,-0.23715483398437606,0.7806692833697748,2.661371735814691,-4.609530674417114,-1.5436865442202101,5.541988875971525
317,1791353882.1476252,0.11179951171874988,0.432875830078125,-0.22278471679687606,0.49951340835321023,2.654790922451655,-4.61897519728496,-1.5460782031911249,5.547360140233193
318,1791353882.172671,0.07347919921874989,0.41850571289062505,-0.18446440429687605,0.4632206179484246,2.648134006968908,-4.627429155507851,-1.5493889991250984,5.552145583350565
319,1791353882.192671,-0.09896220703125012,0.552626806640625,-0.11261381835937605,0.5726008888604605,2.643577374970008,-4.631710615457729,-1.552081831774801,5.554295866743376
320,1791353882.2179587,-0.20913310546875014,0.6196873535156251,-0.14614409179687604,0.6701545847618566,2.6380959226540894,-4.6340886301103685,-1.5554666399793684,5.554620058737684
321,1791353882.2379587,-0.01274150390625012,0.6053172363281251,-0.38085600585937607,0.7152779877200677,2.6340781232894024,-4.633849780663031,-1.5585326269821997,5.553373326070441
322,1791353882.2476058,0.4231520507812499,0.36581528320312506,-0.5101870605468761,0.7570794649538594,2.632727757982227,-4.6330492033687944,-1.5604343929395605,5.552599018761844
323,1791353882.2676058,0.4902125976562499,0.36102524414062503,-0.43354643554687605,0.7474022541998973,2.631718216555551,-4.630548182110263,-1.565201246269443,5.551375701528262
324,1791353882.292705,0.3225612304687499,0.35623520507812506,-0.26589506835937604,0.5492262340023508,2.6321713209000634,-4.626530088006892,-1.5716028062654257,5.550048819466655
325,1791353882.312705,0.2555006835937499,0.17900375976562502,-0.26589506835937604,0.40990624867759745,2.6333453049060394,-4.623005736265391,-1.5767363293076173,5.549124884571607
326,1791353882.3377173,0.6003834960937499,-0.022177880859374978,-0.43354643554687605,0.7408877867508465,2.6361988450263834,-4.618965080733101,-1.5835054720923558,5.549042471246423
327,1791353882.3577173,0.92131611328125,-0.26646987304687497,-0.4862368652343761,1.0752933845914983,2.640420846996357,-4.616651755012897,-1.5894859031927557,5.550834271779793
328,1791353882.3677614,0.99795673828125,-0.338320458984375,-0.505397021484376,1.1686764025056844,2.6436689145942176,-4.616119848093561,-1.5927858022223569,5.552883430589572
329,1791353882.3877614,1.36678974609375,-0.19461928710937498,-0.5532974121093761,1.4873227300047933,2.6527134979133207,-4.6160189860554315,-1.5999590358281162,5.5591716197616865
330,1791353882.412331,1.82663349609375,-0.453281396484375,-0.562877490234376,1.9644044956329771,2.668042611536119,-4.617107571194,-1.6095062469256793,5.570156556133967
331,1791353882.432331,1.64461201171875,-0.6496729980468751,-0.6347280761718761,1.878750490129453,2.6838557970310277,-4.619515200969237,-1.6179084364855538,5.5821707551896
332,1791353882.4578679,1.50091083984375,-0.611352685546875,-0.8311196777343761,1.8213306602600037,2.707042556932573,-4.624543425007304,-1.629834927310541,5.600968057854257
333,1791353882.4778678,2.03739521484375,-0.836484521484375,-1.0179312011718762,2.4262871937325086,2.72778557528408,-4.630062497472569,-1.6405480370446763,5.618691194315715
334,1791353882.487584,2.43496845703125,-1.329858544921875,-1.089781787109376,2.980808527858537,2.739610340885,-4.633920212566095,-1.6465078631788155,5.629357823040058
335,1791353882.507584,2.36311787109375,-1.444819482421875,-1.3723940917968762,3.0911640125796374,2.767496552515972,-4.644831840269592,-1.660628676755134,5.656075281909842
336,1791353882.5328064,2.37269794921875,-1.430449365234375,-1.477774951171876,3.140015883882967,2.8063477576745406,-4.661967614206898,-1.681157053138076,5.695245280954525
337,1791353882.5528064,2.7127907226562495,-1.6507911621093752,-1.5304653808593762,3.5251481171487353,2.840161930723336,-4.678139085890563,-1.6995056592058562,5.7306042077026955
338,1791353882.5770628,3.0337233398437498,-1.684321435546875,-1.712486865234376,3.8694996142338174,2.885475250991389,-4.700877623899906,-1.7243209455908668,5.779057066889894
339,1791353882.5970628,3.2157448242187496,-1.660371240234375,-1.8561880371093762,4.067343292493894,2.926606982767603,-4.721830810927137,-1.7470655808938744,5.823482873895051
340,1791353882.606765,3.3881862304687496,-1.880713037109375,-1.8561880371093762,4.296780363178826,2.94837286336793,-4.733047459273566,-1.759145565545717,5.847156053498104
341,1791353882.626765,3.5558375976562497,-2.1537452636718752,-1.9663589355468762,4.59882236502997,2.9969265694497036,-4.758752696728458,-1.786045654523549,5.900614812995032
342,1791353882.6523383,3.4025563476562497,-2.2734962402343752,-2.052579638671876,4.578128223021506,3.0630440179850043,-4.795182224788896,-1.8229907014885605,5.974889649421056
343,1791353882.6723382,3.39776630859375,-2.369297021484375,-2.0382095214843763,4.61656607418318,3.1171964887048413,-4.826363169635309,-1.8536863354587194,6.037122528545561
344,1791353882.6974254,3.4887770507812497,-2.354926904296875,-1.8657681152343761,4.604165146306594,3.187891309102101,-4.868497190637011,-1.8937595951197013,6.119741930669716
345,1791353882.7174253,3.5127272460937498,-2.206435693359375,-1.793917529296876,4.519485731396688,3.246299050036379,-4.90389084042097,-1.92640428063455,6.188508410714079
346,1791353882.7279613,3.50793720703125,-2.0675245605468753,-1.961568896484376,4.519738243813871,3.278000488156427,-4.92311662609619,-1.943989442836889,6.225870177602467
347,1791353882.7479613,3.28759541015625,-2.704599755859375,-1.5687856933593762,4.536984898802738,3.3393447088272015,-4.961296011840005,-1.9776589955823647,6.2989535880398115
348,1791353882.773054,3.26364521484375,-3.130913232421875,-0.7544790527343761,4.585110292931007,3.4170935059007412,-5.012994021145161,-2.0179376954659367,6.393646035470569
349,1791353882.7930539,3.7043288085937496,-2.134585107421875,-0.6011978027343761,4.3174001784659115,3.480219480233759,-5.055917139286933,-2.0472596203947657,6.470355299613216
350,1791353882.8172204,4.015681347656249,-1.315488427734375,-1.1041519042968762,4.36753453531621,3.5590474270136854,-5.106255886708078,-2.0804665422848534,6.562698286668398
351,1791353882.8372204,3.6181081054687496,-1.224477685546875,-1.4681948730468761,4.09214467614502,3.625949620290945,-5.145476624664239,-2.1076844683350475,6.638205643237857
352,1791353882.862345,3.2061647460937497,-1.578940576171875,-1.5352554199218762,3.8896728559836324,3.7102466655586865,-5.192638905175521,-2.1424071422632545,6.731963865177263
353,1791353882.882345,2.93792255859375,-1.646001123046875,-1.6262661621093761,3.7397125942226603,3.776500561957222,-5.229387651159277,-2.170643767156509,6.805890541615826
354,1791353882.8921733,2.69842060546875,-1.4927198730468751,-1.640636279296876,3.493046490436752,3.808329792634028,-5.247051392196849,-2.1848464436000445,6.841672171620809
355,1791353882.9121733,2.57866962890625,-1.4160792480468751,-1.4634048339843762,3.285783194296504,3.871300191265348,-5.2819674211442225,-2.2140687589554293,6.9129042723230665
356,1791353882.9376621,2.8996022460937496,-1.4927198730468751,-1.238272998046876,3.4884417470602824,3.949987210159504,-5.325351809470106,-2.250889330252614,7.002019253907779
357,1791353882.957662,3.2061647460937497,-1.109516748046875,-1.3771841308593762,3.6615783377638946,4.011626754903949,-5.3581907069361785,-2.2793702709995736,7.070989018862572
