imu_index,t_imu,ax,ay,az,mag,vx,vy,vz,velocity
0,1791274070.8348982,0.0047900390625,-0.18559053308823534,-0.025640797334558377,0.187414623053132,0.0,0.0,0.0,0.0
1,1791274070.8548982,0.0143701171875,-0.19038057215073534,-0.011270680147058376,0.19125451825094517,3.484750094648916e-05,-0.0008005838240489968,-8.805914884415838e-05,0.0008061657530224714
2,1791274070.8799808,-0.028740234375,-0.23828096277573532,0.022259593290441627,0.24103797996730136,4.496234091842779e-05,-0.002460410555570647,-0.00016125889274693446,0.002466099378483011
3,1791274070.8999808,0.01916015625,-0.24307100183823532,0.012679515165441626,0.2441544462568693,3.7447674928240306e-05,-0.004307402562594286,-0.0001584621641877973,0.004310479024665407
4,1791274070.9246962,0.0718505859375,-0.20954072840073532,-0.059171070772058375,0.2292837525307555,0.00019825689918553544,-0.0070864817771232776,-0.00024170384906136745,0.007093373705524476
5,1791274070.9446962,0.1149609375,-0.18080049402573534,-0.04480095358455838,0.21888801071076192,0.0005890831565537852,-0.009583524183158321,-0.0004549177773468802,0.009612382894925792
6,1791274070.9552422,0.10059082031250001,-0.17601045496323534,0.05578986672794163,0.21026341245454058,0.0009347432533710353,-0.010984927644005976,-0.0005417894810769501,0.011037930790486728
7,1791274070.9752421,0.0622705078125,-0.17122041590073533,0.03662971047794163,0.18583805491380184,0.0017362352126461611,-0.01376482011804661,-0.0005431964597656615,0.013884518284395577
8,1791274070.9995031,0.047900390625000004,-0.16164033777573533,0.007889476102941625,0.16877289489565642,0.0027631124670247182,-0.017236813919433304,-0.00046364119470508006,0.017463032604791894
9,1791274071.019503,0.05748046875,-0.16164033777573533,0.012679515165441626,0.17202433894308153,0.0036407293074621565,-0.020154603838998694,-0.0003770423705710773,0.020484265345537794
10,1791274071.0451245,0.1293310546875,-0.13290010340073533,0.031839671415441625,0.1881561156761867,0.004955354219049695,-0.023897808488229498,-0.00019719560725597174,0.024406959501008487
11,1791274071.0651245,0.09580078125000001,-0.17601045496323534,0.012679515165441626,0.2007940239382291,0.006165314283350509,-0.02684481580511939,-1.1087331874837139e-05,0.027543699075327586
12,1791274071.0750978,-0.09101074218750001,-0.24786104090073532,0.012679515165441626,0.26434602492707593,0.006681757091825138,-0.028411003858701305,8.676594348132905e-05,0.029186273253401916
13,1791274071.0950978,-0.1197509765625,-0.16164033777573533,-0.006480641084558376,0.20127069804815878,0.0072459182556348445,-0.03169490376919902,0.000262860207534913,0.03251367945642009
14,1791274071.1198366,-0.028740234375,-0.03709932215073532,-0.025640797334558377,0.05347720321712671,0.007563565080782666,-0.03551633793612281,0.00038840722134800504,0.036314854223770565
15,1791274071.1398365,-0.009580078125,-0.10894990808823532,-0.016060719209558375,0.11054323620576839,0.007724364994313137,-0.03836142208264256,0.0004121283170382417,0.03913354530984551
16,1791274071.1654227,-0.0622705078125,-0.1999606502757353,-0.035220875459558376,0.21237322776202106,0.007761342294481668,-0.04204798615205649,0.0003395155996795378,0.04275964036913863
17,1791274071.1854227,-0.10538085937500001,-0.16164033777573533,-0.006480641084558376,0.1930666284673097,0.0075344340113487,-0.04503982099901883,0.00022871790530600586,0.0456662400836245
18,1791274071.1944773,-0.09101074218750001,-0.08978975183823532,0.04141974954044163,0.1343902912441386,0.0073137449326352655,-0.04636189527244466,0.00020980748737995565,0.04693570301353262
19,1791274071.2144773,-0.10059082031250001,-0.11373994715073532,0.012679515165441626,0.15236816863710212,0.006612002575217116,-0.04914936326524206,0.00025545229366185973,0.04959277914482854
20,1791274071.2400863,-0.052690429687500005,-0.061049517463235316,0.012679515165441626,0.08163390881231843,0.00555383360225433,-0.05251891345643675,0.0003538378680703594,0.05281293913013271
21,1791274071.2600863,-0.023950195312500002,-0.022729204963235317,0.060579905790441625,0.06899386638931349,0.004736430513785009,-0.05488138339987638,0.0005290380000813675,0.05508792879662178
22,1791274071.284894,-0.09101074218750001,-0.013149126838235317,0.08453010110294162,0.12490473458840994,0.003660725973160841,-0.057438955762191574,0.0009837447090354856,0.05756389760391603
23,1791274071.304894,-0.143701171875,0.020381146599264686,0.06536994485294163,0.15918117861426218,0.0025715096508785924,-0.05918073710645182,0.0015201917412582912,0.05925608229774995
24,1791274071.3144555,-0.047900390625000004,0.025171185661764687,0.07974006204044162,0.09636655801604671,0.0019914889766039614,-0.059855871165645114,0.001842246080040121,0.059917319799550985
25,1791274071.3344555,0.028740234375,0.020381146599264686,0.09890021829044163,0.1049887869561681,0.0009314982175763586,-0.06098790058540058,0.002682804308115215,0.06105398550217417
26,1791274071.3595886,-0.0143701171875,0.07786161534926468,0.07015998391544163,0.10578919961789277,-0.00017365317517625627,-0.062011902059312105,0.0038993302262025882,0.062134619405384166
27,1791274071.3795886,-0.0431103515625,0.08265165441176468,-0.030430836397058375,0.09806035994564093,-0.0010073952375312914,-0.06246376423803237,0.004781778762677743,0.0626546254963214
28,1791274071.4046633,-0.0718505859375,0.015591107536764685,-0.07354118795955839,0.10398988249001981,-0.0021120906731819217,-0.06276054746912679,0.005526653339570029,0.06303880664140177
29,1791274071.4246633,-0.047900390625000004,0.025171185661764687,-0.05438103170955838,0.07671592155115267,-0.0030406706622995395,-0.06290061510973774,0.005839775056032367,0.06324425690894783
30,1791274071.4352248,-0.0622705078125,0.058701459099264684,-0.025640797334558377,0.08933603937695674,-0.003544743089299535,-0.06289704989719558,0.005916937640049534,0.06327411983090467
31,1791274071.4552248,-0.052690429687500005,-0.008359087775735316,0.012679515165441626,0.05483544322722753,-0.004528551134781262,-0.06281579776248038,0.006021698440751236,0.06326604994804488
32,1791274071.4797144,0.0,0.04912138097426469,-0.04959099264705838,0.06980097865029868,-0.005649286846505301,-0.0626563606226776,0.0060629384446350704,0.06320200306110998
33,1791274071.4997144,0.0335302734375,0.058701459099264684,-0.04480095358455838,0.081100345124185,-0.006376973030958477,-0.06238394997521355,0.005949978249916274,0.06299067582366452
34,1791274071.5253382,-0.047900390625000004,0.09223173253676469,-0.011270680147058376,0.10453787897091743,-0.007197048633470753,-0.061797230258113386,0.005719205571554867,0.06247723176467194
35,1791274071.5453382,-0.0622705078125,0.1592922794117647,-0.011270680147058376,0.17140208474344654,-0.007906379973734626,-0.061030688271394774,0.005532288557846672,0.06178884989912433
36,1791274071.554938,-0.0143701171875,0.14971220128676468,-0.006480641084558376,0.1505398358939523,-0.008250965961710433,-0.06049545984882828,0.005443246096350893,0.06129770003587359
37,1791274071.574938,0.0431103515625,0.14971220128676468,-0.04480095358455838,0.16210913320370585,-0.008818064248286817,-0.059098516750732494,0.005208643322316094,0.05997935398520587
38,1791274071.5996056,-0.01916015625,0.09702177159926469,0.07974006204044162,0.12703862895197576,-0.009368283611217075,-0.057177530480893204,0.0050273323944810015,0.05815762031512524
39,1791274071.6196055,-0.067060546875,0.058701459099264684,0.12764045266544163,0.15567614911795435,-0.009876806584714745,-0.0556200689538178,0.005213449686437053,0.05673026913713985
40,1791274071.644451,-0.0622705078125,0.0682815372242647,0.027049632352941628,0.09628949620475007,-0.010654766440956184,-0.05373887996280693,0.005698226143657154,0.05508049608302885
41,1791274071.664451,0.009580078125,0.08265165441176468,0.017469554227941626,0.08501916959607331,-0.011266106795933675,-0.05222531127204311,0.006096704273586907,0.05377339586448627
42,1791274071.690371,0.028740234375,0.0730715762867647,0.07015998391544163,0.1052990013056982,-0.011865068813490729,-0.050255224848322066,0.006706023611058145,0.05207051214628436
43,1791274071.710371,0.1484912109375,0.10181181066176469,0.04141974954044163,0.18474544694769895,-0.011992056953682332,-0.04870079970920377,0.00727302105508114,0.05068011599793351
44,1791274071.719641,0.15328125,0.0730715762867647,-0.030430836397058375,0.17251270291320436,-0.011832280664443407,-0.047966810545530404,0.007504042951042218,0.04997127615184602
45,1791274071.739641,0.0431103515625,0.058701459099264684,-0.04001091452205838,0.0830977556442799,-0.01124468295356884,-0.04642310291222864,0.007822046929633902,0.048401774728774646
46,1791274071.7644148,0.0622705078125,-0.017939165900735316,0.027049632352941628,0.07022187997248461,-0.010430206153275084,-0.044722012186417914,0.008132787282291064,0.046636785946084724
47,1791274071.7844148,0.1293310546875,-0.017939165900735316,-0.10228142233455838,0.1658608595617891,-0.009583904269939568,-0.043608528993471396,0.008233171960465519,0.045401983905556345
48,1791274071.8095214,-0.0143701171875,-0.12811006433823532,-0.13102165670955837,0.1838079524385347,-0.008464399563333114,-0.04269541481227747,0.00790097613865442,0.044237652852561954
49,1791274071.8295214,0.0814306640625,-0.05625947840073532,-0.04959099264705838,0.11070387758025069,-0.007605780672714084,-0.04235368984670767,0.007405124210869079,0.043663701261470476
50,1791274071.8394682,0.21555175781250002,-0.11373994715073532,-0.0016906020220583751,0.2437256531617214,-0.0070212554201584745,-0.04233605046917446,0.007157250904274613,0.04350707341927668
51,1791274071.8594682,0.1772314453125,-0.18080049402573534,-0.07833122702205837,0.26501997089707957,-0.005433076802100228,-0.042747713482841426,0.0066135812865076235,0.04359615566746529
52,1791274071.8844326,0.1197509765625,-0.20954072840073532,-0.11186150045955838,0.26600866251204475,-0.003191995282068041,-0.04391532743295088,0.005680653309704763,0.04439611063425593
53,1791274071.9044325,0.19639160156250002,-0.13290010340073533,-0.11665153952205838,0.26427198171784355,-0.0011916705887996659,-0.04522409930212622,0.004702587281509099,0.04548355267149868
54,1791274071.9297187,0.27303222656250004,-0.06583955652573532,-0.04480095358455838,0.2844091584096187,0.001848252976468893,-0.047007492645381926,0.0033453055411548837,0.04716260672433558
55,1791274071.9497187,0.32572265625,0.05391142003676469,-0.06396110983455838,0.3362926011321162,0.004790133845118942,-0.04822436533328302,0.0022696581638449826,0.048514803330868106
56,1791274071.9602854,0.28740234375,0.04912138097426469,-0.06875114889705838,0.29956591551189116,0.006597193988784094,-0.04868919157150756,0.0016814254367569865,0.049162867450058136
57,1791274071.9802854,0.296982421875,0.034751263786764686,0.007889476102941625,0.2991127765086217,0.010381012858332147,-0.04931120654534744,0.0006437698160093653,0.05039617999907114
58,1791274072.004549,0.41194335937500004,0.1784524356617647,0.027049632352941628,0.4497491364496501,0.015572988178363986,-0.049564649380821765,-0.0003626844973624772,0.05195482623483488
59,1791274072.024549,0.38320312500000003,0.10181181066176469,-0.030430836397058375,0.3976635708784716,0.020403395409795036,-0.049321824773301916,-0.0010729151637843826,0.053386253756612496
60,1791274072.0500724,0.239501953125,0.006011029411764685,0.022259593290441627,0.24060924238011863,0.026835180478528897,-0.04885202100940761,-0.0018589772943387653,0.05576829443868342
61,1791274072.0700724,0.296982421875,0.05391142003676469,0.09411017922794163,0.3161672436344984,0.03192382371573141,-0.04844922265203326,-0.00220798278354455,0.05806318010746411
62,1791274072.080196,0.4167333984375,0.029961224724264685,0.19470099954044162,0.46094780570287247,0.0346551035030414,-0.048212237847013416,-0.0021388586640935093,0.05941355731992887
63,1791274072.100196,0.17244140625,-0.05146943933823532,0.18991096047794165,0.2616320215205397,0.04012539640919671,-0.04784654080487701,-0.0014458638384547968,0.062461423504650365
64,1791274072.124582,0.18202148437500001,0.13534208409926468,0.17554084329044164,0.2868168198790479,0.046443179040636856,-0.04731412766930187,-5.9237248992519056e-05,0.0662993142163576
65,1791274072.144582,0.3209326171875,0.13534208409926468,0.22344123391544163,0.41381301274465254,0.051601835852739336,-0.04653694817119068,0.0015058746630309755,0.06950327090836733
66,1791274072.1709042,0.354462890625,0.1976125919117647,0.21386115579044163,0.458727883683061,0.0587061195058999,-0.045010218490797144,0.004120056617008227,0.07408983130334183
67,1791274072.1909041,0.3305126953125,0.2934133731617647,0.40546271829044167,0.5997750121807114,0.06432183990290882,-0.04328765125115689,0.0067373949137604465,0.07782359751104534
68,1791274072.2144575,0.22513183593750002,0.3940041934742647,0.4246228745404416,0.621472633034539,0.07092483172105372,-0.04034900320584058,0.010823749478902278,0.08231359163070677
69,1791274072.2344575,0.1149609375,0.49459501378676474,0.37193244485294163,0.6294235365379145,0.07620077448325856,-0.03689509427385429,0.014967966359443762,0.0859758456210956
70,1791274072.244675,0.26345214843750003,0.6909866153492648,0.38630256204044167,0.8343255998392813,0.07878178638049374,-0.03448674537676065,0.01734859659095579,0.087731860094603
71,1791274072.264675,0.229921875,0.5856057559742647,0.2857117417279416,0.6909626396520434,0.08381619158001047,-0.028564794307036765,0.02231756249330018,0.09131908365956536
72,1791274072.2901785,0.5891748046875,0.7436770450367647,0.13722053079044164,0.9586511210359996,0.09083975698976965,-0.019603342950838227,0.02851242544131042,0.09720653737971982
73,1791274072.3101785,0.5508544921875,0.8059475528492647,0.32882209329044165,1.0301048968637974,0.09723150433154144,-0.011305464667921537,0.03334080470839913,0.10340884016628266
74,1791274072.335244,0.44068359375000005,0.4706448184742647,0.34798224954044166,0.7326665141469991,0.10590451327535957,-6.601433679743682e-05,0.039756716579400976,0.11312102723701854
75,1791274072.355244,0.3209326171875,0.14971220128676468,0.29050178079044164,0.4580423262443821,0.11292918381061991,0.00848739108600805,0.04506587044616962,0.12188506488758404
76,1791274072.3651655,0.354462890625,0.3604739200367647,0.17554084329044164,0.5351635035388923,0.11639382351800272,0.012473711792479266,0.047651351677298934,0.12638736865563513
77,1791274072.3851655,0.9148974609375,0.7388870059742647,-0.19329216452205839,1.191785732626935,0.12423431514246158,0.02095307371115882,0.052054792168611023,0.1363191026400152
78,1791274072.4100497,0.6179150390625,0.5233352481617647,-0.15976189108455838,0.825362126167091,0.13538698011124922,0.03227638834120984,0.05605287436576595,0.15004440793532
79,1791274072.4300497,0.4646337890625,0.3317336856617647,-0.19329216452205839,0.602738464847679,0.14462989107720975,0.04129466134424872,0.058254636050769144,0.1612967980771761
80,1791274072.4549043,0.4167333984375,-0.05146943933823532,-0.2651427504595584,0.49660498052307134,0.1560363564400807,0.05134332052871985,0.059725841593499036,0.17478746307462248
81,1791274072.4749043,0.852626953125,-0.15685029871323533,-0.37531364889705837,0.9446878174561566,0.16574214041687388,0.05790388003762147,0.059771426768884535,0.18546142426759835
82,1791274072.4854462,1.1879296875,0.2934133731617647,-0.2268224379595584,1.2444744948595494,0.17170399403052525,0.06095119240286312,0.05931577528066181,0.19161333622300786
83,1791274072.5054462,1.159189453125,0.3125735294117647,-0.08791130514705837,1.203806793924101,0.1848388055427281,0.0667742938889037,0.05810888762686414,0.20494104806030358
84,1791274072.5301878,1.120869140625,-0.008359087775735316,-0.2316124770220584,1.1445793307002192,0.20288126796404382,0.07346191557320647,0.056246903869140885,0.22298245698988842
85,1791274072.5501878,1.082548828125,-0.31971162683823534,-0.2699327895220584,1.1605995004606549,0.21858336501734946,0.07756487383743979,0.0542152179231766,0.2381896029850659
86,1791274072.5747101,1.6621435546875,0.3029934512867647,-0.4375841567095584,1.7452811011739853,0.23999603755446164,0.08181022496314119,0.050796551039248856,0.25859485793001635
87,1791274072.59471,1.3172607421875,0.2071926700367647,-0.3705236098345584,1.383977026857801,0.2593093843094345,0.08551857510770804,0.04721441420333006,0.2770992320233932
88,1791274072.6047173,0.9005273437500001,-0.1999606502757353,-0.6004454848345584,1.1006673152039783,0.2691879568206849,0.0871011790873844,0.04496217014093612,0.28647926319280076
89,1791274072.6247172,0.699345703125,-0.7460251034007354,-0.6962462660845584,1.2370920460580805,0.28836933424571326,0.08837070560596437,0.03919105609047048,0.3041417324539635
90,1791274072.6503131,1.0394384765625,-0.8657760799632354,-0.7010363051470584,1.523631342657835,0.3125732845892689,0.08665756768970119,0.030230729571626164,0.32576907355863605
91,1791274072.6703131,1.5376025390625,-0.47778291590073535,-1.0794493910845584,1.9384811246878004,0.3325143353306561,0.08350441947861183,0.02160884009350666,0.3435195965924429
92,1791274072.6951494,0.9723779296875,-0.9663669002757354,-1.1704601332720583,1.8025983323167494,0.35823838590342544,0.07748608277761147,0.008317100425177661,0.36661697767342
93,1791274072.7151494,0.8765771484375,-1.1100680721507354,-1.1896202895220584,1.8481977857398855,0.37861944708199746,0.07025199444719071,-0.004320963888644232,0.3851060881905304
94,1791274072.7246785,1.044228515625,-1.3399899471507355,-1.0986095473345585,2.0230989073211587,0.3882462947867135,0.06557126137702894,-0.011074584941871489,0.3939002693142276
95,1791274072.7446785,1.2502001953125002,-1.3687301815257353,-1.2135704848345585,2.2156660758878965,0.4088622761585368,0.05315773524464178,-0.02659134340891542,0.4131600237512941
96,1791274072.7706618,1.0921289062500001,-1.2058688534007354,-1.3189513442095584,2.0943967837687842,0.43619296840319094,0.03443231865698249,-0.04866163894936611,0.44024748194364677
97,1791274072.7906618,0.7711962890625,-1.5507516659007354,-0.9165880629595584,1.959517318810332,0.45686946682816676,0.018046008551771037,-0.06645476510724418,0.46202987343889673
98,1791274072.8145304,0.8765771484375,-1.4693210018382354,-0.6100255629595585,1.816431361508015,0.4807937613988415,-0.003982866058119615,-0.08723723089865715,0.48866024871780667
99,1791274072.8345304,0.8957373046875,-1.5363815487132353,-0.5477550551470584,1.8608732312208867,0.5004919097844854,-0.02418111361442598,-0.10377586433544983,0.511709202608205
100,1791274072.845384,1.120869140625,-1.3112497127757354,-0.8064171645220584,1.9042142954236194,0.511219728718597,-0.03581608239841768,-0.11250704550036839,0.5246772704022047
101,1791274072.8653839,0.8669970703125001,-1.5986520565257354,-0.7537267348345584,1.9686229472828933,0.5310046081656771,-0.058404891145017984,-0.12852298970917533,0.5494498922437153
102,1791274072.9349985,0.6370751953125,-2.2453073299632353,-0.6579259535845584,2.4248992496327024,0.59739356465469,-0.14530640558384395,-0.18327854695411572,0.6415481652753329
103,1791274072.9549985,0.7711962890625,-2.6764108455882356,-0.5669152113970584,2.842412986805309,0.6157182355770374,-0.17391043366978517,-0.19848718210155863,0.6698887564513456
104,1791274072.9359958,0.9627978515625001,-2.8392721737132356,-0.7345665785845584,3.0867514052429086,0.6157182355770374,-0.17391043366978517,-0.19848718210155863,0.6698887564513456
105,1791274072.9559958,0.9867480468750001,-2.8057419002757356,-1.0938195082720585,3.168958888286664,0.6340929667981151,-0.21007684614050248,-0.21387738521005342,0.7013912657935408
106,1791274072.9804933,0.9819580078125001,-3.0644040096507354,-0.9501183363970584,3.3552255239593824,0.6568408582141942,-0.25851662661286945,-0.2336561740886443,0.7435495726208172
107,1791274073.0004933,1.140029296875,-3.4380270565257356,-0.6052355238970584,3.6723298978336993,0.6758096772688353,-0.30188492581786697,-0.24971464266667948,0.781159798689368
108,1791274073.0105393,1.101708984375,-3.6152585018382357,-0.8207872817095584,3.867498995886412,0.6855975599541277,-0.32571556611890984,-0.25764533368370307,0.8015708092216198
109,1791274073.0305393,0.8861572265625001,-3.6966891659007355,-1.0363390395220584,3.940150254027671,0.705142541776633,-0.377010003846883,-0.27385144139973816,0.8451965210414389
110,1791274073.0548046,0.9532177734375,-3.7829098690257354,-0.8591075942095584,3.9946335325281077,0.728646280620712,-0.4435208126608934,-0.29401392482965194,0.9022639866023208
111,1791274073.0748045,1.3364208984375001,-3.7685397518382353,-0.7537267348345584,4.068908535439184,0.7485471856083702,-0.5014446872230415,-0.3105587789941438,0.9530038922463849
112,1791274073.099839,1.3316308593750001,-3.8882907284007353,-0.6962462660845584,4.168549435624293,0.7747305220046559,-0.5774499431213003,-0.33088435465875143,1.021342388572186
113,1791274073.119839,0.996328125,-3.7733297909007355,-1.0650792738970585,4.045377770153251,0.7960026237516634,-0.6405548118634667,-0.34732871139607213,1.0791514619278564
114,1791274073.175256,0.9340576171875,-3.6631588924632354,-1.1081896254595585,3.9394518590325056,0.8541264820130676,-0.8200892494701066,-0.39509162295969097,1.2482691275944402
115,1791274073.195256,1.0394384765625,-3.7350094784007357,-1.0698693129595584,4.021858836050124,0.8749170563168628,-0.8862612731384572,-0.41301067119842205,1.3120658193181218
116,1791274073.175764,1.24541015625,-3.6104684627757355,-1.0650792738970585,3.964961896118791,0.8749170563168628,-0.8862612731384572,-0.41301067119842205,1.3120658193181218
117,1791274073.195764,1.2118798828125001,-3.4859274471507353,-1.0507091567095583,3.8372298275133057,0.896537357023376,-0.9540806193956324,-0.4318529200224396,1.3786029179487187
118,1791274073.2649848,1.0202783203125,-3.2272653377757354,-1.0602892348345585,3.5468891542892176,0.9717301973612382,-1.1884493392229718,-0.4982440401249415,1.6139760010245672
119,1791274073.2849848,0.8622070312500001,-3.1841549862132354,-0.9836486098345584,3.442355084617653,0.9930205889509465,-1.255625250846131,-0.5176149891258037,1.6824416594968754
120,1791274073.2659962,0.9867480468750001,-3.0021335018382356,-0.7249865004595584,3.242234213735913,0.9930205889509465,-1.255625250846131,-0.5176149891258037,1.6824416594968754
121,1791274073.2859962,1.2310400390625,-2.8057419002757356,-0.5621251723345584,3.1150653120135465,1.0140869913072463,-1.3207591620889445,-0.5357196731349261,1.74922061454931
122,1791274073.3109322,1.22625,-2.6907809627757353,-0.6339757582720584,3.024221637746305,1.0410083459651216,-1.4000663166647676,-0.5571435877076419,1.8314729167399746
123,1791274073.3309321,1.025068359375,-2.8392721737132356,-0.7920470473345584,3.1208284385729104,1.0627388377979743,-1.4624286992986066,-0.5738882813048435,1.8966969439832582
124,1791274073.3698244,0.9915380859375,-3.1075143612132354,-0.7680968520220585,3.351084310353486,1.104539947912078,-1.5828552184774802,-0.6061167859552141,2.0230711053770913
125,1791274073.3898244,1.0538085937500001,-3.3039059627757354,-0.5477550551470584,3.5108891699348144,1.125879416120665,-1.6451113068459289,-0.6221777846322512,2.088324895040622
126,1791274073.3698244,1.0106982421875002,-3.0691940487132356,-0.5525450942095584,3.278226521543729,1.125879416120665,-1.6451113068459289,-0.6221777846322512,2.088324895040622
127,1791274073.3898244,1.005908203125,-2.9638131893382353,-0.6387657973345584,3.1943797016406648,1.146954332390074,-1.7072665276842989,-0.6369717021620792,2.1531363604042406
128,1791274073.429877,1.2070898437500002,-2.9446530330882354,-0.7201964613970584,3.262932778830877,1.18947661724135,-1.8308183210874045,-0.6662367439207342,2.2826786341365115
129,1791274073.449877,1.3172607421875,-2.9781833065257355,-0.7058263442095584,3.33210781613638,1.2113113363326962,-1.8921430014291467,-0.6807970567319762,2.347544445551633
130,1791274073.4904182,1.28373046875,-3.0404538143382354,-0.6148156020220584,3.357129955484411,1.2568411314918768,-2.0161057100624498,-0.7099000248062828,2.4795745419680686
131,1791274073.5104182,1.2118798828125001,-2.9733932674632353,-0.4088439223345584,3.236799920630134,1.2796763886240285,-2.077107308640015,-0.7236391555102143,2.5447200354056903
132,1791274073.4904182,1.140029296875,-2.7530514705882356,-0.3226232192095584,2.9971728243487217,1.2796763886240285,-2.077107308640015,-0.7236391555102143,2.5447200354056903
133,1791274073.5104182,1.044228515625,-2.7003610409007353,-0.4423741957720584,2.9288321688249512,1.3024499268404859,-2.1366622846564027,-0.7356457921879921,2.608232401869857
134,1791274073.5354893,1.0969189453125001,-2.7243112362132353,-0.7249865004595584,3.0250137702482895,1.330741769203976,-2.210319784599471,-0.7506341895364427,2.686975789432613
135,1791274073.5554893,1.1256591796875,-2.7770016659007353,-0.7489366957720585,3.0886490599458143,1.3532594749826425,-2.2685166668120633,-0.7630082506902813,2.749483708781679
136,1791274073.684695,0.9915380859375,-2.8009518612132354,-0.7728868910845584,3.0701519915321525,1.4974263210232535,-2.6421429150595923,-0.8457044064305502,3.152526084515223
137,1791274073.704695,0.8382568359375,-2.7770016659007353,-0.8303673598345584,3.017270741529507,1.519139477152908,-2.6996689687341777,-0.8589898679199077,3.2146323094530938
138,1791274073.6856933,0.9723779296875,-2.9302829159007353,-0.6435558363970584,3.1537661485791526,1.519139477152908,-2.6996689687341777,-0.8589898679199077,3.2146323094530938
139,1791274073.7056932,1.2549902343750001,-2.9350729549632355,-0.5046447035845584,3.231767320861634,1.5404768386409597,-2.7573063488320138,-0.8721901632964277,3.2766633749364042
140,1791274073.6866932,1.1687695312500002,-3.0787741268382356,-0.4902745863970584,3.3294506320613455,1.5404768386409597,-2.7573063488320138,-0.8721901632964277,3.2766633749364042
141,1791274073.7066932,1.07296875,-3.0787741268382356,-0.5285948988970584,3.30295695244505,1.5623459772851578,-2.815853317241623,-0.8845242003613698,3.33951162866439
142,1791274073.7002137,1.0585986328125,-2.9590231502757356,-0.5094347426470583,3.1837042617485856,1.5623459772851578,-2.815853317241623,-0.8845242003613698,3.33951162866439
143,1791274073.7202137,1.0298583984375,-3.0691940487132356,-0.5429650160845584,3.2825860899876944,1.5839968583361432,-2.8748940032793677,-0.8963376268042104,3.4025700166984727
144,1791274073.7599666,0.93884765625,-3.5146676815257356,-0.6100255629595585,3.6886928607125498,1.6264457162744135,-2.9942729847175427,-0.9197340485127191,3.5294343874040623
145,1791274073.7799666,0.9580078125,-3.5529879940257354,-0.7058263442095584,3.746957897105635,1.6474438561493103,-3.055925769483286,-0.9317130866824038,3.594557391898393
146,1791274073.7896056,0.890947265625,-3.4380270565257356,-0.6722960707720584,3.614664448922365,1.6573825911920994,-3.086236376579808,-0.9376166884873326,3.6264165618749664
147,1791274073.8096056,0.8190966796875,-3.5386178768382357,-0.6387657973345584,3.687920497082154,1.6774762261998444,-3.1501590066817684,-0.9499952388949953,3.6932261250520657
148,1791274073.8201606,0.852626953125,-3.6248385799632357,-0.8351573988970584,3.8162698191974855,1.6878133948294787,-3.1845047921667473,-0.9567149200303424,3.7289527035492758
149,1791274073.8401606,0.8813671875000001,-3.6439987362132356,-0.8734777113970584,3.8494802533631423,1.7070634804521425,-3.250725536263649,-0.9701006232040986,3.797680536531601
150,1791274073.8653471,0.910107421875,-3.5290377987132353,-0.8016271254595584,3.7316228845331185,1.731053407070133,-3.3351599327157135,-0.9875933238942258,3.8852513751779103
151,1791274073.8853471,0.8622070312500001,-3.5290377987132353,-0.6818761488970584,3.6962770231570006,1.749904191025516,-3.4027371364852934,-1.0016255038568052,3.9552545237647094
152,1791274073.8949654,0.9675878906250001,-3.5577780330882356,-0.6387657973345584,3.741928994870665,1.7589299265700569,-3.435473394010427,-1.0083142147659114,3.9891113651083074
153,1791274073.9149654,0.9053173828125001,-3.5481979549632356,-0.5525450942095584,3.70332477273636,1.7776919595092442,-3.5039925591192866,-1.0219232462976382,4.059862027038684
154,1791274073.9401011,0.45984375,-3.5625680721507353,-0.4040538832720584,3.61477621488649,1.8003084649799441,-3.5905946564829225,-1.038264737828173,4.148671380340888
155,1791274073.9601011,-0.26345214843750003,-3.7110592830882356,-0.4327941176470584,3.7454877900457237,1.8158991996842992,-3.6600764019402674,-1.0505721964472308,4.2186906868603264
156,1791274073.9846861,-0.4646337890625,-3.4571872127757355,-0.4280040785845584,3.5144296085429922,1.8308468950435588,-3.7458927220396747,-1.0650190200326086,4.303252043646951
157,1791274074.004686,-0.0047900390625,-3.2224752987132357,-0.3896837660845584,3.245954933889413,1.8404787571117767,-3.8152522729106124,-1.0762352061356906,4.37055993898439
158,1791274074.014781,0.32572265625,-3.1170944393382354,-0.2124523207720584,3.1412591394454132,1.844854125630167,-3.8498095891653805,-1.0815032053850462,4.4038812201219155
159,1791274074.034781,0.11017089843750001,-2.9446530330882354,-0.3274132582720584,2.9648471383581643,1.8528761743796158,-3.917097420914386,-1.091184420219389,4.468499273967414
160,1791274074.0602927,-0.4358935546875,-2.8823825252757356,-0.4040538832720584,2.9430242529786024,1.860950849747646,-4.001203593023961,-1.1030808529777587,4.548577318921871
161,1791274074.0802927,-0.8622070312500001,-2.7434713924632352,-0.2268224379595584,2.8846983662703836,1.864384334956503,-4.065687287542996,-1.1119544639909955,4.608924473074975
162,1791274074.1053905,-0.3400927734375,-2.427328814338235,-0.12623161764705837,2.4542865946655184,1.8657835593814622,-4.144202630234673,-1.122084152852584,4.681307144055498
163,1791274074.1253905,0.689765625,-1.8189938534007355,-0.36573357077205837,1.9794636397092464,1.8672558304329356,-4.203754341428188,-1.1296834273801222,4.7364944363378525
164,1791274074.1350684,0.795146484375,-1.4789010799632354,-0.4567443129595584,1.7401211749045653,1.8689392019709032,-4.230642339864814,-1.1334060780548965,4.761919537990142
165,1791274074.1550684,-0.296982421875,-1.2729294002757354,-0.06396110983455838,1.30867828000634,1.8726434243206103,-4.282001005015975,-1.1407262695920373,4.810777735849621
166,1791274074.1801593,-0.7999365234375,-0.9567868221507354,-0.025640797334558377,1.2473960538091056,1.8745292758725904,-4.340964046526961,-1.148700885150942,4.865936968651536
167,1791274074.2001593,0.296982421875,-0.4921530330882353,-0.25556267233455837,0.6290671238997242,1.8750525757659,-4.383086975281214,-1.1545257706614556,4.905120115745136
168,1791274074.224737,1.302890625,-0.008359087775735316,-0.6052355238970584,1.436629351798257,1.8785482686386117,-4.428009074480786,-1.1621968810126844,4.9484249566427625
169,1791274074.244737,1.1304492187500002,0.7101467715992648,-0.5094347426470583,1.4288973477479823,1.8846161952856568,-4.458028362329425,-1.1691748812528189,4.979233373303475
170,1791274074.2547581,0.4550537109375,0.9592288028492647,-0.3513634535845584,1.1183246633104769,1.8883921855853887,-4.469558944428738,-1.1727937921926408,4.991836083377387
171,1791274074.274758,0.996328125,1.1029299747242647,-0.6962462660845584,1.6413053112836664,1.8969748475730501,-4.486026192855391,-1.1805043271005449,5.011639955305303
172,1791274074.3147163,2.251318359375,1.2226809512867647,-1.3572716567095584,2.899236005227163,1.9212829213173634,-4.507021766078472,-1.1997526857509277,5.044202590164025
173,1791274074.3347163,2.54830078125,1.1987307559742648,-1.2183605238970585,3.06841891912247,1.938824061767128,-4.512322087866821,-1.2118052246629456,5.058513741175206
174,1791274074.3447654,1.7339941406250001,1.5675637637867648,-1.2950011488970585,2.672268663309111,1.949543153323387,-4.5125008795462564,-1.2188469892409435,5.064481284174871
175,1791274074.3647654,1.59029296875,1.7447952090992647,-1.5776134535845585,2.839402447185399,1.9726629740253727,-4.507834806168316,-1.2350683994760194,5.073200942223502
176,1791274074.3901746,2.8979736328125,1.6585745059742647,-1.8698058363970584,3.8269170926698632,2.0061831574731666,-4.496310173265173,-1.2591555040914777,5.0820319380166
177,1791274074.4101746,3.8703515625000002,1.3759622012867647,-2.1715782973345585,4.64635830497074,2.038762240500706,-4.484047842281216,-1.2813329988085607,5.089700460635579
178,1791274074.4206254,3.1278955078125,0.8777981387867647,-2.2003185317095584,3.923730561753143,2.058717919647519,-4.4768348649227026,-1.294610129345013,5.094740942135133
179,1791274074.4406254,2.0980371093750003,0.4802248965992647,-2.2242687270220585,3.095116642977565,2.099017955090178,-4.463064756483214,-1.32284440697787,5.10634318484629
180,1791274074.4805179,2.960244140625,1.0071291934742648,-2.2625890395220587,3.859619637505504,2.18247788524038,-4.435268436815738,-1.384138027501199,5.133288800111694
181,1791274074.5005178,4.205654296875,0.8825881778492647,-2.4877208754595586,4.965404828480726,2.228792800696261,-4.420588585458166,-1.4173834893646553,5.149572481890321
182,1791274074.509929,3.9613623046875004,0.3029934512867647,-2.6074718520220586,4.752168536532461,2.253082013049076,-4.41388023441906,-1.4342770940758764,5.15905689675073
183,1791274074.529929,3.4871484375,-0.10415986902573532,-2.5787316176470587,4.338307303468343,2.308130231160484,-4.401464176588698,-1.4725726025899208,5.183514457555707
184,1791274074.5402036,3.7937109375,0.2407229434742647,-2.3775499770220585,4.483629568336309,2.3377789212742486,-4.395937184236091,-1.4931145205016094,5.197967389647272
185,1791274074.5602036,4.6702880859375,-0.02751924402573532,-2.6745323988970586,5.381957977092683,2.3995303321371244,-4.3864726594556025,-1.5346803947465115,5.2301177922697795
186,1791274074.5850046,5.010380859375,-0.7939254940257353,-2.9715148207720583,5.8791270079939055,2.4826258291016408,-4.378024582001544,-1.5889947405351061,5.277824791841866
187,1791274074.6050045,4.5744873046875005,-1.1292282284007353,-2.9092443129595584,5.537580063985685,2.55396135311911,-4.375118531722379,-1.635045918305005,5.323321887206562
188,1791274074.6304927,4.2583447265625,-1.2537692440257353,-3.0529454848345585,5.3875702557720055,2.648120272098212,-4.376525924415148,-1.696328097980713,5.389253116951758
189,1791274074.6504927,4.7133984375,-1.7327731502757353,-3.6612804457720585,6.214788984634699,2.724379640212442,-4.381944431287395,-1.7472731879531511,5.447627466726653
190,1791274074.6594777,5.0966015625,-1.9770651424632355,-3.8241417738970584,6.671446197885819,2.7601111439899535,-4.386513546769613,-1.771771580899659,5.477124168581039
191,1791274074.6794777,4.847519531250001,-2.0345456112132356,-3.8145616957720585,6.4952830870416,2.8426324429396104,-4.401175867688991,-1.8295813569102894,5.549619461326556
192,1791274074.7042603,4.7469287109375005,-2.3698483455882355,-3.963052906709559,6.622333554661011,2.947382346956323,-4.4248056058476575,-1.9049265571263614,5.6475403970875595
193,1791274074.7242603,5.5708154296875,-2.5374997127757353,-4.145074391084559,7.392870285052099,3.0347134967413023,-4.448375744718903,-1.9687727488030562,5.73355028842835
194,1791274074.74998,6.078559570312501,-2.7386813534007355,-4.106754078584559,7.830369791221452,3.152645273386001,-4.484317541974424,-2.0544796737476765,5.853986912088632
195,1791274074.76998,6.112089843750001,-2.8919626034007355,-4.068433766084558,7.891339763725628,3.2488809247479984,-4.516520049633284,-2.1233923885715353,5.955079836389634
196,1791274074.7799287,6.0498193359375,-3.0117135799632355,-4.202554859834558,7.958153054266881,3.2986460889521574,-4.534541016790082,-2.1587016001909114,6.008587259229727
197,1791274074.7999287,6.059399414062501,-2.9302829159007353,-4.346256031709559,8.012042231512039,3.4018465772798376,-4.574247494772614,-2.2318597412003576,6.121886815612895
198,1791274074.8242753,5.992338867187501,-2.9781833065257355,-4.3702062270220585,7.9922714776949935,3.530637733171897,-4.626121846333877,-2.323474952249376,6.266174430524177
199,1791274074.8442752,5.8630078125,-3.0117135799632355,-4.379786305147059,7.913773270439629,3.6383490407034342,-4.6713279006866575,-2.4005701641912234,6.3891803238699
200,1791274074.8701153,5.7432568359375,-2.9063327205882357,-4.346256031709559,7.7667052512295305,3.7791308921708344,-4.732442514768889,-2.502147449787477,6.55275394900724
201,1791274074.8901153,5.719306640625001,-2.7482614315257354,-4.466007008272059,7.759421882037621,3.8889441139941825,-4.781131274015227,-2.5821928157385847,6.682127080412975
202,1791274074.89941,5.5564453125,-2.7961618221507356,-4.533067555147059,7.696837461320297,3.940183717037276,-4.8042297086640176,-2.6200862208810505,6.743183419014077
203,1791274074.91941,5.2594628906250005,-3.0021335018382356,-4.499537281709559,7.544573626800606,4.050124186666707,-4.855173904817733,-2.702941701240838,6.876199052801805
204,1791274074.9447634,5.1397119140625005,-3.0787741268382356,-4.437266773897059,7.455523127613203,4.188361555244322,-4.921630281292439,-2.809213692630089,7.046736742212221
205,1791274074.9647634,5.163662109375,-2.9494430721507356,-4.432476734834559,7.416836982198185,4.296507526078906,-4.975232930021123,-2.8937757940691906,7.182399179658566
206,1791274074.989147,5.1397119140625005,-2.8392721737132356,-4.475587086397058,7.383020032744216,4.427421832573508,-5.041367648075437,-2.997698402180786,7.348717408980118
207,1791274075.009147,5.144501953125,-3.0069235409007353,-4.523487477022059,7.4812718491781425,4.534120391942242,-5.096245451890559,-3.0836508899828323,7.485911316989642
208,1791274075.0349855,5.4845947265625,-2.9733932674632353,-4.327095875459559,7.592470319537114,4.671888658363261,-5.168098311893604,-3.1951904474755213,7.664530370034397
209,1791274075.0549855,5.6570361328125,-2.7003610409007353,-4.078013844209559,7.4782487570771226,4.779242883200316,-5.223883045155194,-3.2811832554810794,7.803606868758202
210,1791274075.0644915,5.599555664062501,-2.3985885799632354,-4.283985523897059,7.447199660263181,4.830639885906087,-5.250055638610227,-3.3218864455135697,7.869758285531811
211,1791274075.0844915,5.4127441406250005,-2.6716208065257354,-4.566597828584559,7.568961130417087,4.939073888158404,-5.3044665697850775,-3.407953650692137,8.009117588593734
212,1791274075.1100326,5.273833007812501,-3.1697848690257353,-4.705508961397059,7.746138734620312,5.077249599754891,-5.374719119124727,-3.519140753677239,8.188432130260841
213,1791274075.1300325,5.336103515625,-3.3374362362132355,-4.628868336397058,7.812739816220295,5.185133428859788,-5.431239624381321,-3.607147786895461,8.330395410125131
