imu_index,t_imu,ax,ay,az,mag,vx,vy,vz,velocity
0,1790565568.9192197,-0.4438117825255102,-0.4579863879145408,0.2937075992506369,0.7021286090746137,0.0,0.0,0.0,0.0
1,1790565568.9392197,-0.3719611965880102,-0.38134576291454086,0.26975740393813685,0.5971170568988133,-0.0017895177847715286,-0.0018429291132788235,0.0012196735306552928,0.0028436534845099216
2,1790565568.948479,-0.3432209622130102,-0.23764459103954083,0.2841275211256369,0.5049792360224076,-0.002990376539898523,-0.0029980065454823044,0.002084277120103441,0.00471959809841017
3,1790565568.968479,-0.3432209622130102,-0.16100396603954084,0.30807771643813686,0.4885025950275221,-0.006224821426928392,-0.005716707043813112,0.0045600008611595445,0.009603267624913151
4,1790565568.993814,-0.3049006497130102,-0.27596490353954084,0.2553872867506369,0.48409059112407443,-0.010938998598646877,-0.009474342983711307,0.008296372769579037,0.01668096719156328
5,1790565569.013814,-0.27616041533801017,-0.40050591916454087,0.1787466617506369,0.5182855731857609,-0.014973830063020051,-0.013010444137499858,0.011454700668139396,0.022906274485561387
6,1790565569.038822,-0.2378401028380102,-0.43403619260204085,0.17395662268813689,0.5246105580175965,-0.02022626606501677,-0.01833401681888295,0.015473025457215843,0.03137917348254382
7,1790565569.058822,-0.16119947783801017,-0.46756646603954083,0.16916658362563688,0.5227054666210426,-0.02439534063389305,-0.023305292778458237,0.018719297941349935,0.03858343467798531
8,1790565569.0844219,-0.12287916533801017,-0.5298369738520409,0.19790681800063686,0.5787863308216527,-0.029476720453635454,-0.03062904834413536,0.022956019506469888,0.04831143221589045
9,1790565569.1044219,-0.17077955596301017,-0.6543779894770408,0.2745474430006369,0.729898971300224,-0.03329156441614626,-0.037268804148973295,0.026478150232643632,0.05655426123389281
10,1790565569.1151419,-0.2617902981505102,-0.6208477160395408,0.26975740393813685,0.72577896338809,-0.03537739798105871,-0.041319166751649226,0.028520458394964334,0.06141864843856224
11,1790565569.1351418,-0.19472975127551018,-0.46277642697704086,0.20269685706313686,0.5414496405583185,-0.03936992820307265,-0.049367736208975124,0.03246786657828329,0.07100230267575308
12,1790565569.1594665,-0.08455885283801018,-0.35739556760204083,0.23143709143813687,0.4341024287287618,-0.04400692127112041,-0.05918461811977206,0.03734070450952879,0.0826665370933958
13,1790565569.1794665,-0.07976881377551018,-0.35260552853954086,0.2601773258131369,0.4454053920588256,-0.04749410825202116,-0.06711042847705037,0.04148364810105415,0.09208904923388064
14,1790565569.2038436,-0.08455885283801018,-0.4196660754145409,0.1787466617506369,0.4639182940282911,-0.051407369312355636,-0.0767337215205603,0.046578331216862355,0.1034423635507211
15,1790565569.2238436,-0.18993971221301018,-0.48672662228954083,0.1835367008131369,0.5537739788635048,-0.05454812693608013,-0.08480435260965441,0.05067466003777546,0.1128503324927376
16,1790565569.23383,-0.1516193997130102,-0.5298369738520409,0.24101716956313687,0.6015022337899067,-0.0561369558792977,-0.08899109531999032,0.05273121624890881,0.11769177553565502
17,1790565569.25383,-0.18035963408801017,-0.5442070910395409,0.1835367008131369,0.6019773052960145,-0.059339608790632443,-0.09772930819177135,0.056868949688753695,0.1276960621545141
18,1790565569.2791634,-0.20909986846301018,-0.48193658322704086,0.13563631018813688,0.5425705796348114,-0.06352778654069023,-0.10908716459538337,0.06193035655518585,0.14060995059124448
19,1790565569.2991633,-0.08455885283801018,-0.40529595822704084,0.1883267398756369,0.4548428017465389,-0.06677875132319415,-0.11803970287519609,0.06581275827806965,0.15074512342134722
20,1790565569.3236792,-0.11329908721301019,-0.3286553332270408,0.26975740393813685,0.4400228041832851,-0.07052981336972677,-0.12871708839664622,0.07070020581004226,0.16291427967142985
21,1790565569.3436792,-0.22826002471301018,-0.34781548947704083,0.2505972476881369,0.48567194087265014,-0.07364324223735336,-0.13713578957433484,0.07486982901425404,0.17272823511525087
22,1790565569.3692262,-0.2378401028380102,-0.39571588010204084,0.1787466617506369,0.49508518597300466,-0.07791670718235633,-0.1477010181500512,0.08021963074286856,0.18526141848000893
23,1790565569.3892262,-0.10371900908801018,-0.44361627072704085,0.15958650550063688,0.482722364551168,-0.08127277481438154,-0.15599052836862828,0.08428709573727926,0.1950451829053419
24,1790565569.3987968,-0.04623854033801018,-0.4292461535395409,0.15479646643813688,0.45864169998247445,-0.08274549686769832,-0.1599888297102642,0.08616720298605902,0.19966980180884364
25,1790565569.4187968,-0.1324592434630102,-0.34302545041454086,0.19311677893813686,0.4153384175805711,-0.08562949784508841,-0.16824930567397,0.09002865372184403,0.20915400606238144
26,1790565569.4435375,-0.1516193997130102,-0.35739556760204083,0.22185701331313687,0.447147144089218,-0.0891890916181131,-0.17823470349633178,0.09485889971589523,0.2207272399351737
27,1790565569.4635375,-0.10371900908801018,-0.39092584103954087,0.22664705237563687,0.46362650095657365,-0.09201798949684278,-0.1862184143688941,0.09885064440998216,0.23003490635417692
28,1790565569.4736414,-0.027078384088010176,-0.40050591916454087,0.19790681800063686,0.4475548444400851,-0.09333188657002517,-0.19024650621350614,0.10088649607895094,0.23469695197904436
29,1790565569.4936414,-0.08455885283801018,-0.35739556760204083,0.20269685706313686,0.41948516922310725,-0.09570998750035638,-0.19816066299682636,0.1049127422284562,0.2437923984634358
30,1790565569.5188656,-0.21388990752551018,-0.40529595822704084,0.19311677893813686,0.49730050935414066,-0.09882399283673803,-0.208087747457907,0.10997780491227153,0.2552681135113099
31,1790565569.5388656,-0.18993971221301018,-0.4388262316645409,0.1835367008131369,0.5121828544746821,-0.10152843641739646,-0.2160443385792157,0.11395640934072694,0.2645169991953701
32,1790565569.564107,-0.12287916533801017,-0.39571588010204084,0.1787466617506369,0.4512656824156867,-0.10502185224453427,-0.22615972124593195,0.11891033464100645,0.27625617938309827
33,1790565569.584107,-0.10371900908801018,-0.35260552853954086,0.15958650550063688,0.40069457737877173,-0.10771455335755795,-0.2340948795513111,0.12275428645420879,0.28543204529282096
34,1790565569.5943034,-0.16119947783801017,-0.36218560666454086,0.15958650550063688,0.4273541131990114,-0.1090840258966439,-0.23808020061737883,0.12466414307905195,0.29003905806195374
35,1790565569.6143034,-0.19472975127551018,-0.4388262316645409,0.12126619300063687,0.4951703012031225,-0.11190116653402002,-0.24592622693289812,0.12826962211101262,0.2990897459319322
36,1790565569.6386542,-0.1420393215880102,-0.4196660754145409,0.14042634925063688,0.4647734322171257,-0.11543171006727085,-0.25561406346486104,0.13247891417714394,0.31018331971856183
37,1790565569.6586542,-0.09892897002551018,-0.37176568478954086,0.20269685706313686,0.43483638458691365,-0.11825792642889923,-0.2635645406336328,0.13593221476953382,0.3192628560525504
38,1790565569.6840632,-0.1516193997130102,-0.31428521603954085,0.20269685706313686,0.40354634833390346,-0.12178737236477397,-0.2734575135039728,0.14043392289803402,0.33065520177342217
39,1790565569.7040632,-0.22826002471301018,-0.30470513791454085,0.20748689612563687,0.43358813638907856,-0.12471858114603378,-0.2810049319682327,0.144061084111625,0.33951744024271796
40,1790565569.7143576,-0.18035963408801017,-0.24722466916454083,0.23143709143813687,0.3836831530641163,-0.12631651425818788,-0.28473316877779076,0.14598690361237668,0.34400728946188075
41,1790565569.7343576,-0.08934889190051018,-0.21369439572704085,0.2649673648756369,0.35193212939163865,-0.12935986457392618,-0.2915812663891211,0.14991176111399543,0.35245871473403484
42,1790565569.7586365,-0.06060865752551017,-0.26159478635204086,0.2601773258131369,0.3738950153196612,-0.13277321587984653,-0.29951296048739096,0.15491788280651633,0.3624034916612301
43,1790565569.7786365,-0.11808912627551017,-0.31428521603954085,0.23622713050063687,0.41051613360512296,-0.13543127859621934,-0.30593052332059173,0.15916775716788079,0.3704989760353885
44,1790565569.8033757,-0.07497877471301018,-0.36218560666454086,0.19311677893813686,0.4172461151884665,-0.13858424517712156,-0.31393323019192737,0.1644327831215121,0.38052306920229745
45,1790565569.8233757,0.03519212372448983,-0.34302545041454086,0.17395662268813689,0.3862199525935982,-0.14081053674827082,-0.3204902343921244,0.16860133988741488,0.38854601968349456
46,1790565569.8486624,0.05435227997448983,-0.34302545041454086,0.1883267398756369,0.39507922107181204,-0.14303327720355405,-0.32883804236219305,0.17376829463776083,0.3984826178310716
47,1790565569.8686624,-0.007918227838010173,-0.34302545041454086,0.1835367008131369,0.389120647755377,-0.14445795284609309,-0.3354792673310393,0.1777997823769597,0.40623540166109257
48,1790565569.8787136,-0.041448501275510176,-0.36218560666454086,0.19311677893813686,0.412541491537989,-0.1451037585258156,-0.3388478751677238,0.1798058853557258,0.41012576077656465
49,1790565569.8987136,0.016031967474489827,-0.3286553332270408,0.1787466617506369,0.3744619087793536,-0.14623415396148595,-0.3455815638695819,0.18375666260507206,0.41782479117823035
50,1790565569.924344,0.03998216278698983,-0.2999150988520408,0.19311677893813686,0.3589453024737836,-0.14735781424655828,-0.35412483716457477,0.18877505692230623,0.4274982430751964
51,1790565569.944344,-0.027078384088010176,-0.27117486447704087,0.24580720862563687,0.36700167550201546,-0.14808375135126678,-0.3606479879163103,0.19276200427313525,0.43491718624784553
52,1790565569.969175,-0.012708266900510174,-0.3094951769770408,0.2505972476881369,0.3984316066384968,-0.14892394380213558,-0.3686134041145475,0.1978939817225156,0.4440903182152114
53,1790565569.989175,-0.04623854033801018,-0.37176568478954086,0.28891756018813686,0.4730973299276711,-0.14958758141845357,-0.3750886244475719,0.2022167377017265,0.4516187880406693
54,1790565569.9989371,-0.04623854033801018,-0.3094951769770408,0.26975740393813685,0.4131516963103053,-0.1499306237801819,-0.3782738998347625,0.20441923089391378,0.45536530083282983
55,1790565570.018937,-0.06539869658801017,-0.21848443478954085,0.2601773258131369,0.34598363924901265,-0.15069546581907817,-0.38461282195812524,0.20904963332539153,0.4629664085292821
56,1790565570.0448387,-0.08455885283801018,-0.21369439572704085,0.22185701331313687,0.31943078861413904,-0.15182872711580753,-0.39243037415115045,0.21508326783210527,0.47256150185489654
57,1790565570.0648386,-0.06539869658801017,-0.31428521603954085,0.22664705237563687,0.39296446771558896,-0.15279745729171268,-0.3983532415310564,0.21971608224205458,0.47990366198739326
58,1790565570.088917,-0.022288345025510175,-0.41008599728954087,0.21706697425063687,0.46452703560423714,-0.1539471416267393,-0.4057224250751695,0.22525828118250069,0.48892913787706943
59,1790565570.108917,-0.022288345025510175,-0.49630670041454084,0.20269685706313686,0.5365660509793913,-0.15482571502157536,-0.4122848569233089,0.22980086958460394,0.49674766727389424
60,1790565570.118758,-0.1324592434630102,-0.4484063097895409,0.22185701331313687,0.5175270081784061,-0.15530738573164557,-0.4157268043513861,0.2320141197135264,0.500779104661383
61,1790565570.138758,-0.16598951690051017,-0.36697564572704083,0.16916658362563688,0.4368534963728835,-0.15658713071018543,-0.4228957410678293,0.23642398033859036,0.5091725010215098
62,1790565570.1643274,-0.09892897002551018,-0.37176568478954086,0.12605623206313687,0.40482939510280125,-0.1584858686629262,-0.4321029304056399,0.24178233667398857,0.5198936538932915
63,1790565570.1843274,-0.04623854033801018,-0.38134576291454086,0.10210603675063687,0.3974773405445717,-0.1599660062165098,-0.43935404757563906,0.24568711278346073,0.5281886591492005
64,1790565570.2084575,-0.09413893096301018,-0.28554498166454084,0.14042634925063688,0.3318397722403437,-0.1617379816394286,-0.447997200086296,0.25013050462169645,0.5379832110133749
65,1790565570.2284575,-0.19472975127551018,-0.29512505978954084,0.19311677893813686,0.40288033863052103,-0.16341966473723954,-0.45495742136158906,0.253761248073184,0.545973454573094
66,1790565570.239133,-0.17077955596301017,-0.31428521603954085,0.16437654456313688,0.3936502281956162,-0.16447530250431627,-0.45860324581835926,0.2556947685908807,0.5502262052045185
67,1790565570.2591329,-0.07976881377551018,-0.3382354113520408,0.13563631018813688,0.37304619792337884,-0.16653216466097379,-0.4653877830580866,0.2592238031403111,0.5581359427602894
68,1790565570.2842128,-0.09892897002551018,-0.30470513791454085,0.16437654456313688,0.3600719519545289,-0.16906070318689168,-0.4738287877910429,0.26354972289871426,0.567938111013484
69,1790565570.3042128,-0.1420393215880102,-0.29033502072704087,0.20748689612563687,0.3840838517844824,-0.17113607764485056,-0.4804429237520376,0.2670397610147678,0.5756936633470051
70,1790565570.343796,-0.19951979033801018,-0.20890435666454085,0.22664705237563687,0.3671757934838759,-0.17564145527084918,-0.49305191656954084,0.274199840811697,0.5908770311526073
71,1790565570.363796,-0.1276692044005102,-0.20890435666454085,0.21706697425063687,0.3271979940280985,-0.1780671837931767,-0.49909387187280474,0.27794048401220767,0.5983757411008245
72,1790565570.3588593,-0.05102857940051018,-0.19932427853954085,0.19790681800063686,0.28548413711111836,-0.1780671837931767,-0.49909387187280474,0.27794048401220767,0.5983757411008245
73,1790565570.3788593,-0.05102857940051018,-0.20890435666454085,0.15958650550063688,0.26779245487310627,-0.1802006976998274,-0.5045920179617491,0.28170842927896955,0.605347036970562
74,1790565570.4035115,-0.09413893096301018,-0.24243463010204083,0.16437654456313688,0.3076626993934895,-0.18270442854171517,-0.5111870316638335,0.2862551670176154,0.6137060454275473
75,1790565570.4235115,-0.05102857940051018,-0.29512505978954084,0.23622713050063687,0.38145245315239373,-0.18464873179635105,-0.5165412376382765,0.2899914649072917,0.6204877549589196
76,1790565570.4481733,0.03998216278698983,-0.22806451291454083,0.31765779456313686,0.3930883740824551,-0.1867070396248376,-0.5231208324088168,0.2949320622892801,0.6288877843556606
77,1790565570.4681733,0.09267259247448983,-0.09394341916454084,0.29849763831313686,0.32636546306064274,-0.18792690095093448,-0.5281393237318678,0.2992619723884366,0.6354568384168938
78,1790565570.4926646,0.07351243622448983,-0.13226373166454083,0.4134585758131369,0.44027919199857357,-0.18889137556792782,-0.5337784875860355,0.3050766519876702,0.6431727521914975
79,1790565570.5126646,0.02561204559948983,-0.20411431760204085,0.7248111148756369,0.7534386396895244,-0.1894121530855745,-0.538197328001901,0.31082015824935477,0.649724940554888
80,1790565570.523403,-0.041448501275510176,-0.13705377072704084,1.0553238101881368,1.0649929852719655,-0.1896625805277068,-0.5404887733032262,0.31487506841988533,0.6536408166812127
81,1790565570.543403,0.030402084661989827,-0.11310357541454083,0.868512286750637,0.8763733780530808,-0.1900756033550556,-0.5444916100628299,0.3241801729522194,0.6615834285673516
82,1790565570.568808,0.0016618502869898265,-0.14663384885204084,0.3655581851881369,0.39387438877589354,-0.19046045842282303,-0.5493084562181889,0.3365784694845501,0.6717886813693753
83,1790565570.588808,0.27948411591198985,-0.23764459103954083,0.006305255500636866,0.3669142664770416,-0.19029626739039432,-0.5531080877872413,0.34543264048941247,0.6793121044658801
84,1790565570.6138816,0.47108567841198984,-0.5346270129145408,0.07815584143813686,0.7168375652082642,-0.18870984368957233,-0.5586093419014324,0.3550267053701711,0.6882585004857495
85,1790565570.6338816,0.6291569674744899,-0.6974883410395408,0.011095294563136867,0.9393889403060002,-0.18598387769860342,-0.5641873923344584,0.36166540829340904,0.6954849272191335
86,1790565570.6439333,0.6722673190369899,-0.9944707629145408,0.07815584143813686,1.202923015860913,-0.1838382310991473,-0.5678458622461159,0.3645687389375583,0.6993967285412621
87,1790565570.6639333,0.46629563934948987,-1.0806914660395408,0.19311677893813686,1.1927362484449289,-0.1785015634789648,-0.5771459898590945,0.36988590543198163,0.7083614083305962
88,1790565570.6886542,0.43276536591198983,-0.9034600207270409,0.21706697425063687,1.0250092401024347,-0.17122772909028275,-0.5905958236877223,0.37623283947754127,0.7208838406207534
89,1790565570.7086542,0.48545579559948987,-0.7741289660395408,0.3224478336256369,0.9689765688356188,-0.1648483546174507,-0.6023613377014676,0.3814067474963534,0.7317685892502693
90,1790565570.734179,0.5429362643494898,-0.5250469347895409,0.14042634925063688,0.7682275902631546,-0.1559592454126292,-0.6176117495730619,0.38790555070101396,0.7458138344821931
91,1790565570.754179,0.6291569674744899,-0.5585772082270408,-0.060755291374363134,0.8435272329346546,-0.14828081055898762,-0.6293942158062248,0.3923533697377922,0.7563500805942733
92,1790565570.7638717,0.5668864596619898,-0.6208477160395408,-0.10865568199936314,0.8477135140425484,-0.14424830118159396,-0.6351052542109956,0.39406244573543153,0.7612170961422103
93,1790565570.7838717,0.5525163424744899,-0.48193658322704086,-0.15176603356186313,0.7487122998168542,-0.1354965754826635,-0.6467760262801463,0.39666936400363945,0.7707302605174637
94,1790565570.808493,0.6387370455994898,-0.35260552853954086,-0.20924650231186315,0.7590123654510262,-0.12413897337693587,-0.6605294295585595,0.3987306103883089,0.781470224438954
95,1790565570.8284929,0.5908366549744899,-0.3094951769770408,-0.17092618981186314,0.6885426492215971,-0.11445264614620901,-0.6710187526674067,0.3995835597984736,0.7893241386796758
96,1790565570.8689573,0.5525163424744899,-0.22806451291454083,-0.18050626793686314,0.6243959028667863,-0.09432481233056499,-0.6906890498048186,0.39998387210372754,0.803701207965106
97,1790565570.8889573,0.47587571747448987,-0.25201470822704086,-0.11823576012436314,0.5513155236493953,-0.0843260806060632,-0.6996730918468885,0.3997039394815229,0.8101953854237962
98,1790565570.8840353,0.3944450534119898,-0.19932427853954085,-0.022434978874363135,0.4425159844046191,-0.0843260806060632,-0.6996730918468885,0.3997039394815229,0.8101953854237962
99,1790565570.9040353,0.30822435028698986,-0.041252989477040834,0.015885333625636867,0.31137823153686844,-0.07493833591011184,-0.707100384439489,0.39931250868229934,0.815510384638725
100,1790565570.92886,0.2746940768494898,0.13597845583545917,0.02546541175063687,0.30756375518454515,-0.06394851636777868,-0.7147601653567411,0.39897651940257167,0.8210686754230895
101,1790565570.94886,0.27948411591198985,0.10723822146045918,0.10210603675063687,0.31628634167480496,-0.05559138404276163,-0.7196407847324483,0.3989377897904671,0.8246966843349297
102,1790565570.9739597,0.30822435028698986,0.2365692761479592,0.14042634925063688,0.413142629234588,-0.045570141529415686,-0.7241999281793522,0.39935303808971434,0.8282662753037061
103,1790565570.9939597,0.28906419403698985,0.3036298230229592,0.13563631018813688,0.44062045611235584,-0.037886853882744466,-0.726477523660902,0.4000483780364642,0.8302070289097863
104,1790565571.0034187,0.2842741549744898,0.37069036989795917,0.13084627112563688,0.48512255378309277,-0.03439136420712944,-0.7269147562615063,0.4005169605086626,0.8306633881770943
105,1790565571.0234187,0.22200364716198984,0.4138007214604592,0.11647615393813687,0.4838216105866318,-0.027349767205593355,-0.7265238260560671,0.4017300918711371,0.8306454997820303
106,1790565571.0490599,0.17410325653698983,0.3994306042729592,0.06857576331313688,0.4410888650608011,-0.018914422325234326,-0.7245338918101464,0.40340797593035144,0.8294848466353543
107,1790565571.0690598,0.17410325653698983,0.49044134646045917,0.015885333625636867,0.5206697629775815,-0.0127995233995509,-0.7218797691321146,0.4046470958338092,0.8276554241036705
108,1790565571.1091278,0.16452317841198982,0.4090106823979592,0.03504548987563687,0.4422508348336394,-0.0013689322854251798,-0.7146571585790724,0.4069102299376724,0.8223823098242355
109,1790565571.1291277,-0.07018873565051018,0.02580755739795917,0.4517788883131369,0.4579264706877295,0.0036223320103891104,-0.7109405279633936,0.4086006666768315,0.8200024758491974
110,1790565571.123813,-0.20430982940051018,-0.33344537228954085,0.969103107063137,1.0450306956307083,0.0036223320103891104,-0.7109405279633936,0.4086006666768315,0.8200024758491974
111,1790565571.143813,0.13099290497448984,0.03538763552295917,0.811031818000637,0.82230410172331,0.006768559845688901,-0.7090945863622597,0.4143038298783711,0.8212847309322968
112,1790565571.1691399,0.26990403778698985,0.3802704480229592,0.2841275211256369,0.5460606665145387,0.010916663251341139,-0.7063180682130314,0.4225229782572136,0.8231221380670535
113,1790565571.1891398,0.14057298309948985,0.3371600964604592,-0.07033536949936314,0.3720010193874844,0.014316670921039231,-0.7033782670646718,0.4283605284176769,0.8236739014630933
114,1790565571.213522,0.16931321747448982,-0.05083306760204083,-0.11823576012436314,0.21267501344912026,0.01840657382074486,-0.6998083306436393,0.4340648041475589,0.8237006469572028
115,1790565571.233522,0.2938542330994898,-0.36697564572704083,0.058995685188136866,0.47381634178032067,0.02195293440432677,-0.6979459701726235,0.43795314614985287,0.8242654104302326
116,1790565571.258935,0.32738450653698986,-0.5010967394770408,0.23622713050063687,0.6434918916502014,0.02696726634976223,-0.6975890449256392,0.44271545777267657,0.8266526995089988
117,1790565571.278935,0.12141282684948983,-0.34302545041454086,0.22664705237563687,0.4286915213836722,0.030994785867120882,-0.698616462798257,0.4465955042125331,0.8297428416241648
118,1790565571.2885468,0.016031967474489827,-0.06520318478954083,0.11168611487563687,0.13031602949682,0.03273912526033471,-0.6993304541842307,0.4484244183857439,0.8313960509149216
119,1790565571.3085468,0.04477220184948983,0.06412786989795917,0.08294588050063686,0.11400417908185194,0.03591545622427042,-0.7005948675815019,0.4519510740300356,0.8344955732622207
120,1790565571.3338392,0.10704270966198984,0.011437440210459171,0.17395662268813689,0.20457239136161973,0.039617765148906595,-0.7018106787078133,0.4562293004980997,0.838005352427239
121,1790565571.3538392,0.03998216278698983,-0.09394341916454084,0.3607681461256369,0.37493678747807463,0.04232676519628296,-0.7027516305592414,0.4599069459685802,0.84093151222665
122,1790565571.378646,-0.12287916533801017,-0.13705377072704084,0.4996792789381369,0.5325057813252385,0.045028599405111,-0.7041734357142847,0.46538510815668166,0.8452639240048354
123,1790565571.3986459,-0.3240608059630102,-0.06520318478954083,0.6194302555006369,0.7021116027368292,0.046209749044286444,-0.7054511797071198,0.47081793913057135,0.8493916880121098
124,1790565571.4081156,-0.4486018215880102,0.00185736208545917,0.8349820133131369,0.9478618077981922,0.046136351024195124,-0.706010416672793,0.474037430346676,0.8516400393981005
125,1790565571.4281156,-0.3480110012755102,0.09286810427295918,0.7822915836256369,0.8612295069327011,0.04480966963314768,-0.7068722644905079,0.4822429326814582,0.8568748747161302
126,1790565571.4539206,-0.10850904815051018,0.18866888552295918,0.4230386539381369,0.4757434861569793,0.04247114300786802,-0.7072725849606362,0.4935747827103647,0.863512810300391
127,1790565571.4739206,0.13578294403698984,0.07370794802295917,0.07815584143813686,0.17314215270699032,0.040971463999730756,-0.7071427458142902,0.5017918437606357,0.8680579348665348
128,1790565571.4991903,0.40881517059948985,-0.08915338010204084,-0.036805096061863135,0.4200390267487438,0.04039300007431684,-0.7070325757432339,0.5106950511023445,0.8731186018162376
129,1790565571.5191903,0.37528489716198987,-0.36218560666454086,0.16916658362563688,0.5483014688366395,0.04117999290488148,-0.7076354677016233,0.5168831419032412,0.8772752870956227
130,1790565571.5282505,0.20763352997448983,-0.36697564572704083,0.3320279117506369,0.5366799246365889,0.041879128999195346,-0.7083630881413213,0.5196064736097116,0.8795015710639523
131,1790565571.5482504,0.15494310028698982,-0.19932427853954085,0.20269685706313686,0.32376464940621047,0.043734816031808725,-0.7105778063677458,0.5255184779738351,0.8848746938000148
132,1790565571.5741568,0.24595384247448984,-0.14184380978954084,-0.022434978874363135,0.28480921207129295,0.04655689673330729,-0.7136791359046705,0.5323779562537,0.8915894469787872
133,1790565571.5941567,0.37528489716198987,-0.07478326291454084,-0.09428556481186313,0.3941079270731847,0.04934063094969239,-0.7160391990202122,0.5367041324337241,0.8962131209525205
134,1790565571.6188602,0.41839524872448985,-0.18974420041454085,0.02546541175063687,0.4601151300944261,0.05373377409450549,-0.7190071355814408,0.5411186768046694,0.9014810047262805
135,1790565571.6388602,0.26032395966198985,-0.13226373166454083,0.07336580237563688,0.3010727480961171,0.05777504112844982,-0.7215325648139987,0.5443048401630748,0.9056571959021867
136,1790565571.6482632,0.19326341278698983,0.02101751833545917,0.04941560706313687,0.20058510667662774,0.059709923277455945,-0.7226202492406297,0.5456647069974874,0.9074664026910546
137,1790565571.6682632,0.09746263153698984,0.2030390027104592,0.10689607581313687,0.2493001648455548,0.06364415070841956,-0.7242506261868258,0.5483577234723842,0.9106512726303198
138,1790565571.6939125,0.06872239716198983,0.17429876833545918,0.20748689612563687,0.27955972631764964,0.06825252880305312,-0.7253020106951085,0.5518981497407959,0.9139545842620916
139,1790565571.7139125,0.09267259247448983,0.1982489636479592,0.16437654456313688,0.2736978432248775,0.0715489860850227,-0.7254400317744284,0.5548024866799398,0.9160722113113808
140,1790565571.7387583,0.07351243622448983,0.2653095105229592,0.11647615393813687,0.29893127820589876,0.07533955281372855,-0.7247219625896981,0.5583926703485795,0.9179871162369622
141,1790565571.7587583,0.16931321747448982,0.2892597058354592,0.06857576331313688,0.3421122306284293,0.0782973670426562,-0.7233987932973757,0.5611267182473596,0.9188577070259374
142,1790565571.76879,0.22679368622448984,0.2988397839604592,0.006305255500636866,0.37520707460781516,0.07985644615061474,-0.7223921903329555,0.5623487119721172,0.9189470074506747
143,1790565571.78879,0.13578294403698984,0.2174091198979592,0.12605623206313687,0.28564647196860826,0.08304236717831322,-0.7199120017675658,0.5646180768289241,0.918674533073359
144,1790565571.814143,0.15494310028698982,0.15992865114795918,0.20748689612563687,0.30436055895664377,0.08702800953382295,-0.7165220975360741,0.5676975439048585,0.9182909626346778
145,1790565571.834143,0.23158372528698984,0.15992865114795918,0.19790681800063686,0.3440571229998629,0.09028030251477417,-0.7137692706024302,0.5703705170880444,0.9181174388071319
146,1790565571.8591623,0.24595384247448984,0.13597845583545917,0.19790681800063686,0.3437303328053829,0.0946346276430146,-0.710286862105419,0.5739554851905189,0.9180893410823254
147,1790565571.8791623,0.23637376434948984,0.13597845583545917,0.23622713050063687,0.3607851910884217,0.09831675986025401,-0.7075127284657923,0.5770425705217072,0.9182693365265052
148,1790565571.9042356,0.37049485809948984,0.10244818239795918,0.2505972476881369,0.458869317457243,0.10338171272670013,-0.7041082072128355,0.5812476891933193,0.9188607196868047
149,1790565571.9242356,0.40881517059948985,0.09286810427295918,0.2553872867506369,0.49089407690192727,0.10798477393760195,-0.7015069278337647,0.5848577849131883,0.9196908772923014
150,1790565571.9342875,0.4040251315369898,-0.0029326769770408306,0.22185701331313687,0.46093973777920144,0.11056404109898303,-0.7003278359135751,0.586759843366537,0.9203100557567824
151,1790565571.9542875,0.38007493622448985,0.02580755739795917,0.16916658362563688,0.4168216887116943,0.1161022722007009,-0.6982994317138411,0.5905631582624701,0.921882138800282
152,1790565571.9791784,0.38965501434948985,-0.017302794164540832,0.15479646643813688,0.4196336055600586,0.1233979141823272,-0.696137778597271,0.5951913289837192,0.9241685831666742
153,1790565571.9991784,0.37528489716198987,-0.07957330197704084,0.14042634925063688,0.4085219993944959,0.1295280996773707,-0.6948067270058118,0.5987951102921578,0.9263312045960435
154,1790565572.023574,0.43755540497448986,-0.07957330197704084,0.10689607581313687,0.45739852845649503,0.1373712247902898,-0.693717855208917,0.6029840974908314,0.9293573789790861
155,1790565572.043574,0.44234544403698983,-0.03646295041454083,0.12605623206313687,0.4613991896992997,0.14415650422213092,-0.6931331363732135,0.6062525934059801,0.9320712684444198
156,1790565572.0537949,0.3944450534119898,0.04496771364795917,0.19311677893813686,0.44147829588707255,0.14774536206260402,-0.6928726250778408,0.6079170368270314,0.9335225172741288
157,1790565572.0737948,0.35133470184948984,0.16950872927295918,0.2601773258131369,0.46889393565142057,0.15483330188491976,-0.6921176077986932,0.6113654108353439,0.9363587987323242
158,1790565572.0983913,0.36091477997448984,0.19345892458545919,0.27933748206313685,0.49569674478573095,0.16355659226209251,-0.69065877155174,0.6159654307074722,0.9397732223363192
159,1790565572.1183913,0.3848649752869898,0.2269891980229592,0.3224478336256369,0.5510152000005335,0.17070441457303803,-0.6890198166677747,0.6200474387651779,0.9425216874082392
160,1790565572.1435654,0.45671556122448986,0.36111029177295917,0.3607681461256369,0.6849404367883979,0.17994083905698358,-0.6861559280855515,0.6257047405424253,0.945883230396194
161,1790565572.1635654,0.44713548309948986,0.4473309948979592,0.3607681461256369,0.7281406557128514,0.1875339301109035,-0.6830092962739654,0.6306073943137654,0.9483334642954954
162,1790565572.1880414,0.38007493622448985,0.48086126833545917,0.3511880680006369,0.7064117606872471,0.19695102866664269,-0.6780321793675064,0.6370142381685082,0.950949253945816
163,1790565572.2080414,0.35612474091198987,0.4377509167729592,0.4134585758131369,0.699570361106462,0.20459602769446664,-0.6731973769130568,0.642611117697505,0.9528920670356176
164,1790565572.218877,0.36570481903698987,0.4473309948979592,0.34639802893813687,0.6736739776149155,0.20870327975411854,-0.6702515929539079,0.6458060826352376,0.9538656892907137
165,1790565572.238877,0.33217454559948983,0.4760712292729592,0.34639802893813687,0.6759995107527226,0.21619394141158893,-0.6642448678040705,0.6518578374378213,0.9554473847032279
166,1790565572.2640872,0.30822435028698986,0.6437225964604592,0.3416079898756369,0.791250308088727,0.22543051752035917,-0.6556918077743431,0.6596427362824019,0.9570157807173387
167,1790565572.2840872,0.23637376434948984,0.8161640027104592,0.22185701331313687,0.8781894841942324,0.2324759247743544,-0.6477343852769999,0.6657375326634257,0.9575026641564242
168,1790565572.293885,0.20763352997448983,0.9071747448979592,0.17395662268813689,0.9467516079349471,0.23573595687716128,-0.6431544846578402,0.6685663089488013,0.9571833899319957
169,1790565572.313885,0.21721360809948984,0.8640643933354593,0.1835367008131369,0.9096563900282045,0.24202964247791425,-0.6325511359222042,0.6740107007125627,0.9555049513579182
170,1790565572.338965,0.14536302216198985,0.8113739636479592,0.1835367008131369,0.8444784411950597,0.24942008485960124,-0.6180975360065425,0.6805043395873849,0.9525445390878018
171,1790565572.358965,0.06872239716198983,0.8209540417729592,0.16916658362563688,0.8410146488561405,0.25475068529159345,-0.6058519450040479,0.6854349851995507,0.9496186654953833
172,1790565572.3836377,0.04477220184948983,0.8688544323979592,0.24101716956313687,0.9027745293151869,0.2605503309287167,-0.5898843910387827,0.6913642513443745,0.9454282615699758
173,1790565572.4036376,0.10704270966198984,0.9838153698979593,0.22185701331313687,1.0141850709291005,0.26477411736666295,-0.5761034457364308,0.6961439371978909,0.9416033637971273
174,1790565572.4141982,0.05914231903698983,1.0317157605229592,0.14042634925063688,1.0429068913265473,0.26680147146593847,-0.5683218732611064,0.6985761087205886,0.9392450992571655
175,1790565572.4341981,-0.04623854033801018,1.0317157605229592,0.12126619300063687,1.0398465765145,0.27008439852646515,-0.5527001962098185,0.7028838810355329,0.9340604045977687
176,1790565572.4587736,-0.07018873565051018,0.9981854870854592,0.3032876773756369,1.0456022859998735,0.273298685623265,-0.5326425684574143,0.708165691542827,0.9273073514076365
177,1790565572.4787736,-0.10850904815051018,0.9886054089604592,0.5427896305006369,1.1330204989917105,0.2752541093691058,-0.5157876016634438,0.7130884774603653,0.9221154219733282
178,1790565572.504143,-0.06060865752551017,1.2281073620854595,0.5332095523756369,1.3402363705407256,0.27704066758532575,-0.49339681201771,0.7204435385283872,0.9160954305162023
179,1790565572.524143,0.04477220184948983,1.2807977917729594,0.5236294742506369,1.3844260037188476,0.2782140817117351,-0.47462943827959087,0.7269574060317501,0.9116705814759598
180,1790565572.548688,0.07830247528698983,1.1610468152104592,0.5858999820631369,1.3028583091526122,0.2796647068880979,-0.45055691323157926,0.7357949234048531,0.906977425103805
181,1790565572.568688,0.20763352997448983,1.2568475964604593,0.4900992008131369,1.364908344957923,0.2810983222569844,-0.43025729864232737,0.7435298386188026,0.903866268165367
182,1790565572.578533,0.33217454559948983,1.3765985730229593,0.2601773258131369,1.4398110295661548,0.2820967480720645,-0.41981918774294436,0.7473202194265921,0.9023936148010961
183,1790565572.598533,0.36570481903698987,1.2999579480229593,0.11168611487563687,1.3550293242402374,0.28486760786470067,-0.39778024458549316,0.7544230919569102,0.8991845631853763
184,1790565572.6237006,0.4231852877869898,1.2137372448979593,0.04941560706313687,1.2863459059184916,0.2893204896889294,-0.36946196937087544,0.7623246183388329,0.895180046856885
185,1790565572.6437006,0.6243669284119898,1.1706268933354593,-0.11344572106186314,1.331567240631166,0.29389959664183374,-0.34675733182864227,0.7675658031621682,0.8920621515719271
186,1790565572.669557,0.7441179049744898,1.1849970105229592,-0.38168790856186313,1.4503844424821661,0.3015854033873207,-0.31723904506627415,0.7723651705606921,0.8877738022413713
187,1790565572.689557,0.7872282565369899,1.1897870495854592,-0.41042814293686314,1.484510967209789,0.30893564171103255,-0.2942693541358694,0.7743324588757148,0.8840963976690889
188,1790565572.6986072,0.7345378268494899,1.2712177136479594,-0.27630704918686316,1.4939497581898356,0.31279568435886557,-0.2837640694709668,0.7746230105545524,0.8822720644771956
189,1790565572.7186072,0.8303386080994899,1.2328974011479594,-0.16613615074936314,1.4956936271990349,0.32239379386754663,-0.2602745206030195,0.7745051256602394,0.87837279902865
190,1790565572.7441802,1.02194017059949,1.2185272839604593,-0.11344572106186314,1.5943777424651333,0.33637816584048574,-0.23004303210030916,0.7738407706101527,0.8745853905312094
191,1790565572.7641802,1.30455247528699,1.4915595105229593,-0.5205990413743632,2.0488119230639033,0.3491641887918542,-0.20588114323556161,0.7724480659907595,0.8723409256291489
192,1790565572.7888238,1.18001145966199,1.4436591198979594,-0.6738802913743631,1.9825976259697697,0.36714786953016165,-0.17514994146345436,0.768781682056295,0.8697702770045056
193,1790565572.8088238,1.0075700534119898,0.9838153698979593,-0.3242074398118632,1.4450607456468607,0.3828349562487682,-0.15030936831175815,0.7647553631029345,0.8683353472725713
194,1790565572.8194034,0.5812565768494898,1.0796161511479592,-0.26672697106186316,1.2548201142164386,0.39114907012505024,-0.13750296213469412,0.7624761097893651,0.8679138653432323
195,1790565572.8394034,0.7249577487244898,1.2951679089604593,-0.7074105648118632,1.644218159808524,0.4064680619207237,-0.11336260265925138,0.75735244877994,0.8669775641366045
196,1790565572.863492,0.9452995455994899,1.1945770886479592,-0.8990121273118632,1.7688494725914463,0.42516871057314903,-0.08415040091445417,0.7492047737275689,0.8655388584001733
197,1790565572.883492,1.13211106903699,0.9790253308354592,-0.9038021663743632,1.7484348506583105,0.4414823711150573,-0.06027416882900159,0.740750522807524,0.8644368088374188
198,1790565572.9088898,1.5440544284119901,0.6437225964604592,-0.9564925960618632,1.9270082888803657,0.46418909277676673,-0.03141094259894861,0.7280813973301712,0.8640374310793062
199,1790565572.9288898,1.77397630341199,0.17908880739795918,-0.7074105648118632,1.9182008323452295,0.48436486162475517,-0.010857147354315963,0.7171054751192515,0.8654290607966946
200,1790565572.9384394,1.46262376434949,0.09286810427295918,-0.3625277523118631,1.5097414123045765,0.49487150387546625,-0.002320420306336184,0.7118844840989758,0.8669963716182604
201,1790565572.9584394,1.3476628268494901,0.09286810427295918,-0.29546720543686317,1.3827944348860686,0.5177905838856905,0.013155045536730565,0.701603218752875,0.8720821180073309
202,1790565572.9840584,1.3476628268494901,-0.13226373166454083,0.08773591956313687,1.356976927278934,0.5479239752714394,0.029929188780332884,0.6900097355973771,0.881606416853614
203,1790565573.0040584,1.37640306122449,-0.11789361447704083,0.6002700992506369,1.5062232514926124,0.572005642445256,0.040684747813567436,0.6833486722919382,0.8920824578574664
204,1790565573.0281975,1.65422532684949,-0.03646295041454083,0.6577505680006369,1.7805692315797204,0.6021981618473641,0.05143958993609181,0.6787925517298355,0.9088718203514943
205,1790565573.0481975,1.72607591278699,0.00185736208545917,0.5571597476881369,1.8137718960611517,0.6285316609140895,0.05896176857206459,0.6774062720483203,0.9259631722347129
206,1790565573.0739956,1.5823747409119902,0.1982489636479592,0.4134585758131369,1.6474709302980752,0.6638056001757413,0.06759640921411975,0.6777643347680056,0.9510897133534965
207,1790565573.0939956,1.47699388153699,0.13597845583545917,0.32723787268813687,1.5189093757925642,0.691638872369268,0.07378765925171292,0.6791113284935435,0.9721116936434543
208,1790565573.1044345,1.45304368622449,0.00185736208545917,0.3895083805006369,1.5043457655575727,0.7062812102450151,0.07664234936023777,0.6802700825087451,0.9836028582802486
209,1790565573.1244345,1.45783372528699,0.030597596460459172,0.2553872867506369,1.4803506509361732,0.7344928556942233,0.08133995040404034,0.6831244786550915,1.0063572903970923
210,1790565573.1492243,1.37640306122449,0.07370794802295917,0.03504548987563687,1.3788206681474302,0.7694852551977538,0.08648312084531036,0.6866717619208419,1.0349420258050062
211,1790565573.1692243,1.10337083466199,0.09286810427295918,0.24580720862563687,1.1342278727778987,0.7972014747878465,0.09025999088200026,0.6895256432196173,1.0578859437649049
212,1790565573.1790977,1.1512712252869899,0.11202826052295918,0.3847183414381369,1.2190094206233675,0.8105013126002267,0.09199656576834309,0.6911900942753294,1.0691676633083318
213,1790565573.1990976,1.3476628268494901,0.2269891980229592,0.14521638831313688,1.3743387465707924,0.8371493446424569,0.09549512268867623,0.6948508441598972,1.092133709452438
214,1790565573.22412,1.34287278778699,0.24614935427295917,-0.11823576012436314,1.3703563491880435,0.870537373279324,0.10010357899262463,0.6987944929067422,1.1207898055032393
215,1790565573.24412,1.2039616549744898,0.3563202527104592,-0.34815763512436315,1.3029587591462544,0.8970412540878474,0.10413824099507246,0.7007741955407845,1.1430714141771192
216,1790565573.2687168,1.1608513034119898,0.48086126833545917,-0.5301791194993631,1.3637790168394666,0.9291101646257316,0.10990036475834168,0.7012233892331673,1.1692040154705767
217,1790565573.2887168,1.2279118502869901,0.6245624402104591,-0.42958829918686314,1.443049500396686,0.9548574934697696,0.11554094745798325,0.7000941963370467,1.1896362583242301
218,1790565573.3137152,1.24707200653699,0.6437225964604592,0.0015152164381368662,1.403413576449524,0.9868526372061005,0.12391157983386591,0.6980919167470022,1.2151397168248033
219,1790565573.3337152,1.05547044403699,0.34195013552295916,0.6625406070631369,1.2922491282362705,1.0120644940859973,0.1310824704019195,0.6977263650048718,1.2362359138364845
220,1790565573.344106,1.0746306002869899,0.4233807995854592,0.5284195133131369,1.270161175040747,1.0248582455740776,0.13484561826131206,0.6984930579819811,1.2475617485056485
221,1790565573.364106,1.2279118502869901,0.6964130261479592,0.11647615393813687,1.4164481315953643,1.0492434987932997,0.14268207184512371,0.7007147621319881,1.2697524448709325
222,1790565573.388497,1.0027800143494898,0.6628827527104592,0.16437654456313688,1.2132604623172534,1.078602573345226,0.15329215409286595,0.7035316127239488,1.2968572495981718
223,1790565573.408497,0.9500895846619899,0.5287616589604592,0.3942984195631369,1.1566029372865163,1.1019943498160647,0.16247455718524476,0.7063328924684179,1.318975240003342
224,1790565573.4342263,1.10816087372449,0.3084198620854592,0.4182486148756369,1.2239588380448208,1.1315448329019342,0.17413093336955923,0.7109640297545472,1.3476591343615212
225,1790565573.4542263,1.28539231903699,0.3036298230229592,0.30807771643813686,1.3562213545855935,1.1546599845989964,0.1827506986772969,0.7151134393087839,1.37041042355246
226,1790565573.463948,1.36682298309949,0.2700995495854592,0.2601773258131369,1.4173394352386204,1.166144402187083,0.18673049468068656,0.7172422044620116,1.381737103886803
227,1790565573.483948,1.09379075653699,0.3084198620854592,0.21227693518813687,1.1560979749257598,1.1899175876630324,0.194557557657913,0.7216733580685076,1.405193561192727
228,1790565573.5089538,1.02673020966199,0.33237005739795916,0.14042634925063688,1.0882850444856522,1.2191594010173274,0.20407751584715647,0.7270440313700477,1.4340816926221762
229,1790565573.5289538,1.14648118622449,0.3036298230229592,0.04941560706313687,1.1870349961214646,1.2422990031622152,0.21150357412721144,0.7309799987724359,1.4568364128246414
230,1790565573.5533617,1.21354173309949,0.2892597058354592,0.10689607581313687,1.2521108123558307,1.2706227606352052,0.22029222323340344,0.7353490588452375,1.4845029814068822
231,1790565573.5733616,1.06505052216199,0.2700995495854592,0.15958650550063688,1.1102946609714468,1.2937680346607308,0.2272525218520842,0.7387918159898297,1.5070808815626229
232,1790565573.5837271,0.9884098971619899,0.4377509167729592,0.08294588050063686,1.084186335015973,1.305560688781547,0.23086905819454553,0.7404970135807559,1.5185931190563857
233,1790565573.603727,1.13211106903699,0.5575018933354592,-0.0032748226243631343,1.2619407902797655,1.328082087218622,0.23829326022189146,0.7434131405878159,1.540535233565526
234,1790565573.6286972,1.21354173309949,0.4952313855229592,0.07815584143813686,1.3130293213527287,1.3563752642496947,0.24814354432937122,0.7466480509271193,1.568060071557859
235,1790565573.6486971,1.24228196747449,0.5622919323979592,0.12126619300063687,1.3689931312891928,1.3793214111288217,0.2564360474087003,0.7491495586640399,1.590443982935434
236,1790565573.6737788,1.18959153778699,0.5814520886479592,0.13084627112563688,1.3305394788712483,1.4083559786024125,0.2674271336418361,0.7522903465277383,1.6189269902475132
237,1790565573.6937788,1.23270188934949,0.6389325573979592,0.08294588050063686,1.390923714659048,1.4316686421603768,0.27670731457606146,0.7547398168744794,1.6419117607414093
238,1790565573.7043393,1.23270188934949,0.6485126355229592,0.15958650550063688,1.4019951637493768,1.4440845779295872,0.28189217198542493,0.7560312885443466,1.654214851250816
239,1790565573.7243392,1.1656413424744898,0.7443134167729593,0.2745474430006369,1.40999946813187,1.467668875587166,0.29232783085191777,0.7587614596688335,1.6778636540960836
240,1790565573.7487621,1.1656413424744898,0.9502850964604592,0.19790681800063686,1.516881212373511,1.4964190014634062,0.3062637925468267,0.7624607072789985,1.7071653899696695
241,1790565573.768762,1.21833177216199,0.9694452527104592,0.11647615393813687,1.5613209469863785,1.520006995371283,0.3188437598992792,0.765507208532923,1.7314975875005465
242,1790565573.7943344,1.18959153778699,0.8449042370854593,0.04462556800063687,1.4597885593258897,1.5502611984694916,0.3359957493317019,0.769127199172464,1.7628838803380997
243,1790565573.8143344,1.14648118622449,0.8065839245854592,-0.032015056999363134,1.402148958435254,1.5738777291044783,0.3498752990172417,0.7715526165764697,1.7873995835233571
244,1790565573.8239455,1.1273210299744898,0.8401141980229592,-0.032015056999363134,1.4062963891787452,1.5851634893839077,0.35673172312857215,0.7724971799504637,1.79909774703696
245,1790565573.8439455,1.18001145966199,0.8401141980229592,0.06857576331313688,1.4501453533930173,1.6085865232623333,0.37137957607090577,0.7742227467145361,1.8234292566134853
246,1790565573.8686788,1.1225309909119898,0.7682636120854592,0.12605623206313687,1.3660874704258166,1.6374792423097324,0.38976044527087117,0.7763976465658406,1.85365713638903
247,1790565573.8886788,1.0458903659119898,0.6964130261479592,0.07815584143813686,1.2589623092241393,1.6605907520449197,0.40459121163602635,0.778198841928452,1.8779907166674183
248,1790565573.913705,0.9596696627869898,0.7395233777104592,0.05420564612563687,1.212764997815273,1.6889369927440665,0.4230607219749154,0.7803630678381862,1.9079976565979144
249,1790565573.933705,1.06505052216199,0.7970038464604592,-0.012854900749363135,1.330305601921442,1.7112292225067383,0.4379115564808911,0.7818952182822855,1.9316915166851139
250,1790565573.9437528,1.1608513034119898,0.6964130261479592,-0.022434978874363135,1.3539092214395199,1.7224259819161387,0.44537865971216734,0.7825228936246887,1.9435677227083026
251,1790565573.9637527,1.0458903659119898,0.5814520886479592,0.03983552893813687,1.1973136841556482,1.7446802493879412,0.4599292881836062,0.7836109785671443,1.9671020025571642
252,1790565573.988681,0.9117692721619899,0.5814520886479592,0.15000642737563688,1.0917470702071435,1.771917735533447,0.47751922018760834,0.7851186889416273,1.9960281618434095
253,1790565574.008681,0.9261393893494899,0.7491034558354592,0.33681795081313687,1.2378757966933656,1.7932493178031002,0.49151058208360976,0.7868771144468915,2.0190347598151246
254,1790565574.0340166,1.02194017059949,0.8017938855229592,0.5092593570631369,1.3951989965246099,1.8199200282544858,0.5095229105330406,0.7903782076261653,2.048516589312915
255,1790565574.0540166,1.0794206393494898,0.6820429089604592,0.5236294742506369,1.3800432140411056,1.8409679337234102,0.5238348147964231,0.7942767493618974,2.072303404612256
256,1790565574.078702,1.1177409518494898,0.6245624402104591,0.33681795081313687,1.3239597460470645,1.867117751104057,0.5412689136391163,0.7999598611195284,2.1021504496021013
257,1790565574.098702,1.21354173309949,0.6676727917729592,0.21706697425063687,1.4019944957660633,1.8886231618550253,0.5552135357002741,0.8047044535395602,2.126666117486822
258,1790565574.1087549,1.32850267059949,0.6245624402104591,0.24101716956313687,1.487644737004049,1.899727960006809,0.5621456734910599,0.8070769594134535,2.1392398880612746
259,1790565574.1287549,1.36203294403699,0.5143915417729592,0.19311677893813686,1.4686818883601287,1.9225425223712524,0.57557669062344,0.8117401844650068,2.1648049344432705
260,1790565574.1537344,1.35724290497449,0.4617011120854592,0.04941560706313687,1.4344748593913945,1.9518577093531193,0.5916641899790579,0.8171451980692457,2.197166654123534
261,1790565574.1737344,1.29497239716199,0.5287616589604592,-0.017644939811863134,1.3988758863098083,1.9757866232216375,0.6040983095437075,0.8208712626216697,2.2231727728391286
262,1790565574.198789,1.2662321627869901,0.6149823620854592,0.006305255500636866,1.4076885138408133,2.006079216680996,0.6194875420693172,0.8248175251115843,2.255757652787578
263,1790565574.2187889,1.22312181122449,0.6293524792729592,0.04941560706313687,1.3764277716180808,2.0303674170506456,0.6317959661728944,0.8275787298811386,2.2817634726774223
264,1790565574.2284899,1.1991716159119898,0.7347333386479592,0.1787466617506369,1.4176727451766669,2.042143686058674,0.6378631251799738,0.8288831619710146,2.2943991582052017
265,1790565574.2484899,1.2662321627869901,0.8928046277104592,0.22185701331313687,1.5651404178838575,2.066478434141254,0.6509364739753439,0.8317699439718521,2.3207526045697504
266,1790565574.274554,1.3476628268494901,0.8496942761479592,0.20748689612563687,1.6066195162061283,2.0985443826706227,0.6688244426544123,0.835806999046468,2.3557988031208166
267,1790565574.294554,1.3093425143494901,0.7922138073979592,0.21706697425063687,1.5456709248172273,2.1234444553046696,0.6829544809192724,0.8390769422027886,2.383168750363314
268,1790565574.319071,1.1656413424744898,0.6868329480229592,0.16916658362563688,1.3634795820954597,2.1539406832164794,0.7003972826619133,0.8431943428712265,2.4168147467742136
269,1790565574.339071,1.10337083466199,0.8640643933354593,0.14521638831313688,1.4089436731280578,2.1784901021224665,0.7148183619164731,0.8465208981265053,2.444050336335856
270,1790565574.3492968,1.29018235809949,0.9886054089604592,0.14042634925063688,1.6314504992002972,2.1909948703572955,0.7225065753716943,0.8481856737703521,2.4580262835406343
271,1790565574.3692968,1.63027513153699,0.7155731823979592,0.16916658362563688,1.7884236961331794,2.2161642849839445,0.737844222327506,0.8514176930418001,2.4861034416301147
272,1790565574.393898,1.63985520966199,0.34195013552295916,0.3703482242506369,1.7155794388617915,2.2485139292297407,0.7558317708481941,0.8557923943720035,2.521800384254997
273,1790565574.413898,1.47220384247449,0.04017767458545917,0.3895083805006369,1.5233893717011346,2.2755363276326266,0.7688347528867623,0.8599551928397954,2.5512144930041374
274,1790565574.4388766,1.24707200653699,0.24135931521045917,0.2553872867506369,1.2956332717095946,2.309317405180412,0.7831660598713622,0.8655825371718742,2.5875720441874703
275,1790565574.4588766,1.44825364716199,0.34195013552295916,0.15479646643813688,1.4961050991571112,2.3363511460523787,0.7937946370555562,0.8700276752994588,2.616408752329308
276,1790565574.46958,1.63985520966199,0.15034857302295918,0.4421988101881369,1.7050717257046442,2.3511275494768635,0.7990246817050716,0.8725289695936053,2.632023555871613
277,1790565574.48958,1.7883464205994901,0.04975775271045917,0.5619497867506369,1.8752190050377822,2.3797390598356816,0.8076316681777904,0.8780079716015384,2.6620151957768954
278,1790565574.51423,1.99431810028699,-0.07478326291454084,0.43740877112563686,2.043091690209251,2.416706568303863,0.8166023403299199,0.885595510512712,2.7002943224314655
279,1790565574.53423,1.76918626434949,-0.23285455197704083,0.3607681461256369,1.820547976736197,2.447846528365985,0.8223275242791205,0.8920255346436569,2.73201111602364
280,1790565574.5583618,1.62069505341199,-0.30470513791454085,0.15479646643813688,1.6563392234827217,2.4859190043258024,0.8272263608106927,0.8995532881562931,2.7700709135906774
281,1790565574.5783617,1.71170579559949,-0.41487603635204084,-0.13260587731186313,1.766251164168254,2.517738316535436,0.8295980475309851,0.9048896106969722,2.80108271183934
282,1790565574.58864,1.76918626434949,-0.39571588010204084,-0.19008634606186314,1.8228395197293115,2.534321091221867,0.8300092010732473,0.9069718969222675,2.8167883642696734
283,1790565574.60864,2.0086882174744902,-0.44361627072704085,-0.09428556481186313,2.059250717714214,2.5674154837556684,0.8294302439952371,0.909989400305966,2.8473948627739643
284,1790565574.6341102,2.00389817841199,-0.28075494260204087,-0.060755291374363134,2.0243819927741775,2.6109048521249703,0.8274197864537207,0.9129596385483718,2.887030126528507
285,1790565574.6541102,1.9464177096619901,-0.12268365353954083,-0.24277677574936316,1.9653329850625552,2.6458570616874924,0.8254727602315631,0.9144868101734966,2.918604288824914
286,1790565574.694156,1.69254563934949,-0.012512755102040831,-0.29067716637436314,1.7173702353810163,2.7162731904037947,0.8217529747201657,0.9154837812758156,2.9818666217902696
287,1790565574.714156,1.52968431122449,0.32278997927295916,-0.27151701012436313,1.5867731247762715,2.7509991759743886,0.8206392884104301,0.9150637191868829,3.013102540250941
288,1790565574.7394836,1.7069157565369901,0.2940497448979592,-0.11823576012436314,1.7360893834595574,2.7945273513553723,0.82061221985526,0.9138711877077187,3.052531421717288
289,1790565574.7594836,1.99431810028699,0.36111029177295917,-0.032015056999363134,2.0270003186559524,2.829295382571606,0.8215767905125495,0.9128453825295615,3.084345550834967
290,1790565574.7544417,2.10448899872449,0.7634735730229593,-0.032015056999363134,2.238926261923676,2.829295382571606,0.8215767905125495,0.9128453825295615,3.084345550834967
291,1790565574.7744417,2.14759935028699,1.0700360730229592,-0.14218595543686313,2.4036174847190206,2.8660193856335487,0.8264577977188476,0.9117612987013932,3.119039640024994
292,1790565574.7995248,1.79792649872449,1.3670184948979593,-0.23319669762436315,2.2706078393222584,2.9125907627539966,0.836245763947541,0.9098994503674068,3.1639230298442826
293,1790565574.8195248,1.6254850924744901,1.5394599011479593,-0.36731779137436316,2.2687134973282603,2.9492895081158066,0.8472392467012094,0.9077368165008878,3.2000170424333643
294,1790565574.843603,1.56321458466199,0.3802704480229592,0.11647615393813687,1.6130133743325752,2.992602469001799,0.8619558781827193,0.9050707618700521,3.2431143299923058
295,1790565574.8636029,1.8218766940369902,0.2030390027104592,-0.008064861686863134,1.8331733597482913,3.0282605328124417,0.8732212866748401,0.9033510529020613,3.2785546197784807
296,1790565574.8736856,1.8218766940369902,-0.6831182238520409,0.13563631018813688,1.9504569732950716,3.0462960079394956,0.8776856574877521,0.9027106000100434,3.2962308639897033
297,1790565574.8936856,1.88893724091199,-0.7310186144770409,0.011095294563136867,2.025486415747481,3.082270955775974,0.8830916114655442,0.9018508609196163,3.330702630737605
298,1790565574.9195886,2.15717942841199,-0.38613580197704084,-0.4439584163743632,2.2359836804865023,3.1297354714998034,0.8868725844609423,0.9000634595178731,3.375189081191128
299,1790565574.9395885,2.14759935028699,-0.41008599728954087,-0.36731779137436316,2.2170421408683687,3.1673433271552467,0.8881596841274095,0.8976734849199803,3.4097960440637136
300,1790565574.9646559,2.09490892059949,-0.6160576769770408,0.0015152164381368662,2.1836146049270058,3.215385453295278,0.8876017107535452,0.8944395685464006,3.4534855656245287
301,1790565574.9846559,1.99910813934949,-0.4196660754145409,0.29849763831313686,2.064377341414535,3.254107341626488,0.885669724178629,0.8926964329141265,3.4886290104411595
302,1790565574.9932315,1.95599778778699,-0.5346270129145408,0.571529864875637,2.1067509998123386,3.270764007402791,0.8843518012309967,0.8926206987678228,3.503818918313392
303,1790565575.0132315,1.76439622528699,-0.22327447385204083,0.7008609195631369,1.9115835213382046,3.309363912667583,0.8806023672573952,0.8943791516386623,3.539387532126387
304,1790565575.03913,1.80271653778699,0.17908880739795918,0.6769107242506369,1.9339255014481447,3.358778970545006,0.8763895942793739,0.8989908170666725,3.5857550645724174
305,1790565575.05913,1.97515794403699,0.4760712292729592,0.6002700992506369,2.1185412224661255,3.3968822728528045,0.8746070306802372,0.9039337258446662,3.6222703949948794
306,1790565575.083711,1.99431810028699,0.3659003308354592,0.5427896305006369,2.0990017437383957,3.4440064864588593,0.8742970363615383,0.9112048536774454,3.668224403158373
307,1790565575.103711,1.77397630341199,0.06412786989795917,0.5332095523756369,1.8534877219743178,3.482249635721093,0.8747276885624576,0.917847502270178,3.705894641249412
308,1790565575.1142657,1.63027513153699,-0.07478326291454084,0.4900992008131369,1.7039914223838604,3.502099547340601,0.8749124351983208,0.9216373158048664,3.725531955389981
309,1790565575.1342657,1.56321458466199,0.16471869021045918,0.29849763831313686,1.599960288470663,3.538860869128752,0.8753448988126354,0.9289242409597472,3.7620028161034984
310,1790565575.1583786,1.60153489716199,0.4185907605229592,0.058995685188136866,1.6563854450259075,3.5822572615670776,0.8768429858493662,0.9370384046896657,3.805188783982556
311,1790565575.1783786,1.65422532684949,0.6964130261479592,-0.15176603356186313,1.801245531270504,3.617736003978828,0.879571663736108,0.9426198562769912,3.840597909125591
312,1790565575.203917,1.87456712372449,0.7538934948979592,-0.3337875179368632,2.0478699690479907,3.663003086493608,0.885311222532211,0.9477478585188664,3.8858195500730957
313,1790565575.223917,1.84103685028699,0.9933954480229592,-0.3625277523118631,2.123129193304936,3.698709084615601,0.8917527622711019,0.9501169051936635,3.9215295504650864
314,1790565575.2340808,1.83624681122449,1.0029755261479592,-0.26193693199936313,2.1086425050560664,3.7169358253641662,0.8960570589762474,0.9506642222027935,3.9398340886632774
315,1790565575.2540808,1.88893724091199,0.4521210339604592,-0.027225017936863136,1.9424825690480054,3.7530097119536827,0.9054390847608375,0.9511459242008911,3.9761263062628145
316,1790565575.2935374,1.89372727997449,0.17908880739795918,0.030255450813136867,1.902417200342425,3.8246961102821406,0.9230397776079787,0.9519626616169087,4.04802861602616
317,1790565575.3135374,1.83624681122449,0.14555853396045917,-0.060755291374363134,1.8430086391470903,3.861177341808751,0.9311100535651929,0.9522688053915551,4.0844182296221
318,1790565575.3240929,1.68775560028699,0.5239716198979592,-0.07033536949936314,1.7686187517272347,3.880332988088613,0.9352604976045436,0.9523023647565715,4.103483409342502
319,1790565575.3440928,1.7452360690369901,0.48086126833545917,0.09252595862563687,1.8126327672952582,3.916333259249361,0.9434521700106204,0.9523896990524827,4.139421980598469
320,1790565575.3536496,1.91767747528699,0.8975946667729592,0.030255450813136867,2.117564279389471,3.9335806636858415,0.94776734429154,0.9525131755528912,4.156753676395852
321,1790565575.3736496,1.9464177096619901,0.7538934948979592,-0.060755291374363134,2.088202219030827,3.9700572071644222,0.9579205871261149,0.9526870710122158,4.193635503315953
322,1790565575.4140553,1.88893724091199,0.11681829958545918,-0.16613615074936314,1.8998241065446178,4.044319186011711,0.9779948352678977,0.9522981133771534,4.268473178186176
323,1790565575.4340553,2.03263841278699,-0.8890899035395409,0.011095294563136867,2.218608320383435,4.081445919444115,0.985282303393928,0.9519019054712013,4.305240904800563
324,1790565575.4436195,2.10448899872449,-1.3633037707270408,-0.027225017936863136,2.5076308178503144,4.099504703229908,0.9866288241147048,0.9517292859282588,4.3226339056264775
325,1790565575.4636195,2.16675950653699,-1.6075957629145408,-0.06554533043686314,2.6987973407522254,4.138010467201842,0.984565875589279,0.9512833049486681,4.3586053407392775
326,1790565575.4891036,2.3248307955994902,-1.1477520129145409,-0.24756681481186316,2.6045080608654736,4.188299889203786,0.9770652345529085,0.950201821014516,4.404474535643915
327,1790565575.5091035,2.30088060028699,-0.07957330197704084,-0.48706876793686316,2.3532147016080116,4.228785636323948,0.970220702962795,0.948378429829075,4.441100968971819
328,1790565575.518675,2.17154954559949,1.4005487683354594,-0.6259799007493632,2.6587619520411203,4.248465495864393,0.9683846905806541,0.9468376697855744,4.459117575420752
329,1790565575.538675,1.9464177096619901,3.1297528698979593,-0.7744711116868632,3.7661253869139597,4.289595736148625,0.9719192045968857,0.9420004594396199,4.498068850677273
330,1790565575.564065,2.02305833466199,2.0232538464604595,0.015885333625636867,2.8612188830089154,4.34153708262688,0.9855457785463225,0.9353362284297011,4.549186584615748
331,1790565575.584065,2.20986985809949,0.7682636120854592,0.4421988101881369,2.3810278358564103,4.382664144596017,0.998856814415208,0.9315612735705378,4.590562748340077
332,1790565575.6090996,2.3679411471619902,0.06891790896045917,0.3703482242506369,2.3977182407038415,4.435017580218265,1.014591306768756,0.9290704568075436,4.643484507385416
333,1790565575.6290996,2.48290208466199,-0.2999150988520408,0.3416079898756369,2.524172705518614,4.477844843864904,1.024929440151008,0.9284469817054312,4.686532684283093
334,1790565575.6387186,2.5212223971619903,-0.35260552853954086,0.34639802893813687,2.5692186806809825,4.498963062322942,1.0286850050033352,0.9286884448457702,4.707581513182219
335,1790565575.6587186,2.5643327487244902,-0.7501787707270409,0.27933748206313685,2.686373031266471,4.54391433838116,1.0336681684941562,0.9300537932932912,4.751907770098574
336,1790565575.6831615,2.51643235809949,-0.8124492785395409,-0.017644939811863134,2.6443935007843566,4.599924986653731,1.0359801634923547,0.9319518905713483,4.806360276584609
337,1790565575.7031615,2.54517259247449,-0.9561504504145408,-0.40084806481186314,2.748236958556278,4.646472653124293,1.0349352531882827,0.932644273589575,4.850837498369041
338,1790565575.728184,1.53926438934949,-0.6495879504145409,0.08294588050063686,1.6727759517446585,4.70363933433049,1.0308105654431747,0.9327839903218795,4.904781277681102
339,1790565575.748184,1.85061692841199,-1.1860723254145409,-0.6499300960618631,2.2921517634324013,4.747562492668266,1.0252548154520884,0.9320284366418354,4.945621706631759
340,1790565575.7588854,2.85652513153699,-0.37655572385204084,0.4421988101881369,2.91497338375498,4.77131719693948,1.0214738257487959,0.9315180762992156,4.9675549817764955
341,1790565575.7788854,1.56800462372449,-0.9082500597895409,0.21706697425063687,1.8250136280147091,4.8156900675449315,1.0135402406799419,0.9316962293620533,5.008611834624034
342,1790565575.803769,1.7021257174744902,-0.8268193957270409,-0.12302579918686314,1.896311582653031,4.868720034364844,1.0019118691739806,0.9320601442228721,5.057370688318789
343,1790565575.823769,1.91288743622449,-0.5825274035395409,-0.027225017936863136,1.9998044207226076,4.910371360145277,0.9918536243328681,0.9320833861838806,5.095517632727535
344,1790565575.8481953,1.63506517059949,-2.1297100207270407,0.23622713050063687,2.6953489832816224,4.960109974451664,0.9764432768026923,0.9324903989195673,5.140590508447959
345,1790565575.8681953,1.99431810028699,-1.219602598852041,0.4086685367506369,2.3731298230794007,5.000170762302104,0.9606941313488139,0.9337410112541281,5.17653485859863
346,1790565575.8783722,2.26735032684949,-0.29033502072704087,0.9164126773756369,2.4627188479767326,5.020750587719715,0.952729848019263,0.9352933154038289,5.195228985639974
347,1790565575.8983722,2.38710130341199,-1.3872539660395407,2.372584552375637,3.640313675662464,5.062109799791492,0.9369095407195185,0.9428198508920264,5.2337046519528005
348,1790565575.9237492,2.46853196747449,-1.7225567004145408,-1.0187631038743632,3.1778498898472582,5.115958363114359,0.9139281103478321,0.9535141058309162,5.283699813011924
349,1790565575.9437492,1.29018235809949,0.4473309948979592,-2.5036752132493634,2.8518529256584753,5.157669386463942,0.8966200967713147,0.9553944959850224,5.321490368398689
350,1790565575.9683425,1.29018235809949,-2.3117315051020406,0.3942984195631369,2.676591921175601,5.206026006752451,0.8750905510663118,0.9534691659314534,5.3644751566141515
351,1790565575.9883425,1.48657395966199,-3.408650450414541,0.5763199039381369,3.7631030629430873,5.243617313502583,0.8516278381235544,0.9535942210674809,5.3972339622796
352,1790565575.9988797,1.0506804049744898,-1.2291826769770409,-0.6882504085618631,1.7574151449396849,5.262456954975489,0.8374553353440024,0.9535617672906426,5.413322887626831
353,1790565576.0188797,2.05658860809949,-1.3010332629145407,-0.36731779137436316,2.4611311655486374,5.297512569406862,0.810794973354404,0.9519260575792255,5.443086544502006
354,1790565576.043291,2.42063157684949,-0.8172393176020408,0.7296011539381368,2.6570011623827643,5.342079474499662,0.7792569331593856,0.9508923191050489,5.4817196829353225
355,1790565576.063291,1.99431810028699,0.14555853396045917,0.07815584143813686,2.0011497463937897,5.3797380244182005,0.756286506442808,0.9513840640228647,5.5153134206928955
356,1790565576.0886197,1.93683763153699,-0.9944707629145408,0.3895083805006369,2.2117931385438996,5.427744061728815,0.7299469414965118,0.9528018089919509,5.558872135986836
357,1790565576.1086197,2.04700852997449,-1.5022149035395407,0.44698884925063687,2.5781180286323284,5.4659403463663345,0.7085234212059464,0.9550081106574035,5.593795652314636
358,1790565576.1340399,2.02784837372449,-1.6315459582270408,0.4134585758131369,2.6353480291106672,5.5149748209026255,0.6794037675088974,0.9590321638544688,5.638818976151177
359,1790565576.1540399,2.26256028778699,-1.3154033801020408,0.3655581851881369,2.6425551829645233,5.554202681005478,0.6555093130188114,0.9628918102555762,5.675034847417247
360,1790565576.1641328,2.54517259247449,0.18387884646045918,-0.17571622887436314,2.557848930009115,5.5746688659989,0.6444032104004869,0.9646911177352736,5.6941037412176865
361,1790565576.1841328,2.29130052216199,-0.6447979113520409,-0.12302579918686314,2.383475986161667,5.61639555125298,0.6250053966888793,0.9672736479088004,5.73324943151467
362,1790565576.2089553,2.55954270966199,-1.6075957629145408,-0.032015056999363134,3.0226888664563707,5.669446118263114,0.6003483055107736,0.9697094666325893,5.783024626049522
363,1790565576.2289553,2.37752122528699,-2.244670958227041,-0.032015056999363134,3.2698898836616386,5.713184056421349,0.5776831913372104,0.9712816227004423,5.8238799715221
364,1790565576.2535837,2.09011888153699,-1.9860088488520409,-0.04638517418686314,2.883570646101876,5.767217219948561,0.5461448184313549,0.9727823956609893,5.874127527903915
365,1790565576.2735837,1.60632493622449,-1.051951231664541,0.04941560706313687,1.9207610722728048,5.810058776410565,0.5198182260562221,0.9738228638655596,5.913993992529329
366,1790565576.2836695,1.77876634247449,-0.6304277941645409,0.15958650550063688,1.8939157208052178,5.830983322559576,0.5072607769020857,0.9744269551250448,5.9335645184514085
367,1790565576.3036695,2.1619694674744903,-0.7932891222895408,0.058995685188136866,2.303671005309929,5.872163432445321,0.4839592093607456,0.9757730438155816,5.972323913411781
368,1790565576.3287487,1.9799479830994902,-1.1238018176020408,0.03504548987563687,2.2769173738601083,5.923846755249257,0.4555168469677587,0.9773846843945873,6.021190646278999
369,1790565576.3487487,1.79792649872449,-1.2962432238520407,0.07815584143813686,2.217858094141494,5.964547130673331,0.4326071117015573,0.9786469376923933,6.05976247189384
370,1790565576.3736959,1.51531419403699,-1.4830547472895408,0.15000642737563688,2.1255894284555565,6.013899128553768,0.40311676625456955,0.980412148958233,6.106610666931387
371,1790565576.3936958,1.51531419403699,-1.5740654894770407,-0.06554533043686314,2.1858992342179557,6.05207546589901,0.37843520500907424,0.9817417251057906,6.1428533650202555
372,1790565576.4036798,1.7883464205994901,-1.6459160754145408,-0.19966642418686315,2.4386654810216553,6.070748276585107,0.3655511715704085,0.9821073014340718,6.1605313933318815
373,1790565576.4236798,1.53926438934949,-1.8183574816645407,-0.15176603356186313,2.38721421753222,6.107534255038408,0.3384168656106533,0.9822026273521222,6.19525807796372
374,1790565576.4489143,1.6254850924744901,-2.0530693957270407,-0.027225017936863136,2.618785392339254,6.152975507802262,0.3019892529272703,0.9819661054199339,6.238153776614653
375,1790565576.4689143,1.50094407684949,-2.3548418566645406,0.030255450813136867,2.792674109886933,6.188278068257562,0.27083679173705566,0.9818113106676852,6.271530233331492
376,1790565576.508819,1.39077317841199,-2.5081231066645406,0.12605623206313687,2.8706831461547146,6.256804205268607,0.2034493714089029,0.982016604790228,6.336666877931751
377,1790565576.528819,1.09858079559949,-2.0722295519770406,0.2649673648756369,2.3603437853406257,6.289731268581848,0.167870921348061,0.9826905976233752,6.368247866396836
378,1790565576.5388803,1.06984056122449,-1.0663213488520409,0.1835367008131369,1.5216063111081455,6.305447296310319,0.15028909498563886,0.983317238579053,6.383428953963962
379,1790565576.5588803,1.76439622528699,0.17908880739795918,-0.06554533043686314,1.7746726546279683,6.336253185272787,0.11925116869141184,0.9845530274261797,6.413397690220672
380,1790565576.568422,2.42542161591199,-0.40529595822704084,0.3942984195631369,2.490463023688224,6.351744100559087,0.10650264018114082,0.9852894363845498,6.428591696849606
381,1790565576.588422,2.43021165497449,-1.7512969347895408,0.3799283023756369,3.0194892211635938,6.386626810947744,0.08055443833681386,0.9877627925908605,6.463061687333582
382,1790565576.6139958,1.60632493622449,-1.4351543566645408,-0.17571622887436314,2.1612089258745097,6.4322824884393555,0.0462400293497538,0.9908427301554116,6.508315102029072
383,1790565576.6339958,1.89372727997449,-1.6794463488520408,-0.24756681481186316,2.5432326628502007,6.467881899258207,0.018757835392337663,0.9922551761998586,6.54357841351626
384,1790565576.6440544,1.31413255341199,-1.1238018176020408,0.0015152164381368662,1.7291261345152418,6.485520389778042,0.004894633846196438,0.9926733656685158,6.561051675956749
385,1790565576.6640544,1.5440544284119901,-0.9896807238520409,-0.15655607262436314,1.8406742832284428,6.519618257865749,-0.0217056100805189,0.9931475813843933,6.594864326141597
386,1790565576.70422,2.50206224091199,-1.0663213488520409,-0.30983732262436314,2.7373994671779633,6.590013382701462,-0.07330690297624526,0.9925521126813639,6.664743804723223
387,1790565576.72422,2.83257493622449,-1.5501152941645409,-0.19487638512436314,3.2348593477938317,6.62780983436285,-0.09907163057771265,0.9915430126846229,6.702300794090483
388,1790565576.7335348,2.33441087372449,-1.3393535754145407,0.4230386539381369,2.7243905428672743,6.646382329160581,-0.11128993456970565,0.9913029278809843,6.7208232389894
389,1790565576.7535348,1.7404460299744902,-0.8316094347895409,0.672120685188137,2.0426631760382605,6.686390445637319,-0.13684546096679218,0.9925074971906974,6.761036533230462
390,1790565576.7640872,1.8649870455994901,-0.5633672472895409,0.2937075992506369,1.9702343742382737,6.707186643138485,-0.14941057161917587,0.9938121055956008,6.782060062107621
391,1790565576.7840872,2.6840837252869902,-0.6735381457270408,-0.012854900749363135,2.7673316256952623,6.747513029729146,-0.1715083893346386,0.9963351154561327,6.822831587857621
392,1790565576.824038,2.69366380341199,-0.8363994738520408,0.22664705237563687,2.8296214679745564,6.832097129288674,-0.21355280000646346,1.0012595541231148,6.908377282484502
393,1790565576.844038,2.29130052216199,-0.8172393176020408,0.3032876773756369,2.4515141444304103,6.87556700451784,-0.23392409775649484,1.0041499148172646,6.952442676394615
394,1790565576.8532922,4.11630540497449,0.3084198620854592,-0.6211898616868632,4.174322680700853,6.897111209823558,-0.24228937737810996,1.0050660617967064,6.9741669733122675
395,1790565576.8732922,2.26735032684949,-1.8614678332270407,0.3847183414381369,2.958707184065766,6.946263358908342,-0.25998595392465945,1.0063943155576833,7.023602840845824
396,1790565576.8987935,1.3476628268494901,-1.9237383410395408,0.20748689612563687,2.3579684289068363,7.006448716935278,-0.28640514011473245,1.0089665306667104,7.084515861181607
397,1790565576.9187934,1.68775560028699,-0.6160576769770408,-0.42000822106186314,1.8451159674725046,7.051123405322884,-0.3078267403330581,1.0103624732834369,7.129791785639724
398,1790565576.9280274,2.02305833466199,-1.1573320910395408,-0.05117521324936314,2.3312660716542886,7.071225598883457,-0.31746165879749727,1.0105839852568643,7.150125409135759
399,1790565576.9480274,2.36315110809949,-0.8938799426020408,0.020675372688136868,2.526644411573158,7.114813652388074,-0.3382766498693125,1.0109460457744193,7.194234935524518
400,1790565576.9738915,1.89372727997449,-0.3190752551020408,-0.11823576012436314,1.9240560605944408,7.170984320897535,-0.3635099379345274,1.0111547836796797,7.251040587535954
401,1790565576.9938915,1.7835563815369901,-0.7453887316645409,0.09731599768813687,1.9354968692353476,7.213420124555199,-0.38169197984353415,1.0112606034145306,7.293954117543731
402,1790565577.0188527,1.99910813934949,-0.8890899035395409,0.02546541175063687,2.188049975796933,7.265519789825325,-0.4040403563579867,1.0116027207961238,7.346724881920614
403,1790565577.0388527,2.09490892059949,-0.6831182238520409,-0.16613615074936314,2.2097273845322873,7.30714357036603,-0.4216191498517355,1.0116247157950269,7.388876398416113
404,1790565577.048401,1.8601970065369902,-0.7884990832270409,0.16437654456313688,2.027087407040353,7.326867231026535,-0.42980664542338654,1.0116323814418928,7.40885397674447
405,1790565577.068401,1.64464524872449,-1.0663213488520409,0.3511880680006369,1.9912890981160156,7.367240426084317,-0.44716586199453195,1.012419375514177,7.449911529392873
406,1790565577.0935986,1.79313645966199,-1.1621221301020408,0.3416079898756369,2.1639228791685055,7.416972644161862,-0.46996710198124214,1.0145714185095944,7.500780455689036
407,1790565577.1135986,2.06137864716199,-0.9896807238520409,0.1883267398756369,2.2943881151827563,7.456307212235492,-0.48857809988267176,1.0168182371947663,7.541163380434868
408,1790565577.1390762,1.91767747528699,-0.7597588488520408,0.15958650550063688,2.068861585599667,7.506501998651204,-0.512072978593916,1.0199158956905332,7.592760988299498
409,1790565577.1590762,1.6638054049744901,-0.7214385363520409,0.10210603675063687,1.816355590212727,7.545366734999291,-0.5299717518646284,1.0223753495944077,7.6327374236814025
410,1790565577.1685998,1.71649583466199,-0.8076592394770409,0.12605623206313687,1.9012000344957258,7.563511873827942,-0.5383085560055063,1.0235337950199348,7.65141224850373
411,1790565577.1885998,1.73565599091199,-0.9369902941645408,0.04941560706313687,1.973041923621658,7.601079748609764,-0.5558069893032163,1.025864864588466,7.690106206970154
412,1790565577.2141237,1.81229661591199,-0.9274102160395409,-0.05596525231186314,2.036575763954508,7.648623952239602,-0.578357717310185,1.0283809935891948,7.739089964583762
413,1790565577.2341237,1.99431810028699,-0.9705205676020409,-0.08949552574936313,2.2197351883501892,7.686000293657982,-0.5962243372117519,1.029838649603722,7.7775736331205385
414,1790565577.259132,1.76918626434949,-1.018420958227041,0.11168611487563687,2.044425365322736,7.732784608185562,-0.6189443554968015,1.031429539693328,7.825784101746283
415,1790565577.279132,1.55363450653699,-0.9848906847895409,0.2841275211256369,1.8613216511792492,7.7695717047520745,-0.6373938510014571,1.0331047090257635,7.86382990255955
416,1790565577.2889931,1.55363450653699,-0.7166484972895408,0.2601773258131369,1.730623439526077,7.787287388925239,-0.6463845298813916,1.0342093407152146,7.882210781158205
417,1790565577.308993,1.76439622528699,-0.5489971301020409,0.3032876773756369,1.8725584914536486,7.822804871759232,-0.6637822174022623,1.036958835274647,7.919101370724685
418,1790565577.3333457,1.76918626434949,-0.5873174426020409,0.29849763831313686,1.8878725212328362,7.866018792789671,-0.6838639641482988,1.040903644753448,7.964006652912961
419,1790565577.3533456,1.65901536591199,-0.7070684191645409,0.27933748206313685,1.824912919181984,7.901327785056222,-0.6998241700216572,1.0445241819723743,8.000735303868828
420,1790565577.3784523,1.77397630341199,-0.6926983019770409,0.2601773258131369,1.922112146441102,7.945468019189405,-0.7194900200867903,1.0494033262879425,8.046699651048888
421,1790565577.3984523,1.84103685028699,-0.7453887316645409,0.31765779456313686,2.0114491094367337,7.980778340865313,-0.7349630981909846,1.0535737970066088,8.083502423298103
422,1790565577.409219,1.68296556122449,-0.9130400988520408,0.43740877112563686,1.9640116434066899,7.999781540490733,-0.743382569833355,1.0560918712012166,8.103360560972567
423,1790565577.429219,1.88414720184949,-0.9609404894770409,0.5811099430006369,2.19342336734335,8.035137010733111,-0.7594873317077457,1.061595521862781,8.140468834183736
424,1790565577.4540436,2.0853288424744902,-0.6016875597895409,0.3990884586256369,2.2067840625375372,8.07982925994605,-0.7793879911428271,1.0692271126886495,8.18744973292212
425,1790565577.4740436,1.85061692841199,-0.6304277941645409,0.28891756018813686,1.9762832732088946,8.116338577351973,-0.7948642017282115,1.0754852601058662,8.225778355031569
426,1790565577.4996345,1.7069157565369901,-0.8938799426020408,0.5858999820631369,2.013916964693941,8.162874661147654,-0.8146219773675775,1.0839707621413268,8.274728050685047
427,1790565577.5196345,1.63985520966199,-0.9561504504145408,0.43740877112563686,1.9479926143446074,8.19880864448272,-0.8305220729694714,1.0911426266188435,8.31269043897093
428,1790565577.5433006,1.8649870455994901,-0.9130400988520408,-0.15176603356186313,2.082030698935239,8.241172435545826,-0.8498323206638396,1.0988631790127448,8.35743012964124
429,1790565577.5633006,2.02784837372449,-1.051951231664541,-0.38168790856186313,2.3161295473612724,8.27744265567945,-0.8666508395985414,1.1036088650907478,8.395540073333306
430,1790565577.5738454,1.9847380221619901,-1.3920440051020408,-0.04638517418686314,2.4246903128317983,8.296870666962194,-0.8761209706632799,1.105397115524755,8.41591074112268
431,1790565577.5938454,1.8218766940369902,-1.224392637914541,0.11647615393813687,2.198167126150944,8.333901860413341,-0.8953130927704228,1.1083852174254776,8.454822502175572
432,1790565577.6185293,2.05179856903699,-1.210022520727041,0.09252595862563687,2.38381897835982,8.379921457719515,-0.9199537767088393,1.11190686728613,8.50327792503261
433,1790565577.6385293,2.34878099091199,-0.9705205676020409,-0.05117521324936314,2.54190897119846,8.418216289283096,-0.9401947728116298,1.1143942744076996,8.543547641513229
434,1790565577.6641102,2.12364915497449,-0.8316094347895409,0.058995685188136866,2.281433864113896,8.468430645704576,-0.9656580580867571,1.1171135590811898,8.596205895052732
435,1790565577.6841102,2.08053880341199,-0.7405986926020409,0.24580720862563687,2.2220597021230493,8.508107280430526,-0.9849382012748256,1.119377885723433,8.63776589209803
436,1790565577.6937716,2.2481901705994902,-0.5585772082270408,0.17395662268813689,2.3230644518196093,8.52753559032777,-0.9937962412133267,1.1206118082196357,8.658075134698116
437,1790565577.7137716,2.29130052216199,-0.5825274035395409,0.09731599768813687,2.3661924397944403,8.568530312641029,-1.0110942476458367,1.123189891135682,8.700780357405883
438,1790565577.7383826,2.07095872528699,-0.6304277941645409,0.12605623206313687,2.168455537736349,8.619461460152422,-1.0314263173707852,1.1262987902216557,8.753713787648802
439,1790565577.7583826,2.00389817841199,-0.5394170519770408,0.11647615393813687,2.0784959369319713,8.660754301786447,-1.0472254090162079,1.1288100526818825,8.796565140339567
440,1790565577.7840588,2.13801927216199,-0.5202568957270408,0.09252595862563687,2.202352083275337,8.713790940113274,-1.0665066704334667,1.1319529262549488,8.851491764292412
441,1790565577.8040588,2.09011888153699,-0.6256377551020409,0.07336580237563688,2.1829800916464586,8.755248159089184,-1.0809914374791412,1.1342826282260403,8.894352696842708
442,1790565577.8141122,1.92725755341199,-0.7070684191645409,0.04462556800063687,2.0533530792055203,8.775990695335313,-1.0881852069722486,1.1353670054477158,8.915784764469393
443,1790565577.8341122,1.83145677216199,-0.6687481066645409,-0.041595135124363136,1.9501764263090244,8.816703752226578,-1.102413372735077,1.1372051996205688,8.95783545087514
444,1790565577.858212,1.8601970065369902,-0.6447979113520409,-0.06554533043686314,1.9698714272650413,8.865076457102944,-1.1193606980556883,1.1388943032678507,9.007753837480717
445,1790565577.878212,1.8649870455994901,-0.5777373644770408,-0.12302579918686314,1.9562956038984392,8.9047862655352,-1.1331491185600093,1.1398029381697399,9.048668194691308
446,1790565577.9033852,1.9080973971619901,-0.6400078722895408,-0.11344572106186314,2.0157667735321447,8.954393801993108,-1.1501999081749628,1.1403285960099567,9.09969656070005
447,1790565577.9233851,1.9080973971619901,-0.6831182238520409,-0.19487638512436314,2.0360410089912895,8.993619103394485,-1.1636993529369788,1.1402211011075674,9.139993704613756
448,1790565577.9339113,1.75960618622449,-0.7741289660395408,-0.25235685387436313,1.9388588314671882,9.014062573538592,-1.1708889497281196,1.1398199375289468,9.160976722066982
449,1790565577.9539113,1.6254850924744901,-0.9561504504145408,-0.16613615074936314,1.8931525797649134,9.052156803485852,-1.185095703613367,1.1385443117177771,9.200123791089062
450,1790565577.9788864,1.64943528778699,-0.9992608019770409,-0.027225017936863136,1.9287042594878074,9.09872593600329,-1.2038380751133035,1.1368281194951453,9.248157543146977
451,1790565577.9988863,1.85540696747449,-0.8316094347895409,-0.0032748226243631343,2.033253548244066,9.135681795012106,-1.2193419045006104,1.1356141948744032,9.28639306401506
452,1790565578.0237248,1.8218766940369902,-0.7837090441645409,0.09252595862563687,1.9854459466830225,9.181544045596993,-1.2387174401288241,1.1344989979974653,9.333930572603064
453,1790565578.0437248,1.53447435028699,-1.1238018176020408,0.5858999820631369,1.9901811088229922,9.21796770769314,-1.2548397495216317,1.1347533704893944,9.371937722205054
454,1790565578.0529141,1.63985520966199,-1.3920440051020408,0.9355728336256369,2.3456786113648227,9.234380669668548,-1.2628702203378641,1.1359013182199735,9.38929706370494
455,1790565578.0729141,2.24340013153699,-0.8076592394770409,0.7008609195631369,2.4852290892116367,9.270568909318929,-1.2810258409591788,1.1404796266242296,9.427893130831558
456,1790565578.0989406,2.03742845184949,-0.6591680285395408,0.3559781070631369,2.1707919289887663,9.318953809680062,-1.3039714860052112,1.147606751665885,9.479464278097907
457,1790565578.1189406,1.7021257174744902,-0.8507695910395409,0.10689607581313687,1.905903362227446,9.356167189970582,-1.3212240291566515,1.1529563585740288,9.51907588932241
458,1790565578.14362,1.63027513153699,-1.3106133410395409,0.08773591956313687,2.093609783555753,9.401367557839905,-1.3433204415672104,1.1589276906757613,9.567305532831698
459,1790565578.16362,1.88893724091199,-1.5022149035395407,0.08773591956313687,2.4150426721079077,9.437781845654712,-1.3627604029475118,1.1633041447320152,9.606358238956219
460,1790565578.174174,1.97515794403699,-1.5213750597895408,0.12126619300063687,2.4961042578399897,9.457174070752224,-1.3738735106025601,1.1654326339851957,9.627247947986032
461,1790565578.194174,1.7835563815369901,-1.4734746691645408,0.12126619300063687,2.316658467784093,9.494048176472223,-1.3962662265358485,1.1692248977122814,9.667140063843624
462,1790565578.2186258,1.5871647799744901,-1.3345635363520407,0.07336580237563688,2.074978171526187,9.538549231368993,-1.4246863335624909,1.1735227484804938,9.715493205673654
463,1790565578.2386258,1.73565599091199,-1.219602598852041,0.006305255500636866,2.1213137377960534,9.574472664537039,-1.4482765616709763,1.1766303210536022,9.754613816829202
464,1790565578.2786605,1.8266667330994901,-1.2675029894770407,0.13563631018813688,2.227481176303641,9.646291903720696,-1.4958826512668553,1.182343986591081,9.832931897495106
465,1790565578.2986605,1.72607591278699,-1.3393535754145407,0.24101716956313687,2.1980207762219584,9.682117650212762,-1.5200079287943966,1.1853351627796331,9.872124682371123
466,1790565578.308756,1.65422532684949,-1.3010332629145407,0.2601773258131369,2.120575682230567,9.700048623281221,-1.5323584198103934,1.186998055861411,9.891816314782766
467,1790565578.328756,1.69733567841199,-1.1908623644770409,0.24101716956313687,2.0873885245354695,9.735269941805495,-1.5568932627087757,1.1905499940559248,9.930599516627186
468,1790565578.3399541,1.75481614716199,-1.138171934789541,0.22664705237563687,2.1038497926025,9.754931678253199,-1.5705258664094133,1.1926331922832145,9.952266951593714
469,1790565578.359954,1.64943528778699,-1.176492247289541,0.2553872867506369,2.0420561801192436,9.789886942549606,-1.5946937992650705,1.1965187897622072,9.99082538510066
470,1790565578.3834503,1.56800462372449,-1.2818731066645408,0.3320279117506369,2.052335181151624,9.830462636983524,-1.623159751001496,1.2014340480380576,10.035740481209418
471,1790565578.4034503,1.61590501434949,-1.2579229113520407,0.3032876773756369,2.070145521829837,9.86459590731515,-1.6475651857206053,1.2059433183553236,10.073679702219206
472,1790565578.4283433,1.59195481903699,-1.2435527941645408,0.2505972476881369,2.0355693744695618,9.906696391372588,-1.6780552492632608,1.211748016610769,10.120614411495716
473,1790565578.4483433,1.55842454559949,-1.205232481664541,0.19790681800063686,1.9800099766913757,9.940173261114507,-1.7025507287414479,1.216384922477905,10.158017312672067
474,1790565578.4586117,1.56800462372449,-1.171702208227041,0.16437654456313688,1.9643177475113391,9.957190654740339,-1.715071347063849,1.2186875190359217,10.177048429157724
475,1790565578.4786117,1.7404460299744902,-1.219602598852041,0.12605623206313687,2.1289605576483965,9.990326557766002,-1.7393868736160831,1.2229352431211553,10.214091346555522
476,1790565578.5039947,1.69733567841199,-1.3154033801020408,0.1835367008131369,2.1552076879362545,10.03261744214362,-1.7704438904575974,1.2281069755713496,10.261390307999692
477,1790565578.5239947,1.52968431122449,-1.3489336535395409,0.2553872867506369,2.0554266612778305,10.065781824945901,-1.795240489671449,1.2322290721893632,10.298603820397972
478,1790565578.5485988,1.51531419403699,-1.224392637914541,0.21227693518813687,1.9596877138059956,10.106079928405892,-1.8259182356811983,1.2374024271236097,10.34398345364942
479,1790565578.5685987,1.64943528778699,-1.1956524035395408,0.15000642737563688,2.0427244960935953,10.138670684067755,-1.8507448306060919,1.2415203377700423,10.380716373020059
480,1790565578.5781898,1.69733567841199,-1.214812559789541,0.14042634925063688,2.091993671165515,10.15436284297386,-1.8625986293287147,1.243407807561852,10.39838551779319
481,1790565578.5981898,1.61590501434949,-1.2291826769770409,0.1883267398756369,2.0389963290139725,10.187146649151519,-1.8872751734182134,1.2472464286043552,10.435295304167779
482,1790565578.6232796,1.65422532684949,-1.224392637914541,0.12605623206313687,2.0619139015515624,10.228258017587407,-1.9182051101452084,1.2519311918419103,10.48160792188083
483,1790565578.6432796,1.67817552216199,-1.2627129504145407,0.12605623206313687,2.1039503919936466,10.261112326266009,-1.9428928736176312,1.2554836017876112,10.518626239436403
484,1790565578.668245,1.53447435028699,-1.3297734972895408,0.14521638831313688,2.035680938953118,10.301987336027716,-1.9739416835713253,1.259760770700886,10.564770988583366
485,1790565578.688245,1.53926438934949,-1.3201934191645408,0.17395662268813689,2.0353148235351406,10.334431302441441,-1.999058956332552,1.263152018207706,10.601521592529872
486,1790565578.6983213,1.68775560028699,-1.2339727160395408,0.14521638831313688,2.0957803867926645,10.35076391543165,-2.011745477737086,1.264845500356373,10.620040849260858
487,1790565578.7183213,1.75481614716199,-1.1908623644770409,0.11647615393813687,2.123934927417627,10.383482980425041,-2.0367865151757782,1.2680951603200064,10.65707668400699
488,1790565578.7431955,1.59195481903699,-1.2722930285395408,0.13084627112563688,2.042099518386138,10.42431572326666,-2.067853950220933,1.2719919506831616,10.703286494361981
489,1790565578.7631955,1.63027513153699,-1.3345635363520407,0.16437654456313688,2.113262048462266,10.45705571695326,-2.0929969010196476,1.2750979995993286,10.740415504240277
490,1790565578.7887864,1.63985520966199,-1.214812559789541,0.13563631018813688,2.0453097253764376,10.498940614687495,-2.125235791411721,1.2790520021754037,10.787972711501496
491,1790565578.8087864,1.73086595184949,-1.181282286352041,0.14521638831313688,2.100574345924385,10.531820749255237,-2.150246163628069,1.2820999171883352,10.825275380159837
492,1790565578.8179493,1.65901536591199,-1.3537236926020408,0.15000642737563688,2.1464859068948487,10.546954640772187,-2.1617278973687712,1.2834897300052375,10.842447398249037
493,1790565578.8379493,1.61111497528699,-1.2627129504145407,0.20269685706313686,2.0569933093235537,10.579937823389493,-2.1869546720575292,1.286597311755224,10.879944288783726
494,1790565578.8639877,1.56800462372449,-1.1238018176020408,0.22664705237563687,1.9424051872916719,10.622646556207616,-2.219532042127191,1.290874722935967,10.92855433689442
495,1790565578.8839877,1.69254563934949,-1.1190117785395408,0.1787466617506369,2.0368722274306252,10.655421100002114,-2.2441654074530355,1.2942754537040815,10.965829934138137
496,1790565578.9085653,1.77876634247449,-1.2579229113520407,0.11647615393813687,2.181730149780373,10.696054484796926,-2.274277637347534,1.2983718766757273,11.011979379004757
497,1790565578.9285653,1.73086595184949,-1.3249834582270408,0.10210603675063687,2.1821786706381427,10.729424454665304,-2.298980188494362,1.3015331863600703,11.049879984445806
498,1790565578.9531229,1.63506517059949,-1.3393535754145407,0.11168611487563687,2.116549054555379,10.770452082054643,-2.329669433652938,1.3052264073312942,11.09655864204425
499,1790565578.9731228,1.7404460299744902,-1.3010332629145407,0.07815584143813686,2.174384572704406,10.803916705345069,-2.3548746298151446,1.308067800974498,11.134679702179472
500,1790565578.9990408,1.7452360690369901,-1.3297734972895408,0.11647615393813687,2.1972057676052015,10.84755417978341,-2.3877524604133584,1.3115759780160041,11.184409910301715
501,1790565579.0190408,1.65422532684949,-1.3106133410395409,0.15958650550063688,2.1165152053408534,10.881275797779482,-2.4132780665413134,1.314291134074911,11.222897807558384
502,1790565579.0286787,1.61590501434949,-1.2914531847895407,0.17395662268813689,2.075876020016594,10.89745222432574,-2.425614437237132,1.3156443819360502,11.241396288687412
503,1790565579.0486786,1.69254563934949,-1.2627129504145407,0.14042634925063688,2.1163351095678187,10.930948176784437,-2.451205564870111,1.3185029232796641,11.279737883634274
504,1790565579.0741122,1.72128587372449,-1.2579229113520407,0.11168611487563687,2.13486976142431,10.973666775902162,-2.4836758448191114,1.32207370479598,11.328631298245602
505,1790565579.0941122,1.65901536591199,-1.3201934191645408,0.15958650550063688,2.126196251778128,11.007290679605639,-2.509246413000512,1.3248673525444556,11.367147362831505
506,1790565579.1036925,1.65422532684949,-1.2579229113520407,0.12605623206313687,2.081999437208534,11.023361855485078,-2.5215103348064876,1.3262100740012106,11.385576582935167
507,1790565579.1236925,1.65422532684949,-1.2818731066645408,0.14042634925063688,2.0974698217480903,11.056842175013198,-2.547081855897954,1.3289924021333195,11.42399254502222
508,1790565579.1485198,1.64464524872449,-1.2866631457270408,0.15958650550063688,2.0942368293634197,11.098311867684998,-2.578846596387219,1.33248683698882,11.471638821495564
509,1790565579.1685197,1.6254850924744901,-1.2914531847895407,0.20748689612563687,2.086409338174966,11.13161264535055,-2.6044640717821808,1.3354301946666172,11.50996989536288
510,1790565579.1937885,1.63506517059949,-1.205232481664541,0.1787466617506369,2.039111035734397,11.173554436803926,-2.6367069296760373,1.3393231134593653,11.558301284681448
511,1790565579.2137885,1.69733567841199,-1.2339727160395408,0.15479646643813688,2.1041860695199994,11.206770042794568,-2.662057631145064,1.342442450913377,11.59656834402444
512,1790565579.2236242,1.69254563934949,-1.2579229113520407,0.11168611487563687,2.1117657494242543,11.223155424906961,-2.6744929124661883,1.3439429702862953,11.615434246632038
513,1790565579.2436242,1.61111497528699,-1.3010332629145407,0.13563631018813688,2.075277384699575,11.256431280989503,-2.6998243887732856,1.3469074398477665,11.653774348483468
514,1790565579.2687027,1.5871647799744901,-1.2962432238520407,0.14042634925063688,2.0540345892262053,11.297913590914487,-2.7317088497139954,1.3505863299330751,11.70167373421333
515,1790565579.2887027,1.63985520966199,-1.2531328722895407,0.14042634925063688,2.0686195067803226,11.330873725101348,-2.7571464262056824,1.3535014173923372,11.739783723587669
516,1790565579.313272,1.71170579559949,-1.1908623644770409,0.11168611487563687,2.088196276711733,11.371466441949618,-2.7882117578488774,1.3570099039246006,11.786681030991824
517,1790565579.333272,1.6254850924744901,-1.2770830676020408,0.15958650550063688,2.073309142446091,11.404559156664275,-2.8134084124369543,1.359844406241632,11.824906480062014
518,1790565579.343331,1.55363450653699,-1.3201934191645408,0.19311677893813686,2.0479221015984073,11.42110515573653,-2.826139781524628,1.3613222839481922,11.844066337364103
519,1790565579.363331,1.65422532684949,-1.2579229113520407,0.16437654456313688,2.0846705090486632,11.453879800902207,-2.851523059634772,1.3643561476048962,11.882087945754806
520,1790565579.3882213,1.67338548309949,-1.1860723254145409,0.15000642737563688,2.0565720178044757,11.494761793347875,-2.882936712249572,1.3681523500257475,11.929489244118015
521,1790565579.4082212,1.62069505341199,-1.2531328722895407,0.19790681800063686,2.0581937616215495,11.527625290309151,-2.908051025946535,1.3712670237950395,11.967592859628521
522,1790565579.4326158,1.67817552216199,-1.2579229113520407,0.2649673648756369,2.113965666357238,11.567732679697757,-2.938682935174404,1.3753430863720275,12.014152710352239
523,1790565579.4526157,1.84582688934949,-1.3441436144770407,0.3607681461256369,2.3116990757977014,11.600968610801067,-2.9639327159577804,1.3791222045620635,12.052773452970591
524,1790565579.4786506,1.9416276705994902,-1.3489336535395409,0.46614900550063687,2.4097375185315038,11.645138981623942,-2.99712966520166,1.3849183772894702,12.104133469320447
525,1790565579.4986506,1.92725755341199,-1.104641661352041,0.28891756018813686,2.2400955858541467,11.679784264106253,-3.022486661522234,1.3898357073130192,12.14431675181713
526,1790565579.5237362,1.79313645966199,-1.047161192602041,0.29849763831313686,2.0978526560126634,11.723720728703904,-3.0535692981604403,1.396183461588123,12.195049874507355
527,1790565579.5437362,1.63027513153699,-1.2962432238520407,0.5571597476881369,2.1560311881636105,11.758630555629855,-3.078148377296809,1.4017686710489419,12.235413576319411
528,1790565579.553796,1.62069505341199,-1.181282286352041,0.3799283023756369,2.0411824541547556,11.776008835789439,-3.0905262607677493,1.4048636113489468,12.25558560149528
529,1790565579.573796,1.73565599091199,-1.1238018176020408,0.23143709143813687,2.0806237938002337,11.810410690541469,-3.1149011103152584,1.4110107585249372,12.295501655767143
530,1790565579.583609,1.73565599091199,-1.176492247289541,0.12605623206313687,2.1006013187568535,11.827313003670982,-3.1267597558262454,1.4138375704664823,12.31506784931053
531,1790565579.603609,1.76439622528699,-1.2339727160395408,0.07336580237563688,2.1543363815094434,11.861844335602694,-3.1509191507568457,1.4190338206202937,12.354970640221698
532,1790565579.6284633,1.79313645966199,-1.210022520727041,0.14042634925063688,2.1677666902135986,11.904951380188985,-3.1809945741655428,1.4249211615661006,12.404716609508382
533,1790565579.6484632,1.79313645966199,-1.133381895727041,0.14042634925063688,2.1259380151111693,11.93981552160601,-3.2050809312304542,1.4293693156815843,12.444871839690952
534,1790565579.6733356,1.80271653778699,-1.0663213488520409,-0.027225017936863136,2.094652557401826,11.983377280954981,-3.2346453667145423,1.4342825115739226,12.494856062761293
535,1790565579.6933355,1.72128587372449,-1.1094317004145409,0.02546541175063687,2.048002012734316,12.018437329904348,-3.258116005117544,1.437637995075377,12.534949491742111
536,1790565579.717929,1.57279466278699,-1.1477520129145409,0.28891756018813686,1.9683727012498642,12.061158678532482,-3.286811329572043,1.4417250884057597,12.583848720303385
537,1790565579.7379289,1.63506517059949,-1.047161192602041,0.4326187320631369,1.9892570579819955,12.095501297738265,-3.3099391389765445,1.4456325665487244,12.623260365879455
538,1790565579.748849,1.81708665497449,-0.8747197863520408,0.3224478336256369,2.042280887079935,12.114267116931218,-3.3222468399083818,1.4480644390376831,12.644749205312369
539,1790565579.768849,1.77397630341199,-0.7932891222895408,0.3416079898756369,1.9730675546866236,12.148867737987935,-3.3439090890912753,1.452846383734429,12.684142774581243
540,1790565579.8232162,1.68296556122449,-0.7645488879145409,0.43740877112563686,1.8995353419551486,12.24291221521742,-3.4003143143020718,1.467072083556234,12.790752028083318
541,1790565579.8432162,1.68775560028699,-0.6256377551020409,0.4086685367506369,1.8457929298377773,12.277374837525304,-3.4200368088813398,1.4727893987741671,12.829641198737566
542,1790565579.838859,1.7452360690369901,-0.5825274035395409,0.3655581851881369,1.875851779672437,12.277374837525304,-3.4200368088813398,1.4727893987741671,12.829641198737566
543,1790565579.858859,1.7883464205994901,-0.5825274035395409,0.3895083805006369,1.920738887622614,12.31195151102647,-3.4375743008670736,1.4790398959165882,12.868124420348199
544,1790565579.868836,1.88414720184949,-0.5681572863520409,0.3320279117506369,1.9957594831175591,12.329360610158362,-3.4458715145214165,1.4822301139058212,12.887364729085771
545,1790565579.888836,1.87935716278699,-0.5058867785395409,0.2841275211256369,1.9668841415499996,12.364669932829283,-3.4616205386224683,1.4885902882543967,12.926089135833418
546,1790565579.9138916,1.77397630341199,-0.4196660754145409,0.2841275211256369,1.8449498606146757,12.409134877828603,-3.4801304134687294,1.4964308715535894,12.974484246559896
547,1790565579.9338915,1.79313645966199,-0.35739556760204083,0.3607681461256369,1.8636586624083418,12.444654523227346,-3.493854753498048,1.5027179645866908,13.012863194628434
548,1790565579.959022,1.87935716278699,-0.20890435666454085,0.3416079898756369,1.9215411508211484,12.489513071989093,-3.5095803588619865,1.5107567101937927,13.060914091597564
549,1790565579.979022,1.8649870455994901,-0.13226373166454083,0.19790681800063686,1.8801163484154064,12.525474951649047,-3.5207299778924743,1.5170039350695987,13.099021462713734
550,1790565579.988671,1.88414720184949,-0.11789361447704083,0.06857576331313688,1.8890770809804727,12.542935527288604,-3.5254832973911547,1.519758672828595,13.11731415136271
551,1790565580.008671,2.01347825653699,-0.20411431760204085,0.08294588050063686,2.025496818879114,12.579544559561697,-3.53434085889032,1.5248393400174818,13.155289493039856
552,1790565580.033259,2.18591966278699,-0.3286553332270408,0.23622713050063687,2.223074977908287,12.625544534508714,-3.5445793571409556,1.530737147168078,13.202710851399152
553,1790565580.053259,2.21465989716199,-0.35260552853954086,0.33681795081313687,2.267707091060079,12.663949650611812,-3.5526801162991952,1.5356744412152048,13.242184591349734
554,1790565580.0791821,2.1284391940369902,-0.3190752551020408,0.22185701331313687,2.163627268151215,12.714706118956494,-3.562910952013369,1.542200252326244,13.294226858365313
555,1790565580.0991821,2.05179856903699,-0.25201470822704086,0.08294588050063686,2.0688810502677595,12.754261612066069,-3.5704767768156627,1.5469369610799384,13.334635639729994
556,1790565580.1235871,1.9799479830994902,-0.41487603635204084,0.16437654456313688,2.029614689964929,12.802668716330379,-3.579544813467698,1.5523026326476013,13.383987103813748
557,1790565580.143587,2.05179856903699,-0.47714654416454083,0.16916658362563688,2.113329961346778,12.842435646114424,-3.5871994393705244,1.5565405547285198,13.424565975886342
558,1790565580.153846,2.16675950653699,-0.40050591916454087,0.0015152164381368662,2.203464101440073,12.863020031851137,-3.5912121705893347,1.5585196323707156,13.445559588149447
559,1790565580.173846,2.2481901705994902,-0.28554498166454084,-0.21403654137436315,2.276336227532626,12.903752713237045,-3.598890718997543,1.5614803684783325,13.486922163073467
560,1790565580.1986187,2.19070970184949,-0.33344537228954085,-0.31941740074936315,2.238843962847852,12.954884889839265,-3.6081250415106827,1.5636064152267017,13.53855508708002
561,1790565580.2186186,2.07574876434949,-0.49630670041454084,-0.29546720543686317,2.154612295301285,12.996373525676624,-3.615706631606339,1.5641430679072126,13.58033883235733
562,1790565580.2282014,2.06137864716199,-0.5537871691645408,-0.23319669762436315,2.1471708957345665,13.016243884668413,-3.6195490772716554,1.5639816747906299,13.600359519771043
563,1790565580.2482014,2.08053880341199,-0.40529595822704084,-0.14697599449936313,2.1247372706330654,13.057707126730906,-3.627804267841743,1.5631251020243724,13.642142034806284
564,1790565580.2741702,2.06616868622449,-0.3094951769770408,-0.05117521324936314,2.0898466946065213,13.111545428282936,-3.638307481807775,1.5617937933601518,13.696317194891622
565,1790565580.2941701,2.09969895966199,-0.23285455197704083,-0.09428556481186313,2.1146741430570253,13.153038463189755,-3.6459967386405028,1.5607040860285817,13.737958737617195
566,1790565580.3341691,2.17154954559949,-0.23285455197704083,-0.18050626793686314,2.1914449991122926,13.236388368561117,-3.6604652562707023,1.558027272674638,13.82130355350547
567,1790565580.3541691,2.0422184909119903,-0.046043028539540835,-0.09428556481186313,2.0449122457533067,13.278133568958868,-3.667032868845426,1.5564774125189227,13.862849024352341
568,1790565580.3637133,1.9033073580994901,0.12639837771045917,0.12126619300063687,1.9113505536265094,13.297890758376731,-3.6696393446728526,1.555868061812441,13.88239449689643
569,1790565580.3837132,1.97515794403699,0.2892597058354592,0.16916658362563688,2.0033814949549713,13.338899898729109,-3.673658505254889,1.5552183368675425,13.92266933446586
570,1790565580.3936322,2.14759935028699,0.2844696667729592,0.07336580237563688,2.167599709730845,13.359254500669618,-3.6749259933524505,1.5551248667652373,13.942495301111293
571,1790565580.4136322,2.35357102997449,0.12160833864795918,-0.10386564293686314,2.3589983579787814,13.400891864242887,-3.6764892161932816,1.5549189192725847,13.982784006035011
572,1790565580.4527376,2.49727220184949,-0.0029326769770408306,-0.20924650231186315,2.506024969838529,13.48431947003473,-3.678739199427724,1.553658309764295,14.063209015401268
573,1790565580.4727376,2.56912278778699,0.00185736208545917,-0.19966642418686315,2.576870588420746,13.528186869675602,-3.679718929576695,1.552496926291592,14.105403861204872
574,1790565580.483245,2.6074431002869902,-0.07478326291454084,-0.31462736168686317,2.627421251792033,13.551855806931702,-3.6802139097372892,1.5515730061964108,14.128133246358122
575,1790565580.5032449,2.61702317841199,-0.18016412228954085,-0.5828695491868632,2.687193022221376,13.597986810329548,-3.6813971659179057,1.5487319386033105,14.172385155815329
576,1790565580.5141027,2.58828294403699,-0.38134576291454086,-0.6595101741868632,2.698070951465444,13.623513193181921,-3.682400446741949,1.54640919056544,14.196885790892045
577,1790565580.5341027,2.6074431002869902,-0.6400078722895408,-0.5158090023118631,2.733940109931594,13.671273183747616,-3.6855033027450683,1.5410095095093357,14.242940544971733
578,1790565580.5584643,2.7607243502869903,-0.8890899035395409,-0.4822787288743632,2.9401824037239845,13.730530708258124,-3.6915097513185198,1.5335952179775594,14.300581528983454
579,1790565580.5784643,2.9475358737244903,-1.013630919164541,-0.4535384944993632,3.149779759470795,13.780444090584265,-3.6985552410978646,1.5270176632745078,14.349624843497603
580,1790565580.6039228,2.86610520966199,-1.056741270727041,-0.34815763512436315,3.0744877500170316,13.845550419068017,-3.7101315479961534,1.5183700589352813,14.414221801618774
581,1790565580.6239228,2.81341477997449,-1.1525420519770408,-0.25714689293686316,3.051193279735232,13.897544494970798,-3.721175558210055,1.5116876581456697,14.466308793209931
582,1790565580.6334105,2.8469450534119902,-1.2387627551020408,-0.22840665856186315,3.1131654151763914,13.922537540706658,-3.7273303609208375,1.5086476432698797,14.491585865714361
583,1790565580.6534104,2.9475358737244903,-1.3345635363520407,-0.17571622887436314,3.2403554978648694,13.97601192555299,-3.742218554777745,1.502594344758574,14.546164402337226
584,1790565580.678803,2.9906462252869903,-1.4734746691645408,-0.17092618981186314,3.338309183981687,14.045029518665304,-3.763633390298535,1.4954015642901077,14.617250641458915
585,1790565580.698803,3.05770677216199,-1.6028057238520408,-0.32899747887436315,3.4679671616155545,14.100308457516512,-3.7825847718466634,1.4898362026654761,14.67468085050202
586,1790565580.7389283,3.09123704559949,-1.7225567004145408,-0.4822787288743632,3.571490001463586,14.213081930596097,-3.824910483375993,1.477903968495318,14.792763038451305
587,1790565580.7589283,2.9140056002869903,-1.7465068957270409,-0.4822787288743632,3.43137111773861,14.269868715185288,-3.848046280023709,1.4714017837362883,14.852664290658778
588,1790565580.753545,2.85652513153699,-1.6842363879145408,-0.45832853356186315,3.347604080854665,14.269868715185288,-3.848046280023709,1.4714017837362883,14.852664290658778
589,1790565580.773545,3.00501634247449,-1.6411260363520408,-0.3625277523118631,3.4430864434294435,14.32704689054348,-3.874124125496198,1.4642733988774341,14.913658401956354
590,1790565580.7991278,3.1630876315369902,-1.6171758410395407,-0.12302579918686314,3.5546471572984286,14.401049782308341,-3.908729508880657,1.455591286420653,14.992903227834871
591,1790565580.8191278,3.01459642059949,-1.6411260363520408,0.3320279117506369,3.4483806026112176,14.459491856312445,-3.9366125313213707,1.450135451042237,15.055786787507714
592,1790565580.859294,2.89963548309949,-1.3776738879145407,0.6529605289381369,3.2760080477072018,14.577072522659067,-3.993304610459375,1.4437892374694252,15.182952690600423
593,1790565580.879294,2.7607243502869903,-0.8938799426020408,0.4757290836256369,2.940567708974075,14.635328091265798,-4.020706387901858,1.4427962882769585,15.246001748857775
594,1790565580.873917,2.93316575653699,-0.6591680285395408,0.2505972476881369,3.0167470602817845,14.635328091265798,-4.020706387901858,1.4427962882769585,15.246001748857775
595,1790565580.893917,3.0864470065369902,-0.7789190051020408,0.24101716956313687,3.1923281812330213,14.693706853080448,-4.044641434872115,1.4437423685972777,15.308446604663406
596,1790565580.9196107,2.99543626434949,-0.9609404894770409,0.2553872867506369,3.156147604965626,14.769175309734635,-4.0741308117028785,1.4457320540541663,15.38886683198804
597,1790565580.9396107,2.73677415497449,-0.9178301379145408,0.13084627112563688,2.8895442000544036,14.82770666634992,-4.096460355132407,1.4476278619481044,15.451132607390885
598,1790565580.96395,2.52601243622449,-0.8316094347895409,0.02546541175063687,2.659504007740427,14.897859394338923,-4.122751910121482,1.4498742553489299,15.52563793221478
599,1790565580.98395,2.56912278778699,-0.7980791613520408,-0.07033536949936314,2.6911464677184305,14.954501041545408,-4.143560069140234,1.4513759688854666,15.585656343292518
600,1790565580.9938529,2.7511442721619903,-0.8603496691645409,-0.12302579918686314,2.8851571372711793,14.982291625700071,-4.153549473693662,1.4518643904894386,15.615023080236375
601,1790565581.0138528,2.66492356903699,-0.8986699816645409,-0.10386564293686314,2.814287376323975,15.038122643853145,-4.173336390287023,1.4523625064260113,15.673902708902293
602,1790565581.0394945,2.54038255341199,-0.8507695910395409,-0.05596525231186314,2.6796426112793363,15.108976207583103,-4.198264019147026,1.452597964492833,15.748543540982626
603,1790565581.0594945,2.52601243622449,-0.8124492785395409,0.03504548987563687,2.653684390525902,15.163550462412427,-4.2172854256388375,1.4527226894461802,15.805985012009396
604,1790565581.0983045,2.61702317841199,-0.7597588488520408,0.08294588050063686,2.7263389084716887,15.268536819278149,-4.253236157409275,1.4532718576882293,15.916351136636019
605,1790565581.1183045,2.71282395966199,-0.7262285754145409,0.06857576331313688,2.809185721019308,15.322518845630105,-4.271212666061008,1.4537396925697497,15.972983456673413
606,1790565581.1440036,2.5978630221619903,-0.7118584582270409,0.07336580237563688,2.6946274858362576,15.391714800058514,-4.293618688135294,1.454524251778187,16.045425725871404
607,1790565581.1640036,2.5212223971619903,-0.7262285754145409,0.058995685188136866,2.6243953228449985,15.445166554348255,-4.310597403348707,1.455241779845748,16.101308906518227
608,1790565581.1583107,2.5978630221619903,-0.7549688097895408,-0.017644939811863134,2.70539858977797,15.445166554348255,-4.310597403348707,1.455241779845748,16.101308906518227
609,1790565581.1783106,2.61702317841199,-0.8220293566645409,-0.060755291374363134,2.7437627056642304,15.498134596348663,-4.32711854494926,1.455695315790009,16.156583169748362
610,1790565581.2042797,2.60265306122449,-0.8603496691645409,-0.027225017936863136,2.741303651902577,15.566760861278619,-4.348629408357239,1.4560245192641887,16.228204732630278
611,1790565581.2242796,2.66492356903699,-0.7645488879145409,-0.008064861686863134,2.7724389394203506,15.619586709892728,-4.365148309887091,1.4561870894275708,16.2833193665967
612,1790565581.2483044,2.71282395966199,-0.7358086535395408,-0.012854900749363135,2.8108705874182656,15.683214554787542,-4.384718389568865,1.4563153876176016,16.34961249190741
613,1790565581.2683043,2.64576341278699,-0.7645488879145409,-0.0032748226243631343,2.7540170229896628,15.73627572536449,-4.400816784131102,1.456381977326989,16.404834974362544
614,1790565581.27808,2.68887376434949,-0.8124492785395409,-0.022434978874363135,2.8090246134705743,15.762231997877246,-4.408661316514326,1.4563907932934324,16.43183879854671
615,1790565581.29808,2.7176139987244903,-0.8076592394770409,-0.05596525231186314,2.835643031596586,15.815480073443936,-4.4247332377896855,1.4562885241581884,16.487220822342916
616,1790565581.3242025,2.6840837252869902,-0.8795098254145409,-0.012854900749363135,2.824536816156674,15.885179601649064,-4.445881939500273,1.4560401519672364,16.559735810717605
617,1790565581.3442025,2.69366380341199,-0.9034600207270409,0.06378572425063687,2.841853851534634,15.93860510787612,-4.462319493346623,1.4559549130679452,16.615391441503952
618,1790565581.368776,2.68887376434949,-0.9034600207270409,0.07815584143813686,2.837673424693195,16.00432161396018,-4.48281668951756,1.4561274922471708,16.683952261636573
619,1790565581.388776,2.65534349091199,-0.8795098254145409,0.03504548987563687,2.7974300302402586,16.057800589301237,-4.499671095245959,1.4564166843011292,16.73980732533878
620,1790565581.413838,2.6745036471619903,-0.9130400988520408,0.03983552893813687,2.826340186559345,16.12478080702829,-4.520992565073406,1.4568654605187055,16.80983006511991
621,1790565581.433838,2.77988450653699,-0.9274102160395409,0.04941560706313687,2.930919562308105,16.178396489760487,-4.538216045025543,1.4573037515619547,16.865931699006083
622,1790565581.4436555,2.7271940768494902,-0.9130400988520408,-0.012854900749363135,2.876003303785996,16.204822520259935,-4.546757675035744,1.4575135481821933,16.893597130621846
623,1790565581.4636555,2.59307298309949,-0.9322002551020409,-0.04638517418686314,2.755934758966029,16.258561762510737,-4.564316069106075,1.4577879682893748,16.94989550187745
624,1790565581.4885323,2.65055345184949,-0.9130400988520408,-0.05596525231186314,2.803962897880306,16.325161819617307,-4.586322749560192,1.4578871418659298,17.01971503046517
625,1790565581.5085323,2.71282395966199,-0.8938799426020408,-0.041595135124363136,2.8566003121137546,16.378719097917056,-4.604071745960967,1.4578085732824408,17.075863719494976
626,1790565581.5180154,2.75593431122449,-0.8124492785395409,-0.14218595543686313,2.8767107264908165,16.404193957987733,-4.612438757764288,1.4576461965514518,17.102540838709558
627,1790565581.5380154,2.70324388153699,-0.7310186144770409,-0.12781583824936313,2.803257495537378,16.458050511184755,-4.629753174977595,1.4569501077785927,17.158809536400828
628,1790565581.563954,2.63618333466199,-0.7597588488520408,0.04462556800063687,2.7438453899004527,16.52780921697953,-4.6517407198216025,1.456020902111769,17.2315746844189
629,1790565581.583954,2.62660325653699,-0.8172393176020408,0.12605623206313687,2.753691148826848,16.581422512230958,-4.668516620705041,1.4556679329358984,17.287498057784322
630,1790565581.608959,2.6745036471619903,-0.8603496691645409,0.011095294563136867,2.8095007416756035,16.648339284301635,-4.68949059142565,1.4555500390095535,17.357337032170328
631,1790565581.628959,2.62660325653699,-0.8507695910395409,0.058995685188136866,2.7615818030902375,16.70178544774946,-4.7063167801747525,1.4555750231790292,17.413148865903395
632,1790565581.6385508,2.53559251434949,-0.9609404894770409,0.15479646643813688,2.715989316835263,16.727286530903,-4.714479340050521,1.4557390071951706,17.439828158320875
633,1790565581.6585507,2.60265306122449,-0.9801006457270409,-0.032015056999363134,2.781263237582959,16.780190538338086,-4.731857748497609,1.456213814929501,17.495308826360837
634,1790565581.684239,2.65055345184949,-0.9944707629145408,-0.07033536949936314,2.831846175837538,16.84806929503966,-4.754634831469796,1.456534995830899,17.566601422732973
635,1790565581.704239,2.54517259247449,-1.0375811144770408,0.13563631018813688,2.751885772201344,16.90078385396206,-4.7727563826271,1.4568454990672377,17.622091169166186
636,1790565581.7291973,2.42542161591199,-1.0423711535395408,0.14042634925063688,2.643657919668947,16.96600420982418,-4.795871905387344,1.4576916153258839,17.690973716165168
637,1790565581.7491972,2.5643327487244902,-1.0711113879145409,0.020675372688136868,2.7791202785300437,17.017912604626446,-4.81478688349995,1.458509585821699,17.745950872358478
638,1790565581.7738783,2.5643327487244902,-1.056741270727041,-0.18050626793686314,2.779404085807459,17.08185535901214,-4.838566529684201,1.459071733762027,17.813769923647698
639,1790565581.7938783,2.54517259247449,-1.1190117785395408,-0.20924650231186315,2.788166957827901,17.13356246723249,-4.858209237384457,1.4588743046503279,17.86867297953417
640,1790565581.8039224,2.34399095184949,-1.3585137316645408,-0.04638517418686314,2.709613390478011,17.159317959506414,-4.868460547903862,1.4585974579646976,17.896133869814363
641,1790565581.8239224,2.43979173309949,-1.2770830676020408,-0.041595135124363136,2.7541341684316083,17.210085689953896,-4.8897646376589465,1.4579969150166807,17.950559954259198
642,1790565581.8486319,2.4781120455994903,-1.171702208227041,0.006305255500636866,2.7411612742697833,17.272513490885373,-4.916675308058794,1.457300853379213,18.017689756318706
643,1790565581.8686318,2.37273118622449,-1.023210997289541,0.17395662268813689,2.5898021031796223,17.32273975538022,-4.938482077824388,1.457092359105077,18.071774567224587
644,1790565581.8934793,2.01826829559949,-1.0663213488520409,0.5236294742506369,2.341929964440377,17.383962603406324,-4.965404439759316,1.4581721806480508,18.13790680192803
645,1790565581.9134793,1.8266667330994901,-0.9705205676020409,0.5954800601881369,2.1524911214759093,17.431616995546833,-4.986879242076508,1.4605896276611245,18.18965523903414
646,1790565581.923529,1.84582688934949,-0.8363994738520408,0.42782869300063686,2.0711538754665764,17.454738576468856,-4.997413203102775,1.4623934245625312,18.21484647268869
647,1790565581.943529,2.13801927216199,-0.9417803332270409,0.27933748206313685,2.3528931197729097,17.49982706323681,-5.017899835799616,1.4665054956965022,18.264005704505827
648,1790565581.9685605,2.69845384247449,-0.7549688097895408,0.1835367008131369,2.8080806192603776,17.556873953468482,-5.042879809999952,1.4717490770721045,18.325951684481428
649,1790565581.9885604,2.5643327487244902,-0.7789190051020408,0.3607681461256369,2.7041950591532746,17.603511054856977,-5.062145584745722,1.4761266689785149,18.37628551482867
650,1790565582.0143313,1.87935716278699,-0.7022783801020409,0.31765779456313686,2.0312766288529556,17.663179854531375,-5.086109586607221,1.482232563244221,18.440538134014485
651,1790565582.0343313,1.53447435028699,-0.6783281847895408,0.2553872867506369,1.6970454691028185,17.70766160190459,-5.1039885415985,1.4871199324482822,18.48846949138354
652,1790565582.0438883,1.9847380221619901,-0.8555596301020408,0.3847183414381369,2.1952620571391335,17.728251383954785,-5.112349948458228,1.4895638632569632,18.510694736581787
653,1790565582.0638883,2.55954270966199,-0.49151666135204086,0.16437654456313688,2.6114875376637383,17.77169285252476,-5.12924381104848,1.4947347629480268,18.557382383548173
654,1790565582.089482,2.46374192841199,-0.28075494260204087,-0.041595135124363136,2.4800358430629026,17.828588045053266,-5.149102269036194,1.500595018154937,18.617829929014857
655,1790565582.109482,2.27214036591199,-0.20890435666454085,0.04941560706313687,2.282258700248838,17.873483004567383,-5.163027218362097,1.5044992700261917,18.664987619219474
656,1790565582.1334484,2.7607243502869903,-0.03646295041454083,0.08294588050063686,2.7622108000861343,17.928258070359337,-5.177651784750978,1.5087139371787313,18.72182504954517
657,1790565582.1534483,2.76551438934949,-0.03167291135204083,-0.09907560387436314,2.767469780556902,17.975400925205914,-5.188127607352299,1.5116793253294267,18.770106043245818
658,1790565582.1640608,2.17154954559949,-0.17537408322704084,-0.15176603356186313,2.18389936283799,18.00059341158186,-5.193017326063834,1.5128171537547084,18.795675243485615
659,1790565582.1840608,2.09969895966199,-0.20890435666454085,-0.036805096061863135,2.1103865443409155,18.047355741370247,-5.201426509669743,1.5143569674861792,18.842907525539648
660,1790565582.2234478,2.54517259247449,-0.12268365353954083,-0.027225017936863136,2.5482731419396134,18.13935453898972,-5.216482569533093,1.5167453899863876,18.935374040864748
661,1790565582.2434478,2.44937181122449,-0.02209283322704083,-0.10386564293686314,2.451672579012912,18.18655433730374,-5.223198143521229,1.5175796312860996,18.982507880874948
662,1790565582.2539918,2.10927903778699,0.02580755739795917,0.015885333625636867,2.109496725072323,18.211310656959796,-5.226204609384446,1.5178838988045757,19.007078207701962
663,1790565582.2739918,1.4290934909119901,-0.20411431760204085,0.10210603675063687,1.4472029930725294,18.256532339262506,-5.231319335207309,1.5185514502430004,19.051867980554732
664,1790565582.283922,1.18959153778699,-0.36218560666454086,0.006305255500636866,1.2435216912849993,18.27756758708534,-5.233899666072673,1.5189139181020352,19.07276283356956
665,1790565582.303922,1.6254850924744901,-0.22806451291454083,-0.05117521324936314,1.6422040404160703,18.31780168369488,-5.2392024615295565,1.5194671434096603,19.112819816970333
666,1790565582.3289962,1.95599778778699,0.2126190808354592,-0.19008634606186314,1.9766808134653568,18.367412627965834,-5.2448824654603685,1.5196029826488764,19.16193706145931
667,1790565582.3489962,1.5871647799744901,0.2078290417729592,-0.16613615074936314,1.6093123282885622,18.40636288786682,-5.248102756502631,1.5191607465032355,19.2001204859857
668,1790565582.3737316,2.06616868622449,-0.21369439572704085,0.19311677893813686,2.0861477476456987,18.45408716066624,-5.251498993288712,1.5187458957179254,19.246770214914996
669,1790565582.3937316,2.41584153778699,-0.30470513791454085,-0.08949552574936313,2.4366257418605923,18.49360972809634,-5.254610730444792,1.5186162121023856,19.28550569477776
670,1790565582.4038014,2.18591966278699,0.2700995495854592,-0.26193693199936313,2.2180643577656385,18.513999585585648,-5.255968592678034,1.5182952962129281,19.305403572802764
671,1790565582.4238014,1.64943528778699,0.3659003308354592,0.015885333625636867,1.6896071035974154,18.55417490742853,-5.257306945945516,1.5173844467988091,19.344227520858112
672,1790565582.4785154,1.99910813934949,-0.36697564572704083,0.23622713050063687,2.046193474370086,18.662568390269893,-5.260423492576425,1.5163009624539212,19.448976395982633
673,1790565582.4985154,2.51643235809949,-0.9178301379145408,0.006305255500636866,2.6785973439845923,18.703020253021222,-5.263319030674894,1.5163281150694854,19.488579854779996
674,1790565582.4935293,2.48290208466199,-0.5729473254145409,-0.20445646324936315,2.5563399314416246,18.703020253021222,-5.263319030674894,1.5163281150694854,19.488579854779996
675,1790565582.5135293,1.91288743622449,-0.5394170519770408,-0.11823576012436314,1.9910019574579254,18.745214547187818,-5.268980341378931,1.5156110524118442,19.53054784485403
676,1790565582.538643,1.65422532684949,-0.7884990832270409,-0.19966642418686315,1.8433824663340364,18.796968434137522,-5.277523973255886,1.5142469364520372,19.58242133615778
677,1790565582.5586429,1.71649583466199,-1.023210997289541,-0.13260587731186313,2.0027238986150504,18.837057953028843,-5.286024924226382,1.5128251258065142,19.623084662880636
678,1790565582.583707,1.71170579559949,-1.142961973852041,-0.21882658043686315,2.069827016121475,18.886206935436395,-5.299152408251357,1.5106499405348308,19.673634435376698
679,1790565582.603707,1.71649583466199,-1.128591856664541,-0.25235685387436313,2.0697249843974066,18.924684863286796,-5.311463540728111,1.5084678319096962,19.71372154919275
680,1790565582.6143928,1.68296556122449,-1.2722930285395408,-0.027225017936863136,2.109939295889728,18.944883721064947,-5.318978674183976,1.5072527806562888,19.73504406597289
