imu_index,t_imu,ax,ay,az,mag,vx,vy,vz,velocity
0,1791274087.4549768,0.08133486328125009,0.17703984375,-0.010346484375000393,0.19510385951827347,0.0,0.0,0.0,0.0
1,1791274087.4749768,0.08612490234375009,0.186619921875,0.04713398437499961,0.21086988056006079,0.0003548912606700909,0.0007712147137303837,4.198944237758238e-05,0.0008499900322035691
2,1791274087.4999466,0.09570498046875009,0.1818298828125,0.02318378906249961,0.2067825854500949,0.0010720277324503022,0.0022796510976024085,0.0002182360437901234,0.0025285726322871504
3,1791274087.5199466,0.10049501953125009,0.1578796875,-0.024716601562500395,0.18877540906718593,0.0018545692671107557,0.0038161906507485624,0.00033592927498161837,0.004256240915075431
4,1791274087.5458255,0.1292352539062501,0.07165898437500001,-0.0534568359375004,0.15714450102475194,0.0031611387616205357,0.005951676424619448,0.00031364648299893257,0.006746378632265487
5,1791274087.5658255,0.1531854492187501,0.004598437500000004,0.013603710937499609,0.1538570389389537,0.004443061490389946,0.007468873803029503,0.00023922917428643756,0.008693796747727446
6,1791274087.574291,0.08133486328125009,0.07644902343750001,0.0040236328124996085,0.11169602853520305,0.005053178827880459,0.00806619734205305,0.00022364677880997873,0.00952093344736508
7,1791274087.594291,0.05738466796875009,0.1722498046875,-0.015136523437500393,0.18218701840290266,0.006486460211127579,0.009638755748522175,0.00017568579507236658,0.011619408072221267
8,1791274087.6202302,0.1196551757812501,0.11955937500000001,0.01839374999999961,0.17014739281192343,0.008410956381194221,0.01194007052064379,0.00012914948072903018,0.014605688990002192
9,1791274087.6402302,0.1483954101562501,0.042918750000000006,0.01839374999999961,0.1555684636938563,0.010074303261559428,0.013692017273671551,0.0001538318272602749,0.016999605508936533
10,1791274087.6496007,0.1148651367187501,0.033338671875,-0.019926562500000394,0.121254008465174,0.01092174768831104,0.014443322171265802,0.00016258430821667415,0.018108577016634524
11,1791274087.6696007,0.07654482421875008,0.04770878906250001,-0.039086718750000395,0.09830061165186665,0.012746287354124985,0.01592790289596186,8.994313205597224e-05,0.02040034366730425
12,1791274087.6942918,0.10528505859375009,0.05728886718750001,0.06150410156249961,0.13472086837504674,0.014997628494346573,0.017680219873993024,5.5228692393346095e-05,0.023184522541032364
13,1791274087.7142918,0.19629580078125008,0.0956091796875,0.056714062499999614,0.22558732573024298,0.017000062140037433,0.019116048183224467,0.00020865465542640926,0.025582590714658373
14,1791274087.7397664,0.1531854492187501,0.10997929687500001,-0.05824687500000039,0.19736748982731506,0.019835751422293095,0.02106337098558756,0.00037183566313591184,0.02893546083137219
15,1791274087.7597663,0.09091494140625009,0.07644902343750001,-0.0678269531250004,0.13678623953333285,0.022094248136857432,0.02264252421042319,0.0002916210255161556,0.03163739474380202
16,1791274087.7848861,0.0669647460937501,0.038128710937500004,0.03276386718749961,0.08373497960969456,0.02480284329918016,0.024544277710113232,0.0001399262623426204,0.034894443445823015
17,1791274087.804886,0.1388153320312501,0.0860291015625,0.06150410156249961,0.17450918953340944,0.026944573407860734,0.026017538928206876,0.0001786676130000456,0.037456031425236326
18,1791274087.8149877,0.1531854492187501,0.1435095703125,-0.039086718750000395,0.21351475407163384,0.02808527832264605,0.026823936729244217,0.00021228370177499205,0.03883750126469297
19,1791274087.8349876,0.03343447265625009,0.1339294921875,-0.0726169921875004,0.15597499925873587,0.030284908583058177,0.02859718768372369,0.00010130105684003246,0.041653152260140235
20,1791274087.8741086,-9.580078124991288e-05,0.04770878906250001,0.04713398437499961,0.06706526831872452,0.03403992059607875,0.03207840545390139,-0.00015799205790962883,0.04677355291339968
21,1791274087.8941085,0.08133486328125009,0.06686894531250001,0.06629414062499961,0.12442559589326058,0.035793518702866074,0.033763034293903996,-0.00010052579761063636,0.04920496490497423
22,1791274087.9047685,0.1627655273437501,0.10997929687500001,-0.010346484375000393,0.19671073273090764,0.0367831391335097,0.03466764060936878,-2.9760976554739607e-05,0.05054547967574562
23,1791274087.9247684,0.19150576171875008,0.11955937500000001,-0.0917771484375004,0.2437046283868821,0.03889274789370488,0.036454573919478594,-7.009371292839078e-05,0.05330653535451921
24,1791274087.934315,0.07654482421875008,0.018968554687500003,-0.029506640625000392,0.0841995131968407,0.03994059524159982,0.037278766210012894,-0.0001732956534466735,0.05463503994487062
25,1791274087.954315,0.03343447265625009,-0.014561718749999997,0.04713398437499961,0.059594631451317354,0.04197152052996498,0.0387530587160801,-0.0003306317486492695,0.05712720378945953
26,1791274087.9795563,0.07654482421875008,0.033338671875,0.0040236328124996085,0.08358688161474914,0.04435841699446917,0.040370166656284824,-0.00040256888821373543,0.059979843079331074
27,1791274087.9995563,0.1579754882812501,0.07165898437500001,-0.1348875000000004,0.2197405347122055,0.04631776411836697,0.04161677991849585,-0.0006473139308668617,0.06227126672097089
28,1791274088.0247247,0.1148651367187501,-0.004981640624999996,-0.05824687500000039,0.12888566570414056,0.04892861959155109,0.04307609304171898,-0.001273674138871397,0.06520108781826864
29,1791274088.0447247,0.014274316406250088,-0.033721875,0.08545429687499961,0.09296966073285379,0.05088582834863789,0.04400372943780072,-0.0016559374315825136,0.06729366879535938
30,1791274088.0547729,0.004694238281250087,0.07165898437500001,0.08066425781249961,0.10799892778698802,0.05173594305275626,0.044428463451231595,-0.0016939929329148273,0.06821558311890491
31,1791274088.0747728,0.10049501953125009,0.090819140625,-0.005556445312500392,0.1355663650724643,0.05333199500015782,0.045390767470797906,-0.00164571559535396,0.070052350725052
32,1791274088.0997293,0.1292352539062501,-0.004981640624999996,-0.015136523437500393,0.13021398518324973,0.05545484287839366,0.04657210100531421,-0.001633241951295514,0.07243526537528518
33,1791274088.1197293,0.0717547851562501,-0.0385119140625,0.02797382812499961,0.08610721094974574,0.05720238100076227,0.04731156809776485,-0.0016054891462354015,0.07425008056173736
34,1791274088.144984,0.07654482421875008,-0.004981640624999996,0.09024433593749961,0.11843971895777312,0.05935895562394018,0.04802287668000089,-0.0013517837598681893,0.0763643216215591
35,1791274088.164984,0.1196551757812501,0.042918750000000006,0.056714062499999614,0.13919721648818348,0.06110493345831563,0.048558593034748264,-0.000960566955347572,0.0780555734034104
36,1791274088.1745813,0.1148651367187501,0.042918750000000006,-0.0007664062500003921,0.12262383990692712,0.06198590001373246,0.04883888970364475,-0.0007607242250689911,0.0789181072336623
37,1791274088.1945813,0.06217470703125009,0.009388476562500005,0.02797382812499961,0.06882131026472403,0.06381194162471229,0.049413848243094596,-0.00036592579622082605,0.08070827834736417
38,1791274088.2197282,0.028644433593750088,0.004598437500000004,0.06629414062499961,0.07236409527214023,0.06593480478780844,0.05005471301184999,0.00023380526071680428,0.0827824102210428
39,1791274088.2397282,0.028644433593750088,0.023758593750000005,0.07108417968749961,0.08023674317124936,0.06745584736443697,0.05053048936133495,0.0008453059550396385,0.08428722466013357
40,1791274088.2645133,0.03822451171875009,0.06207890625000001,0.03276386718749961,0.07992731004114467,0.06918236202666735,0.05119121710159059,0.0016824804197930884,0.08607886305182029
41,1791274088.2845132,0.10528505859375009,0.004598437500000004,0.04713398437499961,0.11544566546039528,0.07058183726242329,0.05174442414246297,0.0023765424679834664,0.08754958101142711
42,1791274088.2945354,0.1531854492187501,0.023758593750000005,0.07587421874999961,0.17258954110910255,0.0713722155581545,0.052001373359708274,0.0027646335113287795,0.08835032078848051
43,1791274088.3145354,0.1244452148437501,0.05249882812500001,0.12856464843749962,0.18647146505528206,0.07312933159810572,0.05255160665082741,0.003729586658889856,0.09013035181455335
44,1791274088.339404,0.09570498046875009,0.129139453125,0.1620949218749996,0.22827878862831327,0.07539708013954143,0.05347194372153155,0.005291591774155019,0.09258493075242522
45,1791274088.359404,0.1388153320312501,0.22494023437500002,0.24352558593749962,0.35940578244350585,0.07729906784300736,0.05463219488683352,0.006967791203467218,0.09491244766523477
46,1791274088.3995504,0.1867157226562501,0.32553105468750004,0.33932636718749964,0.5059403246645474,0.08152444652442085,0.05826929642864136,0.01158271219875397,0.10087470202821516
47,1791274088.4195504,0.1819256835937501,0.5362927734375,0.35848652343749965,0.6702383760115829,0.08386664592110626,0.06110216262912817,0.014583620155664613,0.10478440033162066
48,1791274088.414575,0.2154559570312501,0.6799939453125001,0.49739765624999965,0.8696076491872091,0.08386664592110626,0.06110216262912817,0.014583620155664613,0.10478440033162066
49,1791274088.434575,0.1340252929687501,0.7231042968750001,0.5596681640624996,0.9241596491838067,0.08658976746888127,0.06680431790259396,0.01942862466125876,0.1110768930830073
50,1791274088.4593067,0.10049501953125009,0.857225390625,0.49739765624999965,0.9961621593524635,0.08988703369350368,0.0757291382470361,0.0264819097972687,0.12048183577770737
51,1791274088.4793067,0.1196551757812501,1.0057166015625,0.2626857421874996,1.0463207170357778,0.09248372710308858,0.0846582741854212,0.032470307198484066,0.12951673257342636
52,1791274088.5043766,0.1244452148437501,0.9817664062500001,0.33932636718749964,1.046180802446314,0.0957094052370916,0.09790899393333716,0.039982719892852195,0.1426361778578855
53,1791274088.5243766,0.0717547851562501,0.7757947265625,0.4638673828124996,0.9067409529696571,0.09819104364608706,0.10953067225213906,0.0462816911986981,0.1542090923276735
54,1791274088.5494425,0.028644433593750088,0.6943640625,0.3728566406249996,0.7886596409894263,0.10102348205910168,0.12467508001031583,0.054564989141849055,0.16949028745911784
55,1791274088.5694425,0.2250360351562501,0.6081433593750001,0.3345363281249996,0.729653422870141,0.10332499503166044,0.1368999525336484,0.06124390646399495,0.18212212298613917
56,1791274088.579832,0.6896698242187501,0.7039441406250001,0.1908351562499996,1.003792745749417,0.10505399897767058,0.14332033201468222,0.06460240776500706,0.18907810914813858
57,1791274088.599832,0.8812713867187502,0.7853748046875001,0.04234394531249961,1.1812052533712105,0.11023950052798158,0.15605968866735814,0.07044754185279652,0.20364240731417688
58,1791274088.6255202,0.7854706054687501,0.5362927734375,0.02318378906249961,0.951373480275767,0.11911192970683447,0.17251420170060489,0.07695520377851228,0.22331794593241988
59,1791274088.6455202,0.5938690429687501,0.10997929687500001,0.07108417968749961,0.6081355494785544,0.12705255608981877,0.1843729186181802,0.08140326275686442,0.23824822416170444
60,1791274088.6696045,0.7375702148437501,0.033338671875,-0.039086718750000395,0.7393571940880038,0.1375854736671162,0.19677020197889383,0.08601402694143907,0.2550425215169071
61,1791274088.6896045,1.1830438476562501,0.49318242187500005,-0.3216990234375004,1.3214809527210132,0.1479010780098796,0.20631063607516348,0.08872736817991388,0.26890770405170067
62,1791274088.7001393,1.1447235351562501,0.29679082031250004,-0.36480937500000044,1.2375631874980284,0.1543588474433548,0.21120631788639496,0.08939979140693557,0.27645449029229635
63,1791274088.7201393,0.9243817382812501,-0.028931835937499997,-0.3983396484375004,1.006972256179827,0.16788342711395143,0.21950828453757007,0.0893401606350124,0.2904313970328313
64,1791274088.7445822,0.8716913085937501,-0.158262890625,-0.5516208984375004,1.0436371474894233,0.18522568877141915,0.22778940386855484,0.08753672962228638,0.3063645660460809
65,1791274088.7645822,0.8669012695312501,-0.1151525390625,-0.6761619140625005,1.1054288092844775,0.19989507491439407,0.2331387789718709,0.08444077538500372,0.31849956951799285
66,1791274088.8044474,0.8669012695312501,0.05249882812500001,-0.5947312500000004,1.0526059081137416,0.2299329347300939,0.24201476334213878,0.07539554157878409,0.3422349892093198
67,1791274088.8244474,1.0537127929687502,0.22973027343750002,-0.5899412109375004,1.2292751038567717,0.24562308069379676,0.24622314669763393,0.06976132040677213,0.3547156291511445
68,1791274088.8199697,1.2836346679687503,0.11476933593750001,-0.8102830078125004,1.5223168244594982,0.24562308069379676,0.24622314669763393,0.06976132040677213,0.3547156291511445
69,1791274088.8399696,1.4129657226562502,-0.09120234375,-0.9348240234375005,1.696669076662526,0.26398422305162506,0.24973829070961165,0.061287653383189165,0.36852823545007585
70,1791274088.8649292,1.1255633789062502,-0.3019640625,-0.7815427734375004,1.403169384532295,0.28821344487881867,0.25273109926706294,0.04908595322859368,0.3864575386119587
71,1791274088.8849292,1.15430361328125,-0.3450744140625,-0.7623826171875004,1.425735051776588,0.3081357889770614,0.253798947336565,0.038459477347694886,0.4010495000813771
72,1791274088.9100556,1.23094423828125,-0.7282775390625,-1.1743259765625005,1.8505819060204303,0.3339053332529298,0.25291656117987216,0.02346202771298621,0.41953548745988944
73,1791274088.9300556,1.4273358398437501,-0.9007189453125,-1.2270164062500004,2.0866603651179054,0.35532783128883394,0.24987606657871464,0.00971308764784595,0.43450001197805627
74,1791274088.9397395,1.43212587890625,-0.81928828125,-0.9539841796875005,1.9058603400880694,0.36622135262872174,0.24737548717121946,0.002470484373072979,0.44194888173571195
75,1791274088.9597394,1.15430361328125,-0.87676875,-0.9060837890625004,1.7094233253973605,0.38922455821251406,0.24044163957878656,-0.01303399721138319,0.457687473984561
76,1791274088.9848447,0.9674920898437501,-1.12585078125,-1.1024753906250004,1.8490627118854595,0.4177634859484713,0.22927268904634426,-0.03335877193479517,0.47770817849327
77,1791274089.0048447,0.9579120117187502,-1.31745234375,-1.1599558593750003,1.9996934004856413,0.43997669232231157,0.2180446955011956,-0.050515314029955544,0.49363425324286014
78,1791274089.029417,0.9339618164062501,-1.2503917968750002,-1.0737351562500004,1.8943789235431139,0.46666112671973536,0.20158664896300627,-0.07254888272139756,0.5134911144465796
79,1791274089.049417,0.9962323242187502,-1.3509826171875001,-0.8486033203125004,1.8808935299496568,0.48801759360507185,0.1862983675698726,-0.09067594267896678,0.5301795733598228
80,1791274089.0601747,1.2213641601562502,-1.5138439453125,-0.8869236328125004,2.1377762822416244,0.49957102903295353,0.17699711662090514,-0.10036394028226266,0.539418309709765
81,1791274089.0801747,0.9722821289062501,-1.9114171875000001,-1.0593650390625005,2.391882624387905,0.5211189754742922,0.15716079613127737,-0.11859296608017747,0.5570716238004652
82,1791274089.1049564,0.6657196289062501,-2.150919140625,-1.0833152343750005,2.49864116488283,0.5468582129652413,0.12871834756321818,-0.14177464813011054,0.5794155408162257
83,1791274089.1249564,0.7663104492187501,-2.2658800781250004,-0.9635642578125004,2.5787400628910535,0.5666630975872682,0.10258193962079562,-0.16074735032257403,0.5978878081540806
84,1791274089.1949189,0.7663104492187501,-2.476641796875,-1.0066746093750005,2.7810753430589368,0.6335930721431874,-1.7196960480109214e-05,-0.22749916961301447,0.6731983760662148
85,1791274089.2149189,0.7088299804687501,-2.6059728515625,-0.8007029296875005,2.8168527874033926,0.6520688995988686,-0.03257137602482592,-0.24643006283017097,0.6978413288325018
86,1791274089.195915,0.6705096679687501,-2.6778234375,-0.8198630859375005,2.87966960899108,0.6520688995988686,-0.03257137602482592,-0.24643006283017097,0.6978413288325018
87,1791274089.215915,0.6561395507812501,-2.7975744140625,-0.9970945312500005,3.041568545432639,0.6691663132405071,-0.07104169318734321,-0.2648992867055884,0.7231888474277978
88,1791274089.2247453,0.7040399414062501,-3.08018671875,-1.0881052734375005,3.3417354095651715,0.6764835861156228,-0.0893718437897705,-0.2732115456670876,0.7350251134703055
89,1791274089.2447453,0.7758905273437501,-3.3532189453125,-0.9875144531250004,3.5806798517537426,0.6927905882564236,-0.13431088553008427,-0.29232761375323224,0.7638413754904979
90,1791274089.26963,0.8046307617187501,-3.319688671875,-0.9252439453125004,3.5389037708331004,0.7129866965793794,-0.19429244984770128,-0.31611466402249083,0.8037587115403788
91,1791274089.28963,0.7423602539062502,-3.1616173828125,-0.8965037109375005,3.3690714040528476,0.7291041526583011,-0.2449908064136203,-0.3350974067252928,0.8389896499032581
92,1791274089.315086,0.7088299804687501,-3.1807775390625,-0.8198630859375005,3.360351346793782,0.7493118967163352,-0.3119491700376386,-0.35891131828174394,0.887467147357322
93,1791274089.3350859,0.5842889648437501,-3.34842890625,-0.9204539062500005,3.521449293711275,0.7647467010857789,-0.36645907879783135,-0.3774251884622818,0.9282130930668484
94,1791274089.344489,0.5315985351562501,-3.1759875,-1.0641550781250004,3.391448014202156,0.7717020002205994,-0.3928445815964744,-0.3862236570920601,0.9481664177409724
95,1791274089.364489,0.7471502929687501,-3.0131261718749998,-0.7671726562500004,3.1977674669086027,0.7861945229960987,-0.44983027531463216,-0.40487729132124894,0.9921566033678012
96,1791274089.3894405,0.9579120117187502,-2.946065625,-0.7288523437500004,3.1824713396968045,0.8047537287891326,-0.5214118582622653,-0.4274579138051589,1.0498662572019257
97,1791274089.4094405,0.8956415039062501,-2.6730333984375,-0.7671726562500004,2.9216151589796118,0.8201788564815709,-0.5786106247656321,-0.44508662995159815,1.0979916756846397
98,1791274089.4494154,0.6657196289062501,-2.5245421875,-0.7528025390625004,2.7172058338663465,0.8510663094913454,-0.6913706247398449,-0.47959375884854843,1.1967946262541713
99,1791274089.4694154,0.5507586914062501,-2.400001171875,-0.6426316406250004,2.5448607401375183,0.8660264135352372,-0.7467104440851317,-0.4963616220635302,1.2465765504388646
100,1791274089.4649472,0.6369793945312501,-2.486221875,-0.6138914062500004,2.6389211089863065,0.8660264135352372,-0.7467104440851317,-0.4963616220635302,1.2465765504388646
101,1791274089.4849472,0.6513495117187501,-2.4574816406249997,-0.6809519531250005,2.631951322287315,0.8802819448387131,-0.8003389402069514,-0.5120207317800443,1.2952235140674313
102,1791274089.510041,0.6752997070312501,-2.3281505859375002,-0.48456035156250044,2.472066661606032,0.8979820869611034,-0.8665397730538971,-0.530914507155496,1.3561464598985913
103,1791274089.530041,0.6273993164062501,-2.4047912109375003,-0.3791794921875004,2.514046092999261,0.9119272311402824,-0.9184874426965475,-0.5450098492270024,1.4043739505704544
104,1791274089.584617,0.4022674804687501,-2.4335314453125,-0.6713718750000004,2.556293139627855,0.9484873236198487,-1.0587831553033673,-0.5820038071341633,1.5360268241604242
105,1791274089.6046169,0.4597479492187501,-2.5005919921875,-0.7001121093750005,2.6371358428978606,0.9611685361147217,-1.109885380221746,-0.5955843675112278,1.5844277360834846
106,1791274089.5856185,0.7136200195312501,-2.4910119140624998,-0.4510300781250004,2.6301752830658542,0.9611685361147217,-1.109885380221746,-0.5955843675112278,1.5844277360834846
107,1791274089.6056185,0.6800897460937502,-2.4574816406249997,-0.4989304687500004,2.598205089941496,0.9739173175304047,-1.1605937598894334,-0.6082889667343886,1.6326384425005742
108,1791274089.6605422,0.4453778320312501,-2.62034296875,-0.5420408203125004,2.7126309992380957,1.008312440227803,-1.2998774289568857,-0.6422328924697004,1.7660233281584101
109,1791274089.6805422,0.3495770507812501,-2.6778234375,-0.5851511718750004,2.7632126901134337,1.0201508357812747,-1.3509356954997267,-0.6544299889120557,1.8149417598115916
110,1791274089.6745677,0.4549579101562501,-2.764044140625,-0.6186814453125005,2.86874422737739,1.0201508357812747,-1.3509356954997267,-0.6544299889120557,1.8149417598115916
111,1791274089.6945677,0.8285809570312501,-2.58202265625,-0.5133005859375004,2.7598668249150915,1.0316551641302556,-1.4027827601697853,-0.6664752476423513,1.864484139279849
112,1791274089.7196124,0.9052215820312501,-2.4574816406249997,-0.5037205078125004,2.6669039121376277,1.0471570597593767,-1.4674347284129676,-0.6812065423898535,1.927159812613132
113,1791274089.7396123,0.6130291992187501,-2.5197521484375,-0.7528025390625004,2.700308751137382,1.0599569071206292,-1.5187854380514958,-0.6930907252532339,1.9775218343224579
114,1791274089.7949724,0.7184100585937502,-2.65866328125,-0.6043113281250004,2.8195381956369903,1.095600603254043,-1.6611044863822368,-0.7266866419643478,2.1184150377438407
115,1791274089.8149724,0.8716913085937501,-2.6442931640625,-0.4606101562500004,2.822108040282335,1.1089312261834385,-1.7127622745543385,-0.7386006633168224,2.169980187327365
116,1791274089.795968,0.7232000976562502,-2.4047912109375003,-0.49414042968750044,2.559338569573007,1.1089312261834385,-1.7127622745543385,-0.7386006633168224,2.169980187327365
117,1791274089.815968,0.5172284179687501,-2.304200390625,-0.7384324218750005,2.4742972978579267,1.122456726852602,-1.763586083613527,-0.7502747070942754,2.22104865189337
118,1791274089.8396547,0.5411786132812502,-2.2850402343750003,-0.7384324218750005,2.461618493158871,1.1379528834327752,-1.8229023516838303,-0.7646504223162428,2.2809208704020874
119,1791274089.8596547,0.5363885742187501,-2.495801953125,-0.5851511718750004,2.6189963699328938,1.1506908745839135,-1.8726450863879522,-0.776953293322686,2.331211171993777
120,1791274089.8711782,0.4693280273437501,-2.5580724609375,-0.6138914062500004,2.672239916497921,1.157798489782881,-1.9013743889609562,-0.7840148932224444,2.3601697529488788
121,1791274089.8911781,0.4310077148437501,-2.4191613281250004,-0.7336423828125004,2.5644376240433595,1.1696344781590253,-1.9512230420810361,-0.7964537941096826,2.410322554887212
122,1791274089.974575,0.4214276367187501,-2.5580724609375,-0.7336423828125004,2.694358386379954,1.2169174110960568,-2.159036663104237,-0.8497194140126539,2.619990530633081
123,1791274089.994575,0.5315985351562501,-2.54370234375,-0.5516208984375004,2.6565587198051,1.2279853046290552,-2.2090509369214417,-0.862505199279024,2.670537243530178
124,1791274089.975572,0.4549579101562501,-2.6059728515625,-0.45582011718750043,2.6843720275564187,1.2279853046290552,-2.2090509369214417,-0.862505199279024,2.670537243530178
125,1791274089.995572,0.3735272460937501,-2.4239513671875,-0.5420408203125004,2.5117466203718837,1.2384824425240493,-2.2592969584994873,-0.8745242051827142,2.7208553972190117
126,1791274090.0200863,0.5315985351562501,-2.2994103515625004,-0.5324607421875004,2.4193799638386517,1.2510830645196191,-2.3203302051795376,-0.8890218004537478,2.7819958405932854
127,1791274090.0400863,0.5172284179687501,-2.5005919921875,-0.6617917968750004,2.637888157249611,1.2613945198486007,-2.3698552328669487,-0.9008668975050295,2.8317646665059013
128,1791274090.034608,0.4310077148437501,-2.4479015625000002,-0.6522117187500004,2.5697022854835936,1.2613945198486007,-2.3698552328669487,-0.9008668975050295,2.8317646665059013
129,1791274090.0546079,0.5076483398437501,-2.3712609375,-0.5659910156250004,2.4901668820437948,1.2714615289794056,-2.419175125492417,-0.9129276353681693,2.8813988920131863
130,1791274090.0796678,0.5124383789062501,-2.3712609375,-0.4510300781250004,2.4675695850903354,1.2841006292145112,-2.4806167461374593,-0.9276843913696927,2.943292747444205
131,1791274090.0996678,0.4741180664062501,-2.3425207031250004,-0.5516208984375004,2.452850749853126,1.2941544858942535,-2.529367743901207,-0.9391989501642513,2.992429061020116
132,1791274090.1250503,0.4262176757812501,-2.400001171875,-0.45582011718750043,2.479806264888967,1.3067141241524054,-2.5909865627608135,-0.9535382277470208,3.0544964106119705
133,1791274090.1450503,0.4501678710937501,-2.3616808593750003,-0.37438945312500044,2.433177974648496,1.3164405396466916,-2.6393983845043834,-0.964387295713873,3.1031407287913866
134,1791274090.1550527,0.41663759765625014,-2.3089904296875003,-0.5037205078125004,2.3997412448345594,1.321225510268393,-2.6634821495253047,-0.9696579877749925,3.127300852665084
135,1791274090.1750526,0.4789081054687501,-2.4239513671875,-0.6474216796875004,2.5542216104526254,1.3307013386552913,-2.711514196874142,-0.980342740148042,3.175554625685091
136,1791274090.2745314,0.4884881835937501,-2.4526916015625,-0.6282615234375004,2.5785711818210393,1.3779813678256159,-2.9509706395101234,-1.0350340173391896,3.417360938264298
137,1791274090.2945313,0.4884881835937501,-2.3377306640625,-0.49414042968750044,2.438807111573313,1.3875265460806192,-2.9990771341208182,-1.0460638467856334,3.466113550366853
138,1791274090.2755313,0.5028583007812502,-2.227559765625,-0.4606101562500004,2.329603119876122,1.3875265460806192,-2.9990771341208182,-1.0460638467856334,3.466113550366853
139,1791274090.2955313,0.4932782226562501,-2.2946203125,-0.49414042968750044,2.3984954758632036,1.3971811062921962,-3.0464380798719586,-1.0566823289099694,3.514182346222863
140,1791274090.2755313,0.4405877929687501,-2.3089904296875003,-0.5133005859375004,2.406040710217789,1.3971811062921962,-3.0464380798719586,-1.0566823289099694,3.514182346222863
141,1791274090.2955313,0.41663759765625014,-2.3568908203125,-0.45582011718750043,2.436450944691259,1.406633040939129,-3.0935247764761598,-1.0670923479830907,3.5619093382142113
142,1791274090.335438,0.40705751953125013,-2.4191613281250004,-0.4606101562500004,2.4960366727560515,1.425129206015024,-3.1876803571817365,-1.0874910175593406,3.6571759633180827
143,1791274090.355438,0.3256268554687501,-2.4814318359375,-0.5612009765625005,2.5648554231186838,1.434107464584674,-3.2351408388959007,-1.0977134190614903,3.7051012425920593
144,1791274090.394556,0.3495770507812501,-2.4287414062500003,-0.5468308593750004,2.5139635879683992,1.4510149376176322,-3.328450511581862,-1.117959156973362,3.79919199750416
145,1791274090.414556,0.40705751953125013,-2.4191613281250004,-0.5180906250000005,2.5072804492946816,1.4594975643667636,-3.3762730217002663,-1.1283549620053712,3.8474066041602235
146,1791274090.3955579,0.4549579101562501,-2.514962109375,-0.5995212890625005,2.625156545359696,1.4594975643667636,-3.3762730217002663,-1.1283549620053712,3.8474066041602235
147,1791274090.4155579,0.4693280273437501,-2.5868126953125,-0.5947312500000004,2.695472867162061,1.4681117584017565,-3.4247684415529376,-1.1390822620726861,3.8963956951499497
148,1791274090.4554121,0.5794989257812501,-2.5963927734375,-0.3887595703125004,2.6885327675982778,1.4858375754437705,-3.5224033856544366,-1.1601919824540727,3.995132582032938
149,1791274090.4754121,0.5555487304687501,-2.6442931640625,-0.2450583984375004,2.713111562040503,1.4951011535846583,-3.571910928577597,-1.1701471323991868,4.045135282361307
150,1791274090.469428,0.4405877929687501,-2.65866328125,-0.3935496093750004,2.723506809504854,1.4951011535846583,-3.571910928577597,-1.1701471323991868,4.045135282361307
151,1791274090.489428,0.5603387695312502,-2.6826134765625,-0.4606101562500004,2.778948779181651,1.5045655500595088,-3.6224532988552656,-1.179435191094539,4.095967866915642
152,1791274090.5146263,0.5363885742187501,-2.88858515625,-0.5564109375000004,2.990188963732876,1.5167738812198073,-3.6871092302691397,-1.1913040434648798,4.161079524193482
153,1791274090.5346262,0.3783172851562501,-3.1328771484375,-0.5516208984375004,3.2034869768804857,1.5263822911831844,-3.7397615491206375,-1.2009734126990257,4.214023787442207
154,1791274090.5748403,0.4262176757812501,-3.34842890625,-0.5420408203125004,3.418690670160726,1.545230538875465,-3.849297561114393,-1.2207978679321247,4.323791919903431
155,1791274090.5948403,0.6465594726562501,-3.3436388671875,-0.6378416015625005,3.464794645362442,1.5548075603589744,-3.905640610910558,-1.2309482265103573,4.380261255643574
156,1791274090.6349618,0.6561395507812501,-3.46338984375,-0.8629734375000004,3.6290923760247047,1.5750579616403566,-4.022198104527824,-1.25277241790389,4.497590900210318
157,1791274090.6549618,0.7184100585937502,-3.4969201171875,-0.7144822265625004,3.6407482981322703,1.5857001217808315,-4.082025366319699,-1.2643857705661,4.558074960364655
158,1791274090.6359603,0.7567303710937501,-3.4490197265625,-0.5372507812500004,3.571696561958572,1.5857001217808315,-4.082025366319699,-1.2643857705661,4.558074960364655
159,1791274090.6559603,0.5172284179687501,-3.1759875,-0.5851511718750004,3.2705999037573203,1.5971808210976828,-4.144044129181995,-1.2760559772515605,4.620866496336966
160,1791274090.6800914,0.2394061523437501,-3.415489453125,-0.6570017578125005,3.486335442833473,1.610324473072508,-4.219578223901893,-1.2902726879271094,4.697104310680565
161,1791274090.7000914,0.10049501953125009,-3.2765783203125,-0.5228806640625004,3.319558543984864,1.620093837757643,-4.282828997257407,-1.3020579776773065,4.760533923849539
162,1791274090.7241058,-0.019255957031249913,-3.19514765625,-0.33606914062500043,3.212830808555204,1.6302109268852103,-4.359039884885211,-1.3156332758499059,4.836290655107442
163,1791274090.7441058,-0.11984677734374992,-3.108926953125,-0.5324607421875004,3.1564702583546773,1.637164218673552,-4.422446114281502,-1.3265461012327497,4.898781570076824
164,1791274090.7555976,-0.3306084960937499,-3.2095177734374998,-0.6713718750000004,3.295610187847099,1.6401719729991608,-4.45885953650256,-1.3329134983091715,4.934394680327728
165,1791274090.7755976,-0.4407793945312499,-3.0945568359375,-0.4510300781250004,3.1581634879885954,1.643464315657871,-4.522182649480942,-1.344016501095487,4.99574731419877
166,1791274090.8002949,-0.48388974609374996,-2.7784142578125,-0.2115281250000004,2.828158273869494,1.6452073157919018,-4.599527385877167,-1.3568978721856817,5.069865000264925
167,1791274090.8202949,-0.55574033203125,-2.4287414062500003,-0.1779978515625004,2.497862159976066,1.6448476377028756,-4.660577092054627,-1.3663488410097737,5.127710184631133
168,1791274090.8451705,-0.53179013671875,-2.3616808593750003,-0.3312791015625004,2.44337534451456,1.642438404060846,-4.734057164455769,-1.3772906983519553,5.196713462875912
169,1791274090.8651705,-0.1485870117187499,-2.476641796875,-0.5180906250000005,2.534610539272775,1.6397713718668654,-4.791530836795914,-1.3860424041981592,5.250593438669167
170,1791274090.8751442,-0.004885839843749913,-2.4383214843750003,-0.1971580078125004,2.446284286962633,1.6385260532246595,-4.819569638372425,-1.390287153564525,5.276923108742805
171,1791274090.8951442,-0.44556943359374995,-1.8299865234375001,0.09982441406249962,1.8860932399430428,1.6357277624996045,-4.873763394751354,-1.3976682024269358,5.3275370805941415
172,1791274090.92009,-1.10659482421875,-1.2982921875000002,0.06629414062499961,1.7071934928977643,1.6298570382798154,-4.937072123913587,-1.4051827557421637,5.385689714325363
173,1791274090.94009,-1.11617490234375,-1.3270324218750003,-0.1732078125000004,1.7426595788163974,1.6225221142794366,-4.984153647608531,-1.4104641329448895,5.42805440877477
174,1791274090.965354,-0.06715634765624992,-1.1019005859375,-0.3983396484375004,1.1736138001221885,1.6124042662126528,-5.0393084657028036,-1.4172178334241547,5.477497943183563
175,1791274090.985354,0.4501678710937501,-0.6324767578125,-0.1061472656250004,0.7835465546716133,1.6061705544547364,-5.079023316738516,-1.4225190804202745,5.513603380379359
176,1791274091.0103953,0.03822451171875009,0.08123906250000001,0.04713398437499961,0.10140271719770866,1.6004535266367443,-5.122325446152295,-1.4282718080424028,5.553344021836933
177,1791274091.0303953,-0.79045224609375,0.5506628906250001,0.12856464843749962,0.9718915789809031,1.5954440290603904,-5.150774401391107,-1.431913653161057,5.579094486921638
178,1791274091.039386,-0.3641387695312499,0.7997449218750001,-0.1492576171875004,0.8913286822654555,1.5927513114546092,-5.1607343809071216,-1.433319184229076,5.587883317884894
179,1791274091.059386,1.2836346679687503,1.2068982421875,-0.5420408203125004,1.8434016324967193,1.5890390898469857,-5.176557020872666,-1.4370137475046383,5.602392018586806
180,1791274091.1151886,1.7195282226562503,1.4559802734375,-0.6713718750000004,2.351041484043086,1.5928039589218488,-5.20293752218187,-1.450854185619216,5.63139069672971
181,1791274091.1351886,1.08245302734375,1.6906921875,-0.2881687500000004,2.028099074935874,1.5981538757109712,-5.206254208497385,-1.4565099168617688,5.637428476873423
182,1791274091.1151886,0.7567303710937501,2.2032263671875,-0.2929587890625004,2.3479080330572746,1.5981538757109712,-5.206254208497385,-1.4565099168617688,5.637428476873423
183,1791274091.1351886,1.67641787109375,2.351717578125,-0.9444041015625004,3.038560769975268,1.6080138660704277,-5.1968533635358,-1.4631931621560803,5.6332874687298204
184,1791274091.1902254,2.5050946289062503,2.43793828125,-1.5862693359375004,3.8386576519787154,1.6483373042970566,-5.155093627409173,-1.489271720172134,5.6133712181358915
185,1791274091.2102253,2.1889520507812503,2.3565076171875,-1.8209812500000004,3.6960265073905676,1.6678336339894613,-5.135003049538488,-1.502437841457748,5.6042166996718
186,1791274091.2047493,1.6859979492187502,2.09305546875,-1.0402048828125003,2.8819258280290767,1.6678336339894613,-5.135003049538488,-1.502437841457748,5.6042166996718
187,1791274091.2247493,1.9159198242187503,1.815233203125,-1.1120554687500004,2.8639985544931124,1.6922631602381089,-5.108951992085765,-1.5188267603754348,5.592135530275416
188,1791274091.2652078,2.33744326171875,1.9637244140625,-1.5431589843750004,3.4207008385997133,1.747175706181952,-5.052690774871898,-1.5550642044871568,5.567812110230127
189,1791274091.2852077,2.4524041992187504,1.9541443359375,-1.8209812500000004,3.6261465986462733,1.7774338359988326,-5.023173921974914,-1.5753367991434737,5.556368717291714
190,1791274091.280223,2.2991229492187504,1.5422009765625,-1.7587107421875006,3.2798496402152892,1.7774338359988326,-5.023173921974914,-1.5753367991434737,5.556368717291714
191,1791274091.3002229,2.1889520507812503,0.9865564453125001,-1.7826609375000004,2.990432195936811,1.812085632207997,-4.993597027219337,-1.5998599041735884,5.547902064897215
192,1791274091.3245976,2.6152655273437504,1.0009265625000001,-1.8545115234375005,3.3586724687877996,1.85676496488768,-4.959324205087809,-1.6319131747339464,5.541264595367595
193,1791274091.3445976,2.69669619140625,1.1685779296875,-1.9934226562500006,3.5512643682142992,1.8958941941985983,-4.932166606573813,-1.6600404043483523,5.538629467175687
194,1791274091.369742,2.9074579101562503,1.0919373046875,-1.9694724609375005,3.6775617399425897,1.9482775303302282,-4.89888209811616,-1.6975714861504425,5.538644247198376
195,1791274091.389742,3.1996502929687503,0.8093250000000001,-2.3622556640625003,4.058696930705146,1.9928543417409723,-4.873526688277355,-1.7294436819935561,5.541994790500521
196,1791274091.4003282,3.2810809570312505,0.43570195312500004,-2.5682273437500007,4.189405701019565,2.0180556908936835,-4.861130356081385,-1.7476981642724714,5.545952216145184
197,1791274091.4203281,3.4822625976562502,0.11476933593750001,-2.5299070312500005,4.305781507029286,2.0686703672585405,-4.840397958475347,-1.7846593798784967,5.558224409555105
198,1791274091.4442282,3.86067568359375,-0.18221308593750002,-2.5873875000000006,4.651085079606176,2.133244577251991,-4.819459870373213,-1.831375583515501,5.57959338988152
199,1791274091.4642282,4.02832705078125,-0.62768671875,-2.9753806640625005,5.047207103045022,2.1910094111219136,-4.805781552350553,-1.8729487503843918,5.6039268009230945
200,1791274091.490177,3.9229461914062504,-0.85760859375,-3.1669822265625007,5.114174004089559,2.270188253731543,-4.793587400332375,-1.930750618594858,5.644469224223868
201,1791274091.510177,4.23908876953125,-1.0731603515625001,-3.0376511718750003,5.324365819337105,2.334304250683643,-4.788494715934401,-1.9779256780963228,5.682503670686382
202,1791274091.520227,4.62708193359375,-1.27913203125,-3.0568113281250007,5.691235495857886,2.368372896016996,-4.788092539084406,-2.00266918940734,5.70488424243868
203,1791274091.540227,4.4019500976562504,-1.6814953125000003,-3.3921140625000006,5.80611995752978,2.439544595811429,-4.791853181315135,-2.0541969810348553,5.75612369421692
204,1791274091.5649297,3.99000673828125,-2.0024279296875003,-3.4591746093750007,5.647633164721929,2.5298134446664817,-4.802626602713143,-2.120987880660152,5.8278441931653004
205,1791274091.5849297,4.157658105468751,-2.074278515625,-3.4879148437500005,5.809845285341517,2.604156218140005,-4.816155718215416,-2.1773727190787486,5.8921929252498755
206,1791274091.61022,4.60792177734375,-2.0311681640625,-3.4735447265625004,6.117524024002683,2.700688836702996,-4.838484391053831,-2.251181491156375,5.98100907049043
207,1791274091.63022,4.68456240234375,-2.1173888671875,-3.5070750000000004,6.223185323607775,2.779516307206355,-4.859716446141187,-2.311266309005266,6.056773628761769
208,1791274091.639757,4.569601464843751,-2.1652892578125003,-3.6124558593750007,6.214464776103662,2.818086082665913,-4.8713855540575395,-2.34071242638389,6.095157179976883
209,1791274091.659757,4.689352441406251,-2.2850402343750003,-3.8423777343750007,6.47883491424624,2.9007263953971294,-4.898861611132106,-2.404383340194932,6.180138991364548
210,1791274091.6845756,4.80431337890625,-2.4047912109375003,-4.029189257812501,6.7155650459370495,3.005566405909605,-4.936572840942438,-2.486195168620987,6.291609273527499
211,1791274091.7045755,4.71330263671875,-2.4047912109375003,-4.077089648437501,6.679887911851396,3.091654854643508,-4.969618188321706,-2.5543930489564417,6.385950088005361
212,1791274091.730126,4.5887616210937505,-2.591602734375,-4.182470507812501,6.728015866268768,3.2029629107412725,-5.015076329215497,-2.6442761606410294,6.51169397385782
213,1791274091.750126,4.72767275390625,-2.792784375,-4.129780078125001,6.870634448648086,3.2909965738047586,-5.053398561863638,-2.716548422327665,6.614161383326768
214,1791274091.7596512,4.79952333984375,-2.6155529296875,-4.033979296875001,6.79334456547862,3.3334410583875904,-5.0727760848334285,-2.751638252505767,6.664562969111713
215,1791274091.7796512,4.72767275390625,-2.4191613281250004,-3.7801072265625004,6.518622695311723,3.423483323897903,-5.114911585593504,-2.825984863457903,6.772647122502313
216,1791274091.8052676,4.65103212890625,-2.3185705078125003,-3.7801072265625004,6.426280394452623,3.5395308443999483,-5.169886711016471,-2.921450811323915,6.9130949686944465
217,1791274091.8252676,4.49296083984375,-2.3377306640625,-3.6938865234375005,6.268690406624077,3.63026019492538,-5.213354657742593,-2.996016481905206,7.023814535572084
218,1791274091.8503466,4.39237001953125,-2.3521007812500003,-3.5214451171875005,6.101300532427287,3.7436775407184206,-5.268506586373132,-3.0890644788124058,7.163421147314818
219,1791274091.8703465,4.34446962890625,-2.2515099609375,-3.4927048828125007,6.011879977104655,3.8336635294892725,-5.312797116800763,-3.162658929841991,7.274970843112151
220,1791274091.8802524,4.54565126953125,-2.093438671875,-3.4495945312500007,6.078250847663556,3.8781522018360612,-5.334671340687093,-3.1987996980886475,7.330150225080393
221,1791274091.9002523,4.6414520507812504,-2.0455382812500003,-3.5885056640625006,6.213266202310129,3.9682826138969145,-5.378419512653552,-3.2713802524939553,7.441545008548723
222,1791274091.9254317,4.42590029296875,-2.1365490234375004,-3.8663279296875004,6.2531533479304855,4.081856692369576,-5.433133201513776,-3.363128623326251,7.582290193567505
223,1791274091.9454317,4.2821991210937504,-2.2658800781250004,-3.9908689453125006,6.276820594839362,4.171598914960573,-5.476677049342492,-3.4368587617242157,7.694688243076228
224,1791274091.9699247,4.44506044921875,-2.4143712890625,-4.0866697265625005,6.502970134689266,4.281048059042821,-5.530601628457029,-3.5284465650703014,7.833572749332341
225,1791274091.9899247,4.50733095703125,-2.3616808593750003,-4.101039843750001,6.535449229989895,4.370442634508063,-5.575193444706019,-3.6042969946905674,7.948239276302281
226,1791274092.014629,4.47380068359375,-2.227559765625,-3.8950681640625007,6.336282117192103,4.480941092077426,-5.630514762079004,-3.6987499757721705,8.090876401227018
227,1791274092.0346289,4.809103417968751,-1.7677160156250002,-3.5789255859375007,6.249880314557546,4.570903947645433,-5.674576533492145,-3.7749579190933944,8.206356623007938
