imu_index,t_imu,ax,ay,az,mag,vx,vy,vz,velocity
0,1791340969.0413022,-0.04478686523437497,0.04770878906250001,-0.0387514160156257,0.07605040495979148,0.0,0.0,0.0,0.0
1,1791340969.0613022,-0.11184741210937497,0.05728886718750001,0.004358935546874303,0.12574123515495297,-0.000292054390664416,0.0002183249822185608,-0.00010099667980501844,0.0003783674064962991
2,1791340969.0855877,-0.020836669921874974,0.028548632812500006,0.009148974609374303,0.03650883434593738,-0.0008351675445898178,0.0006000121378259588,-0.0001806355646608971,0.0010441018150999567
3,1791340969.1055877,0.19950512695312503,0.033338671875,0.004358935546874303,0.20231846935481015,-0.0009473464551399183,0.0009600255141068201,-0.0002161212508843909,0.0013659512029666606
4,1791340969.1158216,0.13723461914062504,0.028548632812500006,0.061839404296874304,0.15320730090282134,-0.0007376760430081624,0.0011641108708824914,-0.00018074546960687021,0.0013899600673826502
5,1791340969.1358216,-0.011256591796874974,0.07165898437500001,0.10015971679687431,0.12366765854243394,-0.0002004156782620274,0.0016534380559041556,0.00012101737480359426,0.0016699308530025115
6,1791340969.1614068,0.03185375976562503,0.07644902343750001,0.037889208984374305,0.09107528398646457,0.000423309298421717,0.0024697209173176835,0.0007140459671621551,0.0026054891699616263
7,1791340969.1814067,0.10370434570312503,-0.00019160156249999592,-0.0435414550781257,0.11247438081266532,0.001041078240351843,0.0031264833620924825,0.0010996034737062968,0.003473883981275448
8,1791340969.205979,0.13244458007812504,-0.0864123046875,-0.11060200195312571,0.19298045504536315,0.002121436369361041,0.003652753242582493,0.0012181762375657595,0.0043962542995389315
9,1791340969.225979,0.07975415039062503,-0.1055724609375,-0.0579115722656257,0.14442998031990167,0.0031871618152853713,0.003728867359967145,0.001047438695489917,0.005015932619747907
10,1791340969.250069,-0.020836669921874974,-0.0720421875,0.042679248046874306,0.08628882782298615,0.004384719083741876,0.003485891588235249,0.0008451137316035412,0.005664928845767113
11,1791340969.270069,0.0031135253906250273,0.009388476562500005,0.042679248046874306,0.0438104524784817,0.005203240742936335,0.0032204451004762737,0.0008303722846306643,0.006175313676665912
12,1791340969.2810037,0.14202465820312504,0.033338671875,0.009148974609374303,0.1461717288551599,0.005702662490627824,0.003132125023743931,0.0008660264407484089,0.006563578935493334
13,1791340969.3010037,0.19950512695312503,0.04770878906250001,0.018729052734374304,0.20598349849131029,0.006991389586171389,0.003116388074109386,0.0009632736673132701,0.007714875185783378
14,1791340969.3261213,0.08454418945312503,0.038128710937500004,0.0762095214843743,0.12003920081756059,0.008902204996340039,0.003261291501185812,0.0012459325731133252,0.009562302234781809
15,1791340969.3461213,0.007903564453125027,0.038128710937500004,0.0762095214843743,0.08558128354784966,0.0103341443545146,0.003473750286927437,0.0016658686074121631,0.011028898349927601
16,1791340969.370756,0.09412426757812503,-0.009771679687499996,-0.00043110351562569704,0.09463112237142052,0.012021850140847636,0.0037485808858440032,0.002245537485254041,0.01279137123471891
17,1791340969.390756,0.16118481445312505,-0.0720421875,-0.0387514160156257,0.18075478813378526,0.013569474946733717,0.003815516855160203,0.002586784937557661,0.014331094707496033
18,1791340969.4004216,0.08933422851562503,-0.062462109375,-0.019591259765625698,0.11075169051197638,0.014386838307961034,0.0037455075951325248,0.0026846729495565618,0.015106866402093164
19,1791340969.4204216,-0.006466552734374973,-0.0385119140625,0.009148974609374303,0.04010844755692762,0.015948710100512787,0.0034709151272845525,0.0028411739803691502,0.016567464358728464
20,1791340969.4459362,0.04622387695312503,0.004598437500000004,-0.0387514160156257,0.06049350933145755,0.01771843901374619,0.0031082581746545396,0.002954232171174458,0.018229970863535467
21,1791340969.4659362,0.17555493164062502,-0.0768322265625,-0.0531215332031257,0.19885829716596348,0.01923024981953492,0.002758274894991281,0.002891751796735401,0.01964110019759546
22,1791340969.4901485,0.17076489257812505,-0.052882031249999996,0.004358935546874303,0.17881878560555758,0.021414834425037062,0.0021625812697356962,0.002738908529282604,0.021697315758677182
23,1791340969.5101485,0.03664379882812503,0.06686894531250001,0.0762095214843743,0.10780591358844617,0.023259787827404878,0.0017653131802774376,0.0027524467763235722,0.02348850833188109
24,1791340969.5197277,-0.011256591796874974,0.033338671875,0.061839404296874304,0.07114977037954982,0.02402913630602234,0.001675572162730784,0.0028571380884835785,0.024256342917731495
25,1791340969.5397277,0.09891430664062503,-0.043301953125,-0.0243812988281257,0.11069574036602156,0.025525970244199,0.0015013656505429185,0.003099118789102157,0.025757208563688128
26,1791340969.5656545,0.14202465820312504,-0.0672521484375,-0.0291713378906257,0.1598274756151241,0.02764382721357612,0.001094435226438696,0.0032616214558901955,0.027857084305440958
27,1791340969.5856545,0.02227368164062503,0.014178515625000004,0.018729052734374304,0.03237166377378925,0.029278933895853444,0.0007480043030210407,0.0033525095525906543,0.02947973542648077
28,1791340969.6104972,-0.030416748046874973,0.038128710937500004,0.009148974609374303,0.049625405750537505,0.030990135807157135,0.00047969560834944393,0.0035004132802608466,0.031190888386760308
29,1791340969.6304972,0.11807446289062504,-0.024141796874999996,-0.0291713378906257,0.12399746810960457,0.032292604432206225,0.0003170712675305097,0.0035715908648126884,0.03249106179411888
30,1791340969.6419659,0.19471508789062503,-0.0720421875,-0.019591259765625698,0.20853742995261837,0.033196496656753,0.00015507270342642726,0.0035643410203821677,0.033387661863849345
31,1791340969.6619658,0.03664379882812503,-0.004981640624999996,0.042679248046874306,0.05647214313021397,0.03488337453438196,-0.00020059347794395833,0.0035882265218955306,0.03506801143808693
32,1791340969.6852102,-0.04478686523437497,0.07644902343750001,0.033099169921874304,0.09458261749172836,0.036535623443528786,-0.0004273603916238732,0.003743929382629092,0.03672943539633808
33,1791340969.7052102,0.03664379882812503,0.06686894531250001,-0.010011181640625698,0.07690544582540183,0.03773179572238856,-0.00037823163337071257,0.00389243599763528,0.03793392315066066
34,1791340969.7308297,0.11328442382812504,-0.014561718749999997,-0.014801220703125699,0.1151715262958992,0.039322305613570446,-0.00022423236250833036,0.004006458353612476,0.039526519040495596
35,1791340969.7508297,0.07975415039062503,-0.028931835937499997,0.004358935546874303,0.08495160948649917,0.04066725597181464,-0.0001872854542186299,0.004066455187339858,0.040870488642896094
36,1791340969.7601075,-0.030416748046874973,0.004598437500000004,0.009148974609374303,0.0320940481334383,0.041231911090312996,-0.0001896490697781069,0.004099511701434032,0.041435642327823735
37,1791340969.7801075,-0.025626708984374975,-0.00019160156249999592,-0.010011181640625698,0.02751342731050057,0.042182477746765576,-0.0001873697343565653,0.004158788673513065,0.04238740449124795
38,1791340969.805288,0.06538403320312502,-0.0193517578125,-0.0243812988281257,0.07241553742731854,0.04327483441530888,-0.00022183892693867916,0.004157273751527066,0.043474629742265125
39,1791340969.825288,0.09412426757812503,-0.0193517578125,0.013939013671874303,0.09709873521162278,0.04425157158762589,-0.00030316508460796727,0.004140587580278953,0.044445899277135395
40,1791340969.8508413,0.017483642578125028,0.028548632812500006,0.04746928710937431,0.058086447747601064,0.04552621667663764,-0.00037386062491995135,0.004240154694980953,0.045724775434029134
41,1791340969.8708413,0.0031135253906250273,0.042918750000000006,0.028309130859374303,0.05150844621937014,0.046405104955866604,-0.00031369179740997307,0.0044200619636330235,0.04661618942246473
42,1791340969.8809705,0.06538403320312502,-0.00019160156249999592,0.009148974609374303,0.0660213014524031,0.04683549628772068,-0.00025533016976598497,0.00452596718503008,0.04705436520635104
43,1791340969.9009705,0.08933422851562503,-0.033721875,0.037889208984374305,0.10272955463477454,0.04778990454463394,-0.0002082512959157705,0.004774266433659205,0.04802824132702591
44,1791340969.9255474,0.06059399414062503,0.004598437500000004,0.009148974609374303,0.061453083647270965,0.049063160281595596,-0.000212758792363319,0.005120323766375571,0.04933007884236329
45,1791340969.9455473,-0.001676513671874973,0.028548632812500006,0.009148974609374303,0.030025636878472893,0.050032254685220205,-0.00016615609535535367,0.005387140498049477,0.050321718963887624
46,1791340969.9711437,0.007903564453125027,0.018968554687500003,0.0570493652343743,0.06063746755630891,0.051098435563171486,-2.423938210788465e-05,0.0058044791726282186,0.051427061777012964
47,1791340969.9911437,0.09412426757812503,0.018968554687500003,0.061839404296874304,0.11420724905995869,0.05195958735405957,0.00012692103255810042,0.006259990048295657,0.05233547842866647
48,1791340970.0154128,0.04622387695312503,0.04770878906250001,0.09057963867187431,0.11232740670163747,0.05310327123085442,0.0004041985680649981,0.007007251751510968,0.05356512269200146
49,1791340970.0354128,0.0031135253906250273,0.0860291015625,0.0666294433593743,0.10885854618902953,0.05397840314633212,0.0007990321444910356,0.007766505851791713,0.05454012350317702
50,1791340970.0455437,0.06538403320312502,0.0956091796875,0.023519091796874305,0.11819194015403005,0.05440724804030264,0.0011070445399974033,0.008161908818899976,0.05502718366862501
51,1791340970.0655437,0.06059399414062503,0.014178515625000004,-0.010011181640625698,0.06303083522438895,0.05531583201395636,0.0017885817726148586,0.008845671024973446,0.05604717827005767
52,1791340970.0904489,0.017483642578125028,-0.028931835937499997,-0.005221142578125697,0.03420510515018423,0.05642338336739926,0.0024824124102203905,0.00954096200837733,0.05727818535921178
53,1791340970.1104488,0.012693603515625028,-0.033721875,-0.0243812988281257,0.04350563361535925,0.05722465000621489,0.002862032118547742,0.009971155387645272,0.05815733604581589
54,1791340970.1510882,0.02227368164062503,0.009388476562500005,0.023519091796874305,0.033725480944566656,0.058715157361608115,0.003443535127228758,0.010711547171537187,0.059783483345978834
55,1791340970.1710882,0.04622387695312503,0.07644902343750001,0.009148974609374303,0.08980425224636106,0.059441401994112776,0.003815541440283753,0.011070264628019147,0.06058373863044941
56,1791340970.1659176,0.06538403320312502,0.05728886718750001,-0.010011181640625698,0.08750605612971009,0.059441401994112776,0.003815541440283753,0.011070264628019147,0.06058373863044941
57,1791340970.1859176,-0.016046630859374973,-0.004981640624999996,-0.00043110351562569704,0.01680764574516254,0.06018241972377658,0.004333292414413975,0.011312675264614335,0.06138955683664973
58,1791340970.2111247,-0.054366943359374975,-0.052882031249999996,0.018729052734374304,0.07812202746789433,0.06084315341880556,0.0047785663034980415,0.011606962650127919,0.0621244363823343
59,1791340970.2311246,-0.020836669921874974,-0.0576720703125,-0.014801220703125699,0.06308177741523895,0.06117595619463482,0.004913034276830113,0.011811325940500798,0.0624991435349792
60,1791340970.2559042,0.017483642578125028,-0.043301953125,-0.0579115722656257,0.07439413353562303,0.06152021003290778,0.004866989956408701,0.011891413191327985,0.06284766933956867
61,1791340970.2759042,0.012693603515625028,-0.052882031249999996,-0.0579115722656257,0.07944423831603305,0.06180165075862993,0.004691125471065928,0.011772622394890705,0.06308760046736307
62,1791340970.2858326,0.007903564453125027,-0.052882031249999996,-0.0435414550781257,0.0689553034255605,0.06193574490177246,0.004538162056071264,0.01164695194989978,0.06318451472558663
63,1791340970.3058326,0.012693603515625028,-0.0193517578125,-0.0339613769531257,0.041097362752345074,0.0621962429127107,0.0041679003340633234,0.011315518975792636,0.06335443942884449
64,1791340970.3305748,-0.03520678710937498,0.05249882812500001,0.009148974609374303,0.06386977806025414,0.062428390547320335,0.0038400644882573406,0.010920960119871868,0.06349265635916143
65,1791340970.3505747,-0.03520678710937498,0.04770878906250001,0.033099169921874304,0.0679058278934296,0.062482275817915045,0.00376512415088347,0.010713236169621854,0.06350578226022943
66,1791340970.375009,0.017483642578125028,0.05249882812500001,0.04746928710937431,0.07290499249688,0.06250575452783988,0.003870939547681025,0.010645170878408635,0.06352380014692836
67,1791340970.395009,0.10370434570312503,0.10039921875,0.042679248046874306,0.15051947600616422,0.06270387145717847,0.004173906595586631,0.010733037682877714,0.0637526084947833
68,1791340970.4053261,0.06059399414062503,0.1339294921875,0.0714194824218743,0.16343036276323974,0.06291787212141785,0.0044880697939925105,0.010859852713725339,0.0640057638320694
69,1791340970.425326,0.02706372070312503,0.10997929687500001,0.0666294433593743,0.13140537828337245,0.06340197823325995,0.005371595142300629,0.011275885413756593,0.06462051121840282
70,1791340970.4506588,0.02706372070312503,0.04770878906250001,0.033099169921874304,0.06406347306869951,0.06402602591722117,0.006622433903636384,0.011913282541609303,0.06546078922894928
71,1791340970.4706588,0.02706372070312503,0.018968554687500003,-0.010011181640625698,0.0345322284695187,0.06452599608968408,0.007561849005863182,0.01237565197744623,0.06613578829665727
72,1791340970.4953809,0.02706372070312503,0.033338671875,-0.0387514160156257,0.0578410257853521,0.06515167066001944,0.008645869102295214,0.012771045489218239,0.06695215340236146
73,1791340970.5153809,-0.001676513671874973,-0.004981640624999996,0.004358935546874303,0.006828452277818044,0.0656199923058316,0.009433823670229031,0.012991346482386545,0.06755557343908634
74,1791340970.5253747,-0.001676513671874973,-0.024141796874999996,0.023519091796874305,0.03374588468829264,0.065816392415429,0.009746667755443007,0.013105811905194274,0.06781266363011458
75,1791340970.5453746,-0.001676513671874973,-0.014561718749999997,-0.010011181640625698,0.017750439681531446,0.06614545016252299,0.010220777365303212,0.013320785669634945,0.06824315495352086
76,1791340970.5709865,-0.04478686523437497,-0.033721875,-0.0339613769531257,0.06554695473925534,0.0664143803609697,0.010644100927965399,0.013470319381772124,0.06859749490719917
77,1791340970.5909865,-0.06394702148437498,-0.09120234375,-0.014801220703125699,0.1123662102080466,0.06642978315710302,0.010737697448348375,0.013496429141112317,0.06863211956768536
78,1791340970.6160665,-0.006466552734374973,-0.081622265625,-0.00043110351562569704,0.08187915730065676,0.0663137532392411,0.010512379293459412,0.013495607559405886,0.06848470931881077
79,1791340970.6360664,-0.016046630859374973,-0.0720421875,0.023519091796874305,0.07746430675267159,0.06620133479475157,0.0101291551527577,0.01352968261506602,0.06832473069379667
80,1791340970.6606562,-0.030416748046874973,-0.0480919921875,0.028309130859374303,0.06355647224573444,0.06599816073289197,0.009507104982516801,0.013660876647643042,0.06806439462784752
81,1791340970.6806562,-0.020836669921874974,-0.1103625,-0.010011181640625698,0.1127575805767611,0.06578081760150473,0.008839373096223294,0.013779023693877165,0.06778725525504849
82,1791340970.6911893,-0.016046630859374973,-0.1055724609375,-0.005221142578125697,0.10691257737122478,0.06565438529387087,0.008369873534127313,0.013819879775790852,0.06761318043333447
83,1791340970.7111893,-0.049576904296874974,-0.052882031249999996,0.033099169921874304,0.07968647136311524,0.06535189350893603,0.007374438922037485,0.013927636822973394,0.06722522891066136
84,1791340970.7353303,-0.03520678710937498,0.018968554687500003,0.037889208984374305,0.055090072453747245,0.06488803027120345,0.006291723324776443,0.014166725360004753,0.0667138543504867
85,1791340970.7553303,0.02706372070312503,-0.0193517578125,0.023519091796874305,0.04074411844279139,0.06454916626517587,0.005528707372021606,0.014427202286708964,0.06637247649859379
86,1791340970.7809238,0.07017407226562503,-0.004981640624999996,0.013939013671874303,0.07171829099889729,0.06436722450879215,0.004652047086577561,0.01478243106472677,0.06620650573202294
87,1791340970.8009238,0.04622387695312503,0.033338671875,0.004358935546874303,0.05715867530015337,0.06442097008955709,0.004112278513602146,0.015045831580849302,0.06628234508383304
88,1791340970.8109777,-0.001676513671874973,0.038128710937500004,-0.0243812988281257,0.04528859711222881,0.06447752555461747,0.003935530092850843,0.015143282318299157,0.06634876561119879
89,1791340970.8309777,0.012693603515625028,-0.009771679687499996,-0.0387514160156257,0.04193191549813912,0.0645896801897426,0.0036792036313723093,0.015213361720406424,0.06645908290978937
90,1791340970.8557656,-0.03520678710937498,-0.0385119140625,0.018729052734374304,0.05543882033060599,0.06466597953027023,0.003319403391208802,0.015249966021076162,0.06652269395572367
91,1791340970.8757656,-0.059156982421874976,0.009388476562500005,0.04746928710937431,0.07642660060540994,0.06457676145313225,0.003028960884880423,0.015374367315329093,0.0664507629313881
92,1791340970.9003627,-0.016046630859374973,0.06207890625000001,-0.005221142578125697,0.06433152643109327,0.06434475990986437,0.0028571800544519295,0.015582352872442973,0.06626629102917243
93,1791340970.9203627,0.02706372070312503,0.05728886718750001,-0.0387514160156257,0.07427066396054277,0.06420094095264682,0.002917507659215219,0.015660140365459693,0.06614765805690118
94,1791340970.93095,0.04622387695312503,-0.014561718749999997,-0.0291713378906257,0.056565514298561805,0.06419442196276465,0.0029785796067470496,0.01564120793695435,0.06613957312633831
95,1791340970.95095,0.007903564453125027,-0.014561718749999997,-0.005221142578125697,0.01737153746333122,0.0642651454487532,0.0030329582489043256,0.01555921930051381,0.06619136696375504
96,1791340970.9759731,-0.011256591796874974,0.028548632812500006,0.013939013671874303,0.03370506484920514,0.06433406625767561,0.0031170391036075295,0.015488386565553227,0.06624558953186563
97,1791340970.995973,-0.030416748046874973,0.04770878906250001,-0.005221142578125697,0.0568204843817642,0.06431837892036468,0.003288546994714057,0.01545334184493871,0.06623046264715798
98,1791340971.0209427,0.0031135253906250273,0.004598437500000004,-0.010011181640625698,0.011448293568959263,0.0642506001457924,0.003568509254692461,0.015387626251841636,0.0661638339205165
99,1791340971.0409427,0.017483642578125028,-0.033721875,-0.005221142578125697,0.03834192145858588,0.06423535019138611,0.003715430241693351,0.015320036781802139,0.0661414254691163
100,1791340971.050471,0.017483642578125028,-0.009771679687499996,-0.00043110351562569704,0.020033704898393387,0.06425416327776692,0.0037438451771483927,0.015288626666953735,0.06615403223234301
101,1791340971.070471,-0.020836669921874974,-0.014561718749999997,-0.010011181640625698,0.027320948450390074,0.06428269889554558,0.003758041298068254,0.01521692325515686,0.06616602606358264
102,1791340971.0956752,-0.030416748046874973,-0.0385119140625,0.023519091796874305,0.05441960828097036,0.0642163806083851,0.003672922069773161,0.015165650271287811,0.06608502737475877
103,1791340971.1156752,-0.059156982421874976,-0.062462109375,0.0570493652343743,0.10322641982787896,0.06403728907907395,0.0034640490591241473,0.015251919695581819,0.06591961076099721
104,1791340971.140425,0.02706372070312503,-0.024141796874999996,0.042679248046874306,0.056007049096494475,0.06378933632585568,0.0030835858035692075,0.015527782949989495,0.06572442448316371
105,1791340971.160425,0.012693603515625028,0.023758593750000005,0.028309130859374303,0.03907691437668289,0.0636786597557151,0.002821680374071921,0.015823748936521703,0.0656759059231285
106,1791340971.1702836,-0.049576904296874974,-0.004981640624999996,0.004358935546874303,0.050016862177469264,0.06360501589025168,0.002725827887645515,0.015971910720348783,0.06563634752277908
107,1791340971.1902835,-0.06873706054687498,-0.0480919921875,-0.010011181640625698,0.08448577964976661,0.06330055512666057,0.0024809314339402414,0.016218919529509008,0.06539242043867159
108,1791340971.2159805,-0.025626708984374975,-0.009771679687499996,-0.010011181640625698,0.029196535669948002,0.06278618156798448,0.002101955148489847,0.016450095000659685,0.06493942128526328
109,1791340971.2359805,0.007903564453125027,-0.004981640624999996,0.023519091796874305,0.025306733359545877,0.062419310283434025,0.0018291113900416555,0.016623292222351392,0.06462081544708703
110,1791340971.2610607,0.0031135253906250273,-0.0193517578125,0.013939013671874303,0.024051625162063796,0.06204898194193151,0.0014925130901060144,0.01687836408823032,0.06432093694629411
111,1791340971.2810607,-0.049576904296874974,-0.004981640624999996,-0.019591259765625698,0.05353973890655776,0.06172826921310555,0.001227858358360164,0.017042779758773597,0.06404953706389994
112,1791340971.29033,-0.08789721679687498,-0.009771679687499996,-0.005221142578125697,0.0885927015863782,0.06150635566704609,0.001113343084991011,0.017090300752574065,0.06384629746570669
113,1791340971.31033,-0.030416748046874973,0.028548632812500006,0.018729052734374304,0.045727239294943205,0.06092189060521823,0.0009314849786721246,0.017197717137634714,0.06330960348893179
114,1791340971.3354197,0.041433837890625026,0.042918750000000006,0.004358935546874303,0.059814566311316666,0.060319397938044875,0.0008720493102583232,0.01735570221319208,0.06277269021573581
115,1791340971.3554196,-0.006466552734374973,-0.009771679687499996,0.009148974609374303,0.01486626263001324,0.059963619584742237,0.0008814982126806764,0.017483009554294656,0.06246653772923709
116,1791340971.3806772,-0.06394702148437498,0.004598437500000004,0.042679248046874306,0.07701873407172534,0.05944832407320436,0.0008818413514498274,0.017717846617210604,0.062038721521585675
117,1791340971.4006772,-0.049576904296874974,0.009388476562500005,0.04746928710937431,0.06927731338972609,0.05893121126515801,0.0009030526570365491,0.018011129765800056,0.06162875920153314
118,1791340971.4255095,0.02706372070312503,0.004598437500000004,-0.019591259765625698,0.03372548094456755,0.0583435361330789,0.0009514879556645295,0.01837257302255034,0.061175362502486265
119,1791340971.4455094,0.007903564453125027,-0.028931835937499997,-0.0243812988281257,0.03865184593684345,0.05799366872527122,0.0009481463595264042,0.018554055773384256,0.060896778070579714
120,1791340971.4560895,-0.10705737304687497,-0.014561718749999997,0.0762095214843743,0.1322165494237736,0.057757670745912856,0.0009121314597466659,0.018676785994054815,0.06070916610249938
121,1791340971.4760895,-0.09747729492187497,0.05249882812500001,0.0762095214843743,0.13440923013194367,0.0570716688490154,0.0009111685369886624,0.019102616548815232,0.06019066017519282
122,1791340971.500297,0.012693603515625028,0.023758593750000005,0.009148974609374303,0.02844823515778093,0.05621196320349579,0.0010486285010293673,0.019695695364477198,0.059571846075261295
123,1791340971.520297,0.02227368164062503,-0.033721875,-0.0243812988281257,0.04719882922160151,0.055660678607249124,0.0011302160018808734,0.020089341454482653,0.059185895036783745
124,1791340971.5457234,-0.049576904296874974,-0.009771679687499996,-0.00043110351562569704,0.05053257378976243,0.05501288138776807,0.0011354399928798183,0.02046740754861427,0.058707930591387236
125,1791340971.5657234,-0.07352709960937498,-0.004981640624999996,0.028309130859374303,0.0789459182624205,0.05439511086153438,0.0011168027735398377,0.020761998066960975,0.058233460293941774
126,1791340971.5756857,-0.08310717773437498,-0.043301953125,0.018729052734374304,0.09556484474815863,0.05401651436416365,0.0010728355461148945,0.020921873112001745,0.057936685913828445
127,1791340971.5956857,-0.054366943359374975,-0.0480919921875,-0.019591259765625698,0.0751825890882209,0.05316425566082128,0.0008607178445915457,0.021193395079080427,0.057239312628255386
128,1791340971.621296,-0.020836669921874974,-0.024141796874999996,-0.00043110351562569704,0.031893244112634785,0.052092179028221615,0.0004910973554406865,0.021450470796707033,0.05633790011991212
129,1791340971.641296,-0.06873706054687498,-0.004981640624999996,0.028309130859374303,0.07450508120896578,0.051246177131998964,0.00020205920827836546,0.02166293393021946,0.05563716568116062
130,1791340971.6660624,-0.049576904296874974,0.023758593750000005,0.033099169921874304,0.06417082877878505,0.050135930526984965,-6.72972187588111e-05,0.02200063219516466,0.05475074315211832
131,1791340971.6860623,-0.049576904296874974,-0.014561718749999997,0.028309130859374303,0.058917908844669464,0.04922511342460042,-0.00023839138833699804,0.02232454468128159,0.0540514006973487
132,1791340971.696102,-0.04478686523437497,-0.014561718749999997,0.028309130859374303,0.05494828332613627,0.04876543126032721,-0.0003333232031685977,0.022505384039574364,0.05370913051923478
133,1791340971.716102,-0.10226733398437497,0.004598437500000004,0.042679248046874306,0.1109110970172044,0.04776647112397681,-0.0005090159957115497,0.02291808149245082,0.05298238688674018
134,1791340971.7412488,-0.059156982421874976,0.004598437500000004,0.037889208984374305,0.07040089739602061,0.046394385777492636,-0.0006794416085383597,0.02351110449357195,0.05201608123530533
135,1791340971.7612488,0.007903564453125027,0.004598437500000004,0.042679248046874306,0.04364779687856802,0.04538994121820842,-0.0007808583473646778,0.024032855658316813,0.05136569530965735
136,1791340971.785327,-0.049576904296874974,0.023758593750000005,0.09057963867187431,0.10595759132108633,0.04428681526406333,-0.0008334314569710494,0.024807421726410494,0.05076834433915217
137,1791340971.805327,-0.08310717773437498,0.038128710937500004,0.1336899902343743,0.1619679445989098,0.04330894467911099,-0.0007777190019088634,0.025690695984010047,0.050361507088321496
138,1791340971.830391,0.06538403320312502,0.023758593750000005,0.1384800292968743,0.15497180740040448,0.04223398077667964,-0.0006020372278315781,0.0271432029988112,0.05020781861526463
139,1791340971.850391,0.041433837890625026,0.0860291015625,0.16722026367187431,0.19256268023812065,0.04166509894516086,-0.0003181973549073187,0.028586935096033578,0.05053013534368922
140,1791340971.8602679,-0.12142749023437498,0.129139453125,0.1528501464843743,0.23406153254718723,0.04136704148262744,-3.965852751572433e-05,0.029430072002159188,0.050767734161340096
141,1791340971.8802679,-0.260338623046875,0.06686894531250001,0.0666294433593743,0.2769244251046286,0.040281383926082825,0.0007337677435316791,0.03121047689696439,0.050962949033958774
142,1791340971.905365,-0.279498779296875,0.009388476562500005,-0.0435414550781257,0.2830257398734756,0.03810726218666781,0.001702264915240744,0.033152966766750815,0.050538899301848524
143,1791340971.925365,-0.19327807617187498,-0.0385119140625,-0.1297621582031257,0.2359614374320336,0.03592541796359269,0.0023146084016504804,0.03420879128822361,0.049661196817163626
144,1791340971.9359179,-0.17411791992187498,-0.0768322265625,-0.1393422363281257,0.2358739067836776,0.03465608375099919,0.002497952214216479,0.03446933939156462,0.048943020588349956
145,1791340971.9559178,-0.279498779296875,-0.0480919921875,-0.0962318847656257,0.2994878678453444,0.03193084745161322,0.002605920594682116,0.03453570398786561,0.04710716178100162
146,1791340971.981007,-0.298658935546875,0.018968554687500003,-0.0627016113281257,0.30575882311401653,0.027937025976542476,0.0026662452894202077,0.034307403875236495,0.04432363077429416
147,1791340972.001007,-0.12142749023437498,0.004598437500000004,-0.0579115722656257,0.13460880808601428,0.024600763329078967,0.0027424705514747273,0.0339717926789451,0.04203333675691582
148,1791340972.0261316,-0.001676513671874973,0.014178515625000004,0.009148974609374303,0.01695714421190457,0.020806350847125912,0.002859245645625161,0.033521543553392534,0.03955721683129029
149,1791340972.0461316,-0.07831713867187498,0.06207890625000001,0.0666294433593743,0.12011181263025737,0.018118953264955707,0.0030526450135877595,0.03333055972990365,0.03805970731502419
150,1791340972.071704,-0.09747729492187497,0.10039921875,0.0762095214843743,0.15934151158996157,0.014861065554814088,0.0035744564978024253,0.03339694803214342,0.0367285195255792
151,1791340972.091704,0.0031135253906250273,0.018968554687500003,0.0666294433593743,0.06934682999006381,0.012553737593310226,0.004100398442366884,0.03365533996909847,0.036153720463922547
152,1791340972.100958,0.03185375976562503,-0.0576720703125,0.0570493652343743,0.08715136131456083,0.011670524497162289,0.004280391025182574,0.03384280799885337,0.036053551040287034
153,1791340972.120958,-0.001676513671874973,-0.100782421875,0.04746928710937431,0.11141472288595737,0.010093329117003757,0.004373355633159189,0.034343964332875544,0.03606257642288011
154,1791340972.1456802,0.012693603515625028,-0.09120234375,0.037889208984374305,0.09957202033285577,0.0084566127713732,0.004115062654743028,0.03502879248421541,0.03626933061306258
155,1791340972.1656802,0.06059399414062503,-0.1055724609375,0.04746928710937431,0.13065416125400015,0.007441067177009006,0.0036422873157325726,0.035627747536309914,0.03657830138393723
156,1791340972.2059476,0.041433837890625026,-0.081622265625,0.004358935546874303,0.09164037040085803,0.006011224108700234,0.0022678549386287413,0.03680930499067883,0.03736579873633769
157,1791340972.2259476,-0.011256591796874974,-0.052882031249999996,0.004358935546874303,0.054242238219944915,0.005452843604524489,0.0014858454545405135,0.0373212077308537,0.03774670563876689
158,1791340972.2204864,-0.07831713867187498,-0.043301953125,0.042679248046874306,0.09914712082575074,0.005452843604524489,0.0014858454545405135,0.0373212077308537,0.03774670563876689
159,1791340972.2404864,-0.06873706054687498,-0.009771679687499996,0.05225932617187431,0.0868982530807047,0.004714626204360264,0.0007185987658657842,0.037893438813034114,0.0381923655919649
160,1791340972.2652469,-0.07831713867187498,-0.024141796874999996,0.04746928710937431,0.0947086785082321,0.003664699092675779,-0.00015177005835970538,0.03868080960300745,0.038854318744955325
161,1791340972.2852468,-0.12142749023437498,0.023758593750000005,0.037889208984374305,0.12940130725405505,0.0026442264382391402,-0.0007499202364471335,0.03934943804258722,0.039445311357436716
162,1791340972.3110871,-0.11184741210937497,0.07644902343750001,0.037889208984374305,0.140676540110899,0.0010714383486941236,-0.0012126120836991926,0.040230594700472605,0.0402631240486165
163,1791340972.331087,-0.131007568359375,0.042918750000000006,0.0570493652343743,0.14919662242371257,-0.00032756048427385665,-0.0013379595078999407,0.040952703864354935,0.040975863448098185
164,1791340972.3413446,-0.13579760742187497,-0.004981640624999996,0.0762095214843743,0.15580018642382823,-0.0011427010317802667,-0.0013634184503522565,0.04137002015786756,0.04140825090946442
165,1791340972.3613446,-0.21243823242187498,0.014178515625000004,0.09536967773437431,0.2332946813174646,-0.0030160072249133005,-0.001391816896669457,0.042319017500686944,0.04244917780214396
166,1791340972.385782,-0.20285815429687498,0.10997929687500001,0.1241099121093743,0.26201173025200747,-0.005722765565189185,-0.0011937539703667976,0.04370690196908767,0.04409612651913228
167,1791340972.405782,-0.14058764648437497,0.1818298828125,0.17201030273437432,0.2870793215722689,-0.008120899887689614,-0.0006182574357664041,0.04511656865811485,0.045845785244939895
168,1791340972.4308784,-0.21243823242187498,0.23931035156250002,0.2582310058593743,0.41119666747998107,-0.011343223216216683,0.00078824973352106,0.04742993097030073,0.04877384957559538
169,1791340972.4508784,-0.26512866210937497,0.23452031250000002,0.2486509277343743,0.43257400327593637,-0.014242332489204229,0.0024517445847924706,0.04975729447372474,0.05181354494325842
170,1791340972.4612708,-0.15495776367187497,0.13871953125,0.17201030273437432,0.2698936107416763,-0.015850235805740697,0.003477389740859982,0.05111311794749083,0.053627167003502355
171,1791340972.4812708,-0.10226733398437497,0.11476933593750001,0.1336899902343743,0.20372437645179706,-0.01886628921606853,0.005535378056012045,0.05378953063821107,0.0572703316324113
172,1791340972.5058491,-0.06394702148437498,0.1051892578125,0.0666294433593743,0.13997672748799272,-0.02232319410531631,0.008090577953217201,0.05695452202278206,0.06170575358525556
173,1791340972.525849,-0.04478686523437497,0.042918750000000006,-0.019591259765625698,0.0650515169560925,-0.024877316469928065,0.010080083250339064,0.05921419443418606,0.06501391986004468
174,1791340972.5510173,-0.049576904296874974,0.018968554687500003,-0.0291713378906257,0.0605693194688799,-0.027787452439624306,0.01232497429890031,0.06153920512928774,0.06863760829528874
175,1791340972.5710173,-0.07352709960937498,0.090819140625,-0.014801220703125699,0.11778551190674137,-0.029937775369226143,0.014005979500212686,0.06304368741882017,0.07118247241547969
176,1791340972.5807512,-0.09268725585937498,0.05249882812500001,0.018729052734374304,0.1081565151508059,-0.030948690058666708,0.014806025934013891,0.06366894688807177,0.07232409431263008
177,1791340972.6007512,-0.054366943359374975,0.1051892578125,0.04746928710937431,0.1275691095369811,-0.03293480256488628,0.016439814331184667,0.06486024073839095,0.07457760752312917
178,1791340972.6256385,-0.001676513671874973,0.1722498046875,0.04746928710937431,0.17867887153115247,-0.03514014597012854,0.01868574601159821,0.06629749436484668,0.07732622273115877
179,1791340972.6456385,0.012693603515625028,0.129139453125,0.037889208984374305,0.13518031691447374,-0.03663004197643629,0.02067197605147176,0.06740728836042639,0.07945333909392217
180,1791340972.6702414,0.0031135253906250273,0.13871953125,0.037889208984374305,0.14383460831121064,-0.0381587451550923,0.02324308338363974,0.06870754300682055,0.08195765506055067
181,1791340972.6902413,0.09891430664062503,0.20578007812500002,0.042679248046874306,0.23227354310203588,-0.039061999347419725,0.02553640338807931,0.0697268391296882,0.08390339555723562
182,1791340972.7007308,0.07975415039062503,0.21057011718750002,0.04746928710937431,0.23011699627702456,-0.03932411222466133,0.02688631826617263,0.07025216476380922,0.08488007166684701
183,1791340972.7207308,0.012693603515625028,0.23931035156250002,0.04746928710937431,0.24430289632718533,-0.03961023981454044,0.02974890802171481,0.07124595321080798,0.08677531028792979
184,1791340972.745463,0.08454418945312503,0.22973027343750002,0.08578959960937431,0.2593907745180834,-0.039730625839656517,0.03362784876909378,0.0725377229865096,0.08928088316384099
185,1791340972.7654629,0.12286450195312504,0.1962,0.0714194824218743,0.2422619827987831,-0.03950226221513496,0.03693299089488331,0.07366145345615598,0.09138098413689932
186,1791340972.791151,0.09891430664062503,0.1435095703125,0.037889208984374305,0.1783665579275879,-0.0388256647071656,0.041195863099749756,0.07509887984418273,0.09404452738111646
187,1791340972.811151,-0.016046630859374973,0.1578796875,0.033099169921874304,0.16210812791637505,-0.03825360288203159,0.04446904103029442,0.07615662602394264,0.09612837994557509
188,1791340972.8360684,-0.011256591796874974,0.17703984375,0.004358935546874303,0.17745088743933543,-0.03769882003599056,0.048561198798195045,0.07734676937128045,0.0988023977087493
189,1791340972.8560684,0.10370434570312503,0.1722498046875,-0.0387514160156257,0.2047590261156056,-0.03718164544440722,0.051877025821110416,0.07810716135357874,0.10086837572158952
190,1791340972.8664198,0.05580395507812503,0.11955937500000001,0.013939013671874303,0.13267562570003852,-0.036830286555056636,0.05356232459782801,0.07842242169884914,0.1018600454013388
191,1791340972.8864198,-0.025626708984374975,0.129139453125,0.009148974609374303,0.13197511243865978,-0.03620798919712154,0.05670311385758598,0.07897480107263588,0.10374623273790542
192,1791340972.910625,0.13244458007812504,0.06686894531250001,-0.1249721191406257,0.19398725010107168,-0.03537390186161808,0.060289945652932365,0.07933278181370984,0.10573495519482011
193,1791340972.930625,0.32404614257812503,-0.033721875,-0.1920326660156257,0.3781793386613645,-0.03410336393377984,0.06285879692083338,0.07910869481857141,0.10664170562135751
194,1791340972.955816,0.276145751953125,-0.139102734375,-0.11060200195312571,0.3283882608565627,-0.03160913814831617,0.06528254141594304,0.07829700567522624,0.1067303561593892
195,1791340972.975816,0.23782543945312504,-0.1055724609375,-0.0770717285156257,0.2713789518290951,-0.02915497450785219,0.06655117284723377,0.07746773366032887,0.10620885511276143
196,1791340972.9859045,0.32883618164062506,-0.0864123046875,-0.0866518066406257,0.35086871668969843,-0.027673974058525227,0.06694984826849681,0.0769882969221101,0.10571342812686409
197,1791340973.0059044,0.38152661132812504,-0.0864123046875,-0.11539204101562571,0.40785409729789324,-0.024112804777148035,0.06736241746803852,0.07587733510064133,0.1042904244086396
198,1791340973.0312848,0.28093579101562505,-0.033721875,-0.1010219238281257,0.30044552354965487,-0.019010473699522794,0.0675787634280066,0.07426702734121833,0.10219529698983218
199,1791340973.0512848,0.25219555664062504,-0.009771679687499996,-0.0579115722656257,0.25894369024069036,-0.014793193877416684,0.06765843347183603,0.07295002986639218,0.10058930888750163
200,1791340973.0755026,0.32883618164062506,0.028548632812500006,-0.0770717285156257,0.3389517814200648,-0.009397168980441776,0.06777453990865143,0.07134932255973181,0.09885555560720408
201,1791340973.0955026,0.314466064453125,-0.0720421875,-0.10581196289062571,0.33952194916262673,-0.004644417100268821,0.0677908018379078,0.06995136306431256,0.09752105730857835
202,1791340973.1055832,0.29051586914062505,-0.1438927734375,-0.1249721191406257,0.34745162401774327,-0.002150827442652867,0.06763451269516228,0.06917795969173698,0.09677108800314133
203,1791340973.1255832,0.24740551757812504,-0.1103625,-0.1345521972656257,0.3024791981663496,0.0028612683310609752,0.06698956257997635,0.06748439842896825,0.095131132561526
204,1791340973.1512535,0.23303540039062504,-0.100782421875,-0.0962318847656257,0.27152010982568875,0.009254385831929012,0.06587941815506287,0.06519242072222983,0.09314393760841366
205,1791340973.1712534,0.276145751953125,-0.081622265625,-0.0339613769531257,0.2899517989115901,0.014251957614788754,0.06487062540787086,0.06347928357957279,0.09187456547074307
206,1791340973.1956577,0.34320629882812503,-0.052882031249999996,0.042679248046874306,0.34986939134235917,0.020568968519627272,0.0635781364039941,0.06171840302151733,0.09096385637214781
207,1791340973.2156577,0.31925610351562506,-0.014561718749999997,0.0570493652343743,0.3246400057888409,0.025963079900253403,0.06257662530065974,0.060641369488250725,0.09092464597311697
208,1791340973.2260714,0.285725830078125,-0.062462109375,0.061839404296874304,0.29893958755106403,0.028822913017738955,0.062073218689182336,0.06025755047219166,0.09118561938250969
209,1791340973.2460713,0.24261547851562504,-0.18221308593750002,0.09057963867187431,0.3166520962257471,0.034284020927047125,0.06088440918686177,0.05985960512741383,0.09200803062216543
210,1791340973.2709653,0.34799633789062506,-0.2109533203125,0.023519091796874305,0.4076222543177741,0.04116455284271724,0.05889259221120797,0.05965160858308896,0.09338721665542103
211,1791340973.2909653,0.41026684570312505,-0.254063671875,0.009148974609374303,0.48264991224095594,0.04700062634565137,0.0568348658328082,0.05955857086697535,0.09479706859831359
212,1791340973.3155298,0.304885986328125,-0.2301134765625,0.10015971679687431,0.3948919417053024,0.054410996103059675,0.053794597160699203,0.05966282373367738,0.09702611873348814
213,1791340973.3355298,0.25219555664062504,-0.196583203125,0.1145298339843743,0.3396537021918767,0.06037499971773183,0.05105052016763863,0.060057006451472036,0.09928816759420404
214,1791340973.3455813,0.40068676757812505,-0.2780138671875,-0.0339613769531257,0.48887111919738885,0.06341493753355079,0.049520500988438416,0.06028613431941844,0.1005393072967436
215,1791340973.3655813,0.46774731445312506,-0.42171503906249996,-0.0339613769531257,0.6307015930486848,0.06985900419540998,0.045883202314978014,0.060571771984078836,0.10322058071500446
216,1791340973.3910897,0.434217041015625,-0.43608515625,0.0666294433593743,0.6189944950743359,0.07857064499209648,0.04029889348668076,0.06094393238412245,0.1072917050156506
217,1791340973.4110897,0.46774731445312506,-0.45045527343749997,0.023519091796874305,0.6498081649415567,0.08572943185471536,0.03524744161278626,0.06132718001556117,0.11114378360952135
218,1791340973.4363346,0.5108576660156251,-0.57020625,-0.0674916503906257,0.768547880966726,0.09526303888345114,0.027895189771815314,0.0616551144056515,0.11685264790362898
219,1791340973.4563346,0.501277587890625,-0.598946484375,-0.0722816894531257,0.7843728411264719,0.1032011839848594,0.021190446162525446,0.06166628605080845,0.12207477306857394
220,1791340973.4808772,0.49169750976562504,-0.55104609375,-0.00043110351562569704,0.7385244913996366,0.11330890946885286,0.01208021177664509,0.061544096838042635,0.12950875004106732
221,1791340973.5008771,0.5156477050781251,-0.5654162109374999,-0.014801220703125699,0.7653803782940605,0.12182127772798586,0.004095103520220616,0.06143661116450927,0.13649780500615932
222,1791340973.5111487,0.6114484863281251,-0.7234875,-0.0579115722656257,0.9490295908408136,0.12640555448041266,-0.0003836535297695367,0.06133367375590865,0.140500288006565
223,1791340973.5311487,0.5587580566406251,-0.8240783203125001,-0.010011181640625698,0.9956986831505408,0.135748094961663,-0.010117591425916802,0.06106142260046455,0.14919252083122325
224,1791340973.5563102,0.48690747070312507,-0.713907421875,0.037889208984374305,0.8649729962213765,0.14771196935685016,-0.02342907631319048,0.06082289573517762,0.16145331261321533
225,1791340973.5763102,0.568338134765625,-0.6851671874999999,-0.0866518066406257,0.8944108931859083,0.15737804402911795,-0.03452138630702584,0.060588594899605754,0.1721352743829644
226,1791340973.6005578,0.644978759765625,-0.7282775390625,-0.1776625488281257,0.988913421745221,0.16954569075279155,-0.048522752709990936,0.05986646673211358,0.18623692604417474
227,1791340973.6205578,0.6689289550781251,-0.7857580078125,-0.0866518066406257,1.0355627114653492,0.18004726696142376,-0.06061013814271489,0.05896371274148085,0.19891537548972188
228,1791340973.631268,0.726409423828125,-0.8240783203125001,-0.0770717285156257,1.1012337537379457,0.18594826393108427,-0.06740527197905413,0.0584212782470426,0.20623596510204714
229,1791340973.651268,0.8174201660156251,-0.8911388671875,-0.1489223144531257,1.218393230514397,0.19763044965458576,-0.08076377064271276,0.05722130043939731,0.22103135185551898
230,1791340973.6759703,0.8365803222656251,-1.0252599609375,-0.1537123535156257,1.3321606925318483,0.21295930552173906,-0.09833864070535117,0.055400821531269843,0.24102158635777243
231,1791340973.6959703,0.8892707519531251,-1.058790234375,-0.1249721191406257,1.3883289456211891,0.22609730746084916,-0.113559634477199,0.05372995242124694,0.2586555447130996
232,1791340973.7206707,1.013811767578125,-1.1019005859375,-0.19682270507812571,1.5102113688499232,0.2434146812082824,-0.13354089384928505,0.05137979262399329,0.28235396304617427
233,1791340973.7406707,1.009021728515625,-1.12585078125,-0.22077290039062572,1.5278761415130429,0.25836756285812174,-0.15063456388204183,0.04913590887157652,0.30308234345440566
234,1791340973.7512593,0.884480712890625,-1.1402208984375,-0.1489223144531257,1.4507197125741427,0.26660034899885565,-0.16012661835668854,0.04783252817914257,0.31464937747382987
235,1791340973.7712593,0.941961181640625,-1.1450109375,-0.25430317382812573,1.5043307544989861,0.2825576795303329,-0.17879387807641745,0.045135123563017736,0.3374066870680248
236,1791340973.7963576,1.0760822753906252,-1.16417109375,-0.3692641113281257,1.6277602350616283,0.30337775445912657,-0.2030526114407026,0.0410840695777499,0.3673640233972571
237,1791340973.8163576,1.018601806640625,-1.2360216796875,-0.2974135253906257,1.6290346952211714,0.3206219518486018,-0.22308419659688877,0.037340131710854506,0.39237645216637357
238,1791340973.8411763,0.9754914550781251,-1.3030822265625002,-0.1920326660156257,1.639049545599702,0.34252283192105437,-0.24893967907183598,0.032479993636485543,0.42467376206946633
239,1791340973.8611763,0.9563312988281251,-1.3078722656250001,-0.21598286132812572,1.6345482595190772,0.3604219623863191,-0.2705662817435454,0.02853893252140055,0.4515800864258674
240,1791340973.870979,0.9467512207031251,-1.2935021484375002,-0.2878334472656257,1.6285987152396075,0.3692782691640232,-0.28148892078630094,0.02652659547028413,0.46508720996116126
241,1791340973.890979,0.9467512207031251,-1.2647619140625002,-0.25430317382812573,1.6001970745458056,0.38747706977698754,-0.30426828286556307,0.02222360947767798,0.4931648369248715
242,1791340973.9160643,0.9084309082031251,-1.27913203125,-0.1393422363281257,1.575068800774566,0.4103695427502201,-0.33333993145166224,0.016895498541090657,0.5289651495024749
243,1791340973.9360642,0.9754914550781251,-1.212071484375,-0.1585023925781257,1.5639129996960968,0.42870941200161117,-0.3567782839507358,0.01283792722484141,0.5578954348379537
244,1791340973.961455,0.9563312988281251,-1.2599718750000002,-0.25430317382812573,1.6021138483667017,0.4521789968518345,-0.3867784570194351,0.007673238655640137,0.5950817579120812
245,1791340973.981455,0.8701105957031251,-1.3126623046875001,-0.19682270507812571,1.587108676851279,0.4706322842772754,-0.4107234665667239,0.0035386286114080893,0.6246607358279231
246,1791340973.9912105,0.8892707519531251,-1.1881212890625,-0.1441322753906257,1.4910428500254753,0.47957034300306156,-0.42248086302598054,0.0015749430649549495,0.6391246153583112
247,1791340974.0112104,0.9371711425781251,-1.1929113281250001,-0.2351430175781257,1.5351284721370675,0.4978857124759622,-0.44654117398482507,-0.002415942274416821,0.6688011958186945
248,1791340974.0365477,0.9754914550781251,-1.2839220703125,-0.2878334472656257,1.637952244398715,0.5212429202523297,-0.47715681238845953,-0.007707266387749868,0.7067051771970146
249,1791340974.0565476,0.865320556640625,-1.3749328125000002,-0.1632924316406257,1.6327536013940103,0.5396756325671146,-0.501686625148261,-0.011934163575235128,0.7369407591520553
250,1791340974.0812721,0.8174201660156251,-1.2743419921875,-0.1345521972656257,1.51994326691835,0.5621649380602795,-0.5323749914677451,-0.01692805552016078,0.7744282459907395
251,1791340974.101272,0.903640869140625,-1.3797228515625002,-0.25430317382812573,1.6687935976998591,0.5802096541737322,-0.5574566968102878,-0.02094502277819327,0.804885026320044
252,1791340974.1108246,0.980281494140625,-1.6575451171875002,-0.25430317382812573,1.9424411773553807,0.5888851709293937,-0.5698153938382715,-0.022940217952279116,0.8197570257065833
253,1791340974.1308246,0.9323811035156251,-1.6623351562500002,-0.1201820800781257,1.9097477389094173,0.6071934682042188,-0.5967892545763246,-0.027052676616191103,0.8518058285312052
254,1791340974.1563957,0.9275910644531251,-1.5856945312500001,-0.0291713378906257,1.837308710109373,0.6306575497375108,-0.6323329001984009,-0.031808421079030896,0.893636177292405
255,1791340974.1763957,1.028181884765625,-1.6000646484375,-0.0291713378906257,1.9021608329197461,0.6491904133971997,-0.6607413826960807,-0.03505761182022546,0.926960842646815
256,1791340974.2014704,0.999441650390625,-1.7198156250000003,-0.0962318847656257,1.9914592569709335,0.6727536101228928,-0.697259018877745,-0.038756032273627866,0.9696749916221081
257,1791340974.2214704,0.999441650390625,-1.8012462890625003,-0.23035297851562572,2.0727841906739797,0.6917271437506307,-0.727298578628368,-0.04175333836828401,1.0045859869325007
258,1791340974.2460437,1.0760822753906252,-1.8683068359375001,-0.29262348632812574,2.175810653841801,0.7153676723645903,-0.7654338986330544,-0.04584747234999207,1.0486858207117193
259,1791340974.2660437,1.023391845703125,-1.9449474609375001,-0.2974135253906257,2.217793114955531,0.7348715490706192,-0.7975360323157259,-0.04956487503367507,1.0856134640434716
260,1791340974.2764614,0.9467512207031251,-2.08385859375,-0.40279438476562573,2.324015453702342,0.7450462693761913,-0.8148971544408562,-0.05175785666241026,1.1053642800242243
261,1791340974.2964613,0.8892707519531251,-2.1221789062500003,-0.4171645019531257,2.338476427527445,0.7644037806429337,-0.8495367190807627,-0.05656638149253085,1.1442139364834163
262,1791340974.320839,0.9180109863281251,-2.1461291015625004,-0.3069936035156257,2.354327794550307,0.7877633850562458,-0.8932288100122889,-0.06287223750372439,1.1926364811290864
263,1791340974.340839,0.922801025390625,-2.0455382812500003,-0.3596840332031257,2.2726990993667555,0.8068146843495144,-0.9299854780625887,-0.06826971289881828,1.23307894231821
264,1791340974.365131,0.865320556640625,-2.0455382812500003,-0.3644740722656257,2.2507438492991456,0.8297412263474218,-0.9753869837021495,-0.07516146722164413,1.2827702509923633
265,1791340974.385131,0.8749006347656251,-2.1413390625,-0.26388325195312573,2.3281792181795264,0.848395972227362,-1.0134401040374452,-0.08092697898599888,1.3241547289085362
266,1791340974.395189,1.023391845703125,-2.0790685546875003,-0.3117836425781257,2.3381757771222644,0.8578023616430184,-1.032890479415571,-0.08382583758291469,1.3452562600315767
267,1791340974.415189,0.9898615722656251,-2.0599083984375004,-0.4171645019531257,2.3231605118655323,0.8767206133926441,-1.0719733329468295,-0.08981881559724315,1.3877439533761262
268,1791340974.4555643,0.8701105957031251,-2.0694884765625003,-0.37405415039062573,2.275915532440578,0.9148156297389676,-1.1515419193787406,-0.10249838317429036,1.4742599319843572
269,1791340974.4755642,0.8892707519531251,-2.0646984375,-0.27346333007812573,2.2646333701046704,0.9334945983852967,-1.1912455315067145,-0.10880838790373264,1.5173389030890398
270,1791340974.485006,0.9946516113281251,-2.0167980468750004,-0.3501039550781257,2.2758248986154004,0.9423241572187353,-1.2100680285241934,-0.11178203330720189,1.5377693825488659
271,1791340974.505006,0.980281494140625,-2.08385859375,-0.4075844238281257,2.3387055199506435,0.9611841076212037,-1.2501087704363003,-0.11827259073905848,1.5813396954435366
272,1791340974.5152605,0.9275910644531251,-2.074278515625,-0.3213637207031257,2.2948488368999147,0.970870798815467,-1.270756928924848,-0.12166187010113894,1.6038126109491722
273,1791340974.5352604,0.980281494140625,-2.0215880859375,-0.25430317382812573,2.261070609507381,0.9897914542822659,-1.3111317787579346,-0.12814420536187807,1.6477786870836069
274,1791340974.5600636,1.0377619628906252,-2.0120080078125,-0.3596840332031257,2.292269338202973,1.0134904258645727,-1.3611957813819984,-0.13611962606233224,1.7025114834181445
275,1791340974.5800636,0.9659113769531251,-2.0599083984375004,-0.39321430664062573,2.308857918761503,1.0327391095367284,-1.4016173092857969,-0.14271529266334865,1.7468396620228934
276,1791340974.6055796,0.865320556640625,-2.0790685546875003,-0.3069936035156257,2.2727848101909522,1.0571174397230312,-1.4533724960747325,-0.1512078371352489,1.803511215303136
277,1791340974.6255796,0.884480712890625,-2.1461291015625004,-0.3357338378906257,2.345398358904888,1.0759841315660232,-1.4941920310079166,-0.15783006073120573,1.8480427497706506
278,1791340974.6351333,0.9323811035156251,-2.2179796875,-0.30220356445312574,2.4248908038762877,1.0849464283513757,-1.5138930383444413,-0.16097598974632935,1.8694636003985157
279,1791340974.6551332,0.941961181640625,-2.2323498046875003,-0.27346333007812573,2.43833113237385,1.1037056205611362,-1.5556248736052838,-0.16743741522500497,1.91472455780327
280,1791340974.6805744,0.9132209472656251,-2.1892394531250003,-0.3213637207031257,2.3937452919280977,1.127528861372478,-1.6091842317854743,-0.175558818535275,1.972717953438967
281,1791340974.7005744,0.8461604003906251,-2.2515099609375,-0.3405238769531257,2.4292470105292288,1.1460868022072743,-1.6516341214573307,-0.18197843265973992,2.0185456099154955
282,1791340974.7255485,0.9371711425781251,-2.2706701171875,-0.3309437988281257,2.4786601883986186,1.169124495139318,-1.7051607653923435,-0.19004991284326064,2.0761850327800504
283,1791340974.7455485,1.0377619628906252,-2.2419298828125003,-0.37405415039062573,2.498622820374201,1.1877687497743674,-1.748365478325867,-0.19660170043366723,2.122787949220461
284,1791340974.7545612,0.9323811035156251,-2.227559765625,-0.2399330566406257,2.426710716853831,1.196241969529912,-1.7679357773556035,-0.1995263238120244,2.1439222272304344
285,1791340974.7745612,0.8270002441406251,-2.150919140625,-0.0387514160156257,2.30475253022073,1.214863443022507,-1.811417488413135,-0.20546084959881267,2.1907397525126795
286,1791340974.8001237,0.9132209472656251,-2.074278515625,-0.0339613769531257,2.2666621349536706,1.2384303006775272,-1.8667568859277617,-0.21204757209986203,2.2502122241309577
287,1791340974.8201237,0.941961181640625,-2.1748693359375,-0.1680824707031257,2.376046971984496,1.2568858657184745,-1.9099332597398713,-0.21673104118589603,2.2966452665392127
288,1791340974.8459826,0.898850830078125,-2.227559765625,-0.19682270507812571,2.4101233373829047,1.28073869476347,-1.9659223829021881,-0.22258589259068562,2.3568383269627655
289,1791340974.8659825,0.903640869140625,-2.23713984375,-0.2495131347656257,2.4256170978321308,1.2991236085525317,-2.0094274477601215,-0.22710445578204247,2.4035592882112073
290,1791340974.890082,0.898850830078125,-2.2946203125,-0.3788441894531257,2.493338748175251,1.321211782428159,-2.0621772866138004,-0.23286819894437025,2.4601632737549033
291,1791340974.9100819,0.8701105957031251,-2.4047912109375003,-0.44111469726562574,2.595129166939642,1.3394464969736999,-2.1064367952251453,-0.2381639528315805,2.507571526190601
292,1791340974.9204247,0.8701105957031251,-2.3664708984375,-0.43153461914062574,2.5580264051458266,1.3488118597780863,-2.1295931189009476,-0.24116873766233204,2.532315668548044
293,1791340974.9404247,0.9132209472656251,-2.3329406250000004,-0.4650648925781257,2.5481110283127033,1.366880215703664,-2.1747030778231484,-0.24745244464815705,2.5804898203902913
294,1791340974.9651449,0.841370361328125,-2.400001171875,-0.43153461914062574,2.579560396160485,1.3891160334925299,-2.230870956106312,-0.25571647316931,2.64042032486399
295,1791340974.9851449,0.879690673828125,-2.3856310546875004,-0.3405238769531257,2.5653552817270286,1.406989111524485,-2.276675837957611,-0.26255770139350554,2.68920207081013
296,1791340975.0101848,0.9850715332031251,-2.2515099609375,-0.3261537597656257,2.479120671677196,1.429511602921017,-2.334129786948327,-0.2710901337796308,2.7504827114231993
297,1791340975.0301847,0.9563312988281251,-2.2131896484375,-0.3069936035156257,2.4304368014142446,1.4477145728164882,-2.37983320626961,-0.2778326544869893,2.799406108071497
298,1791340975.0405903,0.8509504394531251,-2.246719921875,-0.20161274414062572,2.4109157505718417,1.4571750101820093,-2.403525481374071,-0.2812113634383147,2.8247785011997375
299,1791340975.0605903,0.8174201660156251,-2.1892394531250003,-0.1776625488281257,2.343610268833999,1.475133491471839,-2.4488865138296965,-0.2873002195211063,2.873256930978456
300,1791340975.0853837,0.8701105957031251,-2.1413390625,-0.2351430175781257,2.3232988761799405,1.4971946712844932,-2.504737065752405,-0.29448378211849896,2.932920106345801
301,1791340975.1053836,0.8557404785156251,-2.2515099609375,-0.23035297851562572,2.4196386849035862,1.5149100478281377,-2.549621161294451,-0.30010755056178245,2.9808698497309987
302,1791340975.1307735,0.7311994628906251,-2.3089904296875003,-0.1872426269531257,2.4292281202613135,1.5370481376898508,-2.606738642709458,-0.30697120631494135,3.0416828648754684
303,1791340975.1507735,0.7934699707031251,-2.2658800781250004,-0.20640278320312572,2.409649192676264,1.554157845707645,-2.6518443334086763,-0.31215728045653746,3.089518918172918
304,1791340975.1599083,0.8749006347656251,-2.1365490234375004,-0.26388325195312573,2.32377434810835,1.5619433282156978,-2.6723717668306683,-0.31449285660646337,3.111292910924282
305,1791340975.1799083,0.8461604003906251,-2.170079296875,-0.2447230957031257,2.3420335120329168,1.5790138518426338,-2.7170336564320667,-0.3196023180906708,3.158750112975771
306,1791340975.2059574,0.7695197753906251,-2.2036095703125,-0.19682270507812571,2.3423908726607414,1.6010689778983858,-2.775023171819032,-0.32612159018680864,3.2203308475538837
307,1791340975.2259574,0.7982600097656251,-2.1365490234375004,-0.22556293945312572,2.2919291900923744,1.6178140889134138,-2.819378066725564,-0.3310097243308231,3.2673816041321966
308,1791340975.2504668,0.8557404785156251,-2.074278515625,-0.3069936035156257,2.2647666987027857,1.6382970590461472,-2.8733207950023485,-0.33708040718748356,3.324697406619415
309,1791340975.2704668,0.8126301269531251,-2.1365490234375004,-0.3165736816406257,2.307688962726799,1.6550068038874868,-2.917052241849488,-0.34222644308697936,3.3712549949449038
310,1791340975.280298,0.745569580078125,-2.150919140625,-0.21119282226562572,2.286247921031615,1.6631374911859411,-2.9384856949983176,-0.34476573353258144,3.394051841872229
311,1791340975.300298,0.8126301269531251,-2.0599083984375004,-0.21598286132812572,2.2249132409091112,1.6795342818971288,-2.9818644173262308,-0.34979740903502893,3.4401611931349416
312,1791340975.3250957,0.898850830078125,-2.0263781250000004,-0.3165736816406257,2.2392766725257847,1.6999979541900407,-3.035181134723116,-0.3560907659445658,3.4970156131221968
313,1791340975.3450956,0.7982600097656251,-2.093438671875,-0.29262348632812574,2.259498400274629,1.7165724354500687,-3.0779119912556254,-0.36131895532030484,3.5426987650004773
314,1791340975.3705742,0.745569580078125,-2.093438671875,-0.20640278320312572,2.231806797317732,1.7374700695790677,-3.132183423518455,-0.3679338430983111,3.600659738734552
315,1791340975.3905742,0.8509504394531251,-2.0407482421875,-0.2782533691406257,2.228496124258453,1.7538082908847492,-3.1745960053425963,-0.37307445134436096,3.6459687141498005
316,1791340975.4003167,0.879690673828125,-2.1461291015625004,-0.3213637207031257,2.3415807573470113,1.7618377964898009,-3.1952165122212235,-0.3756410866375851,3.6680495099005226
317,1791340975.4203167,0.8126301269531251,-2.2515099609375,-0.2782533691406257,2.4097903985348488,1.7783872054785304,-3.237794318414354,-0.3810191119328181,3.7136435834129373
318,1791340975.4454746,0.7982600097656251,-2.1844494140625,-0.21598286132812572,2.335741184758384,1.7991215477847198,-3.2916890275833692,-0.38770191336255466,3.7712554635878246
319,1791340975.4654746,0.865320556640625,-2.1221789062500003,-0.21598286132812572,2.3019712361940523,1.8156277472144942,-3.3345672716869816,-0.3928656351973016,3.817091355100126
320,1791340975.4905734,0.8940607910156251,-2.1221789062500003,-0.2495131347656257,2.3162998105997636,1.836546788023581,-3.3882951184143337,-0.39925003185336083,3.8746417256315513
321,1791340975.5105734,0.8509504394531251,-2.1796593750000004,-0.2447230957031257,2.35264128906244,1.8533332405400065,-3.431138952097315,-0.40431568134666485,3.920590488596431
322,1791340975.520784,0.8749006347656251,-2.1892394531250003,-0.22556293945312572,2.3683536778714194,1.8619393126446955,-3.4530765691285117,-0.4068740457366874,3.9441224987733676
323,1791340975.540784,0.8461604003906251,-2.1461291015625004,-0.2399330566406257,2.319358837142628,1.8788495716996563,-3.496104626288266,-0.4118318349468299,3.990291810294815
324,1791340975.5811281,0.7886799316406251,-2.1221789062500003,-0.3165736816406257,2.286017987814752,1.912791168074579,-3.582797022407504,-0.4220165058306771,4.083295542528084
325,1791340975.601128,0.803050048828125,-2.131758984375,-0.3309437988281257,2.301914322117393,1.929480842370984,-3.625707781976034,-0.4272793292440597,4.129312396338823
326,1791340975.6104424,0.9132209472656251,-2.170079296875,-0.3596840332031257,2.381719810765214,1.9372865241589872,-3.6456994978910013,-0.4298451138996839,4.150779532516048
327,1791340975.6304424,0.8940607910156251,-2.1748693359375,-0.3213637207031257,2.373325929453615,1.9542439772933704,-3.688704776990823,-0.43554962411854703,4.1970603914706945
328,1791340975.6556232,0.721619384765625,-2.1557091796875003,-0.21598286132812572,2.283520352492169,1.975442912595661,-3.7429069756922764,-0.44266932147342025,4.255312380752331
329,1791340975.6756232,0.759939697265625,-2.0455382812500003,-0.1632924316406257,2.1882412165413765,1.9919769992484717,-3.785801637365092,-0.4480448587421558,4.301280111601247
330,1791340975.685928,0.879690673828125,-2.0120080078125,-0.1824525878906257,2.203479260612587,2.0004854858109864,-3.8077237310932652,-0.4506663440499414,4.324789283298156
331,1791340975.705928,0.884480712890625,-2.0886486328125002,-0.23035297851562572,2.2798731845293623,2.017168144703514,-3.8500394698316187,-0.45561020196518803,4.370280528684939
332,1791340975.7311068,0.7982600097656251,-2.1030187500000004,-0.2447230957031257,2.262696687497708,2.0381978548940696,-3.9032368565290585,-0.4617977311012949,4.427501055709861
333,1791340975.7511067,0.759939697265625,-2.0311681640625,-0.2686732910156257,2.185254628524183,2.054733865650729,-3.9453556230409026,-0.4667454837076867,4.472763530243241
334,1791340975.775676,0.8365803222656251,-2.055118359375,-0.3165736816406257,2.241338216902962,2.074942587240254,-3.99686561425574,-0.4729903346739902,4.52813883791765
335,1791340975.795676,0.841370361328125,-2.0886486328125002,-0.30220356445312574,2.2719340198692217,2.091442339720641,-4.038722077969847,-0.47823944009459557,4.573195824094921
336,1791340975.805322,0.7120393066406251,-2.1030187500000004,-0.2447230957031257,2.2337361595818224,2.0993302664377245,-4.058913694729126,-0.4807869971078278,4.594901966900828
337,1791340975.825322,0.7120393066406251,-2.0407482421875,-0.2782533691406257,2.17923800894504,2.1153680489253808,-4.100715005139436,-0.48606127055002907,4.639709160552933
338,1791340975.8509028,0.8365803222656251,-2.0455382812500003,-0.3405238769531257,2.236079159250953,2.1357752719793046,-4.154000723155229,-0.49298256545372904,4.6968382801852755
339,1791340975.8709028,0.8270002441406251,-2.0263781250000004,-0.30220356445312574,2.2094036986606467,2.1518324264403095,-4.195520049059854,-0.49854625849477663,4.741446999113491
340,1791340975.8957589,0.8701105957031251,-2.0886486328125002,-0.22556293945312572,2.273856679687422,2.1719587267901335,-4.247051696988523,-0.5054075254653588,4.796904167749229
341,1791340975.9157588,0.922801025390625,-2.0455382812500003,-0.21119282226562572,2.2539722715015182,2.1884132000122944,-4.288497338524314,-0.5107553283560605,4.8416146854084
342,1791340975.9252055,0.879690673828125,-1.9928478515625,-0.1728725097656257,2.1852192443162584,2.1962964302807793,-4.30799819089215,-0.5131744827122698,4.8627064966026
343,1791340975.9452055,0.740779541015625,-2.0503283203125,-0.1632924316406257,2.186153006469105,2.2129136649127465,-4.349156362784683,-0.5180322000633648,4.907189146202798
344,1791340975.9711752,0.721619384765625,-2.0982287109375,-0.20161274414062572,2.227991462836399,2.2341027181106736,-4.402663533324542,-0.5241044733943953,4.9648108364536165
345,1791340975.9911752,0.822210205078125,-2.0646984375,-0.2495131347656257,2.236351060001565,2.250288969160759,-4.443934102454908,-0.5287561160090002,5.009184941874798
346,1791340976.0156796,0.8461604003906251,-1.9976378906250003,-0.28304340820312573,2.187843261336873,2.270212146336565,-4.494380772362684,-0.5345792672492339,5.063506365092295
347,1791340976.0356796,0.7551496582031251,-2.0646984375,-0.28304340820312573,2.2166064637247813,2.286435846010793,-4.535471731119165,-0.5394682173978328,5.1077704195946945
348,1791340976.0452673,0.6976691894531251,-2.1221789062500003,-0.22556293945312572,2.245275984750953,2.294091381881239,-4.555226200643444,-0.541826098561829,5.1289878658984
349,1791340976.0652673,0.759939697265625,-2.0311681640625,-0.1824525878906257,2.1763366929336057,2.309851758405049,-4.596482696531372,-0.546618860226366,5.173186687494893
350,1791340976.0904818,0.841370361328125,-2.0024279296875003,-0.1680824707031257,2.178502562649779,2.3297690151411863,-4.648321616889688,-0.5524177436194145,5.228755385502506
351,1791340976.1104817,0.8126301269531251,-2.055118359375,-0.22077290039062572,2.2209502173211657,2.3456785539236127,-4.689358578912884,-0.5569107281959004,5.272802036786581
352,1791340976.136072,0.783889892578125,-2.0503283203125,-0.21598286132812572,2.2056695539334776,2.366045652449793,-4.741869146116732,-0.5626354746221771,5.329170076632357
353,1791340976.156072,0.803050048828125,-1.9832677734375002,-0.21119282226562572,2.1500797311390833,2.381956262945708,-4.782803179073658,-0.567079281958124,5.373127655320457
354,1791340976.1652453,0.8174201660156251,-1.9880578125000001,-0.26388325195312573,2.165683255767716,2.3892742168452017,-4.801494403360508,-0.5691386417535405,5.393227102794818
355,1791340976.1852453,0.8270002441406251,-2.074278515625,-0.3309437988281257,2.2574508991725373,2.4053023587449123,-4.8422261761460526,-0.5738472536959944,5.437088784313927
356,1791340976.210918,0.8126301269531251,-2.0982287109375,-0.3309437988281257,2.2743032437687565,2.4259475263939527,-4.894702150006595,-0.5802592035033075,5.493635524982197
357,1791340976.230918,0.783889892578125,-2.0646984375,-0.2351430175781257,2.2209806933462595,2.4420131633914113,-4.935695182252063,-0.5853542109287457,5.537793312731631
358,1791340976.2549682,0.8078400878906251,-2.0407482421875,-0.21119282226562572,2.2049629030373787,2.461305540330295,-4.985000908054323,-0.5913670875712643,5.590883118830651
359,1791340976.2749681,0.8365803222656251,-1.9784777343750002,-0.2686732910156257,2.1648154929057717,2.4774090451134887,-5.025881646591614,-0.5963371065726969,5.63494985310713
360,1791340976.3005471,0.7743098144531251,-2.055118359375,-0.3261537597656257,2.220234995402036,2.4980056549605045,-5.0780615484134275,-0.6028811815192233,5.691239501261536
361,1791340976.320547,0.7743098144531251,-2.0982287109375,-0.2782533691406257,2.253784450562872,2.514017247359982,-5.11897072678562,-0.6081370338429816,5.735326902073054
362,1791340976.3306184,0.8365803222656251,-2.0215880859375,-0.2447230957031257,2.20149367893188,2.5220874636965402,-5.13959295681957,-0.6107817228604674,5.7575511503854635
363,1791340976.3506184,0.8174201660156251,-2.0407482421875,-0.27346333007812573,2.2153129143978285,2.5381907205370973,-5.1804960982810355,-0.6160231494185535,5.801675316556866
364,1791340976.3760448,0.8461604003906251,-2.1365490234375004,-0.3548939941406257,2.3252481372571934,2.5587646757322395,-5.232662972248775,-0.6228854172241876,5.8579881094031805
365,1791340976.3960447,0.860530517578125,-2.1988195312500003,-0.22556293945312572,2.3719609487393507,2.5750803759344167,-5.274044587519271,-0.6283441873067825,5.902660558713
366,1791340976.4204173,0.8317902832031251,-2.227559765625,0.08578959960937431,2.3793397067387363,2.5950742245543448,-5.325000305755394,-0.6342540730995528,5.9575428421862595
367,1791340976.4404173,0.759939697265625,-2.2563000000000004,0.1576401855468743,2.3860529041870433,2.6114076176073775,-5.36726793424388,-0.6380111009930679,6.002838744148537
368,1791340976.4511857,0.7982600097656251,-2.2179796875,-0.0722816894531257,2.35836332654318,2.620141176214462,-5.390225620121468,-0.6396615967411775,6.027340954140046
369,1791340976.4711857,0.8557404785156251,-2.3185705078125003,-0.21598286132812572,2.480868711289566,2.636409753793429,-5.433273501668911,-0.6426996138293192,6.073234733439095
370,1791340976.495267,1.0425520019531251,-2.4526916015625,-0.2590932128906257,2.677637029568735,2.6564883738800305,-5.4859483358653325,-0.6466669135376513,6.129497346553606
371,1791340976.515267,1.143142822265625,-2.5963927734375,-0.30220356445312574,2.8529560004360506,2.6739412808948986,-5.530707403010997,-0.6503095466638751,6.177506686186318
372,1791340976.5402653,1.147932861328125,-2.7544640625,-0.3596840332031257,3.005693718505305,2.6967793416143815,-5.588293188952344,-0.6554205655765177,6.239488416595538
373,1791340976.5602653,1.0808723144531251,-2.8071544921875,-0.3692641113281257,3.0306364491760913,2.7156533902187476,-5.635796370800685,-0.6599896950664422,6.290672497160431
374,1791340976.5702486,1.061712158203125,-2.7209337890625,-0.3980043457031257,2.94773147531062,2.725265728543664,-5.660090672034205,-0.6625028246405612,6.316851248801096
375,1791340976.5902486,0.999441650390625,-2.6826134765625,-0.44111469726562574,2.896529104516995,2.744725749022099,-5.709565339925032,-0.6680409644108819,6.3701596948859285
376,1791340976.6162066,0.9563312988281251,-2.73530390625,-0.4698549316406257,2.935510291150725,2.7700020121648024,-5.774694613769467,-0.6759242689179699,6.4402548588551545
377,1791340976.6362066,0.922801025390625,-2.7975744140625,-0.40279438476562573,2.9732520328888783,2.789374180890841,-5.825647208961464,-0.6823960327974768,6.494954816615639
378,1791340976.660632,1.013811767578125,-2.706563671875,-0.3213637207031257,2.908019231535019,2.8130316142699887,-5.888622822136298,-0.6904407900520745,6.562448787520907
379,1791340976.6806319,0.8461604003906251,-2.5580724609375,-0.2495131347656257,2.705915546172243,2.8322871407220336,-5.94035078819751,-0.6968962546255192,6.617800414340799
380,1791340976.6907384,0.6306086425781251,-2.4622716796875,-0.19682270507812571,2.5493505568908326,2.841677334215628,-5.966374850459219,-0.700007385315849,6.645507449960751
381,1791340976.7107384,0.6737189941406251,-2.3521007812500003,-0.2447230957031257,2.458895028624288,2.859428820400583,-6.017370790417721,-0.7059028541927839,6.6995061943301
382,1791340976.750942,0.7934699707031251,-2.3473107421875,-0.3884242675781257,2.508054171352775,2.894183925527443,-6.118675161629295,-0.717885276084494,6.806603088027069
383,1791340976.770942,0.659348876953125,-2.3281505859375002,-0.3501039550781257,2.4449128556457427,2.9110592646354534,-6.168524657531405,-0.7240598057439085,6.859243769912741
384,1791340976.780723,0.37673657226562507,-2.2898302734375,-0.1680824707031257,2.3266939727843403,2.918834366754961,-6.19263467541396,-0.7270066792883819,6.884537529523615
385,1791340976.800723,0.36236645507812504,-2.1173888671875,-0.2686732910156257,2.1649088664330924,2.93345646043216,-6.241149678590134,-0.7327835970478931,6.934990116497597
386,1791340976.81083,0.6162385253906251,-2.0024279296875003,-0.5369154785156257,2.162809692237818,2.940479185321206,-6.265112216714404,-0.7358757287842527,6.959853591530865
387,1791340976.83083,0.7743098144531251,-2.0790685546875003,-0.5848158691406258,2.2943607703775597,2.9543771886837304,-6.311539306803712,-0.7427592719839432,7.008249733739601
388,1791340976.8559163,0.783889892578125,-2.1557091796875003,-0.5560756347656257,2.360251160926543,2.972126419799255,-6.369005727583517,-0.7522447954937032,7.068496420428303
389,1791340976.8759162,0.659348876953125,-2.1748693359375,-0.4698549316406257,2.3206811988568328,2.986319286050202,-6.414444498213651,-0.7602116851177144,7.116257647463889
390,1791340976.9006042,0.5731281738281251,-1.9832677734375002,-0.4794350097656257,2.11935954792486,3.003493081533823,-6.469819938267465,-0.7703285798465462,7.174464917006227
391,1791340976.9206042,0.803050048828125,-1.7341857421875002,-0.44111469726562574,1.961344371973726,3.017383099506612,-6.513527244761745,-0.7786758243646026,7.220593741299364
392,1791340976.9306557,0.8701105957031251,-1.5330041015625002,-0.4554848144531257,1.8206208941895878,3.024578089684595,-6.534661520710196,-0.7829175847720614,7.243123204488235
393,1791340976.9506557,0.7168293457031251,-1.5042638671875002,-0.46027485351562575,1.7287298903431658,3.039127313099232,-6.574961610338683,-0.7914652704155405,7.286482846814858
394,1791340976.9760716,0.659348876953125,-1.5234240234375003,-0.3405238769531257,1.6945554601431716,3.0574663051093007,-6.6242641822393065,-0.8022247573919283,7.339791599517649
395,1791340976.9960716,0.6928791503906251,-1.3366125000000002,-0.2782533691406257,1.5310256136460927,3.0717610846935575,-6.661531346068806,-0.8103496426609433,7.380269817524
396,1791340977.0211587,0.721619384765625,-1.135430859375,-0.3309437988281257,1.3854463435562423,3.0896636561536113,-6.705916961286998,-0.8201586491813648,7.428862901525384
397,1791340977.0411587,0.6880891113281251,-1.0923205078125,-0.4171645019531257,1.3567081257978395,3.1039096790431597,-6.739335963295128,-0.8279277658176386,7.465813345324986
398,1791340977.0651877,0.6880891113281251,-1.03005,-0.3309437988281257,1.2821830702404085,3.1209383201660055,-6.777289475934126,-0.8372100762382373,7.508184158013367
399,1791340977.0851877,0.43900708007812506,-0.828868359375,-0.1393422363281257,0.9482437620974097,3.134676339939033,-6.806929099581655,-0.8444825285617752,7.541460751336653
400,1791340977.0961735,0.41026684570312505,-0.5079357421875,-0.1537123535156257,0.6707794648750594,3.141790359129179,-6.82186925875766,-0.8481194892490042,7.558310228638662
401,1791340977.1161735,0.587498291015625,-0.407344921875,-0.1345521972656257,0.7274533807142817,3.1542955479156647,-6.8463612301338,-0.8541798767122819,7.586294600057395
402,1791340977.1408482,0.46774731445312506,-0.369024609375,-0.1537123535156257,0.6153000894895065,3.169362248217992,-6.87348206743076,-0.8610687083389,7.617811504113374
403,1791340977.1608481,0.33362622070312503,-0.464825390625,-0.2447230957031257,0.622300966157739,3.180944743136451,-6.893418160765518,-0.8664125278367151,7.64122333572653
404,1791340977.1854033,0.30967602539062505,-0.44087519531249997,-0.2878334472656257,0.6108340788695272,3.194216934583911,-6.915891388058579,-0.872970100921724,7.6677671009041966
405,1791340977.2054033,0.27135571289062504,-0.2971740234375,-0.10581196289062571,0.41610394688728713,3.204277043520303,-6.932557055411077,-0.8781004870057466,7.687574335474151
406,1791340977.2161582,0.21387524414062503,-0.009771679687499996,-0.005221142578125697,0.21416200902575644,3.2092667155687926,-6.940422192038044,-0.8805350467576908,7.697025076220061
407,1791340977.2361581,0.43900708007812506,0.148299609375,-0.0770717285156257,0.46974465599502585,3.218133135707914,-6.952646700402116,-0.8845067569667805,7.712200024822591
408,1791340977.2607527,0.29051586914062505,0.26805058593750003,-0.0962318847656257,0.4068306312085098,3.2287466027656206,-6.964656606390108,-0.8889779374881088,7.727970499629545
409,1791340977.2807527,0.21866528320312503,0.26805058593750003,0.018729052734374304,0.34643383223361274,3.2368465031894633,-6.972153816699468,-0.8921847141475621,7.738481614185394
410,1791340977.3055017,0.16118481445312505,0.5267126953125001,0.1193198730468743,0.5635991837445908,3.2460713332164968,-6.978564424466451,-0.8953014714235408,7.748477608633314
411,1791340977.3255017,0.30009594726562505,0.6273035156250001,0.1576401855468743,0.7130341551286239,3.253099740168073,-6.981236814032177,-0.8970269156557871,7.754030091538893
412,1791340977.3357115,0.12286450195312504,0.301580859375,0.10973979492187431,0.34364156205419627,3.256473360048858,-6.981685129736031,-0.8975708728194117,7.755912548966687
413,1791340977.3557115,-0.049576904296874974,0.148299609375,-0.0866518066406257,0.17877130411372924,3.2622005894214787,-6.981756784689041,-0.8984419651778344,7.758484288246378
414,1791340977.380806,-0.011256591796874974,0.3686414062500001,-0.11539204101562571,0.3864434245664052,3.268194286656902,-6.98086027738397,-0.8997512648955474,7.760351567189166
415,1791340977.400806,0.05580395507812503,0.5267126953125001,-0.0339613769531257,0.5307482641801783,3.272321468226267,-6.978909919049634,-0.9008622646978987,7.760465467327363
416,1791340977.4262085,0.20908520507812503,0.35427128906250005,-0.0674916503906257,0.4168691546624882,3.2772818759782156,-6.975125851477572,-0.9022549977298012,7.759318347605956
417,1791340977.4462085,0.05580395507812503,0.31116093750000007,-0.010011181640625698,0.3162837874221218,3.2809988313805003,-6.97159531668422,-0.9033033017106812,7.757838065209597
418,1791340977.455371,-0.06873706054687498,0.36385136718750005,0.033099169921874304,0.37176357533566257,3.2824373393382,-6.969756657891484,-0.9036956492760939,7.75684011588642
419,1791340977.475371,0.007903564453125027,0.5075525390625001,-0.0818617675781257,0.5141725344968073,3.2850150997654866,-6.96503810202276,-0.9044967555720236,7.753785807536624
420,1791340977.500932,0.07496411132812503,0.5027625000000001,-0.1872426269531257,0.5417098399897984,3.2879743076078856,-6.957975253600063,-0.9058829306384291,7.748859178048242
421,1791340977.520932,-0.030416748046874973,0.5410828125000001,-0.0627016113281257,0.5455522711966294,3.290009216683656,-6.951712180063065,-0.9071797537129259,7.744251931971688
422,1791340977.5459075,-0.19327807617187498,0.7614246093750001,0.013939013671874303,0.7856959632025083,3.291750176697869,-6.942624357537306,-0.9086476217429019,7.737007993802241
423,1791340977.5659075,-0.08310717773437498,0.9099158203125001,-0.0387514160156257,0.9145246171039678,3.2925206103907456,-6.933931583274038,-0.9096839672349667,7.729658730604956
424,1791340977.5758564,0.0031135253906250273,0.9051257812500001,-0.0722816894531257,0.9080126742254092,3.292786685010249,-6.928901669357678,-0.910205016706175,7.725321719452562
425,1791340977.5958564,-0.025626708984374975,0.933866015625,0.0714194824218743,0.9369435446290726,3.2932075618006955,-6.917548479052834,-0.9110966367079689,7.715425463742621
426,1791340977.62136,-0.03999682617187497,1.0392468750000001,0.10973979492187431,1.0457899578264194,3.2935382295812703,-6.901468576818745,-0.911716552054132,7.701226503474584
427,1791340977.64136,0.10370434570312503,1.1302576171875,0.0666294433593743,1.136959258395154,3.2938542043230004,-6.887495926652345,-0.9118652160419691,7.6888603727220985
428,1791340977.6658056,0.12286450195312504,1.1494177734375002,0.033099169921874304,1.1564395612325475,3.2945978766436075,-6.868799643801902,-0.9118368244982414,7.672433128414267
429,1791340977.6858056,0.05580395507812503,1.0919373046875,0.08578959960937431,1.096722852033138,3.2953830458297357,-6.852435791294663,-0.9116387473845585,7.658100998177751
430,1791340977.7109034,-0.19327807617187498,0.9482361328125001,0.0666294433593743,0.9700245672261535,3.2959617811781303,-6.831140835273676,-0.911140562310372,7.639242521259403
431,1791340977.7309034,-0.11663745117187498,0.876385546875,0.004358935546874303,0.8841238160497467,3.295888913730195,-6.813979803275713,-0.9106966350344728,7.623816160700758
432,1791340977.7402842,-0.006466552734374973,0.6847839843750001,-0.0674916503906257,0.6881322870155253,3.2957732513491886,-6.806039576695144,-0.9105640655703912,7.616654315469326
433,1791340977.7602842,0.02227368164062503,0.46444218750000005,-0.0770717285156257,0.471320181787285,3.2955873578335084,-6.789926404208721,-0.9105406671097743,7.602176064400477
434,1791340977.7850137,0.08933422851562503,0.33511113281250005,-0.019591259765625698,0.3473670870686559,3.2955989834466,-6.771508449052119,-0.9106953572083213,7.585754106805683
435,1791340977.8050137,0.17555493164062502,0.27763066406250003,0.037889208984374305,0.3306567885415191,3.29600430869257,-6.757928140600706,-0.9107742501153957,7.5738198348730315
436,1791340977.8309507,0.15160473632812504,0.2584705078125,0.1576401855468743,0.3385874002162882,3.297087527137303,-6.7419153329279125,-0.9104808562726682,7.559972480612074
437,1791340977.8509507,-0.011256591796874974,0.17703984375,0.27260112304687434,0.32524020265078396,3.2980080248223986,-6.730766766825149,-0.9096431953103276,7.550333035301502
438,1791340977.8600016,0.05101391601562503,0.1962,0.26302104492187434,0.3320797038348533,3.2983890924893196,-6.726224984375301,-0.908957391997997,7.546368443586281
439,1791340977.8800015,0.18034497070312502,0.129139453125,0.37319194335937433,0.4341353860256977,3.2994518806059543,-6.717206256304823,-0.9067149457675154,7.538526022708485
440,1791340977.905205,0.11328442382812504,0.06686894531250001,0.5456333496093744,0.5612669318027049,3.3011453202310768,-6.707175353833971,-0.9025761345198471,7.529834349503725
441,1791340977.925205,0.12765454101562504,-0.033721875,0.6510142089843743,0.664268279383395,3.302648969868938,-6.700359691775325,-0.897989496360948,7.523875022414877
442,1791340977.9509075,0.23782543945312504,-0.062462109375,0.3971421386718743,0.4671020585134653,3.304996021559152,-6.693099972929028,-0.8909587372619032,7.517605564383364
443,1791340977.9709074,0.295305908203125,-0.2013732421875,0.10973979492187431,0.37389782652253145,3.3073480912120385,-6.688694044204705,-0.8855481709480365,7.5140784515795955
444,1791340977.980989,0.32404614257812503,-0.42171503906249996,-0.0722816894531257,0.5367253667579412,3.3088241729207657,-6.687277382337135,-0.8832016077692774,7.513191151274459
445,1791340978.000989,0.256985595703125,-0.5845763671875,-0.0674916503906257,0.6421263492066615,3.3121847631328802,-6.686397971304634,-0.8794543743784009,7.513449655944308
446,1791340978.0253606,0.17555493164062502,-0.560626171875,-0.0339613769531257,0.5884510291766969,3.3164562743289348,-6.687580365173454,-0.875758451867808,7.515954112832726
447,1791340978.0453606,0.18513500976562502,-0.4600353515625,-0.0674916503906257,0.5004624055816795,3.319976823799748,-6.689936113372373,-0.8733326076252886,7.519321854736164
448,1791340978.0710034,0.34799633789062506,-0.3786046875,-0.0866518066406257,0.52148968942477,3.3248389263262585,-6.694116347590595,-0.8709853176178891,7.524916144688918
449,1791340978.0910034,0.36715649414062507,-0.3354943359375,-0.0387514160156257,0.4988607149084753,3.3291349933639425,-6.697958788208017,-0.869617282527549,7.5300747639478285
450,1791340978.1009996,0.18034497070312502,-0.292383984375,0.037889208984374305,0.345612926457291,3.3313705944216023,-6.7000619311692615,-0.8690367358145313,7.532866968629918
451,1791340978.1209996,0.22824536132812503,-0.3259142578125,-0.005221142578125697,0.39792374739779,3.3357854514718324,-6.704566085089087,-0.8680004277217997,7.5387065011249215
452,1791340978.1458488,0.295305908203125,-0.3163341796875,-0.0243812988281257,0.43343666249036017,3.3414236786276463,-6.7105198323805455,-0.8669611617888617,7.546377294895639
453,1791340978.1658487,0.23303540039062504,-0.254063671875,0.018729052734374304,0.34526022739109924,3.346073451285578,-6.7154485455258826,-0.8662586506297165,7.552738626405304
454,1791340978.1899333,0.16597485351562505,-0.17742304687500002,0.04746928710937431,0.24754781917967658,3.3515536850944234,-6.721272965077623,-0.8654199867560224,7.560249607561257
455,1791340978.2099333,0.14681469726562504,-0.2492736328125,0.009148974609374303,0.28944015458319045,3.355891067307062,-6.726024149776013,-0.864743092329147,7.566319206505396
456,1791340978.2209878,0.11807446289062504,-0.340284375,-0.005221142578125697,0.360225339177953,3.3581484614223003,-6.728745134756204,-0.8644218190478313,7.569702587202764
457,1791340978.2409878,0.10370434570312503,-0.3163341796875,-0.0483314941406257,0.3363894140458973,3.3619526213236766,-6.733914478336619,-0.8640080837218205,7.575938199214229
458,1791340978.265173,0.03185375976562503,-0.25885371093750004,-0.0579115722656257,0.2671584845734789,3.3661086948638785,-6.740271224239976,-0.8637755301946213,7.583406364459091
459,1791340978.285173,-0.049576904296874974,-0.20616328125,-0.0243812988281257,0.21343761549449167,3.369003452120822,-6.74543696366105,-0.8637355053909815,7.589278168205448
460,1791340978.3106549,0.06059399414062503,-0.20616328125,-0.010011181640625698,0.21511660656379436,3.372159481593783,-6.751819390013673,-0.8637578882234175,7.596354542419386
461,1791340978.3306549,0.12765454101562504,-0.1917931640625,-0.014801220703125699,0.230866575660743,3.374547363021522,-6.756674286709912,-0.8638100392415876,7.601735664034692
462,1791340978.3403695,0.05580395507812503,-0.1343126953125,0.023519091796874305,0.1473333947325577,3.375666917098315,-6.758916332136782,-0.8638252190871301,7.604227188159775
463,1791340978.3603694,0.02706372070312503,-0.1103625,0.0762095214843743,0.13682184602403252,3.377750372184431,-6.763206792016953,-0.8637021901454548,7.608951646688153
464,1791340978.3858767,0.11328442382812504,-0.17742304687500002,0.0762095214843743,0.22387538812776187,3.3802774490973198,-6.7684084428739855,-0.8632772358352283,7.614648781680941
465,1791340978.4058766,0.13723461914062504,-0.28280390625,0.1432700683593743,0.3454528948621374,3.3823374673167446,-6.772565566131073,-0.8626647942596168,7.61918904067972
466,1791340978.4303715,0.05580395507812503,-0.254063671875,0.19596049804687432,0.3256730685269325,3.384836649979083,-6.77787955966544,-0.8614040158976999,7.624879497472526
467,1791340978.4503715,0.16597485351562505,-0.2253234375,0.09057963867187431,0.2941478785037841,3.3869038049856575,-6.782286666706293,-0.8600991985044557,7.629567513619385
468,1791340978.4749253,0.10370434570312503,-0.2971740234375,0.004358935546874303,0.3147792747987816,3.3895575798106257,-6.787847840026577,-0.8585627414380599,7.635516280330412
469,1791340978.4949253,0.19471508789062503,-0.3738146484375,-0.019591259765625698,0.4219421456762879,3.3918425686774656,-6.792704640538922,-0.8575218127692893,7.640731378845004
470,1791340978.505394,0.06059399414062503,-0.3546544921875,0.018729052734374304,0.3602807493761144,3.3930596653732046,-6.795437494020179,-0.857059358623653,7.6436493491081965
471,1791340978.525394,0.03664379882812503,-0.3163341796875,-0.0435414550781257,0.321412413483736,3.3951819451490004,-6.800881811706829,-0.8563456055414039,7.649351714596512
472,1791340978.5508015,0.012693603515625028,-0.42171503906249996,-0.0770717285156257,0.4288878094304897,3.397567645283102,-6.808167107663317,-0.8558047156826493,7.6568274749747305
473,1791340978.5708015,0.06059399414062503,-0.4696154296875,-0.0483314941406257,0.4759687145730848,3.3992738288407573,-6.814378633476474,-0.8556309153977422,7.6630883452565515
474,1791340978.5959692,0.08933422851562503,-0.42171503906249996,-0.010011181640625698,0.4311895201808706,3.4013818124515844,-6.822705113624884,-0.8555551400108278,7.671419549155066
475,1791340978.6159692,0.11328442382812504,-0.3067541015625,-0.0243812988281257,0.3279114015096657,3.4031096160622414,-6.8294220889576005,-0.8555555448171669,7.678159702581387
476,1791340978.6258276,0.12286450195312504,-0.31154414062499997,-0.0674916503906257,0.3416292731462128,3.404008136407739,-6.83269353074204,-0.8556236432366682,7.681475385408704
477,1791340978.6458275,0.07975415039062503,-0.3067541015625,-0.005221142578125697,0.3169953685146963,3.4058614917983356,-6.839262321405705,-0.8558501426932272,7.688165000119506
478,1791340978.6708963,0.07496411132812503,-0.32112421874999997,0.09057963867187431,0.34197229828882436,3.4081269944598422,-6.847441373929536,-0.8559309731211179,7.696453781483778
479,1791340978.6908963,0.13244458007812504,-0.2780138671875,0.09536967773437431,0.32237967146173807,3.4099744220655213,-6.853886575550806,-0.8557068632911459,7.702981305023414
480,1791340978.7152188,0.18992504882812503,-0.25885371093750004,0.04746928710937431,0.3245459922062707,3.4124721849994617,-6.8615283772964295,-0.8552146340864717,7.710832001554361
481,1791340978.7352188,0.12286450195312504,-0.292383984375,0.0666294433593743,0.32407339119645384,3.4146871562081627,-6.867696396731527,-0.8546994472953404,7.717243893882009
482,1791340978.7452748,0.05580395507812503,-0.28280390625,0.08099956054687431,0.2994212076680724,3.415768545281254,-6.8707662998470065,-0.8543679241390609,7.720417660453599
483,1791340978.7652748,0.18034497070312502,-0.2971740234375,0.028309130859374303,0.3487665631249016,3.417950887095864,-6.876826023814886,-0.8536435120012533,7.726696038670014
484,1791340978.7908747,0.20429516601562503,-0.2780138671875,0.009148974609374303,0.34512596097990605,3.4210637810290723,-6.884523357453769,-0.8527834327422166,7.734828946806456
485,1791340978.8108747,0.10849438476562503,-0.2396935546875,-0.0291713378906257,0.2647168272677997,3.42360012257547,-6.890411432273945,-0.8522423194500042,7.741131989339271
486,1791340978.8360658,0.08454418945312503,-0.2492736328125,-0.019591259765625698,0.2639486341033634,3.426680297808837,-6.897639151857685,-0.8517551206045206,7.748874145197306
487,1791340978.8560658,0.10370434570312503,-0.340284375,0.023519091796874305,0.3565125451731028,3.4290413010569587,-6.903401054653122,-0.8514204467611887,7.755010454080849
488,1791340978.8651469,0.06059399414062503,-0.3354943359375,0.037889208984374305,0.34302138960933587,3.43006442702622,-6.906085112951281,-0.851249455761229,7.757833408678728
489,1791340978.8851469,0.03664379882812503,-0.273223828125,0.018729052734374304,0.27630563813314163,3.432125588606866,-6.912022781131042,-0.8508444310890091,7.763986168764065
490,1791340978.9109375,0.05580395507812503,-0.3259142578125,0.009148974609374303,0.33078374897240204,3.4345636608667416,-6.919690005367208,-0.8503465568270384,7.771835470314126
491,1791340978.9309375,0.08933422851562503,-0.3163341796875,0.023519091796874305,0.329546757383524,3.436388427950347,-6.925707242695649,-0.8499693799975168,7.777958227337776
492,1791340978.9554424,0.13244458007812504,-0.3067541015625,0.042679248046874306,0.336839967686933,3.43869644855877,-6.933119103825239,-0.8494549019251814,7.785521652629443
493,1791340978.9754424,0.09412426757812503,-0.3019640625,0.037889208984374305,0.31855496377561593,3.4406374634353383,-6.939174070971312,-0.8489771362927513,7.791719009306173
494,1791340978.9848232,0.08454418945312503,-0.340284375,0.018729052734374304,0.3511295391386966,3.4415370213978425,-6.942039957425713,-0.8487468238259609,7.794643481975413
495,1791340979.0048232,0.09891430664062503,-0.349864453125,0.04746928710937431,0.3666640271929101,3.44344239419333,-6.948268759420553,-0.8482301525266147,7.800976135518096
496,1791340979.0303748,0.14681469726562504,-0.3642345703125,0.0666294433593743,0.39832255806859435,3.4459824258866916,-6.956401354227598,-0.8474504223222767,7.809256488226884
497,1791340979.0503747,0.15160473632812504,-0.33070429687499997,0.033099169921874304,0.36530108554208474,3.4481199906361195,-6.962854546362118,-0.8467820587886291,7.815875815204996
498,1791340979.0759382,0.08454418945312503,-0.3259142578125,0.018729052734374304,0.3372218866445142,3.4508951045435023,-6.971124518742999,-0.8459565477579717,7.824378349688664
499,1791340979.0959382,0.11328442382812504,-0.292383984375,0.018729052734374304,0.3141218432669041,3.453037327305119,-6.977551584397809,-0.8453513870794255,7.830984092968902
500,1791340979.1205227,0.17076489257812505,-0.2684337890625,0.018729052734374304,0.31869754480384105,3.4557993565000626,-6.985300920974637,-0.844650022070296,7.8390313055082705
501,1791340979.1405227,0.15160473632812504,-0.2875939453125,0.033099169921874304,0.32678713026532524,3.4581928289605695,-6.991493558695611,-0.8440872921812769,7.845544160883835
502,1791340979.1657114,0.07975415039062503,-0.25885371093750004,0.0714194824218743,0.2801191008125895,3.461192161313426,-6.999155224232919,-0.8432874269666485,7.853608006192091
503,1791340979.1857114,0.08454418945312503,-0.234903515625,0.018729052734374304,0.25035606451531683,3.4634628747401264,-7.005066760217115,-0.8426123707934058,7.859804769026769
504,1791340979.1952024,0.16118481445312505,-0.2780138671875,-0.0339613769531257,0.32314954724305206,3.464553719843774,-7.007816381779045,-0.8423509184766135,7.862708056914772
505,1791340979.2152023,0.17076489257812505,-0.3067541015625,-0.014801220703125699,0.35139408574553127,3.467005538561444,-7.013618586683646,-0.841955755413032,7.868917497214159
506,1791340979.2399802,0.16118481445312505,-0.26364375,0.0666294433593743,0.31611398900828624,3.4702043299422938,-7.020788658218359,-0.8414433099375009,7.87666289228861
507,1791340979.2599802,0.09891430664062503,-0.18221308593750002,0.1145298339843743,0.23686015202551633,3.472789152748212,-7.0263767924452125,-0.8408199850463312,7.882716129362494
508,1791340979.271403,0.13723461914062504,-0.187003125,0.10494975585937431,0.2545937169401089,3.4742463256879854,-7.029405991425014,-0.8403293463708348,7.886005930394066
509,1791340979.291403,0.08454418945312503,-0.119942578125,0.20554057617187432,0.252548748701362,3.476747617654124,-7.034374586739515,-0.8391334228728998,7.891409552469872
510,1791340979.315205,-0.011256591796874974,0.05728886718750001,0.3492417480468743,0.3540882993567352,3.4794087235522007,-7.039512603364054,-0.8369332698984485,7.896928520425864
511,1791340979.335205,0.02227368164062503,0.272840625,0.3684019042968743,0.45897503922738747,3.4813258742146402,-7.042687103118017,-0.8342854039304726,7.900323006694891
512,1791340979.3600326,0.08454418945312503,0.23452031250000002,0.3396616699218743,0.42132831255387987,3.483547693402475,-7.045091999567399,-0.8301730004736053,7.903012908080919
513,1791340979.3800325,-0.025626708984374975,0.22015019531250002,0.27260112304687434,0.35133204948583735,3.4851574035482695,-7.046056685949935,-0.8264387438019687,7.90419116332494
514,1791340979.3901293,-0.08789721679687498,0.25368046875,0.1288999511718743,0.29781688729480765,3.485762185544045,-7.046111833705083,-0.8245322819420162,7.904307905896133
515,1791340979.4101293,-0.054366943359374975,0.29200078125,0.028309130859374303,0.2983649236603811,3.486567062220324,-7.045386165001537,-0.8210865547171715,7.903657332127452
516,1791340979.4358733,0.16118481445312505,0.186619921875,0.028309130859374303,0.24821149558578592,3.487653937042303,-7.043668077329287,-0.8172071993373469,7.902203336715851
517,1791340979.4558733,0.17555493164062502,0.10039921875,0.04746928710937431,0.207732689694297,3.4888767622341064,-7.042103012576108,-0.8145318056839981,7.901071950328099
518,1791340979.4803648,0.16118481445312505,0.05728886718750001,0.0714194824218743,0.18537341013026593,3.490768136793584,-7.040184297593578,-0.8115286275983968,7.8998883436633625
519,1791340979.5003648,0.08933422851562503,0.06207890625000001,0.061839404296874304,0.12513395586119092,3.4924567489675606,-7.038673434702176,-0.8092441845078112,7.899053994875013
520,1791340979.5098839,0.09891430664062503,0.07165898437500001,0.028309130859374303,0.12538124656369176,3.493274294278813,-7.037966716943252,-0.8082556253431986,7.89868457148208
521,1791340979.5298839,-0.006466552734374973,0.028548632812500006,-0.00043110351562569704,0.029275016481132666,3.494873004726549,-7.03655429157385,-0.8064483589364052,7.897948630692907
522,1791340979.5558681,-0.10705737304687497,-0.043301953125,0.033099169921874304,0.12013282364805448,3.496417275977588,-7.035023254847078,-0.8043888702988011,7.897058149631057
523,1791340979.5758681,-0.18369799804687498,-0.0959923828125,0.0714194824218743,0.21922644574471312,3.4969914687680324,-7.034230529287789,-0.8028846907459467,7.896453146725749
524,1791340979.6003528,-0.06873706054687498,-0.0576720703125,0.0666294433593743,0.11176016244232453,3.497125414102236,-7.033687802039039,-0.8010659387694723,7.895844280174801
525,1791340979.6203527,-0.15974780273437497,0.07165898437500001,0.037889208984374305,0.17913671504629883,3.4968756870324977,-7.033289999462256,-0.7996463790010219,7.8952354061512455
526,1791340979.63108,-0.10705737304687497,0.1578796875,0.0570493652343743,0.19910275468320485,3.49654718042496,-7.032923966786263,-0.798922812904691,7.894690580922973
527,1791340979.65108,0.007903564453125027,0.13871953125,0.09536967773437431,0.16852581438000186,3.4958778457713207,-7.031898994493163,-0.7975475060588798,7.893341966855954
528,1791340979.6755497,-0.054366943359374975,0.1435095703125,0.10494975585937431,0.18591721963406763,3.495096486596492,-7.030315096508297,-0.7957495945587307,7.891403374815661
529,1791340979.6955497,-0.19327807617187498,0.1962,0.1336899902343743,0.30614354185180553,3.494182184382591,-7.028705148395702,-0.7941425690506118,7.88940223468922
530,1791340979.7203104,-0.15016772460937497,0.1578796875,0.0666294433593743,0.22785044209269115,3.492582237668338,-7.026353403720937,-0.7920794410557556,7.886390979516573
531,1791340979.7403104,-0.054366943359374975,0.06207890625000001,0.018729052734374304,0.08461874820490287,3.491176959631042,-7.024408827462591,-0.7905349204698486,7.8838811127055495
532,1791340979.7656305,-0.16932788085937497,-0.0480919921875,0.033099169921874304,0.17910981547197896,3.4892399379594763,-7.02228970136138,-0.7887744347954191,7.88095889492417
533,1791340979.7856305,-0.332189208984375,-0.081622265625,-0.005221142578125697,0.34210981444741384,3.4871871390313096,-7.021061482917464,-0.7875506207500985,7.878833319075636
534,1791340979.7952228,-0.241178466796875,-0.1055724609375,-0.0914418457031257,0.2787009302110159,3.4859377751334546,-7.02069544355,-0.7871212464031918,7.877911305652369
535,1791340979.8152227,-0.06394702148437498,-0.16784296875000002,-0.1010219238281257,0.20607259111650977,3.4832658970224744,-7.020456851526428,-0.7866489813269457,7.876469534844078
536,1791340979.8404827,0.017483642578125028,-0.215743359375,-0.0339613769531257,0.2190987220336128,3.480309477991321,-7.02092741458517,-0.7863977068164828,7.875556943909176
537,1791340979.8604827,0.08933422851562503,-0.26364375,-0.0243812988281257,0.2794334966160836,3.478480031958365,-7.021963183928377,-0.7863161127734722,7.875663992222231
538,1791340979.886139,0.13723461914062504,-0.2492736328125,-0.1010219238281257,0.30195382726527764,3.476921188899948,-7.02407954122946,-0.7864684463828672,7.87687799654759
539,1791340979.906139,0.24740551757812504,-0.3450744140625,-0.10581196289062571,0.4375865775585956,3.476465248801252,-7.026373374839429,-0.7868796341773965,7.878763417406207
540,1791340979.9156127,0.30009594726562505,-0.40255488281249996,-0.10581196289062571,0.5131317401332776,3.476670689468247,-7.027828173740205,-0.7871955597778051,7.880183041780064
541,1791340979.9356127,0.41026684570312505,-0.45045527343749997,-0.1632924316406257,0.6307878060663135,3.47810487962216,-7.031718208981989,-0.7881661194142426,7.884382052892469
542,1791340979.960689,0.45337719726562503,-0.5270958984375,-0.20640278320312572,0.7252469083450582,3.4812576448510617,-7.037702513589597,-0.7898957875658004,7.891282963804649
543,1791340979.980689,0.424636962890625,-0.6803771484375,-0.1585023925781257,0.8175283620902141,3.4847120123261393,-7.043570648450297,-0.7916157350941979,7.898212504143539
544,1791340980.0059116,0.41026684570312505,-0.7378576171875,-0.1297621582031257,0.8541609717297671,3.4899943321172198,-7.052543909462832,-0.7940047555820404,7.908784962622167
545,1791340980.0259116,0.47253735351562504,-0.8240783203125001,-0.1393422363281257,0.960110872400446,3.494878818994698,-7.060934786173261,-0.7960186108298828,7.918625110638649
546,1791340980.0361936,0.587498291015625,-0.953409375,-0.22556293945312572,1.1423757341343106,3.4978307263967623,-7.065972205987375,-0.7971800373087944,7.924536517563348
547,1791340980.0561936,0.582708251953125,-1.03005,-0.1441322753906257,1.1921937855078535,3.504466620464043,-7.077276095286013,-0.799654843674193,7.937793842867495
548,1791340980.0806267,0.48211743164062504,-0.9629894531250001,-0.1297621582031257,1.0847230625478894,3.513308671681082,-7.092666374016468,-0.8027266130404351,7.9557290131638325
549,1791340980.1006267,0.47732739257812506,-0.9294591796875,-0.21598286132812572,1.0669509842529208,3.520899922460347,-7.106213227156112,-0.8053824927439346,7.971426701250422
550,1791340980.1255264,0.42942700195312505,-1.001309765625,-0.20640278320312572,1.1088872375748755,3.530626626160296,-7.124154708239987,-0.8089818450022181,7.992080849555591
551,1791340980.1455264,0.36715649414062507,-1.0348400390625,-0.1345521972656257,1.1062558887642224,3.538462289703407,-7.13945825948526,-0.8119506912541437,8.009484598874852
552,1791340980.1558263,0.3958967285156251,-1.058790234375,-0.1776625488281257,1.144261753845399,3.5424817824896726,-7.1477746610603,-0.8134914790192569,8.01882960107046
553,1791340980.1758263,0.48690747070312507,-1.1593810546875,-0.25430317382812573,1.282931572303789,3.5504401463666007,-7.1648281066483985,-0.8166824918239622,8.03787019820564
554,1791340980.201033,0.47732739257812506,-1.20249140625,-0.19682270507812571,1.3086505259406749,3.560788759583394,-7.187562440104147,-0.8209538507104659,8.063140557237462
555,1791340980.221033,0.405476806640625,-1.31745234375,-0.1776625488281257,1.389840314580043,3.569092280798678,-7.206674851077552,-0.8243962697540853,8.084195156451557
556,1791340980.2452283,0.415056884765625,-1.4515734375000002,-0.29262348632812574,1.5378446497607419,3.5791197374656205,-7.231352864647864,-0.8287894976685706,8.1110698665227
557,1791340980.2652283,0.47253735351562504,-1.5330041015625002,-0.38363422851562573,1.6494145467903993,3.5874966010901987,-7.253168948119409,-0.8328906451554439,8.134635731216537
558,1791340980.290129,0.434217041015625,-1.6623351562500002,-0.38363422851562573,1.7604197884884891,3.59805507544645,-7.282223923937962,-0.8386637189189233,8.165790986655933
559,1791340980.310129,0.45816723632812506,-1.8635167968750002,-0.3692641113281257,1.954218015625371,3.606602045305131,-7.307348870800456,-0.8437344107606917,8.192485190019543
560,1791340980.3206303,0.424636962890625,-2.1125988281250003,-0.23035297851562572,2.1671300961315447,3.6111119372328697,-7.321693971660903,-0.8464697683014157,8.20754793507352
561,1791340980.3406303,0.520437744140625,-1.9257873046875003,-0.1585023925781257,2.0011584637091384,3.619830307944945,-7.350973861778494,-0.8514811367179275,8.23802211098355
562,1791340980.3658135,0.5779182128906251,-1.6623351562500002,-0.2590932128906257,1.7788976714418943,3.6312359761687723,-7.389088779821464,-0.8576334690182469,8.277683424599307
563,1791340980.3858135,0.6545588378906251,-1.873096875,-0.28304340820312573,2.004258652550297,3.6407841153310314,-7.420121495195596,-0.8625998207444883,8.31008967633075
564,1791340980.4110234,0.7982600097656251,-2.0694884765625003,-0.1872426269531257,2.225996720384894,3.653761107762972,-7.460825041770679,-0.8688100688198256,8.352766695664165
565,1791340980.4310234,0.6306086425781251,-2.131758984375,-0.10581196289062571,2.2255920109149665,3.6646552815064357,-7.494574835339278,-0.8734374535305697,8.388160899744577
566,1791340980.4407487,0.6545588378906251,-2.2419298828125003,-0.0435414550781257,2.3359350868589472,3.670095538880083,-7.511714705087471,-0.8754590150124504,8.40606254807216
567,1791340980.4607487,0.7120393066406251,-2.3521007812500003,0.023519091796874305,2.4576271497192317,3.681655061646516,-7.548566418352607,-0.8790227594085488,8.444413536580639
568,1791340980.486166,0.721619384765625,-2.3616808593750003,0.004358935546874303,2.469471607110894,3.6968750741950083,-7.597360899689773,-0.8828193057492408,8.495066090439963
569,1791340980.506166,0.7934699707031251,-2.495801953125,-0.0722816894531257,2.6198943921960636,3.709327374347914,-7.6372825456540445,-0.8854604506581516,8.536464986276137
570,1791340980.5310464,0.9084309082031251,-2.6826134765625,-0.21119282226562572,2.8401169320628363,3.7256704649429824,-7.689159510834582,-0.8887822180245388,8.590327597215545
571,1791340980.5510464,0.9084309082031251,-2.6778234375,-0.3501039550781257,2.8493083119880898,3.7395624634802296,-7.732646021122932,-0.8918938192420559,8.635601686684073
572,1791340980.5610917,0.8749006347656251,-2.5484923828125,-0.4363246582031257,2.7295867367282365,3.7468368643645213,-7.755148998961533,-0.8938147330742645,8.659100834458254
573,1791340980.5810916,0.8078400878906251,-2.5293322265625,-0.39321430664062573,2.6841655334344816,3.761671687533357,-7.800848278611082,-0.8983098677402089,8.70691497427068
574,1791340980.6054933,0.803050048828125,-2.5293322265625,-0.3261537597656257,2.6737215951291042,3.780004593490851,-7.857499697632967,-0.9042881782489913,8.766212028831779
575,1791340980.6254933,0.8701105957031251,-2.40958125,-0.43153461914062574,2.5979600413830957,3.7952863747692356,-7.904375581356166,-0.9095896379395769,8.815367565059082
576,1791340980.6509106,0.7695197753906251,-2.4526916015625,-0.5081752441406258,2.6203241890746733,3.8149199541460006,-7.964281615913679,-0.9171078418453229,8.878315307967842
577,1791340980.6709106,0.6545588378906251,-2.5341222656249998,-0.4794350097656257,2.6608421332326486,3.8301876837318556,-8.011829047544312,-0.9236176893729003,8.928203179576983
578,1791340980.6806755,0.6928791503906251,-2.6011828125,-0.4842250488281257,2.7350881958364788,3.837510750609929,-8.035322596741484,-0.9270250890877318,8.952780211227639
579,1791340980.7006755,0.6545588378906251,-2.6921935546875,-0.6135561035156257,2.8377463770257765,3.852280822087267,-8.084163180803575,-0.9346037894874929,9.003735119904734
580,1791340980.7257516,0.5300178222656251,-2.8742150390625,-0.4794350097656257,2.9617374818307596,3.8702496868257974,-8.14668322694842,-0.9447362949256843,9.068616592709597
581,1791340980.7457516,0.544387939453125,-2.7017736328125,-0.4698549316406257,2.795836663392533,3.884043004375134,-8.19743168815322,-0.9530294018590786,9.120961647906531
582,1791340980.7711406,0.6306086425781251,-2.46706171875,-0.43153461914062574,2.5826890853784112,3.9011638259803947,-8.262033234617386,-0.9636943272947099,9.187435938471637
583,1791340980.7911406,0.664138916015625,-2.4718517578125,-0.43153461914062574,2.5956412964591236,3.9145697366089003,-8.3126976197758,-0.972129970258094,9.239579785881745
584,1791340980.8009856,0.745569580078125,-2.4479015625000002,-0.4171645019531257,2.592705590713611,3.9212198484698497,-8.337528921281029,-0.9762862180614486,9.265176112347149
585,1791340980.8209856,0.779099853515625,-2.3329406250000004,-0.5177553222656257,2.513499376418829,3.9349899974866847,-8.387577875501483,-0.9848654388488399,9.316950618660654
586,1791340980.8460724,0.6928791503906251,-2.2850402343750003,-0.5656557128906258,2.4538656799597636,3.952441191576656,-8.449628545216457,-0.9960510026505787,9.381371516195802
587,1791340980.8660724,0.544387939453125,-2.2515099609375,-0.5560756347656257,2.3821997070780605,3.9661227945463104,-8.498481653424657,-1.0053134328387707,9.432124656367801
588,1791340980.8905303,0.21866528320312503,-2.1221789062500003,-0.29262348632812574,2.1533894958788986,3.9817440184799393,-8.55728550950153,-1.0164981939320943,9.4928757127697
589,1791340980.9105303,0.37673657226562507,-2.0263781250000004,-0.2447230957031257,2.075578990048678,3.9934949704880522,-8.604381157781814,-1.0250784091948613,9.541182470359821
590,1791340980.9201891,0.568338134765625,-2.0455382812500003,-0.23035297851562572,2.135485328958992,3.999003358390883,-8.626663660796106,-1.0289447375924787,9.563999218420133
591,1791340980.9401891,0.43900708007812506,-2.0886486328125002,-0.0914418457031257,2.136244821843658,4.010209406700307,-8.672083229602489,-1.0362323563127922,9.610441432265738
592,1791340980.9651363,0.31925610351562506,-1.9880578125000001,0.18638041992187432,2.022136490547688,4.023509420844357,-8.7278672516632,-1.0437814611311014,9.667149246850347
593,1791340980.9851363,0.14681469726562504,-1.6814953125000003,0.20554057617187432,1.7003611292151255,4.0332716809194515,-8.771385010324737,-1.0483378381563448,9.710998284129527
594,1791340981.0103397,0.29051586914062505,-1.6048546875000003,0.2486509277343743,1.6497834167176069,4.044555178102571,-8.824211041346597,-1.052359853838786,9.76384086069161
595,1791340981.0303397,0.40068676757812505,-1.7868761718750001,0.21991069335937433,1.8444069649566666,4.053202809913534,-8.864930305670724,-1.0543699008629532,9.804444820107662
596,1791340981.0407696,0.42942700195312505,-1.9257873046875003,0.028309130859374303,1.9732880427834172,4.057685388526379,-8.885884102834588,-1.055066725940312,9.825319984481693
597,1791340981.0607696,0.32883618164062506,-2.0215880859375,-0.0962318847656257,2.05041756703506,4.066129090247275,-8.9259584701662,-1.0563043889749082,9.865187243628705
598,1791340981.0853715,0.30009594726562505,-2.0646984375,-0.1872426269531257,2.0947785125708402,4.076118154800812,-8.975399351138826,-1.0581215204063812,9.914239954543522
599,1791340981.1053715,0.35278637695312504,-2.2802501953125,-0.21119282226562572,2.3170242961960774,4.083999939546147,-9.016080508618362,-1.0599748142104934,9.954512034794144
600,1791340981.1308265,0.36236645507812504,-2.40958125,-0.21119282226562572,2.4458114515011107,4.093892073361968,-9.06904442262545,-1.0627861656329174,10.006849328422529
601,1791340981.1508265,0.539597900390625,-2.3473107421875,-0.27346333007812573,2.424008211081848,4.101851427074666,-9.11155141947815,-1.065390695124782,10.048910972480911
602,1791340981.1609058,0.5970783691406251,-2.2563000000000004,-0.30220356445312574,2.35344837701272,4.106120283762771,-9.133240438173747,-1.0669415859899318,10.070485044630917
603,1791340981.1809058,0.625818603515625,-2.304200390625,-0.20161274414062572,2.3961711256215747,4.115154521391339,-9.176662085560512,-1.0703130568805335,10.113910905639834
604,1791340981.2054796,0.664138916015625,-2.3473107421875,-0.20161274414062572,2.4477736657532607,4.126967204480677,-9.230584015436621,-1.0745773381211838,10.168099922232114
605,1791340981.2254796,0.644978759765625,-2.3616808593750003,-0.25430317382812573,2.461341948268485,4.13710281007718,-9.274950307378038,-1.0782112110716664,10.212877277298553
606,1791340981.2512481,0.6737189941406251,-2.3521007812500003,-0.22556293945312572,2.4570620683811493,4.150751517659242,-9.332648669928044,-1.0831183024683075,10.271329739366857
607,1791340981.271248,0.7359895019531251,-2.4047912109375003,-0.1872426269531257,2.5218566804114313,4.161870391463032,-9.377848712899358,-1.0869748121450653,10.317302257838655
608,1791340981.3099756,0.745569580078125,-2.3664708984375,-0.30220356445312574,2.499477046555466,4.184474465519999,-9.466102860974935,-1.094743951231014,10.407468195767096
609,1791340981.3299756,0.726409423828125,-2.4143712890625,-0.3644740722656257,2.5474891014152576,4.196604804271525,-9.512014501851818,-1.0991543382727678,10.454570867616614
610,1791340981.324849,0.6737189941406251,-2.4479015625000002,-0.3596840332031257,2.5642722060064265,4.196604804271525,-9.512014501851818,-1.0991543382727678,10.454570867616614
611,1791340981.3448489,0.640188720703125,-2.4479015625000002,-0.3644740722656257,2.556346026491589,4.209124995742653,-9.5587287520429,-1.1043503797366652,10.50264815873319
612,1791340981.3705788,0.625818603515625,-2.3568908203125,-0.38363422851562573,2.468553925817371,4.22525916274376,-9.619083802151332,-1.1114760192117448,10.564798489627856
613,1791340981.3905787,0.5539680175781251,-2.2802501953125,-0.30220356445312574,2.365956151768309,4.237688837124589,-9.665916657250113,-1.1172127520516102,10.613016340256067
614,1791340981.4162729,0.45337719726562503,-2.2563000000000004,-0.19682270507812571,2.309800803150502,4.253203276554124,-9.725800415977329,-1.1244389272576747,10.674516136305567
615,1791340981.4362729,0.424636962890625,-2.150919140625,-0.1489223144531257,2.1974866451248434,4.264785100202557,-9.772032072175433,-1.1297385916560512,10.721814774375279
616,1791340981.445952,0.587498291015625,-2.1365490234375004,-0.20640278320312572,2.225443344687079,4.270284153966381,-9.79416238990742,-1.1321766097173815,10.74442960566472
617,1791340981.465952,0.5731281738281251,-2.1748693359375,-0.2447230957031257,2.2623929644531926,4.281683430807391,-9.839498399577979,-1.1371353444856866,10.790811765044683
618,1791340981.491357,0.43900708007812506,-2.227559765625,-0.1872426269531257,2.2781153454420027,4.295919975893463,-9.896836961324777,-1.143312455171844,10.849399690696062
619,1791340981.511357,0.36715649414062507,-2.1413390625,-0.1537123535156257,2.178018447901975,4.306655668837235,-9.941758662055609,-1.1479573287960523,10.895120668134988
620,1791340981.5363514,0.46774731445312506,-2.1413390625,-0.22556293945312572,2.203406265403914,4.319624878509349,-9.997505486481982,-1.1536023821006365,10.951715550509086
621,1791340981.5563514,0.582708251953125,-2.2036095703125,-0.26388325195312573,2.2945758684184896,4.330021599848913,-10.041939241395646,-1.158176047418439,10.99686330459071
622,1791340981.5657084,0.5922883300781251,-2.23713984375,-0.27346333007812573,2.33031807685945,4.334980664229856,-10.06272569326467,-1.1603719607350005,11.018029262277153
623,1791340981.5857084,0.49648754882812507,-2.2179796875,-0.25430317382812573,2.2870513515273365,4.3456235768719145,-10.107173704216834,-1.1651531991667077,11.063317157914515
624,1791340981.6104488,0.5156477050781251,-2.2419298828125003,-0.2399330566406257,2.312944017236241,4.358692336690722,-10.162184989454923,-1.1710976023678417,11.11933776086063
625,1791340981.6304488,0.606658447265625,-2.2563000000000004,-0.23035297851562572,2.3477620527535925,4.3693557699156935,-10.206732395036502,-1.1758876261076234,11.164737692270972
626,1791340981.655464,0.625818603515625,-2.2802501953125,-0.26388325195312573,2.3792486730878504,4.383004820624653,-10.26260385134078,-1.1819073616273366,11.221794601517283
627,1791340981.675464,0.606658447265625,-2.3185705078125003,-0.26388325195312573,2.411107223247861,4.394129271683928,-10.307471672332365,-1.186789953373101,11.267688970043103
628,1791340981.685693,0.5779182128906251,-2.2754601562500003,-0.21119282226562572,2.3571828082795125,4.399874276498177,-10.330501865672241,-1.1892770701207827,11.291259557514525
629,1791340981.705693,0.6114484863281251,-2.2036095703125,-0.1920326660156257,2.2949163241004813,4.41120607453726,-10.375494848031783,-1.194015301729668,11.33734117482283
630,1791340981.7463093,0.6353986816406251,-2.2563000000000004,-0.25430317382812573,2.3578149373624946,4.43456511968662,-10.46674730024772,-1.2035540427245546,11.430953992635205
631,1791340981.7663093,0.606658447265625,-2.31378046875,-0.30220356445312574,2.4110042562334653,4.4462051563095155,-10.51179622344725,-1.2083812520263923,11.477228994209451
632,1791340981.7751906,0.46774731445312506,-2.2898302734375,-0.2399330566406257,2.349399519664095,4.4513144299653735,-10.53186671474149,-1.210564432600821,11.49782078904415
633,1791340981.7951906,0.47732739257812506,-2.1796593750000004,-0.1920326660156257,2.239560889002104,4.4625118331738065,-10.57698838793075,-1.2153912628201429,11.54399719080777
634,1791340981.8054812,0.5539680175781251,-2.1748693359375,-0.20640278320312572,2.2537833307162995,4.468204988941798,-10.600083247537038,-1.2178097972683857,11.567613469520953
635,1791340981.8254812,0.625818603515625,-2.2227697265625004,-0.2782533691406257,2.3258931874157693,4.479379691397794,-10.644832127530778,-1.2225321703503378,11.613435251920938
636,1791340981.8504503,0.6114484863281251,-2.2323498046875003,-0.3261537597656257,2.337441160100192,4.493555157855926,-10.70066211785512,-1.22867535776007,11.670726234984697
637,1791340981.8704503,0.525227783203125,-2.2083996093750002,-0.26388325195312573,2.2852849777648037,4.504911407193767,-10.745334573404357,-1.2337429453397395,11.716593512460824
638,1791340981.8962002,0.47732739257812506,-2.150919140625,-0.1776625488281257,2.210397830814292,4.519275555475126,-10.802641798866333,-1.2401415076817994,11.7753502003127
639,1791340981.9162002,0.506067626953125,-2.150919140625,-0.19682270507812571,2.2183995965089847,4.530233793374334,-10.846928525374304,-1.2449275374123698,11.82069038722431
640,1791340981.9408278,0.5587580566406251,-2.1796593750000004,-0.2878334472656257,2.268473859283156,4.543670350298073,-10.901281360934167,-1.2508321646355613,11.876340205068033
641,1791340981.9608278,0.659348876953125,-2.2083996093750002,-0.3357338378906257,2.3290528087898243,4.554772487289949,-10.945382085377291,-1.2558433571565406,11.921597373824778
642,1791340981.9709802,0.6353986816406251,-2.2179796875,-0.2686732910156257,2.3227894256902433,4.560548634081089,-10.967780797274417,-1.2584657717390315,11.944645476510345
643,1791340981.9909801,0.568338134765625,-2.1988195312500003,-0.2351430175781257,2.2832231176893525,4.572026333123247,-11.011912391415745,-1.2636127004320505,11.990094093195482
644,1791340982.0160205,0.563548095703125,-2.2227697265625004,-0.1920326660156257,2.301123260129805,4.586366816700241,-11.067181879952088,-1.2698924004352308,12.046987260305047
645,1791340982.0360205,0.5348078613281251,-2.2227697265625004,-0.1680824707031257,2.2923735347492484,4.597750140190085,-11.111372780466837,-1.2746958770830306,12.09242576976058
646,1791340982.0607483,0.5539680175781251,-2.2515099609375,-0.22077290039062572,2.329145410284019,4.611732484314949,-11.16611241337802,-1.2804651771356257,12.148651530311396
647,1791340982.0807483,0.5539680175781251,-2.323360546875,-0.1393422363281257,2.392551160184388,4.623007025925905,-11.21060733937837,-1.2849716513289122,12.194304532206969
648,1791340982.090603,0.47253735351562504,-2.2850402343750003,0.013939013671874303,2.3334298188036966,4.628487832214468,-11.232649223184405,-1.2869517806884296,12.216855285624026
649,1791340982.110603,0.506067626953125,-2.246719921875,-0.0579115722656257,2.3037379626603043,4.639410387699162,-11.277470146363877,-1.290433556024471,12.262572340668711
650,1791340982.1514037,0.525227783203125,-2.3952111328125003,-0.3069936035156257,2.4712639817706483,4.661506190394807,-11.36939529778211,-1.2975876702513431,12.356234182076165
651,1791340982.1714036,0.49169750976562504,-2.5963927734375,-0.2399330566406257,2.653410964539248,4.67223802361119,-11.415184269948549,-1.3013888957949027,12.402816338407066
652,1791340982.1812572,0.42942700195312505,-2.6059728515625,0.004358935546874303,2.641121173556098,4.6774130137491,-11.438204358066566,-1.3031548611915698,12.426138741794638
653,1791340982.2012572,0.46774731445312506,-2.5389123046875,-0.0291713378906257,2.581804448060703,4.687686956071542,-11.485637220677512,-1.3062388219327645,12.473994196850512
654,1791340982.2108278,0.5348078613281251,-2.73530390625,-0.20640278320312572,2.794728791313903,4.692585519610516,-11.508716382315141,-1.3076623194208792,12.497235389039465
655,1791340982.2308278,0.46774731445312506,-2.9316955078125,-0.3117836425781257,2.9851021993367977,4.702790530898064,-11.558211735821779,-1.3109681166717444,12.54699703955184
656,1791340982.256018,0.44858715820312506,-2.9125353515625,-0.3644740722656257,2.9693322417607533,4.715447013946671,-11.622241779838683,-1.315784865811551,12.61123444962725
657,1791340982.276018,0.544387939453125,-2.7688341796875,-0.4171645019531257,2.8525124302827445,4.72547792116638,-11.67397560615634,-1.3202079888326268,12.663127464032797
658,1791340982.3006008,0.6545588378906251,-2.7305138671874998,-0.4459047363281257,2.8430589661566668,4.738168454676199,-11.73816492279862,-1.3264204003246434,12.727692137151415
659,1791340982.3206007,0.6497687988281251,-2.6538732421874998,-0.40279438476562573,2.7617903602424376,4.748900930414934,-11.790630847347678,-1.3319895664043102,12.780658513172645
660,1791340982.3306718,0.520437744140625,-2.629923046875,-0.3117836425781257,2.6989923523029384,4.754378529808028,-11.817078288998667,-1.3349130192476428,12.80739814568049
661,1791340982.3506718,0.501277587890625,-2.5484923828125,-0.3453139160156257,2.620178304232142,4.7651573269851255,-11.869489369065914,-1.34083347325409,12.8603785572699
662,1791340982.3760955,0.47253735351562504,-2.4718517578125,-0.3453139160156257,2.540193764983755,4.778660789628473,-11.9356928240508,-1.348547466220541,12.927294473364494
663,1791340982.3960955,0.48211743164062504,-2.3952111328125003,-0.3261537597656257,2.464923906259572,4.789122064267214,-11.98726134944782,-1.3547127444394103,12.979421074391693
664,1791340982.4212182,0.48211743164062504,-2.3616808593750003,-0.3788441894531257,2.4399788153409014,4.8021085161808115,-12.05128467845244,-1.3626238500064423,13.04417311901698
665,1791340982.4412181,0.34320629882812503,-2.4335314453125,-0.3453139160156257,2.481754935418502,4.812134169800607,-12.10180078115518,-1.3690633711698843,13.095211030342725
666,1791340982.4506404,0.22824536132812503,-2.3425207031250004,-0.21598286132812572,2.3635032866329038,4.816552754290318,-12.125404970451862,-1.372038719096249,13.118960186654263
667,1791340982.4706404,0.41026684570312505,-2.1988195312500003,-0.2495131347656257,2.250640579948347,4.825482656599619,-12.174804319191606,-1.3781051691736923,13.168535109762724
668,1791340982.495698,0.525227783203125,-2.1557091796875003,-0.3213637207031257,2.241923489466485,4.836750620464177,-12.235595548896464,-1.3856384757481686,13.22966171095124
669,1791340982.515698,0.36236645507812504,-2.1125988281250003,-0.22077290039062572,2.1547909248713437,4.845726619484711,-12.283241053078406,-1.391562557381803,13.277632454241246
670,1791340982.5407922,0.13723461914062504,-1.9401574218750002,-0.1728725097656257,1.9526722886803065,4.856239874303707,-12.341682913866604,-1.3986215033420404,13.336279277700168
671,1791340982.5607922,0.27135571289062504,-1.8251964843750001,-0.2878334472656257,1.867571745036333,4.863974909271743,-12.386922075401912,-1.4040946080181451,13.381538479874798
