imu_index,t_imu,ax,ay,az,mag,vx,vy,vz,velocity
0,1791273963.945011,0.028593600526147993,-0.007869349888392873,-0.00029326769770401495,0.02965816354155119,0.0,0.0,0.0,0.0
1,1791273963.965011,0.028593600526147993,-0.031819545200892876,-0.00029326769770401495,0.04278040969629805,0.00012223752567438274,-6.956669739759367e-05,-1.2537182120446646e-06,0.00014065244355914672
2,1791273964.0056717,0.03817367865114799,-0.04139962332589287,0.05718720105229599,0.080259170924466,0.0005370858566586957,-0.0004130706476127882,0.00017008145778823753,0.0006985816198737449
3,1791273964.0256717,0.062123873963648,0.0017107282366071283,0.03323700573979599,0.07047695267176339,0.0008609768541702285,-0.0006162202231829786,0.0003773515230631018,0.0011240118677463265
4,1791273964.034702,0.03338363958864799,0.006500767299107129,-0.043403619260204016,0.055141649708243576,0.001049967863500174,-0.0006886255335232221,0.00045001408193821407,0.001333847935015816
5,1791273964.054702,-0.004936672911352007,-0.027029506138392872,-0.07214385363520402,0.07719909687850522,0.0014484214821727608,-0.000855724533941624,0.00041348324017159574,0.0017323849623891187
6,1791273964.0647392,-0.05762710259885201,0.006500767299107129,0.014076849489795986,0.05967663379392412,0.0015712968040214744,-0.0009424595496070561,0.0003541876981776505,0.0018661866397855326
7,1791273964.0847392,-0.04804702447385201,0.04003104073660713,0.09071747448979599,0.1101846675406956,0.0016208997663693723,-0.0010195650489785476,0.0004109501413814669,0.0019584966072006254
8,1791273964.110249,-0.02409682916135201,0.05440115792410713,0.03802704480229599,0.07061302497068692,0.0015366494286778317,-0.0009224892099945105,0.0007188090736328211,0.001931052638730772
9,1791273964.130249,-0.02888686822385201,0.03045096261160713,-0.014663384885204016,0.044460399638861954,0.0014010287730275028,-0.0007305189353997554,0.0009590145008537147,0.0018483095927566467
10,1791273964.15531,-0.009726711973852008,0.03524100167410713,-0.019453423947704017,0.04141223041694086,0.0011840039064513834,-0.0004025810788133432,0.0011507298174793152,0.0016994457591658022
11,1791273964.17531,-0.02409682916135201,0.04482107979910713,0.028446966677295987,0.05829936777640476,0.0009860504516257,-6.0032373151394235e-05,0.0012942696500972885,0.0016281994061356222
12,1791273964.184955,-0.03367690728635201,0.02566092354910713,0.047607122927295985,0.06371071523049589,0.0008631148907417314,0.00013136738252186384,0.0014081239301973196,0.0016568155318577571
13,1791273964.2049549,-0.014516751036352008,0.016080845424107128,-0.024243463010204015,0.03251269212065627,0.0005741416573659717,0.0005313358846778197,0.0016438457874865036,0.0018204904388945385
14,1791273964.23025,0.03817367865114799,-0.022239467075892874,-0.08172393176020402,0.09290115532073495,0.0003083642463173105,0.0009496340749512397,0.0016962225111610812,0.0019682642587023074
15,1791273964.2502499,0.028593600526147993,-0.04618966238839287,-0.024243463010204015,0.05948801897298124,0.00022989446240149358,0.0011281154863335993,0.0015724723130016466,0.0019488881931771546
16,1791273964.2753205,-0.019306790098852007,-0.007869349888392873,0.09071747448979599,0.0930824311532196,0.0001637465543995311,0.0012166410477975971,0.0015656070222347961,0.00198951092516092
17,1791273964.2953205,0.047753756776147994,0.05919119698660713,0.06197724011479599,0.09810809028408364,0.0001615632168452319,0.0013536513898315121,0.0017899936413483704,0.002250011554258725
18,1791273964.30512,0.110024264588648,0.06877127511160713,-0.009873345822704015,0.13012421003212232,0.0002766146016438238,0.001504760656991861,0.0019217401345323223,0.002456400907292101
19,1791273964.32512,0.052543795838647996,-0.027029506138392872,-0.024243463010204015,0.06386853827939129,0.0007200557837386463,0.001829515219190313,0.0020991167042644855,0.0028760906117621973
20,1791273964.3496218,-0.03846694634885201,-0.027029506138392872,0.03802704480229599,0.06046781209773265,0.001207691400222859,0.0020683503455233916,0.002309152999886864,0.0033269774941958184
21,1791273964.3696218,0.03817367865114799,0.04003104073660713,0.03802704480229599,0.06712503333788995,0.0015455857191422945,0.0022535626250895797,0.002568962647153973,0.003750593126812023
22,1791273964.3950098,0.057333834901148,0.06398123604910713,-0.029033502072704016,0.09068468136046666,0.0020920265661259403,0.0026514548269763226,0.002866419558584066,0.004429802358876297
23,1791273964.4150097,-0.004936672911352007,-0.003079310825892872,-0.07693389269770402,0.0771535918815059,0.0025365228432234575,0.003009239026106456,0.002906647844211183,0.004892654631250203
24,1791273964.4253347,-0.06720718072385201,-0.022239467075892874,-0.019453423947704017,0.07341549386851069,0.0026757065483779567,0.0031466325270859932,0.0028496608557501994,0.0050180941388482565
25,1791273964.4453347,-0.05762710259885201,0.04482107979910713,0.06197724011479599,0.09576528828622416,0.002717620536511065,0.0034067225867002848,0.0028196177440134155,0.005190516774421972
26,1791273964.4696083,-0.02409682916135201,0.13583182198660715,0.047607122927295985,0.14593621618106792,0.0026120800216064394,0.004003922086800726,0.0029881251595151046,0.005637663175942081
27,1791273964.4896083,0.004643405213647993,0.11188162667410713,0.009286810427295986,0.11236238003502305,0.0025089848563161093,0.004793739203620836,0.0031914797595609732,0.0062817580037153814
28,1791273964.514477,0.004643405213647993,0.02087088448660713,-0.019453423947704017,0.028906586351911834,0.0024173426552587854,0.005876118150854908,0.003387447383588956,0.007200493720039187
29,1791273964.534477,0.023803561463647992,-0.012659388950892872,0.018866888552295985,0.03290636945347228,0.0023973674796614005,0.006628337539625889,0.0035205288599914485,0.00787885479151536
30,1791273964.5447378,0.052543795838647996,0.09272147042410714,0.05718720105229599,0.12094832583768085,0.002447410588602729,0.007017982042056383,0.003637092034706527,0.008274679993858149
31,1791273964.5647378,0.071703952088648,0.07835135323660714,0.03323700573979599,0.11128831856796986,0.0027166927561137555,0.007920148597740932,0.003965848454011644,0.009264832826425156
32,1791273964.589647,0.090864108338648,-0.04139962332589287,-0.00029326769770401495,0.09985139459039064,0.0033054755642103095,0.008944255245556991,0.004375429924248522,0.010491437347917331
33,1791273964.609647,0.086074069276148,-0.10367013113839288,-0.009873345822704015,0.13510634496477733,0.003972713022919775,0.009425579568571867,0.004639709757405545,0.01123169201852152
34,1791273964.6353707,0.090864108338648,-0.09409005301339288,0.009286810427295986,0.13113149548507855,0.005043538576048139,0.009570257078588927,0.004927504239540718,0.011887278912730993
35,1791273964.6553707,0.105234225526148,-0.022239467075892874,-0.029033502072704016,0.11140817007972804,0.0060453608215555905,0.009491375793913914,0.005088078577860468,0.012349945163383393
36,1791273964.6801162,0.028593600526147993,-0.031819545200892876,-0.06735381457270402,0.07979106331748433,0.007347332860527495,0.009308089017145728,0.005078065749820377,0.012900022212151219
37,1791273964.7001162,-0.00014663384885200747,-0.003079310825892872,-0.06256377551020402,0.06263968121517936,0.008284450157719633,0.009129823879930395,0.004876310798458431,0.013257609343220612
38,1791273964.7098794,0.023803561463647992,-0.03660958426339287,-0.019453423947704017,0.04780488365827528,0.008690618477998876,0.009026792959162583,0.004732538450966467,0.013394280900727697
39,1791273964.7298794,-0.009726711973852008,0.03045096261160713,0.08113739636479599,0.08720749473900613,0.009418963533261378,0.008838155180877072,0.004574724539412199,0.013702480273792481
40,1791273964.7555194,0.023803561463647992,0.08793143136160714,0.08592743542729599,0.12522807320551896,0.010239712025253464,0.008860245750787697,0.00472402029060667,0.01434126998666908
41,1791273964.7755194,0.047753756776147994,0.10709158761160713,0.014076849489795986,0.11809820961796327,0.01089122516865971,0.009167426613824152,0.004973013481222054,0.015079501300729888
42,1791273964.7997813,0.057333834901148,0.011290806361607128,0.014076849489795986,0.06010664376194843,0.011754244723567892,0.009699585313330558,0.005280988581701897,0.016128641129127007
43,1791273964.8197813,-0.09594741509885202,-0.04618966238839287,0.08113739636479599,0.1338755708281505,0.012301029206228416,0.010020112661128013,0.005639603326464248,0.016838144284749702
44,1791273964.8303201,-0.09115737603635202,-0.060559779575892876,0.03802704480229599,0.11585857864012247,0.012398044316274679,0.01007930094256762,0.00589441582893869,0.01703079411899511
45,1791273964.85032,-0.004936672911352007,0.011290806361607128,-0.04819365832270402,0.04974416297672042,0.012410396787848825,0.010100873153305576,0.006290199593884191,0.01719337656837419
46,1791273964.8741617,0.023803561463647992,-0.022239467075892874,-0.12004424426020402,0.12438578702639991,0.012456649462524099,0.010103154087649785,0.00639040552383638,0.01726496803096012
47,1791273964.8941617,-0.07199721978635201,-0.017449428013392873,-0.038613580197704014,0.08354095265582849,0.012417338964657217,0.010045247194951592,0.006223869663057585,0.017141582533523728
48,1791273964.9194567,0.009433444276147993,-0.10367013113839288,0.09071747448979599,0.13808021631996945,0.012256387240539603,0.009753215889684011,0.006143684736641234,0.01682525216821683
49,1791273964.9394567,0.138764498963648,0.09272147042410714,0.047607122927295985,0.17354911524884106,0.012370513370989574,0.009540527893655278,0.006297281677346751,0.016843605020163983
50,1791273964.9638026,0.105234225526148,0.14541190011160712,-0.00029326769770401495,0.17949637579098554,0.012934126933666365,0.009755276874300776,0.006542600823696693,0.01747176842705677
51,1791273964.9838026,0.004643405213647993,0.04961111886160713,-0.014663384885204016,0.05194072759377051,0.013492497428882913,0.010197763804525566,0.006691464763764899,0.018188391192351536
52,1791273964.9943192,0.06691391302614799,-0.027029506138392872,-0.05298369738520402,0.08952842089059312,0.013798506174185834,0.01041334798662172,0.0067046441406221485,0.018541543678504822
53,1791273965.0143192,0.110024264588648,-0.012659388950892872,-0.06256377551020402,0.12719994077425514,0.0145585713640366,0.010702303036614952,0.006552627345629969,0.019220515486843264
54,1791273965.0397801,0.114814303651148,0.04961111886160713,-0.06256377551020402,0.13984925256750474,0.015810377057473665,0.011085540901939762,0.0061491911696621715,0.020264989312336692
55,1791273965.0597801,0.062123873963648,0.05919119698660713,-0.043403619260204016,0.09616053079014956,0.016911600071567653,0.0115046276543945,0.005720870619308201,0.02123880964389882
56,1791273965.069831,-0.019306790098852007,0.0017107282366071283,0.03802704480229599,0.04268178617884309,0.017414272468318743,0.011729552393122126,0.005533857042100412,0.02171319549735242
57,1791273965.0898309,-0.014516751036352008,0.03524100167410713,0.023656927614795986,0.04485882838213171,0.018213762562548644,0.012165419994383702,0.005310066188959408,0.022537422063221412
58,1791273965.1150987,0.06691391302614799,0.03045096261160713,-0.06735381457270402,0.09970591365580374,0.019171619573475074,0.012757983375078814,0.00498693128342094,0.02356239844528571
59,1791273965.1350987,0.081284030213648,-0.007869349888392873,-0.05298369738520402,0.09734625017968625,0.020038354187242473,0.013190527278359012,0.004589022818495125,0.024425085032465703
60,1791273965.1593623,0.057333834901148,-0.012659388950892872,-0.07214385363520402,0.0930170111883833,0.021184387968377516,0.01359921103456613,0.003950994125085146,0.025481899241105648
61,1791273965.1793623,0.047753756776147994,0.02087088448660713,-0.005083306760204015,0.05236272637198272,0.022144972573482486,0.013897867119184523,0.0033881271536533885,0.026363420232438074
62,1791273965.1899683,0.086074069276148,0.09272147042410714,0.047607122927295985,0.13517564363737417,0.02268441721240885,0.014122846080743294,0.003168236332738227,0.026908647070172067
63,1791273965.2099683,0.110024264588648,0.10709158761160713,0.03323700573979599,0.15709438400526793,0.02384321712536424,0.014783174517489051,0.002937048837137823,0.028207578903080868
64,1791273965.2344823,0.201035006776148,0.06398123604910713,-0.06256377551020402,0.2200520359413851,0.025622403283895517,0.01578565935320681,0.0026422688209055425,0.03021053087550755
65,1791273965.2544823,0.244145358338648,-0.003079310825892872,0.018866888552295985,0.24489262470951237,0.027524006324604694,0.01657221709162356,0.002372298991608455,0.03221547929170643
66,1791273965.279835,0.138764498963648,0.011290806361607128,0.023656927614795986,0.14121869106141463,0.03030105277044797,0.017435340129408027,0.0021622658706324264,0.03502599432023194
67,1791273965.299835,0.086074069276148,0.04961111886160713,-0.014663384885204016,0.10042421706315297,0.03250042810055292,0.018105450542951436,0.002034920784101159,0.03725890589751713
68,1791273965.3398774,0.16271469427614801,0.0017107282366071283,-0.06735381457270402,0.1761122785667542,0.03699049048489326,0.019399975628917408,0.001571892037243189,0.04179863975409148
69,1791273965.3598773,0.172294772401148,-0.050979701450892874,-0.06735381457270402,0.19188787062834314,0.039399258252693414,0.01987566230600713,0.001173252131625776,0.044144309072962365
70,1791273965.3543992,0.076493991151148,-0.07492989676339287,-0.06735381457270402,0.12650042074514542,0.039399258252693414,0.01987566230600713,0.001173252131625776,0.044144309072962365
71,1791273965.3743992,0.03817367865114799,-0.07492989676339287,-0.07214385363520402,0.11079916420294679,0.041628799676617326,0.019834021869665073,0.0005042364336936407,0.04611506955891264
72,1791273965.3995078,0.076493991151148,0.0017107282366071283,-0.08651397082270403,0.11549426141953165,0.0442239135069469,0.019651704536693716,-0.000508455981793441,0.04839630713755803
73,1791273965.4195077,0.100444186463648,-0.04618966238839287,-0.06256377551020402,0.127030490481573,0.046246365338611546,0.019461546632994608,-0.0014177247630576143,0.0501945021679102
74,1791273965.4451754,0.052543795838647996,-0.003079310825892872,-0.014663384885204016,0.05463833354511842,0.048747124680293505,0.019159261296386464,-0.0025582931563850404,0.05243953014561915
75,1791273965.4651754,0.06691391302614799,0.02566092354910713,0.014076849489795986,0.07303500835505113,0.050582592012494806,0.018992926716805067,-0.003314584188703429,0.05413239647675349
76,1791273965.474838,0.028593600526147993,0.10709158761160713,-0.03382354113520401,0.11588888671114368,0.05140556288081951,0.019020824772463574,-0.003639474614374074,0.05493240797186416
77,1791273965.494838,0.100444186463648,0.10709158761160713,-0.08172393176020402,0.16803703090052827,0.05304701648787788,0.019391181785470862,-0.004384392937112442,0.05665003787050248
78,1791273965.519966,0.119604342713648,0.09751150948660714,0.004496771364795985,0.15438236373053654,0.05521468589746951,0.020172292737840134,-0.005325459871063548,0.05902493927057989
79,1791273965.5399659,0.086074069276148,0.12625174386160715,0.06676727917729598,0.1667516650549282,0.05698971505946494,0.021036388939680527,-0.00585523192097388,0.061029837153878344
80,1791273965.564352,0.110024264588648,0.09272147042410714,0.009286810427295986,0.14418340654802803,0.05918803506210473,0.022332443381620642,-0.006265194535132365,0.06357054494393832
81,1791273965.584352,0.124394381776148,0.03045096261160713,-0.07693389269770402,0.14939895309896048,0.0610721464030899,0.02342070194276146,-0.00665245649605922,0.06574641832985335
82,1791273965.5946326,0.105234225526148,-0.050979701450892874,-0.029033502072704016,0.12048284701448608,0.0620724183558087,0.023880362138993205,-0.006903367136084789,0.06686488835138792
83,1791273965.6146326,0.06691391302614799,-0.022239467075892874,0.03802704480229599,0.0801131811170075,0.06398468695633606,0.024530626184309647,-0.007304781901108253,0.06891408872297028
84,1791273965.6391907,0.105234225526148,0.06398123604910713,-0.014663384885204016,0.12402764064816912,0.06629762967167378,0.025286201318081684,-0.007680713585673652,0.07137058944947917
85,1791273965.6591907,0.205825045838648,0.02087088448660713,-0.08172393176020402,0.22243728180339134,0.06836532086496142,0.025936515854930033,-0.008085527952502449,0.07356558783788017
86,1791273965.6844664,0.153134616151148,-0.027029506138392872,-0.06256377551020402,0.16761572382069667,0.07126694511706473,0.02662342105094984,-0.008793910106357015,0.0765840510141215
87,1791273965.7044663,0.04296371771364799,0.016080845424107128,-0.019453423947704017,0.04982881026696465,0.07351267235705679,0.027068998093295982,-0.00939338081957647,0.07889917146632422
88,1791273965.7146566,0.03338363958864799,0.10709158761160713,-0.014663384885204016,0.11312864529221102,0.07454361521640782,0.027356108088068674,-0.009679077584164057,0.07999244815692436
89,1791273965.7346566,0.167504733338648,0.08314139229910714,-0.06256377551020402,0.19719166516457232,0.07656482820704692,0.028120431401250267,-0.01027153469436203,0.08220970748971507
90,1791273965.759886,0.172294772401148,0.06398123604910713,-0.06256377551020402,0.194147658160551,0.07937505123564952,0.029218365997935238,-0.011143565985913036,0.0853128989844659
91,1791273965.779886,0.04296371771364799,0.10230154854910713,-0.03382354113520401,0.11599793019812117,0.08159150900527293,0.030207594702989286,-0.011875734560520103,0.08781062686742153
92,1791273965.804853,0.028593600526147993,0.11667166573660713,-0.029033502072704016,0.12358323437832991,0.08407737745166845,0.031667294007849255,-0.012770337324569829,0.09074637416620673
93,1791273965.824853,0.124394381776148,0.07356131417410713,-0.04819365832270402,0.15234125463254297,0.08599948543857046,0.032946551526943556,-0.013495312403502227,0.0930779791899489
94,1791273965.8344204,0.148344577088648,0.04961111886160713,-0.07214385363520402,0.1722559499223411,0.08697675849437574,0.03355510598195866,-0.013876450797503258,0.09425209569227079
95,1791273965.8544204,0.119604342713648,0.02087088448660713,-0.029033502072704016,0.12483483831776597,0.08911514635223171,0.0347421371460522,-0.01470544136228218,0.09677176968782938
96,1791273965.8793256,0.081284030213648,0.016080845424107128,0.03323700573979599,0.08927701668332393,0.09175380793368597,0.036067598428375786,-0.015575053155380233,0.09981089723830375
97,1791273965.8993256,0.119604342713648,0.05919119698660713,-0.00029326769770401495,0.13344992545001144,0.09385625786421987,0.037085249811077185,-0.016119223816431907,0.10219658639244836
98,1791273965.9243128,0.172294772401148,0.04003104073660713,-0.05777373644770402,0.18608002967096723,0.09663600223956231,0.03835189932844039,-0.01680593012517014,0.10531773069296366
99,1791273965.9443128,0.133974459901148,0.016080845424107128,-0.09130400988520401,0.1629238218201248,0.09898659674154595,0.039297828433863854,-0.017496745193701615,0.10792961477955972
100,1791273965.9548583,0.047753756776147994,0.0017107282366071283,-0.043403619260204016,0.06455402421398514,0.10018382623435704,0.039735850144743415,-0.01791289921577359,0.10925478838017037
101,1791273965.9748583,0.071703952088648,0.02087088448660713,0.03323700573979599,0.08174196666909633,0.10229302040974568,0.04047584054497745,-0.018599015071889442,0.1115709597252594
102,1791273965.9994504,0.153134616151148,0.06877127511160713,-0.005083306760204015,0.16794504741686828,0.10491217731780231,0.041414591801064854,-0.019264194281177698,0.11442395966279868
103,1791273966.0194504,0.129184420838648,0.10230154854910713,-0.08651397082270403,0.1861152561464909,0.10714621716226139,0.042320137500492086,-0.019861412840598888,0.11690073400226254
104,1791273966.0447128,0.04296371771364799,0.05440115792410713,-0.10088408801020401,0.12240492733918952,0.10987096166512476,0.04358927864256085,-0.02085767596404386,0.1200278970757181
105,1791273966.0647128,0.014223483338647994,0.03524100167410713,-0.014663384885204016,0.04073389907154541,0.11179032483985121,0.04457779428177329,-0.021701419714424942,0.12229148820931564
106,1791273966.0906868,0.105234225526148,0.04961111886160713,0.03802704480229599,0.12239918902175993,0.11414181505444106,0.045834310673279435,-0.022587312735020404,0.1250572855750777
107,1791273966.1106868,0.129184420838648,0.08793143136160714,0.018866888552295985,0.15740556118626398,0.11603249101593939,0.04686301320169744,-0.023081788138040665,0.12724955764699505
108,1791273966.1202047,0.06691391302614799,0.06398123604910713,-0.038613580197704014,0.10030991425839714,0.11693727459103867,0.0473875769943403,-0.02329590515479504,0.12830669444403794
109,1791273966.1402047,0.06691391302614799,0.08314139229910714,-0.038613580197704014,0.11349436746195579,0.11875405465809225,0.04854518676941679,-0.023794181271433158,0.1304811239934441
110,1791273966.1802104,0.172294772401148,0.02566092354910713,-0.03382354113520401,0.17744859404650506,0.1225607506188404,0.05083985823205369,-0.02485871408747736,0.1349954978634171
111,1791273966.2002103,0.157924655213648,0.0017107282366071283,-0.029033502072704016,0.1605804083879937,0.12467369366938377,0.05185601155347952,-0.025405361298263186,0.13739726420164716
112,1791273966.2099319,0.04296371771364799,-0.017449428013392873,-0.05298369738520402,0.0704104805151867,0.12569315804180048,0.05226437512573108,-0.025691016606594466,0.13852928650680504
113,1791273966.2299318,0.04296371771364799,-0.027029506138392872,-0.024243463010204015,0.05625140656544136,0.12760478285725396,0.05291176073978302,-0.026306381676087266,0.1406224048632328
114,1791273966.2394302,0.129184420838648,0.03524100167410713,-0.03382354113520401,0.13811073354861372,0.12849910303697828,0.05317894742581501,-0.026596158199118182,0.14158875506754795
115,1791273966.2594302,0.157924655213648,0.05919119698660713,-0.07214385363520402,0.18343535684920362,0.13053040383684233,0.05379880134169566,-0.027273745762074475,0.14379274863325567
116,1791273966.2845044,0.100444186463648,0.03045096261160713,-0.043403619260204016,0.1135789147826406,0.1331809527120168,0.05462793081437626,-0.028213116173455167,0.14668795763305728
117,1791273966.3045044,0.133974459901148,-0.003079310825892872,-0.029033502072704016,0.13711886195404513,0.1353296151331061,0.05523112635161184,-0.028958651653511774,0.1490073338991466
118,1791273966.3301787,0.148344577088648,0.03524100167410713,-0.03382354113520401,0.15617961994296534,0.13821777764522492,0.05595123934109731,-0.0298931866092734,0.15207990612387434
119,1791273966.3501787,0.090864108338648,0.011290806361607128,-0.05298369738520402,0.10578771517090131,0.14048895535929257,0.05649785187896426,-0.03064218938087618,0.1544930341955137
120,1791273966.3597312,0.04296371771364799,0.05919119698660713,-0.06256377551020402,0.09624814204220548,0.14150688881893603,0.056770261877419397,-0.0310290524359859,0.15559519373014277
121,1791273966.3797312,0.095654147401148,0.04482107979910713,-0.04819365832270402,0.11610888773872573,0.14352637163221843,0.05741107217098354,-0.03188366581822195,0.15783668365668233
122,1791273966.4053173,0.177084811463648,0.03045096261160713,-0.05777373644770402,0.188743466637174,0.14624575548942917,0.058252340654926175,-0.033016329378373066,0.16084537356129547
123,1791273966.4253173,0.133974459901148,0.011290806361607128,-0.06256377551020402,0.14829316983661395,0.14851916212501887,0.05887391044832178,-0.03394940194231411,0.16332985257458435
124,1791273966.449956,0.086074069276148,0.011290806361607128,-0.06256377551020402,0.10700679285046177,0.15130637310632694,0.05956651190679525,-0.03515768611054072,0.16636661556929236
125,1791273966.469956,0.081284030213648,0.016080845424107128,-0.00029326769770401495,0.08285996115899273,0.15348050791750392,0.06008544504981102,-0.03608565398828635,0.16872670636627496
126,1791273966.4800603,0.157924655213648,0.08314139229910714,-0.009873345822704015,0.17874610707793986,0.15459544422106913,0.06038348846794935,-0.03649186339018623,0.16993402586638345
127,1791273966.5000603,0.248935397401148,0.006500767299107129,-0.06256377551020402,0.2567592609056893,0.15708153690210636,0.061019389007390755,-0.037283938180111255,0.17259219888680208
128,1791273966.5246217,0.172294772401148,-0.031819545200892876,-0.043403619260204016,0.18050442160357127,0.16045262175316422,0.06163654074242053,-0.03830595704616352,0.1761006908770621
129,1791273966.5446217,0.076493991151148,-0.003079310825892872,-0.014663384885204016,0.07794759581722838,0.16315907445895642,0.06201134923701119,-0.03910043980451978,0.17887184072794893
130,1791273966.5700724,0.186664889588648,0.016080845424107128,0.014076849489795986,0.18788435881215484,0.16658884387862788,0.06244158048347692,-0.039960916472815786,0.18233943271667744
131,1791273966.5900724,0.239355319276148,0.04003104073660713,-0.05298369738520402,0.24839630689052025,0.16951881291539234,0.06281312431059476,-0.04059403831383056,0.18528354612465392
132,1791273966.6000001,0.153134616151148,0.011290806361607128,-0.09130400988520401,0.1786452215794539,0.17104729468916602,0.06300810299273123,-0.04096860517888877,0.18683047040975062
133,1791273966.6200001,0.04296371771364799,-0.007869349888392873,-0.06735381457270402,0.08027667186012494,0.17395876872893226,0.06334711088028545,-0.0418479888700723,0.1898045411654711
134,1791273966.6452727,0.090864108338648,-0.07013985770089287,-0.024243463010204015,0.11731850374602547,0.1773396080886211,0.06356337258824397,-0.04296614098954349,0.1932245538314191
135,1791273966.6652727,0.157924655213648,0.03524100167410713,-0.07693389269770402,0.17916737640811137,0.17998696118727625,0.0636564959080627,-0.04387004801279198,0.1958878168273054
136,1791273966.6899266,0.114814303651148,0.09272147042410714,-0.07214385363520402,0.16426908113776106,0.18326514338892697,0.06399067796065584,-0.045092805997473354,0.19928442186973394
137,1791273966.7099266,0.057333834901148,0.03524100167410713,-0.00029326769770401495,0.06729920377990392,0.1857838198051937,0.06441305508065162,-0.046044608345453264,0.2019524085618142
138,1791273966.7343137,0.090864108338648,0.02087088448660713,0.03802704480229599,0.10068731866440125,0.1886653702337229,0.06495345993654168,-0.046962090988396196,0.2049853942922716
139,1791273966.7543137,0.172294772401148,0.04482107979910713,0.009286810427295986,0.17827131748835495,0.19106880408656524,0.0654287078448206,-0.04753068694972376,0.2074786010826798
140,1791273966.764555,0.129184420838648,0.08793143136160714,-0.043403619260204016,0.16218639083968386,0.19234647396675691,0.06573752815849798,-0.04780437579863456,0.20881534187250392
141,1791273966.784555,0.100444186463648,0.02087088448660713,-0.024243463010204015,0.10541524516086141,0.1948117831127043,0.06641335738067039,-0.04836015579710755,0.21142627449502227
142,1791273966.8090055,0.181874850526148,-0.050979701450892874,-0.019453423947704017,0.18988371946330718,0.1978913205373186,0.06706043135303864,-0.04901782494473298,0.21461785424230637
143,1791273966.8290055,0.220195163026148,-0.003079310825892872,0.004496771364795985,0.2202625999301325,0.2006355672693087,0.06742924081995595,-0.04949752442884719,0.21737372954342307
144,1791273966.8546355,0.153134616151148,0.09751150948660714,-0.019453423947704017,0.18258461284950936,0.20434244224984524,0.068012498366529,-0.05004879994907578,0.22110272728989813
145,1791273966.8746355,0.148344577088648,0.09751150948660714,-0.03382354113520401,0.180717016268229,0.20725337388680476,0.06869189839432294,-0.05049436791161624,0.22410314384959737
146,1791273966.8845074,0.172294772401148,0.016080845424107128,-0.06256377551020402,0.18400627215507798,0.2087120809466405,0.06906105001391483,-0.05075267469866947,0.2256235700257631
147,1791273966.9045074,0.110024264588648,-0.022239467075892874,-0.005083306760204015,0.11236446369609425,0.2116475219866908,0.06968750872471852,-0.05129896178976284,0.22865389984881523
148,1791273966.930202,0.071703952088648,0.04482107979910713,-0.009873345822704015,0.08513441664346895,0.21520329557609605,0.07041513229074332,-0.0519243421629184,0.2323077411353037
149,1791273966.950202,0.076493991151148,0.04003104073660713,-0.038613580197704014,0.09457707692867404,0.21777815168568712,0.07102381829748496,-0.05241083461975976,0.23498638620721865
150,1791273966.975306,0.129184420838648,-0.03660958426339287,-0.06256377551020402,0.14813204330409604,0.2209125768270779,0.07167968130771618,-0.05312038166856592,0.23824801837868342
151,1791273966.995306,0.090864108338648,-0.017449428013392873,-0.05777373644770402,0.10908058188926617,0.2233652225704369,0.07204273085934695,-0.053781379569929,0.2407791820570414
152,1791273967.005005,0.081284030213648,-0.003079310825892872,-0.019453423947704017,0.08363618490955219,0.2245014318772399,0.07217744779598655,-0.05411002060975166,0.24194704217175522
153,1791273967.0250049,0.105234225526148,0.03045096261160713,-0.005083306760204015,0.10966924524988768,0.22677273421094324,0.0724546344185044,-0.054722861190049224,0.24427471945957
154,1791273967.0500507,0.172294772401148,0.0017107282366071283,-0.009873345822704015,0.17258591525845213,0.22971174493710572,0.07281009969391958,-0.055403294871466356,0.24726164575627793
155,1791273967.0700507,0.196244967713648,-0.03660958426339287,-0.03382354113520401,0.2024756305035103,0.2322594190910784,0.07299902491129671,-0.05593068717251621,0.2498029967036328
156,1791273967.0945914,0.153134616151148,-0.027029506138392872,0.03323700573979599,0.15901416105615276,0.23555964063659635,0.07307893906701546,-0.05648182590036437,0.25301990492655324
157,1791273967.1145914,0.105234225526148,-0.03660958426339287,0.114667669802296,0.1598848910307507,0.2382333466503628,0.07303883922912292,-0.056641757868055045,0.25553490608242346
158,1791273967.1246948,0.090864108338648,0.18373221261160713,0.162568060427296,0.2616145760588032,0.23953002512516458,0.07313310406840198,-0.056500354182600285,0.2567398953608515
159,1791273967.1446948,0.177084811463648,0.40407400948660716,0.402070013552296,0.596904625037905,0.2421137258537451,0.07417342160006085,-0.05541547350706648,0.2592134784741241
160,1791273967.1853127,0.46448715521364803,0.5717253766741072,0.282319036989796,0.7888740471954082,0.24852832597445446,0.07894190680253857,-0.051457797169958706,0.2657932624256491
161,1791273967.2053127,0.5171775849011481,0.5046648297991072,0.272738958864796,0.7723637643254627,0.2526855489341473,0.0825522630199299,-0.04896878947485174,0.27030132280937025
162,1791273967.2143571,0.349526217713648,0.6100456891741072,0.406860052614796,0.8123173161781265,0.25487144623673536,0.08469618201064608,-0.04755105258492863,0.2727526351035315
163,1791273967.234357,0.191454928651148,0.7345867047991071,0.449970404177296,0.8824658527149398,0.25979155706525947,0.09074286560143466,-0.04360101215244309,0.2786161679455618
164,1791273967.2443247,0.052543795838647996,0.9453484235491072,0.564931341677296,1.1025388488380923,0.26205822945179086,0.0945602381921552,-0.04116898088925732,0.2816221569014495
165,1791273967.2643247,0.004643405213647993,1.0603093610491072,0.636781927614796,1.2368381970480857,0.266009888322209,0.10407936614023326,-0.0352185100000027,0.28780917043757853
166,1791273967.289426,-0.09115737603635202,1.2183806501116072,0.378119818239796,1.2789588236991494,0.2700626916883327,0.11852435854744368,-0.026959818316661867,0.29615656807624213
167,1791273967.309426,-0.21569839166135202,1.1992204938616071,0.172148138552296,1.230565142798215,0.27234717680202036,0.13193365374097527,-0.02054120345924159,0.3033173498846191
168,1791273967.335171,-0.24443862603635202,1.0650994001116072,0.243998724489796,1.1196974375112647,0.2739583047461811,0.15097767149087302,-0.012714687346071504,0.3130640083154174
169,1791273967.355171,-0.186958157286352,0.9261882672991072,0.311059271364796,0.9947542055002475,0.27437507654488646,0.16653982103230638,-0.006714065167449064,0.32103313425495145
170,1791273967.3645473,-0.07199721978635201,0.8782878766741072,0.172148138552296,0.897890959736591,0.2743590540172366,0.17401016894755908,-0.003983059782921888,0.3249127485704821
171,1791273967.3845472,0.114814303651148,0.9692986188616072,0.13382782605229598,0.9852065894399006,0.2743942294154532,0.19032590398099516,0.0014274421104331948,0.33394337911337907
172,1791273967.4100583,0.287255709901148,1.1465300641741072,0.157778021364796,1.1924516488946983,0.27520165867783003,0.21206401669556352,0.007851551942961646,0.34751798080674634
173,1791273967.4300582,0.287255709901148,1.1321599469866073,0.014076849489795986,1.16811820725605,0.2766014779892881,0.22996784601243087,0.012390218722235325,0.35992652770453104
174,1791273967.4546273,0.258515475526148,0.8974480329241072,-0.07214385363520402,0.9367219216518836,0.27906882860288135,0.252402668554206,0.01702242756826034,0.3766646800954204
175,1791273967.4746273,0.416586764588648,0.7154265485491071,-0.18231475207270403,0.8477135999986417,0.2817887080476381,0.27034524250713216,0.01984589141204996,0.3910054801858102
176,1791273967.4997458,0.526757663026148,0.7920671735491072,-0.14878447863520403,0.9627984545342758,0.2864694521545349,0.2923396357483136,0.022236299096248913,0.40990445550722415
177,1791273967.5197458,0.646508639588648,0.9549285016741073,-0.024243463010204015,1.153451173596458,0.29139722582708655,0.3098456891057014,0.023594558941879736,0.4259969453984041
178,1791273967.530774,0.900380709901148,0.7872771344866072,-0.20147490832270404,1.2128820420515678,0.2949863527662141,0.3194918408361751,0.024044482513938693,0.4355113337429512
179,1791273967.550774,0.780629733338648,0.4902947126116072,-0.49845733019770405,1.047965360026318,0.3030404645444706,0.33627763039765046,0.023688137246896803,0.4532960353934448
180,1791273967.5900025,0.847690280213648,0.17894217354910713,-0.5655178770727041,1.0346060032360096,0.32125909631355215,0.36623205489669886,0.0199636782459199,0.4875775563406969
181,1791273967.6100025,0.8381102020886481,0.06398123604910713,-0.531987603635204,0.9947527933275548,0.33168299642258725,0.37957744883786393,0.01670339504386912,0.5043527071287699
182,1791273967.6200106,0.34473617865114803,-0.007869349888392873,-0.536777642697704,0.6379931012470011,0.3370045982322295,0.38529595694227536,0.01451442852124613,0.5120895842536035
183,1791273967.6400106,0.335156100526148,-0.1659406389508929,-0.747539361447704,0.8358714041579394,0.34706383120435885,0.3947488319167719,0.008869725849250889,0.5256982169139861
184,1791273967.6652813,0.689618991151148,-0.40544259207589284,-0.7810696348852041,1.1180464314889844,0.35980976452350855,0.40381833031963094,-8.989402789456348e-05,0.5408625690778883
185,1791273967.6852813,0.478857272401148,-0.4772931780133929,-0.49845733019770405,0.8399837945683325,0.3701368600655106,0.40859541717153997,-0.008036454937293137,0.5513765453124564
186,1791273967.6944537,0.402216647401148,-0.6114142717633929,-0.5798879942602041,0.9337428602402815,0.37476878174508155,0.409708706671177,-0.01187608455663245,0.5553862669145299
187,1791273967.7144537,0.411796725526148,-1.023357631138393,-0.8768704161352041,1.4091625566471624,0.38457449534553306,0.40931989573122035,-0.021177499322842686,0.5620398615661149
188,1791273967.7395725,0.407006686463648,-1.1957990373883929,-0.6613186583227041,1.425809295975751,0.3965851503151573,0.40472412407588054,-0.03400504881096181,0.567659881799058
189,1791273967.7595725,0.268095553651148,-1.147898646763393,-0.44097686144770404,1.2585734469871084,0.40572640414058964,0.3980982429441987,-0.04433995188195421,0.5701422255762201
190,1791273967.7696435,0.292045748963648,-1.325130092075893,-0.627788384885204,1.4951183018776728,0.4100621300866649,0.3933942884207858,-0.04957076094547594,0.5704097448624303
191,1791273967.7896435,0.186664889588648,-1.1957990373883929,-0.5846780333227041,1.344108448554005,0.4180989307283058,0.38167259058018876,-0.06021910069665834,0.5693039806334217
192,1791273967.8146276,0.359106295838648,-1.2676496233258931,-0.517617486447704,1.4155637610173808,0.4276552869767495,0.3646101525538594,-0.07359127787420063,0.566785042148849
193,1791273967.8346276,0.359106295838648,-1.535891810825893,-0.6229983458227041,1.6958914839018506,0.4352350508982372,0.34879502367628074,-0.08440105090855932,0.56410199030512
194,1791273967.8597193,0.177084811463648,-1.598162318638393,-0.637368463010204,1.7296590371534935,0.4443271251833382,0.3260319387808019,-0.09830040132965924,0.559809242671493
195,1791273967.8797193,0.138764498963648,-1.483201381138393,-0.493667291135204,1.5693467805173718,0.45096092114026504,0.3059875518207506,-0.10941398050898005,0.5558466995456142
196,1791273967.8902576,0.378266452088648,-1.607742396763393,-0.326015923947704,1.6835104709486388,0.4543407133313054,0.29456706843534536,-0.11503938631168376,0.5535605675984893
197,1791273967.9102576,0.426166842713648,-1.756233607700893,-0.34996611926020404,1.8407745509096602,0.46099949353555314,0.27109809010377933,-0.12512801446910424,0.5492465088673152
198,1791273967.9345996,0.177084811463648,-1.780183803013393,-0.41223662707270403,1.8358519656177679,0.46898958739001345,0.24036225113257623,-0.1369566079965701,0.5445019350963787
199,1791273967.9545996,0.320785983338648,-1.938255092075893,-0.20147490832270404,1.9749249574979588,0.4753165066931374,0.21331933336604747,-0.14613801584026376,0.5410981788884818
200,1791273967.9800396,0.5363377411511481,-2.0005255998883933,-0.10088408801020401,2.0736292936794616,0.48379256298585793,0.17656534152804504,-0.1566418552032126,0.5383003201102938
201,1791273968.0000396,0.641718600526148,-2.115486537388393,-0.364336236447704,2.24049703086651,0.4912236767161758,0.1458308805308613,-0.16435875954414078,0.5381274459845483
202,1791273968.025194,0.498017428651148,-2.417258998325893,-0.474507134885204,2.5132288883595075,0.5013181896101176,0.10442249648715521,-0.17419114303902108,0.5408942034444596
203,1791273968.045194,0.459697116151148,-2.407678920200893,-0.11525420519770402,2.4538791235904784,0.5095769017788105,0.06920020339451594,-0.18172077187027633,0.5454170201831465
204,1791273968.0547273,0.641718600526148,-2.503479701450893,-0.14399443957270402,2.5884257332335703,0.5137106032943183,0.051417678039753625,-0.18495691660616953,0.5484080803128941
205,1791273968.0747273,0.689618991151148,-2.896262904575893,-0.512827447385204,3.021076820633719,0.523078831018735,0.011608243824717757,-0.1917128470344499,0.5572252960003474
206,1791273968.0996585,0.565077975526148,-3.049544154575893,-0.7427493223852041,3.189154939013846,0.5353512685786797,-0.041690609089994814,-0.2012190003693407,0.5734354137692693
207,1791273968.1196585,0.670458834901148,-2.7908820452008927,-0.6469485411352041,2.94229163313202,0.545572853664646,-0.08679445302593179,-0.209785563765833,0.5909255439532161
208,1791273968.1451664,0.703989108338648,-2.733401576450893,-0.555937798947704,2.876830144291193,0.5592833994991341,-0.14625946250852848,-0.22137370700182818,0.6190283268803802
209,1791273968.1651664,0.6560887177136481,-2.685501185825893,-0.6804788145727041,2.8470020094242448,0.570461028973608,-0.19401879104429315,-0.2309513508283407,0.6452965235497182
210,1791273968.175143,0.646508639588648,-2.570540248325893,-0.651738580197704,2.729544607850223,0.5761750863992424,-0.2182018967268265,-0.23600916626372206,0.6597652040558493
211,1791273968.195143,0.708779147401148,-2.378938685825893,-0.6804788145727041,2.5738625774877724,0.5879446634829668,-0.26683366935239783,-0.24662591367322356,0.6911609622318929
212,1791273968.2196565,0.593818209901148,-2.398098842075893,-0.7044290098852041,2.5689916996253204,0.6026013314979649,-0.32628205549293743,-0.2602328647571917,0.7330139755554128
213,1791273968.2396564,0.46448715521364803,-2.4555793108258928,-0.627788384885204,2.576768582025054,0.6143531175213971,-0.3747897385405319,-0.27166754473918614,0.7692206159406789
214,1791273968.265711,0.469277194276148,-2.254397670200893,-0.531987603635204,2.363374864657834,0.6291907995661283,-0.43770713417092244,-0.2865957367145168,0.8182943931530525
215,1791273968.285711,0.378266452088648,-2.1202765764508933,-0.436186822385204,2.1974797413046967,0.6401433276353873,-0.4853211552085499,-0.29778826623070537,0.8567368062093268
216,1791273968.2950044,0.36389633490114803,-2.149016810825893,-0.5415676817602041,2.2458827551085347,0.6449864946286649,-0.5071027853909453,-0.3028904328796803,0.874587575680485
217,1791273968.3150043,0.34473617865114803,-2.297508021763393,-0.5415676817602041,2.3855149751919935,0.6549089005663165,-0.553617040356306,-0.3138483727548693,0.9131803198135277
218,1791273968.35465,0.315995944276148,-2.378938685825893,-0.484087213010204,2.4481713864674566,0.673592223292453,-0.6458959582259926,-0.33536158142310774,0.9916528941254348
219,1791273968.37465,0.277675631776148,-2.441209193638393,-0.373916314572704,2.485240329201691,0.6824941007505559,-0.6926951862283075,-0.3458734057906251,1.0321110557572697
220,1791273968.4005024,0.315995944276148,-2.307088099888393,-0.35954619738520405,2.3562220620093877,0.6934259484912308,-0.7533215247185415,-0.35884519549289334,1.0849436575111004
221,1791273968.4205024,0.507597506776148,-2.149016810825893,-0.345176080197704,2.2349664445888906,0.7018498744907296,-0.7998721912174033,-0.36843223481758947,1.1261132626242647
222,1791273968.4145267,0.565077975526148,-2.278347865513393,-0.20147490832270404,2.3560081182792656,0.7018498744907296,-0.7998721912174033,-0.36843223481758947,1.1261132626242647
223,1791273968.4345267,0.421376803651148,-2.292717982700893,0.018866888552295985,2.3311949979225153,0.7107835017186305,-0.8460065245751361,-0.37632976184378675,1.1672893024389883
224,1791273968.460925,0.488437350526148,-2.192127162388393,0.018866888552295985,2.2459627113898475,0.7226077654957227,-0.9066456607439324,-0.3851155570021748,1.221671940066407
225,1791273968.480925,0.579448092713648,-2.038845912388393,-0.10088408801020401,2.1219873576027717,0.7318241497454198,-0.9520423422613138,-0.3908964354405361,1.2628346015409668
226,1791273968.5348535,0.488437350526148,-2.014895717075893,-0.19189483019770404,2.082114171205889,0.757266916106986,-1.0724855131863797,-0.4053301486493758,1.3740345292709941
227,1791273968.5548534,0.402216647401148,-2.125066615513393,-0.07693389269770402,2.164163851389674,0.766623286091844,-1.1166630688077896,-0.41028336878558735,1.4152667998365318
228,1791273968.5348535,0.397426608338648,-2.096326381138393,-0.17273467394770403,2.1406469752988633,0.766623286091844,-1.1166630688077896,-0.41028336878558735,1.4152667998365318
229,1791273968.5548534,0.339946139588648,-2.149016810825893,-0.38828643176020405,2.2101137943831284,0.7755088656517289,-1.1603316323969852,-0.41502192830890716,1.4560311462406041
230,1791273968.57992,0.287255709901148,-2.158596888950893,-0.42181670519770403,2.218104078857242,0.786154095945261,-1.214951452498457,-0.4215930586660471,1.5072776790011235
231,1791273968.59992,0.311205905213648,-2.096326381138393,-0.326015923947704,2.144229417381478,0.7942713003393068,-1.2583765707395065,-0.4271712963101694,1.548177576610682
232,1791273968.6252818,0.244145358338648,-2.019685756138393,-0.17273467394770403,2.041708788522604,0.8040769964779536,-1.3130126896422536,-0.4341326377898676,1.5996916223513145
233,1791273968.6452818,0.248935397401148,-1.8280841936383931,-0.25895537707270405,1.863040133337086,0.8113893692666619,-1.3554068974620235,-0.43944635535260745,1.639693161990764
234,1791273968.6558142,0.196244967713648,-1.818504115513393,-0.14878447863520403,1.835103846264518,0.8150142420326539,-1.3772642138583633,-0.4421470016705349,1.660300846406217
235,1791273968.6758142,0.248935397401148,-1.837664271763393,-0.04819365832270402,1.8550745096888899,0.8215328057075434,-1.4180276720190266,-0.4468014973535143,1.6986318634426798
236,1791273968.7146723,0.229775241151148,-2.058006068638393,-0.13920440051020402,2.0754670571030336,0.8336931809346928,-1.4967008623791842,-0.4550344220662989,1.7726291537286671
237,1791273968.7346723,0.177084811463648,-2.216077357700893,-0.316435845822704,2.2455488260750904,0.839623488168778,-1.5375305548727782,-0.4593196872121005,1.811061121031734
238,1791273968.759808,0.292045748963648,-2.417258998325893,-0.28290557238520403,2.451217523469069,0.8468430575402137,-1.5898823969105391,-0.4650273775585727,1.8604084664366216
239,1791273968.779808,0.397426608338648,-2.570540248325893,-0.326015923947704,2.621433092784628,0.8527600529606082,-1.632771039692134,-0.4698010225792995,1.901013933878252
240,1791273968.7752254,0.421376803651148,-2.886682826450893,-0.38828643176020405,2.9430022943026812,0.8527600529606082,-1.632771039692134,-0.4698010225792995,1.901013933878252
241,1791273968.7952254,0.488437350526148,-3.1405548967633927,-0.40744658801020406,3.204320337771285,0.859443775436285,-1.679756884849338,-0.4753543141331076,1.9458130740900794
242,1791273968.834818,0.488437350526148,-3.221985560825893,-0.42660674426020406,3.286602396671651,0.8735911306304336,-1.7777123382771947,-0.48717541320383084,2.039794721144619
243,1791273968.8548179,0.48364731146364803,-3.231565638950893,-0.48887725207270405,3.3039267801100354,0.8811237597775423,-1.8294521603180531,-0.4936243080208365,2.089722288823554
244,1791273968.8647416,0.35431625677614803,-3.236355678013393,-0.40744658801020406,3.2810898808942355,0.8849243798577545,-1.8560877451502722,-0.49701129123671967,2.1154604934577352
245,1791273968.8847415,0.459697116151148,-3.078284388950893,-0.263745416135204,3.123574532869159,0.8926561258420728,-1.9111883094566329,-0.5038202165943109,2.168711719859562
246,1791273968.9095387,0.593818209901148,-2.915423060825893,-0.536777642697704,3.023316379029116,0.902763791542333,-1.980404843054257,-0.5124848256862047,2.2359844593089786
247,1791273968.9295387,0.320785983338648,-3.0303839983258927,-0.675688775510204,3.121327625509159,0.9110651137572217,-2.036775672559293,-0.5202436380765573,2.2911019673497623
248,1791273968.9399755,-0.02409682916135201,-3.059124232700893,-0.335596002072704,3.0775715109288106,0.9149795113440721,-2.066546314325934,-0.5244767536609249,2.320102808188517
249,1791273968.9599755,-0.22527846978635202,-2.8148322405133928,0.03323700573979599,2.824028262913364,0.9209814323634632,-2.1238492805404965,-0.5318254205366879,2.3752433229333927
250,1791273968.9847379,-0.13905776666135203,-2.4651593889508927,-0.09130400988520401,2.4707659333944805,0.926621232288316,-2.193960966630898,-0.5396670179888865,2.4419934728685333
251,1791273969.0047379,0.03817367865114799,-2.216077357700893,-0.24937529894770402,2.23039102508542,0.9303417659786649,-2.249116191051776,-0.5455614836422087,2.494332931829558
252,1791273969.0303187,-0.29233901666135204,-2.034055873325893,-0.043403619260204016,2.0554146225613388,0.9338990546305542,-2.317234482443228,-0.5525315950442836,2.5587173064615714
253,1791273969.0503187,-0.7569728057238521,-1.9813654436383932,0.03323700573979599,2.121301852259681,0.9346891134923916,-2.368526173020327,-0.5571788891492611,2.60653185011753
254,1791273969.1054509,-1.092275540098852,-1.9095148577008931,0.023656927614795986,2.199971021968897,0.9288938372567057,-2.5047971340650244,-0.5678327992113162,2.731169443951438
255,1791273969.1254508,-1.350937649473852,-1.8280841936383931,0.196098333864796,2.281529949034424,0.92344204910271,-2.55242264139046,-0.5707882969284577,2.7736989451352057
256,1791273969.1054509,-1.030005032286352,-1.698753138950893,0.152987982302296,1.992505436971164,0.92344204910271,-2.55242264139046,-0.5707882969284577,2.7736989451352057
257,1791273969.1254508,-0.6372218291613521,-1.7035431780133932,-0.05298369738520402,1.819592891584356,0.9139665952300904,-2.596432223352157,-0.5723285531161272,2.8114685131386246
258,1791273969.1505246,-0.962944485411352,-1.425720912388393,0.03323700573979599,1.7207692758055255,0.9008600447415424,-2.6492151055298647,-0.5740070400105435,2.856461723454563
259,1791273969.1705246,-1.676660305723852,-0.9131867327008929,0.315849310427296,1.9351642246766374,0.8880144158024744,-2.6885101945292718,-0.5746214231390933,2.889090938113792
260,1791273969.1805773,-1.283877102598852,-0.5874640764508928,0.200888372927296,1.4261173142751264,0.880294157306926,-2.7064300200454197,-0.5744943168560841,2.9033988663102597
261,1791273969.2005773,-0.6180616729113521,-0.8892365373883929,0.152987982302296,1.0936851346148055,0.8643856033601383,-2.738949098612788,-0.5737485547218832,2.928855073255337
262,1791273969.2396786,-0.34981948541135205,-1.0041974748883928,0.224838568239796,1.0868940255212598,0.8351102072233032,-2.798542300329398,-0.5714012251768738,2.9758607872471354
263,1791273969.2596786,-0.886303860411352,-0.6209943498883929,0.459550482302296,1.1757360083614203,0.8205280464463225,-2.826889246069992,-0.5693541010455981,2.9981216080954134
264,1791273969.2696157,-0.847983547911352,-0.09409005301339288,0.521820990114796,1.0001130842703605,0.8130771089703998,-2.8393938053576173,-0.567758154313676,3.007590545407494
265,1791273969.2896156,-0.316289211973852,-0.12762032645089288,0.248788763552296,0.42216307536821956,0.7985838759978778,-2.8611187706514376,-0.5638719461666468,3.023522514956942
266,1791273969.299767,-0.09594741509885202,-0.13241036551339289,0.09550751355229599,0.18936762264041793,0.7920171397840752,-2.8706896418433394,-0.5619331712307706,3.030498153510056
267,1791273969.319767,-0.38334975884885203,0.12146170479910713,0.023656927614795986,0.4028270516814259,0.7803012326878818,-2.886733891059608,-0.5585076620185908,3.0420442764791975
268,1791273969.3452618,-0.570161282286352,0.3561736188616072,-0.17752471301020403,0.6953118425000008,0.7657834695584596,-2.9032050346615508,-0.5550902301730913,3.053383198874125
269,1791273969.3652618,0.004643405213647993,0.5334050641741072,-0.297275689572704,0.6106679615875458,0.7552547252567904,-2.9128536535114096,-0.5535236809312444,3.0596592248401047
270,1791273969.390489,0.330366061463648,0.5286150251116072,-0.16315459582270403,0.6443562690614703,0.7446000636982614,-2.9211891392540172,-0.5527152432079622,3.0648441040662275
271,1791273969.410489,0.086074069276148,0.5190349469866072,-0.14878447863520403,0.5467566576438688,0.7380448422033566,-2.925234718591076,-0.5526383676002081,3.067102462145243
272,1791273969.434832,-0.148637844786352,0.7681169782366072,-0.23979522082270402,0.8182900763711348,0.7311487229214191,-2.9270702035283334,-0.5532682737782164,3.067315473534235
273,1791273969.454832,0.34473617865114803,0.9549285016741073,-0.373916314572704,1.0819172271870825,0.7266269538739246,-2.9257674517047616,-0.5546287362211071,3.065243048535189
274,1791273969.4651108,0.909960788026148,0.9645085797991072,-0.41702666613520406,1.3900419693372938,0.7256188897745744,-2.9237186516674023,-0.5558327877935916,3.063266820780053
275,1791273969.4851108,0.751889498963648,0.8303874860491072,-0.28290557238520403,1.155385978158538,0.7264444217978324,-2.917637791998751,-0.5588740706037671,3.0582138594371977
276,1791273969.5105639,0.48364731146364803,0.5717253766741072,-0.263745416135204,0.7939434946842858,0.7296960644449981,-2.9083831692083058,-0.5632075475316974,3.050959151971284
277,1791273969.5305638,0.871640475526148,0.5238249860491072,-0.455346978635204,1.1142219731889178,0.7339007490044946,-2.9005587319257233,-0.5671804912712065,3.045249575390918
278,1791273969.5551205,1.264423678651148,0.6292058454241072,-0.733169244260204,1.5912901607747865,0.742223093306533,-2.8902691029407976,-0.5735158331180292,3.038662702322979
279,1791273969.5751204,1.106352389588648,0.7058464704241072,-0.8050198301977041,1.5395751936070619,0.7515406178109679,-2.8811432575320493,-0.5802089231201478,3.033552729904381
280,1791273969.5846393,1.0871922333386481,0.7968572126116072,-0.771489556760204,1.5531144535136725,0.7568760446913639,-2.876378576271216,-0.5840421192608195,3.031092254968552
281,1791273969.6046393,1.527875827088648,0.41365408761160716,-0.795439752072704,1.771507450274228,0.7703273212225994,-2.8660534423760295,-0.5932383160605279,3.026482812774559
282,1791273969.6301906,1.657206881776148,0.11667166573660713,-0.6613186583227041,1.788096556240104,0.7910382240256869,-2.8538247588675607,-0.6060164187749446,3.02279888944336
283,1791273969.6501906,1.7194773895886482,0.17415213448660713,-0.7427493223852041,1.8811188200527134,0.809882769477116,-2.845252449653303,-0.6166241361271915,3.0218532273769765
284,1791273969.6747684,1.935029147401148,0.34180350167410717,-0.8864504942602041,2.155681310820979,0.8363035207652587,-2.8353470781266417,-0.6307076999743384,3.022645998970533
285,1791273969.6947684,2.2511717255261483,0.22205252511160714,-0.9966213926977041,2.471909315104324,0.8608574915659193,-2.827649958677028,-0.6432736086832399,3.0249761726697493
286,1791273969.7053943,2.366132663026148,0.006500767299107129,-1.1163723692602041,2.616278522226242,0.8756257354165542,-2.8239918075335875,-0.6506322803411804,3.027370562346566
287,1791273969.7253942,2.361342623963648,-0.050979701450892874,-1.063681939572704,2.590358505358032,0.9063442429688718,-2.818205951898924,-0.6656752922052521,3.034282166960397
288,1791273969.7497962,2.4475633270886483,-0.003079310825892872,-0.987041314572704,2.639095731294685,0.9470028346140685,-2.8123044816089715,-0.6850292433930902,3.0455107831607977
289,1791273969.7697961,2.648744967713648,-0.18989083426339287,-1.3031838926977042,2.9580731382290675,0.9829727607127697,-2.808482581029436,-0.701947823655084,3.057211246116819
290,1791273969.7948394,2.845136569276148,-0.8604963030133929,-1.6336965880102041,3.391787217236416,1.0315758078958182,-2.8063876658017484,-0.725471107412136,3.07673019712322
291,1791273969.8148394,2.8068162567761483,-1.152688685825893,-1.7103372130102041,3.483125333366775,1.0730466929354854,-2.807985359559234,-0.746455346611126,3.097322483888805
292,1791273969.8254664,2.586474459901148,-0.8844464983258928,-1.298393853635204,3.0262059314064444,1.096075587766873,-2.810330609222195,-0.758330903708272,3.110370651023555
293,1791273969.8454664,2.749335788026148,-0.9371369280133929,-1.284023736447704,3.175813258510151,1.1409184490528597,-2.816814660378461,-0.7812017676720409,3.137899925129246
294,1791273969.869128,3.0894285614636483,-1.344290248325893,-1.648066705197704,3.7507077962582813,1.196374900086049,-2.827383817462469,-0.8094045044714504,3.1749878432307774
295,1791273969.889128,3.300190280213648,-1.478411342075893,-1.9498391661352041,4.108385176172033,1.2458027039333104,-2.839211409646333,-0.8350639690932943,3.2109932479329992
296,1791273969.9154677,3.194809420838648,-1.598162318638393,-1.921098931760204,4.056051175442097,1.313964986784892,-2.8585294224577305,-0.8714352038962103,3.2645204487248622
297,1791273969.9354677,3.190019381776148,-1.732283412388393,-1.7151272520727041,4.014808957814297,1.3675349258562353,-2.8759931493193696,-0.9003639425275871,3.3094023021343877
298,1791273969.94492,3.161279147401148,-1.9430451311383932,-1.7390774473852042,4.097987383757761,1.3935579063986718,-2.885614299244211,-0.9144341134665129,3.3324110296240765
299,1791273969.96492,3.027158053651148,-2.005315638950893,-1.7773977598852042,4.042786104959175,1.4496427322286018,-2.908840416832741,-0.9450139416999515,3.3846518242959878
300,1791273969.9896631,2.9600975067761484,-2.029265834263393,-1.8684085020727041,4.046115100482022,1.519731256239384,-2.9407516798540363,-0.9839367715822255,3.4533657646167346
301,1791273970.009663,3.094218600526148,-2.053216029575893,-1.8205081114477042,4.135714520587256,1.576967751961126,-2.9688003532400313,-1.0162124656750617,3.5118785006769313
302,1791273970.0352204,3.108588717713648,-2.244817592075893,-1.5857961973852042,4.149370966451586,1.6510267150731481,-3.0075048667953697,-1.0577990443327892,3.590252575498613
303,1791273970.0552204,2.974467623963648,-1.933465053013393,-1.4660452208227042,3.8386238871149025,1.7094132308312875,-3.0395174389487813,-1.090039024928399,3.653620797412024
304,1791273970.0646086,3.118168795838648,-1.502361537388393,-1.336714166135204,3.7103735108897586,1.7369993265995587,-3.0547096500158246,-1.1048762192781043,3.68363531941388
305,1791273970.0846086,3.2522898895886483,-1.3107599748883931,-1.279233697385204,3.7325487391614574,1.7965073671769407,-3.0864390863658984,-1.1356670381219685,3.747437067602992
306,1791273970.1244977,3.233129733338648,-1.492781459263393,-1.518735650510204,3.871444476400202,1.916792964085155,-3.1486169321972595,-1.1962369868135916,3.8754182718135723
307,1791273970.1444976,2.715805514588648,-1.689173060825893,-1.5522659239477041,3.555057625572228,1.9769798198975694,-3.179888889108119,-1.2266572589132858,3.9401561626666717
308,1791273970.155175,2.7732859833386483,-1.655642787388393,-1.604956353635204,3.6066817272789446,2.0086875159005873,-3.19675823507394,-1.2429898961508503,3.974809760476723
309,1791273970.175175,3.204389498963648,-1.3107599748883931,-1.528315728635204,3.784435590577765,2.068137608882857,-3.2280664599813735,-1.2736939009490453,4.039789894616696
