imu_index,t_imu,ax,ay,az,mag,vx,vy,vz,velocity
0,1790596507.5347736,0.00795146484375012,-0.023135888671875198,-0.10245893554687549,0.10533911244736013,0.0,0.0,0.0,0.0
1,1790596507.5547736,0.00316142578125012,-0.0375060058593752,-0.0018681152343754794,0.037685341222055364,2.680742804770176e-05,-0.00012046098497285941,-0.0002871254451697189,0.0003125228125482577
2,1790596507.5948362,-0.0064186523437498805,0.024764501953124806,0.07956254882812452,0.08357439099942007,6.266450707174437e-05,-0.0003638500751548416,-0.0005425554097015603,0.0006562622114925988
3,1790596507.6148362,-0.020788769531249883,0.015184423828124806,0.07956254882812452,0.08362379351382743,3.706882003762622e-05,-0.0004072052072608867,-0.0004122558166219187,0.0005806419176893524
4,1790596507.6239424,-0.02557880859374988,0.0678748535156248,0.02208208007812452,0.07582143133323138,-4.504312606319272e-06,-0.0003672578442696224,-0.00029240887982094914,0.0004694694516236045
5,1790596507.6439424,0.00316142578125012,0.05350473632812481,-0.021028271484375482,0.05757551236535469,-0.00011574184436832095,-0.00011061223846689278,-6.708993417553906e-05,0.00017358658100243677
6,1790596507.6552114,-0.0016286132812498803,0.024764501953124806,-0.03060834960937548,0.039405634165889804,-0.000167722096496522,7.845655675583352e-05,-2.8187186615571567e-06,0.00018518660352753104
7,1790596507.6752114,0.00316142578125012,0.034344580078124805,-0.07371870117187548,0.08138790878368454,-0.0002438376625635734,0.00045233972907726634,-6.235283647135188e-05,0.0005176445811579456
8,1790596507.6993997,0.00795146484375012,-0.003975732421875196,-0.07850874023437548,0.07901047104428875,-0.00030192455572230695,0.0008917854733466373,-0.0003997130807647519,0.0010228442280008463
9,1790596507.7193997,-0.020788769531249883,-0.0327159667968752,-0.03060834960937548,0.04939006466777929,-0.00036200506883876416,0.0011455988128438246,-0.0008004917622490395,0.0014436867289279595
10,1790596507.7298832,-0.03515888671874988,-0.0470860839843752,0.055612353515624526,0.08090723381646611,-0.00043276345851279367,0.0011959397929317184,-0.0009593987131365368,0.0015931108216660757
11,1790596507.7498832,-0.03994892578124988,-0.003975732421875196,0.10830278320312453,0.11550418160789312,-0.0006601664342368961,0.0012009797614415676,-0.0009712087653360646,0.0016797078835770539
12,1790596507.7886689,0.00316142578125012,0.05829477539062481,0.06040239257812453,0.08400431227011874,-0.00114202821561192,0.001367297755236601,-0.0004999253054406257,0.001850312651350765
13,1790596507.8086689,0.02711162109375012,0.029554541015624807,0.002921923828124521,0.040212541971786454,-0.0013078213563348245,0.00157196969516163,-0.00019837279014496605,0.0020544676163088836
14,1790596507.8200116,0.02711162109375012,-0.023135888671875198,-0.01623823242187548,0.0391661784599331,-0.001341616804193245,0.0016760958670102406,-6.433227549230324e-05,0.002147876077983207
15,1790596507.8400116,0.03669169921875012,-0.0327159667968752,0.03166215820312452,0.05847313517413919,-0.001296562891311037,0.0017483774142332867,0.00015969700615131154,0.002182521946624959
16,1790596507.8642395,0.03669169921875012,0.029554541015624807,0.07956254882812452,0.09246594433752989,-0.0011168273666895758,0.001817060041072569,0.0005924818084179078,0.0022136045837401882
17,1790596507.8842394,0.03669169921875012,0.08224497070312481,0.23284379882812453,0.24965326084437434,-0.0008806371781733351,0.0020329517525618534,0.0013647634052117836,0.002602113337276197
18,1790596507.9243019,0.07501201171875012,0.10619516601562481,0.46276567382812456,0.4806831431002945,-0.0001428526847972746,0.0029667435089337567,0.004769777673933246,0.005618963694143824
19,1790596507.9443018,0.02232158203125012,0.4414979003906248,0.7310078613281246,0.854278141121044,0.0003162170734147754,0.004184525031798418,0.00800531095446544,0.00903854227499938
20,1790596507.953643,0.00316142578125012,0.5851990722656248,0.7645381347656246,0.9628013856992619,0.0005163223960981695,0.005387284748500049,0.010337596666151173,0.011668561634158412
21,1790596507.973643,-0.1453297851562499,0.24989633789062482,0.6735273925781246,0.7329447964872895,0.0006672387646926084,0.008828811211130761,0.016739185021715248,0.018936563314448398
22,1790596507.9847157,-0.015998730468749882,0.034344580078124805,0.5825166503906245,0.5837475118059755,0.0006042832253383702,0.010684397630384885,0.020794771104813314,0.023386834250111285
23,1790596508.0047157,0.3432541992187501,-0.2817979980468752,0.3094844238281245,0.5413078288522699,0.0009985093753732237,0.013162127551459148,0.02835937365453626,0.03128086790246066
24,1790596508.0142398,0.42468486328125016,-0.13809682617187521,0.09872270507812453,0.45735559359966466,0.001706627272567684,0.013865116271432925,0.03171292076950767,0.03465347557750733
25,1790596508.0342398,0.32409404296875016,-0.027925927734375196,-0.16951948242187548,0.3668155681650333,0.004093744325129755,0.014870876855732962,0.037592614639944705,0.04063380854073725
26,1790596508.0593677,0.32409404296875016,-0.0327159667968752,-0.5383524902343755,0.6292302336290252,0.007864602959591148,0.015830679835526214,0.042537703285350136,0.04606428773528832
27,1790596508.0793676,0.3815745117187501,-0.1955772949218752,-0.7682743652343755,0.8798267366695804,0.011474235874047422,0.01613758394989024,0.04392330778827189,0.048180251884940344
28,1790596508.1342745,0.44863505859375014,-0.1907872558593752,-0.5958329589843755,0.769863694305586,0.023316284126668606,0.015262703550748711,0.041539263457867445,0.050021091889079126
29,1790596508.1542745,0.37678447265625015,-0.003975732421875196,-0.4425517089843755,0.5812352023132549,0.028220888216133923,0.014699683237113523,0.039243552014983064,0.05052282250361399
30,1790596508.1342745,0.31451396484375016,0.14930551757812482,-0.3132206542968755,0.46831437084416944,0.028220888216133923,0.014699683237113523,0.039243552014983064,0.05052282250361399
31,1790596508.1542745,0.20913310546875014,0.07745493164062481,-0.2749003417968755,0.35398604514655124,0.033431339194396927,0.014818336709319481,0.035739111000458595,0.05113239284704644
32,1790596508.1798406,0.15644267578125012,0.024764501953124806,-0.2269999511718755,0.27679698191023966,0.039793784591606825,0.01514326229328372,0.03096895188722515,0.05264921334644668
33,1790596508.1998405,0.16602275390625013,0.0726648925781248,-0.07850874023437548,0.19750281952720158,0.04450814178322005,0.0155054630329154,0.027338808390898382,0.054486737038425964
34,1790596508.2395627,0.13728251953125012,0.07745493164062481,0.04124223632812452,0.1629315152499565,0.05337049393470322,0.016564160388678233,0.021099394166698232,0.05973244902410875
35,1790596508.2595627,0.16123271484375012,0.000814306640624804,0.04124223632812452,0.16642587986408808,0.0576111032850102,0.017134656761861947,0.018552827334424697,0.06290344256210395
36,1790596508.268991,0.22350322265625014,-0.0662462402343752,-0.044978466796875484,0.2374138103782455,0.05958237637530552,0.017316987331878718,0.017529772102152428,0.06447658904388798
37,1790596508.288991,0.19955302734375013,-0.027925927734375196,-0.049768505859375485,0.20755281818697555,0.0637713382532142,0.017504487208494124,0.015542993553082411,0.06793213748756442
38,1790596508.2991965,0.15165263671875012,0.09661508789062481,-0.02581831054687548,0.18165787236273923,0.06585705282270374,0.017638387947955178,0.014623404070808917,0.06972881816374857
39,1790596508.3191965,0.18039287109375013,0.1732557128906248,0.08914262695312453,0.26552878926924084,0.06982943236085311,0.018266241019606087,0.01318656985411971,0.07337363838152554
40,1790596508.3591273,0.26661357421875015,0.2115760253906248,0.08914262695312453,0.3518431758864953,0.07790950475018889,0.02048424481655254,0.011282104574931527,0.08134359900916516
41,1790596508.3791273,0.2809836914062501,0.2786365722656248,0.16578325195312452,0.42903876382953177,0.08217087675583791,0.022163846854428258,0.010853693789005784,0.08579680508664152
42,1790596508.3741138,0.22829326171875014,0.33611704101562484,0.32385454101562455,0.5195904563632071,0.08217087675583791,0.022163846854428258,0.010853693789005784,0.08579680508664152
43,1790596508.3941138,0.19955302734375013,0.3696473144531248,0.23284379882812453,0.48028822852238945,0.08654081434746087,0.025219814959825892,0.01200350130024424,0.090936437460429
44,1790596508.4196107,0.24266337890625014,0.34569711914062484,0.10830278320312453,0.43602924958524136,0.092121812115379,0.029899261794217133,0.01390182285701186,0.09784505507182291
45,1790596508.4396107,0.31451396484375016,0.34569711914062484,-0.01144819335937548,0.4675003672672961,0.09667868262416546,0.034056352401761275,0.015312802007373524,0.10363920454236458
46,1790596508.4644508,0.3336741210937501,0.24031625976562482,-0.05455854492187548,0.41480954499555356,0.1026969780382041,0.03953676576968067,0.01667940997298934,0.11130151779177598
47,1790596508.4844508,0.35762431640625014,0.2211561035156248,-0.01623823242187548,0.42079550140114175,0.10785270266955786,0.04397963796396311,0.017508488833336912,0.11778353539351925
48,1790596508.5246007,0.41989482421875013,0.2930066894531248,0.04603227539062452,0.5140851620574293,0.11899159497571717,0.05310910737742254,0.019012924204611988,0.13168548989202278
49,1790596508.5446007,0.44863505859375014,0.2546863769531248,-0.06892866210937548,0.5204706781991809,0.12501073556253137,0.05779617828976651,0.019615576502446067,0.13911453221109193
50,1790596508.569526,0.47737529296875014,0.08224497070312481,-0.2126298339843755,0.5290206535128671,0.13311802854689356,0.06339115893095319,0.019727636852624623,0.14875492667676582
51,1790596508.589526,0.46300517578125017,0.13972543945312482,-0.12161909179687548,0.49868646935734284,0.1400580890510408,0.06754011002140005,0.019302693487122023,0.1566860834477328
52,1790596508.5996985,0.45821513671875014,0.22594614257812481,0.08914262695312453,0.5186127445447336,0.14376136887942426,0.06961283900497867,0.019094197340023277,0.1608659905277642
53,1790596508.6196985,0.44863505859375014,0.4223377441406248,0.27595415039062454,0.6751246396355424,0.1513103913676735,0.07404911189298416,0.01929341294900162,0.16955925598798466
54,1790596508.6294541,0.43905498046875013,0.44628793945312484,0.31427446289062455,0.7005074152362137,0.15508981780850795,0.07652400030898664,0.01980786358074073,0.17407218523014872
55,1790596508.649454,0.42468486328125016,0.5851990722656248,0.30469438476562455,0.78463612929081,0.16297139880673478,0.08238393320298461,0.021632790008524024,0.18388791934917997
56,1790596508.6592202,0.31451396484375016,0.6426795410156249,0.2615840332031245,0.7618282174799009,0.16678415746734443,0.08571552440067752,0.02280501842015276,0.18890255469558528
57,1790596508.6792202,0.3624143554687501,0.5947791503906248,0.17057329101562452,0.7170785524592992,0.17443646885772016,0.09337105592241488,0.02549376742670085,0.1994897689838349
58,1790596508.7343574,0.45342509765625016,0.6474695800781248,-0.08329877929687549,0.7948269389895343,0.19574210074815948,0.11644755830728404,0.03215530260731164,0.23001949336262506
59,1790596508.7543573,0.35762431640625014,0.4606580566406248,-0.09766889648437549,0.5913038222212254,0.20352766299931105,0.12522473532248235,0.03393774740606839,0.24136386357850875
60,1790596508.749195,0.30972392578125013,0.3935975097656248,0.050822314453124524,0.50341912711122,0.20352766299931105,0.12522473532248235,0.03393774740606839,0.24136386357850875
61,1790596508.769195,0.4007346679687501,0.3217469238281248,0.14662309570312454,0.5344227627061306,0.21106928679741102,0.13372843615149427,0.035462002270829136,0.25237094141312766
62,1790596508.779606,0.43905498046875013,0.1684656738281248,0.15141313476562454,0.49404037943505374,0.21506195139987086,0.13787383083137514,0.03636915239241349,0.2580378875548737
63,1790596508.799606,0.48695537109375014,0.38401743164062485,0.01729204101562452,0.620398207543671,0.2229705195773018,0.14547149901415113,0.038103479885995356,0.26894178701982807
64,1790596508.8241177,0.5109055664062502,0.41754770507812483,-0.11682905273437548,0.6700892562664406,0.23304365059822024,0.15485988820064464,0.03972721766913764,0.28261135837292983
65,1790596508.8441176,0.5204856445312501,0.34569711914062484,-0.16951948242187548,0.6474169130211372,0.24157694792938209,0.16251606418186346,0.04042383732123014,0.2939472393335447
66,1790596508.8850443,0.5492258789062502,0.3696473144531248,-0.2701103027343755,0.7150159290435467,0.2597031292529464,0.17802886220984593,0.04028608336884383,0.31743181887880484
67,1790596508.9050443,0.5683860351562502,0.1828357910156248,-0.3659110839843755,0.7002731844213171,0.2689087337387313,0.1853012365071661,0.039274832455725335,0.3289239544278858
68,1790596508.8992424,0.6593967773437501,0.0630848144531248,-0.3371708496093755,0.7432819018462756,0.2689087337387313,0.1853012365071661,0.039274832455725335,0.3289239544278858
69,1790596508.9192424,0.7551975585937502,0.1636756347656248,-0.2365800292968755,0.8081356174454888,0.2792470940530574,0.19120921575937386,0.036787149562964784,0.3404309006264852
70,1790596508.9748194,0.8030979492187501,0.1636756347656248,-0.18867963867187548,0.8410446096995342,0.3101619833182464,0.20652851005202555,0.029138576285015306,0.37376936469985794
71,1790596508.9948194,0.7025071289062501,0.13972543945312482,-0.1264091308593755,0.7273367397286448,0.32187667898642447,0.2116694987096696,0.026326387131864887,0.38613683043546804
72,1790596509.0047557,0.7025071289062501,0.14930551757812482,-0.15035932617187547,0.7337685811686372,0.327870782719058,0.21405590324460969,0.02493256023944943,0.39235291821874757
73,1790596509.0247557,0.8030979492187501,0.1972059082031248,-0.3180106933593755,0.8859950831469057,0.3403844472730241,0.21865854831151288,0.0218453197708276,0.4051547243843394
74,1790596509.0196836,0.9084788085937502,0.1924158691406248,-0.4904520996093755,1.0501908752090292,0.3403844472730241,0.21865854831151288,0.0218453197708276,0.4051547243843394
75,1790596509.0396836,0.8941086914062502,0.1588855957031248,-0.4617118652343755,1.018750622610038,0.35431170686968777,0.22300767835943391,0.017155754869067032,0.41900301926991385
76,1790596509.0650141,0.8893186523437502,0.23073618164062482,-0.3419608886718755,0.9803387681336785,0.3726932248144307,0.22842993036622647,0.010580397796808609,0.4372555519684542
77,1790596509.085014,0.9036887695312502,0.2786365722656248,-0.1264091308593755,0.9540812334101664,0.38771904613566494,0.23283300252040384,0.005464951011981569,0.4522909809940716
78,1790596509.1095562,0.9084788085937502,0.2930066894531248,-0.01144819335937548,0.9546296281068346,0.4067271571205751,0.23847778188830496,-0.0001244124409318396,0.4714855758898743
79,1790596509.1295562,0.8988987304687501,0.3600672363281248,-0.049768505859375485,0.9696103580772943,0.42260488820691816,0.24336745593775075,-0.004087915624979708,0.4876877291875938
80,1790596509.1542904,0.8749485351562502,0.3313270019531248,-0.1455692871093755,0.9468383910387483,0.4425862799736579,0.2497900997968116,-0.008616743059760231,0.5082833436562526
81,1790596509.1742904,0.8366282226562501,0.2546863769531248,-0.12161909179687548,0.8829513786386893,0.45888695647861866,0.255083435340715,-0.012130211744895297,0.5251589662648886
82,1790596509.1843367,0.8174680664062501,0.35527719726562484,-0.07371870117187548,0.894377086800282,0.4670930963386634,0.25780309659246936,-0.013777523412953446,0.5336929992151859
83,1790596509.2043366,0.8126780273437502,0.3600672363281248,-0.044978466796875484,0.8900095804426491,0.4834245226794614,0.26347824996547475,-0.016743105568636143,0.5508179271926584
84,1790596509.228572,0.8557883789062501,0.32653696289062484,-0.1311991699218755,0.9253179776666018,0.5032785535915275,0.2705716542849898,-0.02011788052210648,0.571754363100447
85,1790596509.2485719,0.8797385742187501,0.2594764160156248,-0.2126298339843755,0.9415303583724617,0.5198085897089728,0.27642639134618474,-0.023000882916191165,0.5891872031730064
86,1790596509.2743876,0.8509983398437502,0.1972059082031248,-0.2844804199218755,0.9187042255078426,0.5412958562259365,0.2837342484433209,-0.027126519477348367,0.6117533618755362
87,1790596509.2943876,0.9467991210937502,0.23552622070312482,-0.19825971679687548,0.9955943409074663,0.5581421884013935,0.2891956629524483,-0.03056741319086421,0.62935776843794
88,1790596509.3048449,0.9851194335937502,0.31695688476562484,-0.04018842773437548,1.0356336586690111,0.567144478742936,0.29205621529831943,-0.03228367966480573,0.6387424587701015
89,1790596509.3248448,0.8270481445312502,0.3792273925781248,0.03166215820312452,0.9103980123639696,0.5844973963227045,0.29775077798896926,-0.03508653585926083,0.6569047092993476
90,1790596509.3494492,0.7120872070312502,0.4223377441406248,-0.0018681152343754794,0.8279135524907703,0.605483278805323,0.3051846420259252,-0.03796245980903804,0.6791088388440321
91,1790596509.3694491,0.8653684570312502,0.4223377441406248,-0.06892866210937548,0.9653926128838086,0.622349338697985,0.3115879701686891,-0.04005573110571434,0.6971443352176624
92,1790596509.4092944,0.9851194335937502,0.42712778320312483,-0.05455854492187548,1.0751163083369535,0.6564407095768428,0.32497005461340195,-0.04396955476289238,0.7337937471328256
93,1790596509.4292943,0.8462083007812502,0.5037684082031249,-0.09287885742187549,0.9891802563590694,0.6737327966415926,0.3320758696664692,-0.0458605452061582,0.7525247199207806
94,1790596509.4544864,0.7456174804687502,0.5468787597656248,-0.1311991699218755,0.9339352371827204,0.6952543749368114,0.34166889012656343,-0.04830853015907929,0.7761765201519721
95,1790596509.4744864,0.7168772460937501,0.6139393066406248,-0.08808881835937549,0.9479420331039665,0.7119712237743588,0.3498836408030921,-0.05028940163546575,0.7948903128741969
96,1790596509.484026,0.7983079101562501,0.5708289550781248,0.02208208007812452,0.9816459818255256,0.7198328653869875,0.3540618429724337,-0.05113973928091665,0.8038248662948897
97,1790596509.504026,0.7408274414062501,0.6618396972656249,-0.021028271484375482,0.9936293428732896,0.736151348729561,0.3633565796444851,-0.05265349672227144,0.8226294444793312
98,1790596509.5138314,0.7599875976562501,0.7959607910156249,-0.1407792480468755,1.109483450127212,0.7440554884744038,0.36830206870226345,-0.053403321892277006,0.8319356336450439
99,1790596509.5338314,0.9084788085937502,0.6762098144531249,-0.15993940429687548,1.1437543756740294,0.7602618272619394,0.3790844636000351,-0.05515439358264494,0.8513196131101753
100,1790596509.544371,0.8701584960937502,0.4606580566406248,-0.10245893554687549,0.9898886235054188,0.7689270914196775,0.38481288152788107,-0.05614616871551705,0.8616740787387929
101,1790596509.5643709,0.8462083007812502,0.33611704101562484,0.002921923828124521,0.9105227571077218,0.7854784793344717,0.3952478285014969,-0.057895180951238696,0.8812202559009407
102,1790596509.588946,0.9132688476562502,0.3025867675781248,0.03166215820312452,0.9626116726254845,0.806008517386002,0.40732381450152916,-0.05965819062231789,0.9050533242119969
103,1790596509.608946,0.9851194335937502,0.2594764160156248,-0.02581831054687548,1.0190460706326676,0.823057806085498,0.4165205042406543,-0.06086899153696424,0.9244557949095722
104,1790596509.6492562,0.9994895507812501,0.2690564941406248,-0.0018681152343754794,1.0350720984620725,0.858266344366856,0.4338740075054479,-0.06302701809072303,0.9637635484241415
105,1790596509.6692562,0.9851194335937502,0.3983875488281248,0.16099321289062452,1.0747519491036983,0.8760917401317215,0.44219365976942027,-0.06369843449190714,0.9834274047554408
106,1790596509.664112,0.9467991210937502,0.46544809570312484,0.19931352539062452,1.0736835599473442,0.8760917401317215,0.44219365976942027,-0.06369843449190714,0.9834274047554408
107,1790596509.684112,0.9420090820312502,0.45586801757812484,0.11309282226562453,1.052609493842789,0.8942669919827022,0.45068797077851847,-0.06325553311398004,1.0034113625147878
108,1790596509.708729,1.0138596679687502,0.48460825195312485,0.04124223632812452,1.1244809941711387,0.9168933993344643,0.46131127769681723,-0.06250721564082318,1.0283038231381558
109,1790596509.728729,1.0425999023437502,0.31695688476562484,-0.1311991699218755,1.0975834571255692,0.9356034354885188,0.46984987005941525,-0.062125377654931375,1.0487956194805241
110,1790596509.7685525,1.1815110351562501,0.10619516601562481,-0.2078397949218755,1.2043434393204653,0.9739131005194948,0.48556530808833226,-0.06249174588637334,1.090039271809204
111,1790596509.7885525,1.1719309570312502,0.10140512695312481,-0.1264091308593755,1.183082599054345,0.9937970000033933,0.49258535956300864,-0.06314951512001798,1.110972850672534
112,1790596509.7844038,1.0857102539062502,0.2163660644531248,-0.006658154296875479,1.1070796540008985,0.9937970000033933,0.49258535956300864,-0.06314951512001798,1.110972850672534
113,1790596509.8044038,1.0905002929687502,0.2211561035156248,-0.07850874023437548,1.115466061061623,1.0143059198865292,0.4987187872621889,-0.06392216423806399,1.1320878812910262
114,1790596509.8295853,1.1000803710937501,0.2115760253906248,-0.19346967773437548,1.1368252959837322,1.0403920599519723,0.506100144840796,-0.0652627282751766,1.1587977471159074
115,1790596509.8495853,1.0952903320312501,0.24031625976562482,-0.26053022460937547,1.1512118893079055,1.061295795164799,0.5117611170729325,-0.06684873861923053,1.1801342972887454
116,1790596509.8742766,1.0042795898437502,0.14451547851562482,-0.3036405761718755,1.0590844242105157,1.0871199115733843,0.518414296556286,-0.06955783117642986,1.2064084618781652
117,1790596509.8942766,0.9994895507812501,0.1684656738281248,-0.2988505371093755,1.0567268752661831,1.107905460206625,0.5234644802731754,-0.07232677654306147,1.2274773861332147
118,1790596509.9190938,1.0090696289062502,0.2067859863281248,-0.2796903808593755,1.0673371863042884,1.1335671840061063,0.529489529712215,-0.07632410883004712,1.2534588514662526
119,1790596509.9390938,0.9707493164062502,0.24510629882812482,-0.2796903808593755,1.0395470370183768,1.1541153789912624,0.5342945706393825,-0.07990138116675813,1.274298719669459
120,1790596509.9488266,0.9707493164062502,0.3313270019531248,-0.3707011230468755,1.0906654574866954,1.1640321627899657,0.5367029031414049,-0.08185584418332875,1.2844147544609035
121,1790596509.9688265,1.0378098632812502,0.29779672851562483,-0.4808720214843755,1.1819348987507416,1.1843664779591054,0.5418531816646087,-0.08654703032186102,1.305304260718875
122,1790596509.9941075,1.06655009765625,0.2019959472656248,-0.4952421386718755,1.1931455273513734,1.2102045269399757,0.5483344972823014,-0.09343821758725113,1.331914568747458
123,1790596510.0141075,1.0952903320312501,0.13972543945312482,-0.3707011230468755,1.1647332022826986,1.230821883593104,0.5532053901604638,-0.09937105759348513,1.353082894696964
124,1790596510.0392911,1.14798076171875,0.1732557128906248,-0.3132206542968755,1.202490976932369,1.2571258275878845,0.5590098937062509,-0.10701279461105204,1.3799670814408815
125,1790596510.0592911,1.1671409179687502,0.1588855957031248,-0.4042313964843755,1.2453375352981946,1.2783547148943526,0.5634263758871554,-0.11324744799991361,1.4015937509194485
126,1790596510.0838716,1.1527708007812503,0.09182504882812481,-0.3898612792968755,1.2203705076005111,1.3048087655752314,0.5685023423174674,-0.1212245500638885,1.4284313842395784
127,1790596510.1038716,1.1288206054687502,0.09182504882812481,-0.3275907714843755,1.1789756199705113,1.326526905120232,0.5722883813438713,-0.1278177313832457,1.4503534031004335
128,1790596510.1144383,1.1384006835937501,0.10619516601562481,-0.2078397949218755,1.162080423225936,1.3380769907184689,0.5741455688785131,-0.13120296511439355,1.4619532774366744
129,1790596510.1344383,1.2150413085937501,0.13493540039062482,-0.15514936523437547,1.2323166270891668,1.3601892105481488,0.5774951531129053,-0.13719369515972268,1.484061134304134
130,1790596510.1590493,1.1719309570312502,0.2163660644531248,-0.10724897460937549,1.1965528757434325,1.3877238247827084,0.5816471530949302,-0.1439441504503079,1.511559043842432
131,1790596510.1790493,1.2054612304687502,0.24510629882812482,-0.18388959960937548,1.2437963099852611,1.4103093752262847,0.5852073445295751,-0.14904371791715076,1.5341623772577262
132,1790596510.1887255,1.2294114257812503,0.1732557128906248,-0.3419608886718755,1.2877916156241986,1.421364476182444,0.5869750485928067,-0.1515224805994389,1.5452429401071304
133,1790596510.2087255,1.2485715820312502,0.11098520507812482,-0.3898612792968755,1.3127225633382131,1.4445039670209359,0.5905070589309214,-0.1569751090324647,1.5684168713203201
134,1790596510.2345262,1.2533616210937502,0.1205652832031248,-0.15514936523437547,1.2686696442641137,1.4747185092263781,0.5948280802187617,-0.16400870958827865,1.5985975050938934
135,1790596510.2545261,1.2198313476562501,0.2115760253906248,-0.01623823242187548,1.2381504801263636,1.4983365390641794,0.5981733957668165,-0.1689002026915322,1.6221439745495059
136,1790596510.2944856,1.2581516601562501,0.2594764160156248,-0.07850874023437548,1.2870265081634606,1.5458729152097133,0.6052663936925878,-0.1774912676305955,1.6696028352269061
137,1790596510.3144855,1.3347922851562501,0.2546863769531248,-0.19825971679687548,1.3732598116971642,1.5699857792981526,0.6090552189200187,-0.1815613259622532,1.6937438182846045
138,1790596510.3085048,1.4545432617187501,0.2211561035156248,-0.3132206542968755,1.5042317975005703,1.5699857792981526,0.6090552189200187,-0.1815613259622532,1.6937438182846045
139,1790596510.3285048,1.4114329101562502,0.1924158691406248,-0.4569218261718755,1.4959760298218434,1.5952626831906664,0.6130197010982067,-0.18630929257709913,1.719118185237943
140,1790596510.3541896,1.3156321289062503,0.2594764160156248,-0.5000321777343755,1.4311701813021707,1.6281084307839653,0.6182178638366483,-0.19333564395504962,1.752229739725955
141,1790596510.3741896,1.3204221679687502,0.2930066894531248,-0.5048222167968756,1.4436803982527733,1.6538020761295846,0.6224870881923615,-0.19949344518000378,1.7782995013907292
142,1790596510.3996077,1.3539524414062503,0.22594614257812481,-0.3994413574218755,1.4296126296850173,1.6866563981822091,0.6280883014763163,-0.20786936574354764,1.8117710653377297
143,1790596510.4196076,1.2916819335937502,0.24510629882812482,-0.3611210449218755,1.3634249977109774,1.712598329097397,0.6325410582914096,-0.2146121546017028,1.8382490593372809
144,1790596510.4286625,1.2198313476562501,0.3025867675781248,-0.3323808105468755,1.3000093352964968,1.7242872678119336,0.6346265765675951,-0.21767797540747527,1.8502165210055135
145,1790596510.4486625,1.14798076171875,0.2546863769531248,-0.2269999511718755,1.1976034225543548,1.7497842040547944,0.6393779102798203,-0.22427292472233956,1.8763920746147305
146,1790596510.474376,1.1575608398437502,0.1636756347656248,-0.17909956054687548,1.1827144473387405,1.7820940832314858,0.6453770888034664,-0.23226319934411072,1.9095332157390374
147,1790596510.494376,1.26773173828125,0.1684656738281248,-0.2222099121093755,1.298037629864258,1.8070931178033354,0.6498415499545482,-0.23814779024265764,1.9350953326533993
148,1790596510.5195997,1.3491624023437503,0.23552622070312482,-0.2413700683593755,1.3906729660263286,1.8388429113926614,0.6553917590564069,-0.24533311965589077,1.9675034816279697
149,1790596510.5395997,1.3108420898437503,0.2930066894531248,-0.15514936523437547,1.3521210116342546,1.8642312536512613,0.659925220021525,-0.2507705790746706,1.9934255306983648
150,1790596510.563856,1.1958811523437503,0.3983875488281248,0.04603227539062452,1.2613339525954004,1.8949641344537576,0.6658565192110977,-0.2565745132859194,2.024866527924718
151,1790596510.5838559,1.1815110351562501,0.4893982910156248,0.04124223632812452,1.2795233235476222,1.9200693657017363,0.6713451490612916,-0.2605112902301284,2.0506674061416597
152,1790596510.5940552,1.18630107421875,0.4319178222656248,-0.15993940429687548,1.2725737137510267,1.9327630093474442,0.6744290700795974,-0.2623085661250441,2.0637909789348328
153,1790596510.6140552,1.2389915039062502,0.41754770507812483,-0.3323808105468755,1.349045231260864,1.9575584318822357,0.6808434791463813,-0.2660427058300632,2.0895840683386653
154,1790596510.6396384,1.1910911132812503,0.4606580566406248,-0.3754911621093755,1.3311264020023548,1.9891809531782514,0.6895028542471826,-0.27146102402909583,2.122721399069853
155,1790596510.6596384,1.1958811523437503,0.4510779785156248,-0.4138114746093755,1.343444457263174,2.013774453325577,0.69662457882477,-0.2762454286963543,2.1486937635608165
156,1790596510.6839528,1.1958811523437503,0.4031775878906248,-0.3036405761718755,1.2980298522785625,2.0435500402927724,0.705541710057948,-0.2824977875066153,2.1802960514017857
157,1790596510.7039528,1.14319072265625,0.32653696289062484,-0.18388959960937548,1.2030489604939814,2.0678769426458956,0.7128709016560106,-0.28760056493733516,2.2061310154446097
158,1790596510.7137926,1.1384006835937501,0.2690564941406248,-0.2461601074218755,1.1953837509067582,2.079734004046515,0.7163754396916993,-0.2900518686714569,2.2186972269105643
159,1790596510.7337925,1.26773173828125,0.2834266113281248,-0.3275907714843755,1.3396977710723685,2.1038284124561613,0.7232588854226812,-0.29514756371630657,2.244172339364413
160,1790596510.759202,1.3252122070312502,0.37443735351562485,-0.4090214355468755,1.4365546491899461,2.134789436297625,0.7319460372983998,-0.3020541893885183,2.2769074799323574
161,1790596510.779202,1.1958811523437503,0.31695688476562484,-0.4186015136718755,1.306070681310828,2.159285283183627,0.7387951929626649,-0.30791644196661866,2.3028555765725995
162,1790596510.80457,1.0952903320312501,0.2211561035156248,-0.2222099121093755,1.1392752865760745,2.190054413560198,0.7472033542559987,-0.31545597744707293,2.3354150938693974
163,1790596510.82457,1.10966044921875,0.2594764160156248,-0.09287885742187549,1.1433725574740128,2.213981326809665,0.7535589107209251,-0.3209811214269954,2.3606340732314535
164,1790596510.8339498,1.26773173828125,0.3600672363281248,-0.1455692871093755,1.3258893589859244,2.2251921324180466,0.756528361544245,-0.3233514360113474,2.3724188793648127
165,1790596510.8539498,1.2581516601562501,0.4606580566406248,-0.15514936523437547,1.3487856651946133,2.249299320873446,0.763141255258964,-0.3280984511795155,2.3977866051895385
166,1790596510.8787951,1.1144504882812503,0.47502817382812484,-0.1407792480468755,1.219618978796839,2.2791759092639676,0.7718675604237256,-0.3336623955956053,2.4293523726372643
167,1790596510.8987951,1.0569700195312501,0.42712778320312483,-0.12161909179687548,1.146479380041963,2.302875545432799,0.7791916075837269,-0.3378630198111123,2.454491140590491
168,1790596510.938935,1.1144504882812503,0.32653696289062484,-0.16951948242187548,1.1736111510567422,2.3498429386072797,0.7939549536773327,-0.3459055368838233,2.504351601720125
169,1790596510.958935,1.1623508789062502,0.2163660644531248,-0.2796903808593755,1.214948784388185,2.3731496830402063,0.8010218531496826,-0.34998550335997247,2.529024570837404
170,1790596510.9544625,1.1767209960937501,0.2546863769531248,-0.3850712402343755,1.2640479869486825,2.3731496830402063,0.8010218531496826,-0.34998550335997247,2.529024570837404
171,1790596510.9744625,1.1671409179687502,0.2786365722656248,-0.3323808105468755,1.2451237950584157,2.3964869092076344,0.8075282629693828,-0.3548570264474265,2.553659121871402
172,1790596510.999365,1.2006711914062502,0.23073618164062482,-0.2413700683593755,1.2462383420882257,2.4256084611030375,0.8153657440200962,-0.3610844461636642,2.5843335079585628
173,1790596511.019365,1.26773173828125,0.1924158691406248,-0.1359892089843755,1.2894420079642739,2.449191165432805,0.8213508022275441,-0.36590169164351044,2.6090301939804212
174,1790596511.0444698,1.2725217773437503,0.2211561035156248,-0.1264091308593755,1.2977676850272293,2.4791357455076355,0.828515277141959,-0.3715355264926959,2.640187541929081
175,1790596511.0644698,1.2198313476562501,0.2211561035156248,-0.15035932617187547,1.2488020122557209,2.5031515956516923,0.8340302531369145,-0.37576569620575273,2.6650655212219894
176,1790596511.0740151,1.1767209960937501,0.2642664550781248,-0.15514936523437547,1.2159689089199839,2.5146099582760715,0.8366150644358991,-0.37770049122391763,2.6769097237996387
177,1790596511.0940151,1.2102512695312502,0.32653696289062484,-0.15035932617187547,1.2625143367513483,2.5385974663132287,0.8421047520460213,-0.38160457465174125,2.7017104879660168
178,1790596511.1190834,1.2389915039062502,0.2738465332031248,-0.2365800292968755,1.290760233645797,2.568758703804176,0.8490822757106771,-0.3864914899288137,2.7329174266858356
179,1790596511.1390834,1.2342014648437503,0.1924158691406248,-0.2749003417968755,1.279002470849701,2.5929222458342296,0.8545134561730047,-0.39057275723810797,2.7578952297756594
180,1790596511.1642275,1.14319072265625,0.15409555664062483,-0.2749003417968755,1.1858333217040842,2.6232273216846735,0.8609708067503669,-0.3959709209081025,2.7891549403921854
181,1790596511.1842275,1.1623508789062502,0.22594614257812481,-0.2749003417968755,1.215599203257433,2.6471749620539358,0.8659066982861084,-0.40044533198102233,2.813838331135497
182,1790596511.1942732,1.2102512695312502,0.2786365722656248,-0.17909956054687548,1.2547601872047198,2.65918689488175,0.8683942239757478,-0.4026977199293936,2.8262252075483327
183,1790596511.2142732,1.1958811523437503,0.2738465332031248,-0.08329877929687549,1.2296594410285864,2.6831233250936832,0.873432471826077,-0.406902928387434,2.85089548276191
184,1790596511.2394307,1.2006711914062502,0.24031625976562482,-0.1264091308593755,1.2309924788337525,2.7132378180985013,0.8797894566381188,-0.4117947853767491,2.8818854749686005
185,1790596511.2594306,1.2342014648437503,0.2019959472656248,-0.17430952148437548,1.2627111418746204,2.7372397957521146,0.8847486153236426,-0.4155515033664755,2.906534855066479
186,1790596511.2841096,1.2294114257812503,0.2067859863281248,-0.2174198730468755,1.2654976488239325,2.766974371112171,0.8907066826180081,-0.42021682039781044,2.937020214604799
187,1790596511.3041096,1.2006711914062502,0.1924158691406248,-0.2269999511718755,1.236998041389751,2.7911020238563813,0.8954096734487191,-0.4240971327476782,2.961733845045083
188,1790596511.328774,1.2102512695312502,0.24031625976562482,-0.25095014648437547,1.259140983420948,2.8208533454240143,0.901140008490157,-0.4290487504357124,2.9922148555112047
189,1790596511.348774,1.2150413085937501,0.24510629882812482,-0.2796903808593755,1.2706806004892406,2.8449974331356556,0.9058177854470152,-0.4332576219337757,3.0169899605309123
190,1790596511.3596299,1.2006711914062502,0.24989633789062482,-0.3084306152343755,1.264590421432135,2.8581038112256016,0.9083790308967263,-0.4356783416688719,3.030466214448616
191,1790596511.3796299,1.1910911132812503,0.2546863769531248,-0.2701103027343755,1.2476068156219464,2.8822155851330016,0.9131467258584361,-0.44033691543046916,3.055306894768572
192,1790596511.404645,1.1527708007812503,0.2690564941406248,-0.15514936523437547,1.1938773981048971,2.9122472574937497,0.919198081086651,-0.44608749151707916,3.086276599908253
193,1790596511.424645,1.1240305664062502,0.2690564941406248,-0.11682905273437548,1.1616734217574278,2.9360716340260833,0.9241176809329388,-0.4504034838572902,3.11084770225356
194,1790596511.4497364,1.0905002929687502,0.3025867675781248,-0.11682905273437548,1.1377164270771163,2.9656450414946294,0.9304396231284124,-0.45544570820025937,3.1413690005389467
195,1790596511.4697363,1.0809202148437502,0.24989633789062482,-0.17430952148437548,1.1230407382767182,2.9889388053476953,0.9355516023488356,-0.4592986339112725,3.165433180132467
196,1790596511.4783106,1.0952903320312501,0.2930066894531248,-0.2126298339843755,1.1535706644179322,2.9988266419702585,0.9377635613983445,-0.46095149115083806,3.1756633957129816
197,1790596511.4983106,1.10487041015625,0.2738465332031248,-0.2365800292968755,1.1626266198777322,3.0217312901211604,0.9429994461079232,-0.4649023913370967,3.19941278651694
198,1790596511.5238686,1.0186497070312501,0.24031625976562482,-0.2844804199218755,1.0845866676580151,3.050681149933933,0.9496723196447229,-0.47019271613016156,3.2294913196296826
199,1790596511.5438685,1.0138596679687502,0.1876258300781248,-0.2269999511718755,1.0557669516887918,3.0729860049452835,0.9547527158058298,-0.47447881277887394,3.2526797995966694
200,1790596511.5697646,1.0952903320312501,0.24989633789062482,-0.19346967773437548,1.1399735116812648,3.101630776885938,0.9611938771048912,-0.4800126611092975,3.282441058166198
201,1790596511.5897646,1.1192405273437502,0.30737680664062483,-0.10724897460937549,1.1656252407459553,3.1237569914382006,0.966258212483064,-0.4840965417519182,3.305429190965399
202,1790596511.5988119,1.0952903320312501,0.32653696289062484,-0.09766889648437549,1.1470948142657762,3.1337673868276674,0.968635635875688,-0.48580587802366326,3.3158347939780337
203,1790596511.6188118,1.0952903320312501,0.30737680664062483,-0.15514936523437547,1.1481344599977583,3.1558629688570985,0.9740537272192483,-0.48939697885535316,3.33882631243765
204,1790596511.644591,1.0952903320312501,0.24989633789062482,-0.2078397949218755,1.1425000969301662,3.184306673594857,0.9810673474987183,-0.4940332764020149,3.3684374730758213
205,1790596511.664591,1.06655009765625,0.1828357910156248,-0.17909956054687548,1.0968293804758102,3.206306476846191,0.9863415386504413,-0.4976710659704209,3.3913046669736544
206,1790596511.6889362,1.0857102539062502,0.1924158691406248,-0.15514936523437547,1.1134908835131727,3.23299880326636,0.9924837545312974,-0.5020452794302734,3.418969834252487
207,1790596511.7089362,1.10487041015625,0.2163660644531248,-0.18867963867187548,1.141557227271206,3.2549236583091257,0.9973859753644584,-0.505615492381401,3.4416498705432343
208,1790596511.719489,1.0473899414062502,0.23073618164062482,-0.2174198730468755,1.0943200062471685,3.266460352502,0.9999384777469222,-0.5075381396641991,3.4535829448501913
209,1790596511.739489,1.0090696289062502,0.2546863769531248,-0.2222099121093755,1.06417287675742,3.288129876015312,1.0047785202624915,-0.5112948389538786,3.4760322738240257
210,1790596511.7793543,1.0425999023437502,0.24031625976562482,-0.2269999511718755,1.0937529149250167,3.330978282013958,1.0144588886312536,-0.5190028104673293,3.5204981279990197
211,1790596511.7993543,1.0378098632812502,0.23552622070312482,-0.19346967773437548,1.0816433927895033,3.352371000582361,1.0193007101486828,-0.5229204715754692,3.5427123906475813
212,1790596511.8090048,1.0186497070312501,0.24031625976562482,-0.15993940429687548,1.0587633084827932,3.362633558828502,1.021630968293035,-0.5247830741793571,3.5533690437780505
213,1790596511.8290048,1.0138596679687502,0.2115760253906248,-0.15514936523437547,1.0472569724697125,3.383760542600773,1.026413720704679,-0.5285368131834144,3.5752918340469466
214,1790596511.8390539,1.0186497070312501,0.1828357910156248,-0.1264091308593755,1.0426194993744284,3.3943154777161166,1.0287536352122522,-0.5303521934624958,3.586221556643718
215,1790596511.8590539,1.02822978515625,0.2642664550781248,-0.11682905273437548,1.0680553721248904,3.415241486783505,1.0333827011455596,-0.5337881135605257,3.607864184008678
216,1790596511.8845115,1.02822978515625,0.29779672851562483,-0.09766889648437549,1.0749319029303914,3.4418088229403576,1.0394642779541547,-0.5379151525513368,3.6353660985046847
217,1790596511.9045115,0.9994895507812501,0.2594764160156248,-0.1407792480468755,1.0421737711484886,3.462591424046404,1.0443613168862307,-0.5410287613222958,3.656903341717687
218,1790596511.9298255,1.0042795898437502,0.2546863769531248,-0.2126298339843755,1.057664451271037,3.4887546545018617,1.0506059633831786,-0.5450495044715425,3.684054952349296
219,1790596511.9498255,1.0090696289062502,0.23073618164062482,-0.2796903808593755,1.0722347740324203,3.5093449079668306,1.0555277640909382,-0.5484881625764237,3.705466206609635
220,1790596511.9747388,1.0425999023437502,0.2019959472656248,-0.2892704589843755,1.1006790256564198,3.53497975384156,1.061547608267741,-0.5531921736743364,3.732155779935135
221,1790596511.9947388,1.0617600585937501,0.14930551757812482,-0.25095014648437547,1.1011823353218144,3.5556286250587426,1.0661822939120036,-0.5572123586695059,3.753628273529842
222,1790596512.0038478,1.0473899414062502,0.14930551757812482,-0.16951948242187548,1.0714731363215975,3.5650634213267893,1.0681805410957939,-0.5590559628551772,3.763406759315542
223,1790596512.0238478,1.0042795898437502,0.1588855957031248,-0.06413862304687548,1.0187913869212957,3.5857488958285533,1.0723721164095572,-0.5628471316037316,3.7847554734147555
224,1790596512.0494301,1.0378098632812502,0.2163660644531248,-0.044978466796875484,1.0610780596384881,3.6121572677376395,1.0776493894181058,-0.5671784374780544,3.811915491366921
225,1790596512.06943,1.1144504882812503,0.24510629882812482,-0.12161909179687548,1.147548775453591,3.6329345720833612,1.081848455877498,-0.5703065771553274,3.8332570065767397
226,1790596512.0948844,1.10487041015625,0.24510629882812482,-0.2461601074218755,1.1581927816430266,3.659648468787882,1.0873268905271505,-0.5743927405164359,3.860729685217927
227,1790596512.1148844,1.0090696289062502,0.23552622070312482,-0.3228007324218755,1.0853084490004645,3.6806606096592027,1.091706684601753,-0.5779751799109346,3.882414367026539
228,1790596512.1243172,0.9755393554687501,0.23552622070312482,-0.2749003417968755,1.0405382417898539,3.690488282723627,1.0937957685773876,-0.5798342078952944,3.892595619496552
229,1790596512.1443172,1.0713401367187503,0.24510629882812482,-0.1264091308593755,1.10626671948242,3.711270244855276,1.0982817091780583,-0.5837865521355897,3.914148219155424
230,1790596512.1693823,1.10487041015625,0.23552622070312482,-0.05455854492187548,1.1310118738110266,3.7374997068746305,1.1039639887232644,-0.5883370702058925,3.9412918003446764
231,1790596512.1893823,1.02343974609375,0.24031625976562482,-0.07850874023437548,1.0542032256094493,3.758481802505685,1.1085316497252387,-0.5916229732234622,3.962959199973514
232,1790596512.2140672,0.9851194335937502,0.2786365722656248,-0.17909956054687548,1.0393148177699056,3.784212900574779,1.1142843989425015,-0.5955471730660264,3.9895580499536747
233,1790596512.2340672,1.0186497070312501,0.2930066894531248,-0.2317899902343755,1.0850008042725054,3.8049390260245635,1.1191036623210908,-0.5988660220048714,4.011059026129779
234,1790596512.2441325,1.0425999023437502,0.2163660644531248,-0.2461601074218755,1.092896897561742,3.8153612079148935,1.1215497542710147,-0.6006465511616836,4.021893991341591
235,1790596512.2641325,1.0090696289062502,0.1924158691406248,-0.2653202636718755,1.0609619338096221,3.836041425659909,1.1262942940195353,-0.6044210251383167,4.043399242190798
236,1790596512.2894943,1.0186497070312501,0.2115760253906248,-0.2701103027343755,1.0748819543550827,3.8621891391784136,1.1321767684322142,-0.6095079022948158,4.070605491167762
237,1790596512.3094943,1.06655009765625,0.2163660644531248,-0.15993940429687548,1.099965452959469,3.8828437329110623,1.1367617000974093,-0.6135627070094084,4.092085264562284
238,1790596512.3341777,1.0857102539062502,0.22594614257812481,-0.08329877929687549,1.1120958148538542,3.9084958027238352,1.1423903519306964,-0.6182666919411481,4.118695043148743
239,1790596512.3541777,1.0809202148437502,0.2211561035156248,-0.12161909179687548,1.1099953767784665,3.9294128186306434,1.1469375653144978,-0.6218137932492649,4.140338545508495
