imu_index,t_imu,ax,ay,az,mag
0,1788018545.9677365,-0.020756835937499638,-0.027754049862132164,0.04714901194852928,0.0585163468580238
1,1788018545.9877365,0.017563476562500364,0.01535630170036784,-0.010331456801470722,0.025515303457236706
2,1788018545.9973283,-0.0063867187499996375,0.0009861845128678393,-0.0007513786764707217,0.006505943913105323
3,1788018546.0173283,-0.001596679687499637,-0.01817397173713216,0.04235897288602928,0.04612076775906832
4,1788018546.0270674,0.003193359375000363,0.02014634076286784,-0.034281652113970724,0.039891155183759804
5,1788018546.0470674,-0.011176757812499638,-0.01817397173713216,0.03277889476102928,0.03911098446288437
6,1788018546.087619,0.003193359375000363,0.00577622357536784,0.004038660386029278,0.007737769743551439
7,1788018546.107619,0.003193359375000363,0.01056626263786784,-0.005541417738970722,0.012351144108465578
8,1788018546.1168246,-0.011176757812499638,-0.01817397173713216,0.03756893382352928,0.043204605686640314
9,1788018546.1368246,0.007983398437500363,0.02014634076286784,-0.01991153492647072,0.02942921881181247
10,1788018546.1482654,0.007983398437500363,-0.008593893612132161,0.02798885569852928,0.03034741671611645
11,1788018546.1682653,-0.011176757812499638,0.0009861845128678393,0.008828699448529279,0.01427719892153756
12,1788018546.2070963,0.007983398437500363,0.01535630170036784,-0.010331456801470722,0.020156627995903956
13,1788018546.2270963,-0.0063867187499996375,-0.01817397173713216,0.03277889476102928,0.038020249431695054
14,1788018546.2371116,0.003193359375000363,0.01535630170036784,-0.015121495863970722,0.021786995735408463
15,1788018546.2571115,0.003193359375000363,-0.003803854549632161,0.01840877757352928,0.019066985741965997
16,1788018546.2680402,-0.015966796874999637,-0.008593893612132161,0.01840877757352928,0.025839440814689058
17,1788018546.2880402,0.017563476562500364,0.01535630170036784,-0.005541417738970722,0.023979137212001584
18,1788018546.3290336,-0.0063867187499996375,-0.008593893612132161,0.02319881663602928,0.025550543577786203
19,1788018546.3490336,-0.0063867187499996375,0.0009861845128678393,0.004038660386029278,0.007620598007945274
20,1788018546.358026,0.012773437500000364,0.01056626263786784,-0.0007513786764707217,0.0165943117246324
21,1788018546.378026,-0.020756835937499638,-0.008593893612132161,0.02319881663602928,0.03229375077108621
22,1788018546.3880093,0.007983398437500363,0.01056626263786784,0.008828699448529279,0.01591623355875209
23,1788018546.4080093,-0.001596679687499637,0.00577622357536784,-0.0007513786764707217,0.006039761148635273
24,1788018546.447175,-0.011176757812499638,-0.008593893612132161,0.02319881663602928,0.0271470074948976
25,1788018546.467175,0.007983398437500363,0.01056626263786784,-0.0007513786764707217,0.013264430883371514
26,1788018546.4780262,-0.0063867187499996375,0.0009861845128678393,0.008828699448529279,0.01094114574610349
27,1788018546.4980261,-0.001596679687499637,-0.003803854549632161,0.02798885569852928,0.0282912484484571
28,1788018546.5071168,0.003193359375000363,0.01056626263786784,-0.010331456801470722,0.015118943411196437
29,1788018546.5271168,-0.011176757812499638,-0.008593893612132161,0.02319881663602928,0.0271470074948976
30,1788018546.5681088,0.003193359375000363,0.0009861845128678393,0.008828699448529279,0.009440129127495252
31,1788018546.5881088,0.003193359375000363,0.01056626263786784,-0.005541417738970722,0.012351144108465578
32,1788018546.5981102,-0.011176757812499638,-0.008593893612132161,0.02319881663602928,0.0271470074948976
33,1788018546.6181102,0.003193359375000363,0.00577622357536784,-0.0007513786764707217,0.006642806094264143
34,1788018546.6271086,-0.0063867187499996375,0.0009861845128678393,0.008828699448529279,0.01094114574610349
35,1788018546.6471086,-0.011176757812499638,-0.003803854549632161,0.01361873851102928,0.018023852619953953
36,1788018546.6880996,0.003193359375000363,0.01056626263786784,-0.0007513786764707217,0.011063815804041545
37,1788018546.7080996,-0.0063867187499996375,-0.003803854549632161,0.01361873851102928,0.015515460820038384
38,1788018546.7181103,-0.001596679687499637,0.0009861845128678393,0.008828699448529279,0.009025955897873394
39,1788018546.7381103,0.003193359375000363,0.01056626263786784,-0.0007513786764707217,0.011063815804041545
40,1788018546.748103,-0.011176757812499638,-0.003803854549632161,0.01361873851102928,0.018023852619953953
41,1788018546.768103,-0.001596679687499637,0.0009861845128678393,0.008828699448529279,0.009025955897873394
42,1788018546.8388257,-0.0063867187499996375,0.01056626263786784,0.008828699448529279,0.015178340372928128
43,1788018546.8588257,-0.0063867187499996375,0.0009861845128678393,0.01840877757352928,0.019510146796902682
44,1788018546.8388257,0.003193359375000363,0.0009861845128678393,0.004038660386029278,0.005242221066018224
45,1788018546.8588257,-0.001596679687499637,0.0009861845128678393,0.01361873851102928,0.01374743556266718
46,1788018546.8674133,-0.001596679687499637,0.00577622357536784,0.008828699448529279,0.010670523828264963
47,1788018546.8874133,0.003193359375000363,0.0009861845128678393,0.004038660386029278,0.005242221066018224
48,1788018546.9270322,-0.001596679687499637,-0.008593893612132161,0.008828699448529279,0.012423780720601161
49,1788018546.9470322,0.003193359375000363,0.0009861845128678393,0.008828699448529279,0.009440129127495252
50,1788018546.957451,-0.001596679687499637,0.0009861845128678393,0.004038660386029278,0.004453394618892028
51,1788018546.977451,-0.001596679687499637,0.0009861845128678393,0.008828699448529279,0.009025955897873394
52,1788018546.9873455,0.007983398437500363,0.00577622357536784,0.008828699448529279,0.013230470262125215
53,1788018547.0073454,0.003193359375000363,-0.003803854549632161,0.008828699448529279,0.010129797011052155
54,1788018547.0473561,0.007983398437500363,0.0009861845128678393,0.008828699448529279,0.011943749179288922
55,1788018547.067356,0.003193359375000363,-0.003803854549632161,0.004038660386029278,0.006401377292922372
56,1788018547.0773144,0.003193359375000363,-0.003803854549632161,0.01361873851102928,0.014496099205112111
57,1788018547.0973144,-0.001596679687499637,0.00577622357536784,0.004038660386029278,0.007226681294397266
58,1788018547.138322,-0.001596679687499637,0.0009861845128678393,0.008828699448529279,0.009025955897873394
59,1788018547.158322,0.003193359375000363,0.0009861845128678393,0.008828699448529279,0.009440129127495252
60,1788018547.1702826,0.003193359375000363,0.0009861845128678393,0.004038660386029278,0.005242221066018224
61,1788018547.1902826,-0.0063867187499996375,-0.003803854549632161,0.01361873851102928,0.015515460820038384
62,1788018547.2002816,-0.001596679687499637,0.00577622357536784,0.008828699448529279,0.010670523828264963
63,1788018547.2202816,0.003193359375000363,0.0009861845128678393,0.004038660386029278,0.005242221066018224
64,1788018547.258254,0.003193359375000363,0.0009861845128678393,0.01361873851102928,0.014022843599752336
65,1788018547.278254,0.003193359375000363,0.0009861845128678393,0.004038660386029278,0.005242221066018224
66,1788018547.2872484,-0.001596679687499637,0.00577622357536784,0.01361873851102928,0.01487898462425784
67,1788018547.3072484,-0.0063867187499996375,0.0009861845128678393,0.01361873851102928,0.015074242100908733
68,1788018547.3182733,0.003193359375000363,0.0009861845128678393,0.008828699448529279,0.009440129127495252
69,1788018547.3382733,-0.001596679687499637,0.0009861845128678393,0.008828699448529279,0.009025955897873394
70,1788018547.3772476,-0.40395996093749964,0.35544907513786783,-0.024701573988970722,0.5386444679141562
71,1788018547.3972476,-5.37123046875,1.255976418887868,-1.9550873161764708,5.852346531700328
72,1788018547.4092686,-2.736708984375,-0.7893702607996322,0.07588924632352928,2.8492877445953533
73,1788018547.4292686,1.1671728515625004,-0.7175196748621322,1.3931499885110294,1.9539687407241395
74,1788018547.4382818,3.3035302734375005,1.1458055204503679,-1.0689300896139708,3.6563361572337296
75,1788018547.4582818,3.2987402343750007,-0.6791993623621322,2.1643462775735296,4.003422750218113
76,1788018547.4988098,2.8245263671875005,-0.36305678423713217,1.5847515510110293,3.259017782392402
77,1788018547.5188098,2.8053662109375006,1.289506692325368,-0.24983340992647074,3.097631969704798
78,1788018547.5297248,0.4917773437500004,-0.21935561236213216,1.5272710822610294,1.6194192783869619
79,1788018547.5497248,0.8079199218750004,0.36023911420036786,0.6698540900735294,1.1095996221838795
80,1788018547.5589306,1.7946679687500005,0.8727732938878678,0.1573199103860293,2.001828138173954
81,1788018547.5789306,1.2342333984375005,-0.09960463579963216,1.2733990119485294,1.776175162793031
82,1788018547.619117,1.6318066406250005,0.37939927045036786,0.4878326056985293,1.7449118516385684
83,1788018547.639117,1.6557568359375003,0.25485825482536784,0.4111919806985293,1.724981818685975
84,1788018547.6487024,1.3156640625000005,-0.20977553423713216,0.9189361213235293,1.6184626332392142
85,1788018547.6687024,0.9276708984375004,0.31233872357536785,-0.2642035271139707,1.0138699511239062
86,1788018547.6790917,-2.660068359375,1.0643748563878679,-0.05823184742647072,2.865702088409295
87,1788018547.6990917,-5.0407177734375,-0.24809584673713217,-1.0353998161764708,5.1519355585988444
88,1788018547.7378724,1.1863330078125005,0.6189012235753679,-0.2546234489889707,1.362078496542538
89,1788018547.7578723,2.0341699218750007,-0.008593893612132161,0.5692632697610293,2.1123403599721757
90,1788018547.7679868,-1.3428076171874996,-0.051704245174632166,0.05193905101102928,1.344806042061745
91,1788018547.7879868,-1.0601953124999997,0.5039402860753679,-0.41748477711397075,1.245898652258119
92,1788018547.7996411,-0.14529785156249964,-0.4205372529871322,1.0291070197610293,1.121170952593791
93,1788018547.819641,1.2054931640625004,-0.4684376436121322,0.2435406135110293,1.3160393706054672
94,1788018547.8576033,2.3838427734375003,-0.10439467486213216,0.2435406135110293,2.398523847502687
95,1788018547.8776033,0.8893505859375004,0.19258774701286785,0.7177544806985293,1.1589676438838503
96,1788018547.887647,-0.7296826171874997,0.8823533720128679,-0.9300189568014707,1.4750998118561922
97,1788018547.907647,-1.1128857421874996,0.08720688763786784,-0.36479434742647077,1.1743911751754652
98,1788018547.9186058,-2.5163671874999998,-0.34389662798713216,-0.07260196461397073,2.540795103571594
99,1788018547.9386058,-1.4625585937499996,0.7817625517003679,-1.5335638786764707,2.258771457534885
100,1788018547.978606,-1.1703662109374997,1.4236277860753679,-1.6149945427389707,2.450444962464309
101,1788018547.998606,-0.8015332031249996,3.325273293887868,-1.6293646599264708,3.788763274443654
102,1788018548.0096023,-0.35126953124999966,4.690434426700368,-0.5228656364889708,4.732542009172409
103,1788018548.0296023,-0.5955615234374997,5.820883645450368,0.2243804572610293,5.855572263380534
104,1788018548.0416114,-0.12134765624999964,6.204086770450368,-0.06781192555147073,6.205643912294811
105,1788018548.0616114,0.5971582031250003,5.097587747012868,0.2339605353860293,5.137775422317847
106,1788018548.0996137,1.0570019531250003,3.900077981387868,0.1525298713235293,4.043652649704534
107,1788018548.1196136,1.0282617187500005,2.554077004825368,0.3153911994485293,2.7712998967116516
108,1788018548.1296182,1.0426318359375004,0.9302537626378679,0.8039751838235293,1.6120884914967886
109,1788018548.1496181,1.7371875000000006,0.03451645795036784,0.8854058478860293,1.950116743042957
110,1788018548.1596446,3.9453955078125005,-0.42532729204963216,1.6518120978860293,4.298317371385223
111,1788018548.1796446,6.594287109375001,0.02014634076286784,1.3165093635110294,6.724449810960571
112,1788018548.219673,10.675400390625002,0.7721824735753678,0.4543023322610293,10.71292816562079
113,1788018548.239673,14.325410156250003,0.13031723920036783,1.4602105353860293,14.400228245943739
114,1788018548.2506003,14.569702148437502,-1.3545948701746322,2.078125574448529,14.779369196946966
115,1788018548.2706003,15.685781250000002,-2.6191651826746325,1.9104742072610295,16.01729288530357
116,1788018548.2796206,14.847524414062502,-4.060966940487132,2.1643462775735296,15.544286041087826
117,1788018548.2996206,14.622392578125002,-4.611821432674632,2.2122466681985293,15.491200629926581
118,1788018548.3396196,14.133808593750002,-4.616611471737133,2.3798980353860295,15.057940148126853
119,1788018548.3596196,14.105068359375002,-4.607031393612132,2.676880457261029,15.077910354781777
120,1788018548.3706193,13.290761718750002,-3.9747462373621323,2.9307525275735293,14.17858473522282
121,1788018548.3906193,12.418974609375002,-4.238198385799633,2.772681238511029,13.411972903196855
122,1788018548.3976383,12.189052734375002,-4.602241354549633,1.2446587775735294,13.088269844387087
123,1788018548.4176383,10.210766601562502,-7.313403463924632,3.438496668198529,13.021861777600831
124,1788018548.459659,9.573691406250001,-7.739716940487132,2.6673003791360292,12.5965581320259
125,1788018548.479659,10.962802734375002,-8.918066549862132,3.218154871323529,14.493842677372115
126,1788018548.4876025,12.668056640625002,-9.971875143612131,5.129380457261029,16.918288826155084
127,1788018548.5076025,11.935180664062502,-9.502451315487132,3.251685144761029,15.598672211687573
128,1788018548.5496128,11.470546875000002,-11.490317526424631,4.813237879136029,16.934228690754807
129,1788018548.5696127,12.500405273437503,-10.297597799862132,1.9440044806985293,16.311952852705453
130,1788018548.5796533,12.787807617187502,-11.988481588924632,2.681670496323529,17.732542714259445
131,1788018548.5996532,13.132690429687502,-13.449443502987132,3.088823816636029,19.049827322898924
132,1788018548.6130116,13.453623046875002,-13.971557760799632,2.0302251838235295,19.50195409818713
133,1788018548.6330116,13.295551757812502,-16.03606459673713,4.037251551011029,21.21854058085848
134,1788018548.669006,12.797387695312501,-15.001416159237133,2.6241900275735293,19.89225959783285
135,1788018548.689006,12.083671875000002,-14.531992331112132,1.8386236213235294,18.98879837996751
136,1788018548.697005,11.992661132812502,-15.087636862362132,2.3559478400735294,19.416776183551363
137,1788018548.717005,11.738789062500002,-14.761914206112133,2.2074566291360296,18.98910594135494
138,1788018548.7290175,11.039443359375001,-14.972675924862132,2.806211511948529,18.812898689079983
139,1788018548.7490175,9.966474609375002,-14.991836081112131,2.485278894761029,18.173122362626536
140,1788018548.7890158,9.5593212890625,-15.408569479549632,2.499649011948529,18.304449789506574
141,1788018548.8090158,10.033535156250002,-16.54380873736213,2.858901941636029,19.558700252880165
142,1788018548.8190472,11.116083984375003,-18.11494154986213,3.970191004136029,21.621305397961578
143,1788018548.8390472,11.575927734375002,-17.44433608111213,3.831279871323529,21.283460002421403
144,1788018548.8480055,10.368837890625002,-16.299516745174632,2.868482019761029,19.52985495148342
145,1788018548.8680055,12.897978515625002,-18.84781752642463,3.2804253791360294,23.07291195248236
146,1788018548.9090486,5.0662646484375005,-16.85516127642463,3.194204676011029,17.887605839087094
147,1788018548.9290485,13.702705078125001,-12.702197409237131,2.2649370978860293,18.82126152888492
148,1788018548.9370456,15.685781250000002,-11.753769674862133,4.281543543198529,20.06306183275288
149,1788018548.9570456,12.711166992187502,-12.496225729549632,5.728135340073529,18.722739069413283
150,1788018548.9680347,9.477890625,-12.53933608111213,5.594014246323529,16.68407490520868
151,1788018548.9880347,7.652885742187501,-12.410005026424631,6.240669519761029,15.859408595333424
152,1788018549.0280025,7.863647460937501,-10.699961081112132,4.516255457261029,14.025786319578064
153,1788018549.0480025,6.464956054687501,-10.585000143612131,5.421572840073529,13.536297015414975
154,1788018549.0600126,7.020600585937501,-9.320429831112133,4.549785730698529,12.524368048696864
155,1788018549.0800126,8.7066943359375,-10.149106588924631,6.427481043198529,14.83655631787498
156,1788018549.0891032,8.615683593750001,-10.575420065487132,6.566392176011029,15.13892398944851
157,1788018549.1091032,8.7545947265625,-9.444970846737133,4.434824793198529,13.620501975640938
158,1788018549.1487792,9.348559570312501,-11.03526381548713,7.0070757697610295,16.070834588167884
159,1788018549.1687791,13.127900390625003,-8.621084127987132,5.5030035041360295,16.641751944267682
160,1788018549.1767583,9.904204101562502,-10.50356947954963,7.44775936351103,16.24460988247795
161,1788018549.1967583,6.666137695312501,-11.475947409237131,8.08962459788603,15.542740647876919
162,1788018549.2077696,4.491459960937501,-9.066557760799633,5.13896053538603,11.348330167688806
163,1788018549.2277696,6.421845703125,-9.83775404986213,8.37223690257353,14.426221186892214
164,1788018549.2677636,8.883925781250001,-6.499096823299633,3.6827886603860294,11.607124067677132
165,1788018549.2877636,9.904204101562502,-9.698842917049634,8.74106991038603,16.38801745157929
166,1788018549.2987735,12.926718750000003,-8.170820456112132,7.20825741038603,16.906251490558375
167,1788018549.3187735,13.353032226562503,-9.133618307674633,6.7340435431985295,17.52352120652695
168,1788018549.3277724,11.571137695312503,-10.656850729549632,6.8537945197610295,17.159084892700157
169,1788018549.3477724,9.7461328125,-10.101206198299632,4.329443933823529,14.68896035244079
170,1788018549.389834,8.5438330078125,-12.323784323299632,7.53398006663603,16.781942621671103
171,1788018549.409834,7.921127929687501,-11.677129049862131,6.20234920726103,15.413265267762732
172,1788018549.4189322,5.435097656250001,-12.170503073299631,5.34493221507353,14.360700956913659
173,1788018549.4389322,5.693759765625001,-12.745307760799632,5.541323816636029,15.018922725247876
174,1788018549.447288,6.278144531250001,-14.900825338924632,6.719673426011029,17.51010295482701
175,1788018549.467288,6.0434326171875,-16.04564467486213,5.8622564338235295,18.120481266410188
176,1788018549.508297,4.74533203125,-17.429965963924634,3.9845611213235292,18.498611215978933
177,1788018549.528297,3.2029394531250004,-20.366259909237133,4.889878504136029,21.188541139403533
178,1788018549.5382988,2.3790527343750005,-19.88246596392463,3.730689051011029,20.368858228062074
179,1788018549.5582988,2.6951953125000006,-19.32682143267463,4.118682215073529,19.9437621238265
180,1788018549.5683088,3.5621923828125004,-17.990400534237132,4.707857019761029,18.934298077112874
181,1788018549.5883088,3.8256445312500005,-14.891245260799632,4.238433191636029,15.948324595917043
182,1788018549.6276214,3.8304345703125007,-12.869848776424632,5.1772808478860295,14.3912985343009
183,1788018549.6476214,4.050776367187501,-10.814922018612132,5.24434139476103,12.683628980320668
184,1788018549.6603107,4.7118017578125,-9.545561667049633,5.94368709788603,12.192056416452033
185,1788018549.6803107,5.4303076171875,-8.549233542049633,5.900576746323529,11.72153748076783
186,1788018549.6892912,5.200385742187501,-7.672656393612132,4.6647466681985295,10.376585636925734
187,1788018549.7092912,5.090214843750001,-7.605595846737133,4.1857427619485295,10.063588714203421
188,1788018549.7497933,5.2530761718750005,-8.673774557674633,5.206021082261029,11.398764400312473
189,1788018549.7697933,5.569218750000001,-9.545561667049633,5.785615808823529,12.474265321537285
190,1788018549.778238,5.832670898437501,-11.011313620174631,7.442969324448529,14.514367702935077
191,1788018549.798238,4.524990234375001,-11.202915182674632,6.4945415900735295,13.717139485934585
192,1788018549.807445,3.6867333984375006,-12.524965963924632,6.14965877757353,14.43208504094998
193,1788018549.827445,5.142905273437501,-14.187109518612132,6.810684168198529,16.55623658877815
194,1788018549.8681526,6.378735351562501,-14.728383932674632,6.38916073069853,17.275269398658928
195,1788018549.8881526,5.406357421875001,-15.317558737362132,6.556812097886029,17.517079983050444
196,1788018549.899616,4.821972656250001,-14.627793112362133,5.967637293198529,16.517761546252736
197,1788018549.919616,5.7177099609375,-13.645835104549631,6.211929285386029,16.046466537671137
198,1788018549.9606283,6.599077148437501,-12.774047995174632,6.92085506663603,15.956890556979973
199,1788018549.9806283,6.4553759765625,-11.34182631548713,6.623872644761029,14.63504670246973
200,1788018549.9896057,4.9177734375,-10.704751120174631,7.236997644761029,13.825712532731805
201,1788018550.0096056,3.4568115234375005,-9.823383932674632,7.145986902573529,12.629867244316262
202,1788018550.0196183,4.0795166015625,-8.304941549862132,7.495659754136029,11.907956373737061
203,1788018550.0396183,2.9203271484375004,-8.640244284237133,6.74841366038603,11.345625539249845
204,1788018550.0786245,2.0054296875000004,-8.496543112362133,4.40608455882353,9.778884099488954
205,1788018550.0986245,2.8628466796875007,-11.317876120174631,7.615410730698529,13.938604362713477
206,1788018550.108607,4.678271484375,-11.404096823299632,6.81547420726103,14.08511047548259
207,1788018550.128607,6.096123046875,-12.204033346737132,7.169937097886029,15.41133167894828
208,1788018550.1367407,7.3750634765625005,-12.002851706112132,7.543560144761029,15.980153629420217
209,1788018550.1567407,7.0876611328125,-10.987363424862131,5.613174402573529,14.229013396482758
210,1788018550.1977847,8.15583984375,-10.98257338579963,6.417900965073529,15.110396901764894
211,1788018550.2177846,5.35845703125,-11.739399557674632,5.3305620978860295,13.962143675306562
212,1788018550.2285469,6.584707031250001,-14.014668112362132,5.426362879136029,16.407763500340888
213,1788018550.2485468,8.1702099609375,-15.197807760799632,5.541323816636029,18.1226918856124
214,1788018550.2585273,11.566347656250002,-14.426611471737132,3.7881695197610292,18.874791256385958
215,1788018550.2785273,10.728090820312502,-15.408569479549632,3.893550379136029,19.17487107153141
216,1788018550.316822,10.613129882812501,-15.336718893612131,3.797749597886029,19.03355916110727
217,1788018550.336822,10.847841796875002,-14.594262838924632,3.3762261603860293,18.495055624347813
218,1788018550.3477955,10.742460937500002,-13.981137838924631,3.352275965073529,17.94743537140427
219,1788018550.3677955,10.905322265625003,-12.802788229549632,2.628980066636029,17.022014462413097
220,1788018550.378802,11.049023437500002,-13.114140768612131,3.8648101447610292,17.578349310343302
221,1788018550.398802,11.183144531250003,-12.726147604549631,4.295913660386029,17.477769555555493
222,1788018550.4374495,11.116083984375003,-13.353642721737131,7.32800838694853,18.85700941312459
223,1788018550.4574494,5.985952148437501,-17.88980971392463,12.94193416819853,22.877293868327175
224,1788018550.4664564,9.113847656250002,-7.897788229549633,-1.7970160271139708,12.192889100695162
225,1788018550.4864564,9.214438476562501,-8.736045065487133,1.4745806525735294,12.782751969960215
226,1788018550.4979215,4.084306640625001,-16.194135885799632,12.12762752757353,20.640032637327785
227,1788018550.5179214,16.346806640625,-4.875273581112133,-1.1838910271139709,17.099356063921018
228,1788018550.5593178,11.719628906250001,-16.352207174862134,15.01602108226103,25.10428788738551
229,1788018550.5793178,7.6145654296875005,-11.078374167049631,4.861138269761029,14.294846838839508
230,1788018550.5883217,9.056367187500001,-12.606396627987131,5.958057215073529,16.626408763020404
231,1788018550.6083217,7.7534765625,-16.38094740923713,11.375591394761031,21.397568002228446
232,1788018550.6193178,8.050458984375,-11.758559713924631,3.883970301011029,14.770201139597631
233,1788018550.6393178,9.180908203125,-13.420703268612131,6.02990780101103,17.34255286130153
234,1788018550.6788647,11.906440429687501,-12.922539206112132,6.54244198069853,18.749903741353148
235,1788018550.6988647,13.396142578125001,-8.779155417049633,2.0541753791360295,16.14775037887365
236,1788018550.7078505,13.669174804687502,-9.315639792049632,4.094732019761029,17.040959916917192
237,1788018550.7278504,12.471665039062502,-7.797197409237133,2.628980066636029,14.94156124626733
238,1788018550.7372603,12.471665039062502,-7.260713034237132,2.552339441636029,14.655197686740557
239,1788018550.7572603,10.550859375000002,-8.415112448299633,4.315073816636029,14.168790107541671
240,1788018550.797254,4.802812500000001,-10.944253073299631,6.671773035386029,13.687813509771706
241,1788018550.817254,2.5754443359375006,-19.092109518612133,14.37894588694853,24.039460148222684
242,1788018550.8282573,-0.21235839843749965,-12.036381979549631,1.4985308478860293,12.131165729190252
243,1788018550.8482573,-4.4850732421875,-16.00732436236213,6.753203699448529,17.943134493056217
244,1788018550.8572533,-5.3185400390624995,-17.176093893612133,8.008193933823529,19.68340010442858
245,1788018550.8772533,-3.273193359375,-10.925092917049632,-0.9300189568014707,11.442743782591426
246,1788018550.9202607,-0.4949707031249997,-15.724712057674632,7.7782720588235295,17.550301465069047
247,1788018550.9402606,3.0065478515625004,-11.792089987362132,3.5390874885110293,12.673510030970766
248,1788018550.947254,6.943959960937501,-11.183755026424631,4.453984949448529,13.897227722106857
249,1788018550.967254,9.506630859375,-12.18008315142463,8.22374569163603,17.50315540331918
250,1788018550.9772568,11.025073242187503,-9.205468893612133,4.535415613511029,15.061968408350188
251,1788018550.9972568,11.221464843750002,-9.612622213924633,5.0575298713235295,15.617374538202137
252,1788018551.040253,14.148178710937502,-9.095297995174633,5.028789636948529,17.555173928797565
253,1788018551.060253,13.659594726562503,-11.087954245174632,7.72079159007353,19.212961255734903
254,1788018551.0682518,11.690888671875003,-13.588354635799632,10.03917049632353,20.545199047482736
255,1788018551.0882518,13.295551757812502,-13.756006002987132,8.71711971507353,21.0235005131356
256,1788018551.0972552,14.152968750000003,-13.938027487362131,7.888442957261029,21.372942403115676
257,1788018551.1172552,11.580717773437502,-12.922539206112132,5.095850183823529,18.085152274102942
258,1788018551.1592665,9.947314453125003,-12.295044088924632,4.377344324448529,16.409701926382816
259,1788018551.1792665,8.855185546875001,-12.136972799862132,5.335352136948529,15.943224336357385
260,1788018551.189265,7.892387695312501,-10.925092917049632,5.129380457261029,14.420748338925398
261,1788018551.209265,7.451704101562501,-11.562168112362132,6.978335535386029,15.424292279394816
262,1788018551.218266,7.149931640625001,-10.26406752642463,6.604712488511029,14.145488033592502
263,1788018551.238266,5.0854248046875,-9.852124167049631,8.458457605698529,13.945300323567563
264,1788018551.2780633,5.109375000000001,-8.501333151424632,10.19724178538603,14.225403975696414
265,1788018551.2980633,6.6086572265625,-5.148305807674633,8.45366756663603,11.901424215392334
266,1788018551.309065,7.710366210937501,-4.468120260799632,8.53509823069853,12.339438706011228
267,1788018551.329065,7.351113281250001,-5.1674659639246325,8.032144129136029,12.05225747622843
268,1788018551.3678925,6.6900878906250005,-5.775800924862132,6.140078699448529,10.761864092402721
269,1788018551.3878925,5.3728271484375005,-7.4092042451746325,5.747295496323529,10.807172832695958
270,1788018551.3978813,4.5393603515625,-9.124038229549633,6.556812097886029,12.117988731741148
271,1788018551.4178813,4.40044921875,-10.101206198299632,7.304058191636029,13.219212762270292
272,1788018551.426963,2.9825976562500007,-10.747861471737131,7.0932964728860295,13.218444305097966
273,1788018551.446963,1.7180273437500004,-10.07725600298713,4.707857019761029,11.254626791774397
274,1788018551.4898798,-0.3273193359374997,-13.056660299862132,6.52328182444853,14.599202782852734
275,1788018551.5098798,-0.07823730468749963,-12.706987448299632,4.62642635569853,13.523219731698184
276,1788018551.516901,2.6041845703125004,-16.00732436236213,8.645269129136029,18.378163369426183
277,1788018551.536901,5.248286132812501,-13.688945456112132,5.986797449448529,15.83582895629428
278,1788018551.5479295,6.886479492187501,-12.146552877987132,5.94368709788603,15.17530108207522
279,1788018551.5679295,5.4782080078125,-12.381264792049631,7.016655847886029,15.24926031371299
280,1788018551.607856,5.090214843750001,-10.479619284237131,4.521045496323529,12.496902011215216
281,1788018551.627856,5.003994140625001,-12.999179831112132,8.43450741038603,16.283720364120068
282,1788018551.6381326,5.209965820312501,-13.444653463924631,8.43450741038603,16.704591161405354
283,1788018551.6581326,5.756030273437501,-11.178964987362132,5.6562847541360295,13.78748345120563
284,1788018551.6704166,6.0625927734375,-11.696289206112132,7.026235926011029,14.930713432971643
285,1788018551.6904166,6.6086572265625,-10.417348776424632,5.373672449448529,13.456294492237998
286,1788018551.7294626,6.48890625,-10.647270651424632,5.560483972886029,13.652445153110845
287,1788018551.7494626,6.239824218750001,-11.384936667049631,6.657402918198529,14.590174872456755
288,1788018551.759143,5.9907421875,-10.838872213924631,5.732925379136029,13.646852246200282
289,1788018551.779143,5.3919873046875,-11.691499167049631,7.2992681525735295,14.800134980134727
290,1788018551.7887561,5.056684570312501,-11.360986471737132,7.10766659007353,14.323442212341211
291,1788018551.808756,4.7118017578125,-11.269975729549632,6.2550396369485295,13.723663855157628
292,1788018551.847114,4.668691406250001,-11.768139792049631,6.518491785386029,14.239962386472785
293,1788018551.867114,4.271118164062501,-12.227983542049632,6.844214441636029,14.649549590315754
294,1788018551.877337,4.0411962890625,-12.716567526424631,6.259829676011029,14.73865070735847
295,1788018551.897337,3.7394238281250005,-13.286582174862131,5.052739832261029,14.698528370834625
296,1788018551.9085753,3.5909326171875007,-14.508042135799633,6.2885699103860295,16.21493740947313
297,1788018551.9285753,4.251958007812501,-14.345180807674632,6.52328182444853,16.322272055882966
298,1788018551.9690733,5.765610351562501,-13.478183737362132,5.7760357306985295,15.756468143160884
299,1788018551.9890733,7.590615234375001,-13.813486471737132,7.730371668198529,17.555298182306025
300,1788018551.999124,9.07552734375,-12.553706198299631,7.22741756663603,17.093750336391942
301,1788018552.019124,9.228808593750001,-11.638808737362131,6.949595301011029,16.39907472184957
302,1788018552.0274014,8.8408154296875,-11.207705221737132,6.959175379136029,15.880894047777268
303,1788018552.0474014,9.616801757812501,-11.025683737362131,6.872954676011029,16.16434607102617
304,1788018552.08792,10.225136718750003,-11.998061667049631,7.203467371323529,17.331960271509338
305,1788018552.10792,9.180908203125,-12.352524557674633,6.60950252757353,16.74990931450567
306,1788018552.1199574,6.819418945312501,-13.300952292049631,6.1352886603860295,16.15739996327778
307,1788018552.1399574,6.632607421875001,-13.938027487362131,5.991587488511029,16.557753835700527
308,1788018552.1469097,5.799140625000001,-14.306860495174632,6.346050379136029,16.690974945504124
309,1788018552.1669097,3.9837158203125007,-12.874638815487131,5.320982019761029,14.489277622465384
310,1788018552.2073443,3.2700000000000005,-11.998061667049631,5.196441004136029,13.477736563525497
311,1788018552.2273443,3.2747900390625007,-11.959741354549632,5.819146082261029,13.697522556811562
312,1788018552.2387588,2.9730175781250003,-11.638808737362131,5.459893152573529,13.19511786920665
313,1788018552.2587588,2.8436865234375004,-11.696289206112132,5.479053308823529,13.225345341333258
314,1788018552.268703,3.7537939453125007,-11.796880026424631,5.455103113511029,13.528322043799776
315,1788018552.288703,4.204057617187501,-12.06033217486213,5.96284725413603,14.095434012218446
316,1788018552.3291402,3.8927050781250006,-12.318994284237132,6.2215093635110295,14.339384636747239
317,1788018552.3491402,3.7969042968750006,-11.878310690487131,5.694605066636029,13.709094571280973
318,1788018552.3581426,4.975253906250001,-11.82083022173713,6.09696834788603,14.200640886872462
319,1788018552.3781426,5.396777343750001,-11.892680807674632,6.547232019761029,14.609151570568015
320,1788018552.3885813,6.963120117187501,-10.714331198299632,6.585552332261029,14.375375971228955
321,1788018552.4085813,7.739106445312501,-11.456787252987132,7.72079159007353,15.835478063810895
322,1788018552.4475746,6.6900878906250005,-11.231655417049632,6.772363855698529,14.723188227608837
323,1788018552.4675746,6.124863281250001,-12.122602682674632,7.131616785386029,15.34051511487129
324,1788018552.4785779,5.9907421875,-12.486645651424631,7.0597661994485295,15.544954498878724
325,1788018552.4985778,5.4782080078125,-12.654297018612132,6.446641199448529,15.2217337634891
326,1788018552.5079885,7.399013671875001,-12.544126120174631,6.326890222886029,15.87860331792099
327,1788018552.5279884,5.6650195312500005,-12.208823385799631,6.11612850413603,14.78360046247859
328,1788018552.5672603,6.134443359375001,-11.787299948299632,6.499331629136029,14.792334062819585
329,1788018552.5872602,7.1020312500000005,-12.275883932674631,7.069346277573529,15.84650847968468
330,1788018552.5992815,7.149931640625001,-12.314204245174631,6.54244198069853,15.670504003646274
331,1788018552.6192815,6.5368066406250005,-13.080610495174632,7.169937097886029,16.28619691551819
332,1788018552.627983,5.229125976562501,-12.865058737362132,6.044277918198529,15.145520471312988
333,1788018552.647983,6.790678710937501,-13.305742331112132,6.034697840073529,16.111290276018156
334,1788018552.6876068,6.46974609375,-14.014668112362132,7.198677332261029,17.03201374327951
335,1788018552.7076068,4.59205078125,-13.320112448299632,6.446641199448529,15.494241148483288
336,1788018552.7177792,4.793232421875,-13.310532370174633,6.62866268382353,15.623204472946481
337,1788018552.7377791,5.6650195312500005,-12.443535299862132,6.829844324448529,15.283350108682347
338,1788018552.777962,6.666137695312501,-10.98257338579963,6.2550396369485295,14.289150807768033
339,1788018552.797962,6.191923828125001,-11.15501479204963,6.3747906135110295,14.262265986520394
340,1788018552.8069403,5.162065429687501,-12.18008315142463,6.001167566636029,14.52636765467669
341,1788018552.8269403,4.342968750000001,-13.205151510799631,5.900576746323529,15.101463833877308
342,1788018552.8458753,4.199267578125,-13.698525534237131,6.106548426011029,15.574767532263724
343,1788018552.8658752,4.984833984375,-13.818276510799631,6.144868738511029,15.923339706048692
344,1788018552.897868,6.709248046875,-13.291372213924632,6.504121668198529,16.247405434662895
345,1788018552.917868,6.48890625,-12.457905417049632,6.283779871323529,15.388021353400001
346,1788018552.9278681,6.3691552734375,-12.084282370174632,6.446641199448529,15.10480724980287
347,1788018552.947868,7.116401367187501,-11.725029440487132,6.44185116038603,15.153116186836455
348,1788018552.958886,7.020600585937501,-11.150224752987132,6.705303308823529,14.78436461579302
349,1788018552.978886,6.345205078125001,-11.068794088924632,7.026235926011029,14.565295100149678
350,1788018553.018084,5.506948242187501,-11.519057760799631,6.379580652573529,14.272849047806144
351,1788018553.038084,6.393105468750001,-12.002851706112132,6.863374597886029,15.233061330027766
352,1788018553.0475116,6.924799804687501,-11.528637838924631,7.05497616038603,15.186672821250218
353,1788018553.0675116,6.766728515625001,-11.183755026424631,6.71488338694853,14.695395544032426
354,1788018553.0945454,6.484116210937501,-11.777719870174632,6.892114832261029,15.108265791887609
355,1788018553.1145453,7.1547216796875,-11.399306784237131,6.743623621323529,15.053594156247792
356,1788018553.1372023,6.498486328125001,-11.566958151424632,6.992705652573529,14.997425705005845
357,1788018553.1572022,5.6650195312500005,-11.586118307674631,6.84900448069853,14.602720503574181
358,1788018553.170125,6.599077148437501,-11.10232436236213,6.81547420726103,14.603428163550163
359,1788018553.190125,5.712919921875001,-10.767021627987132,7.43338924632353,14.276606195404327
360,1788018553.200171,6.100913085937501,-11.059214010799632,6.825054285386029,14.356487070913152
361,1788018553.220171,6.048222656250001,-11.116694479549631,6.690933191636029,14.315393128592794
362,1788018553.2597091,6.996650390625001,-10.91551283892463,7.318428308823529,14.888281638145857
363,1788018553.279709,7.509184570312501,-10.723911276424632,6.68135311351103,14.697979636775601
364,1788018553.2877,6.565546875000001,-11.710659323299632,6.7340435431985295,15.019763313577903
365,1788018553.3077,6.2829345703125,-12.189663229549632,6.657402918198529,15.244151996090192
366,1788018553.3197258,5.8709912109375,-11.528637838924631,6.197559168198529,14.345304732326596
367,1788018553.3397257,7.097241210937501,-10.345498190487131,6.451431238511029,14.107484915492133
368,1788018553.379435,8.261220703125002,-9.507241354549633,6.599922449448529,14.219507094767195
369,1788018553.399435,9.0132568359375,-9.301269674862132,6.666982996323529,14.567123210447253
370,1788018553.4089289,9.3006591796875,-9.588672018612133,6.465801355698529,14.840871922787205
371,1788018553.4289289,9.281499023437501,-9.928764792049632,5.819146082261029,14.78475754094769
372,1788018553.438867,8.3043310546875,-11.514267721737133,5.8622564338235295,15.359242361835111
373,1788018553.458867,7.1690917968750005,-12.994389792049631,5.905366785386029,15.972582763275469
374,1788018553.4984791,6.546386718750001,-14.503252096737132,6.484961511948529,17.182963256213704
375,1788018553.518479,5.952421875000001,-16.060014792049632,7.557930261948529,18.72104994767411
376,1788018553.5287273,6.8098388671875005,-15.154697409237132,6.829844324448529,17.963449904146973
377,1788018553.5487273,6.532016601562501,-13.708105612362132,6.144868738511029,16.381050399052327
378,1788018553.558601,6.072172851562501,-12.663877096737131,6.087388269761029,15.306905703222325
379,1788018553.578601,5.8374609375,-12.285464010799632,6.772363855698529,15.194521655895036
380,1788018553.618393,7.3080029296875,-11.054423971737132,6.863374597886029,14.923575544692525
381,1788018553.638393,5.296186523437501,-10.656850729549632,7.648941004136029,14.146531647287155
382,1788018553.6489117,3.9549755859375004,-11.202915182674632,7.90760311351103,14.271556589117138
383,1788018553.6689117,3.8927050781250006,-9.900024557674632,5.594014246323529,12.019011375978124
384,1788018553.6783972,4.424399414062501,-11.284345846737132,7.423809168198529,14.213539809975511
385,1788018553.6983972,5.162065429687501,-11.365776510799632,7.222627527573529,14.422002066144714
386,1788018553.7384102,6.072172851562501,-10.733491354549631,6.3747906135110295,13.882257567252982
387,1788018553.7584102,6.637397460937501,-11.413676901424632,7.7255816291360295,15.297440209820003
388,1788018553.7682128,6.714038085937501,-10.747861471737131,6.805894129136029,14.38454130419455
389,1788018553.7882128,5.55005859375,-11.064004049862131,6.9400152228860295,14.190812073426724
390,1788018553.7992814,5.415937500000001,-10.838872213924631,7.581880457261029,14.293300568514272
391,1788018553.8192813,6.920009765625001,-10.254487448299631,7.55314022288603,14.494515349271216
392,1788018553.8578088,8.141469726562502,-11.207705221737132,9.03326229319853,16.53771487550834
393,1788018553.8778088,8.313911132812501,-11.030473776424632,7.423809168198529,15.681371515990676
394,1788018553.8897119,8.00255859375,-11.499897604549632,6.997495691636029,15.660572624140956
395,1788018553.9097118,7.1690917968750005,-12.045962057674632,6.9735454963235295,15.65667320589695
396,1788018553.9184384,6.1104931640625,-10.79576186236213,4.511465418198529,13.199997011987861
397,1788018553.9384384,5.813510742187501,-12.036381979549631,5.953267176011029,14.632593357847641
398,1788018553.978205,5.6985498046875005,-12.074702292049631,5.507793543198529,14.443257770760445
399,1788018553.998205,5.861411132812501,-13.799116354549632,8.56862850413603,17.268269950291774
400,1788018554.0081003,5.272236328125,-11.408886862362131,6.025117761948529,13.937762352082485
401,1788018554.0281003,3.5334521484375006,-10.489199362362132,4.774917566636029,12.054394431776533
402,1788018554.0413775,3.0496582031250004,-12.050752096737131,7.39985897288603,14.466476905988682
403,1788018554.0613775,5.626699218750001,-10.398188620174631,4.717437097886029,12.729347330147073
404,1788018554.099402,7.092451171875001,-12.668667135799632,8.712329676011029,16.932296920578235
405,1788018554.119402,6.987070312500001,-12.007641745174631,8.76023006663603,16.42389243305841
406,1788018554.127981,6.345205078125001,-9.991035299862132,5.84309627757353,13.199401045333389
407,1788018554.147981,4.687851562500001,-9.488081198299632,7.150776941636029,12.772362661880308
408,1788018554.1884701,4.529780273437501,-8.558813620174632,5.814356043198529,11.295084599399404
409,1788018554.20847,5.023154296875001,-10.355078268612132,5.85746639476103,12.913931918863899
410,1788018554.218297,5.4590478515625005,-10.134736471737131,7.169937097886029,13.5617876692142
411,1788018554.238297,3.5669824218750006,-12.295044088924632,7.51481991038603,14.84466203832543
412,1788018554.2480202,5.506948242187501,-13.372802877987132,6.37000057444853,15.803013733908717
413,1788018554.2680202,8.5438330078125,-14.100888815487131,6.245459558823529,17.63059593300852
414,1788018554.3387659,8.855185546875001,-14.493672018612132,7.610620691636029,18.611888323451833
415,1788018554.3587658,10.023955078125002,-12.697407370174632,5.694605066636029,17.150287350286288
416,1788018554.340767,11.029863281250002,-11.686709127987132,5.594014246323529,17.015582553451274
417,1788018554.360767,10.091015625000002,-13.348852682674632,7.55314022288603,18.359476885639275
418,1788018554.3684163,7.672045898437501,-12.328574362362131,6.537651941636029,15.92466410904801
419,1788018554.3884163,5.914101562500001,-12.127392721737131,7.4860796760110295,15.430218418233524
420,1788018554.4301198,6.479326171875001,-10.594580221737132,8.49198787913603,15.044622157294652
421,1788018554.4501197,8.203740234375001,-7.121801901424632,6.360420496323529,12.588739613094361
422,1788018554.4583716,8.443242187500001,-6.877509909237133,6.863374597886029,12.872233374956421
423,1788018554.4783716,6.2829345703125,-8.348051901424633,7.557930261948529,12.895252894309003
424,1788018554.4889116,1.2390234375000004,-8.621084127987132,5.8957867072610295,10.517536380636951
425,1788018554.5089116,-2.2864453124999997,-10.565839987362132,5.852676355698529,12.293031657412522
426,1788018554.5483778,-2.2624951171874996,-12.448325338924631,6.077808191636029,14.036361363021697
427,1788018554.5683777,1.1192724609375004,-13.071030417049633,5.9820074103860295,14.418357037581057
428,1788018554.5779366,5.894941406250001,-13.621884909237131,6.37000057444853,16.151872646293917
429,1788018554.5979366,8.558203125,-13.305742331112132,6.552022058823529,17.12351052705079
430,1788018554.6090817,9.257548828125001,-12.184873190487131,7.026235926011029,16.838685704690217
431,1788018554.6290817,9.817983398437502,-11.931001120174631,6.930435144761029,16.934359067804767
432,1788018554.6686184,9.166538085937502,-12.122602682674632,6.192769129136029,16.41137732701656
433,1788018554.6886184,8.141469726562502,-12.697407370174632,6.6478228400735295,16.483362270656496
434,1788018554.6994026,7.796586914062501,-12.692617331112132,6.427481043198529,16.223495763344445
435,1788018554.7194026,7.523554687500001,-12.098652487362132,6.025117761948529,15.468785058662649
436,1788018554.7282612,7.092451171875001,-11.82083022173713,6.777153894761029,15.361142720183274
437,1788018554.7482612,6.781098632812501,-11.657968893612132,6.671773035386029,15.046730303559766
438,1788018554.7880425,7.111611328125001,-11.562168112362132,6.211929285386029,14.928054547980327
439,1788018554.8080425,7.317583007812501,-12.615976706112132,7.6585210822610295,16.473094259817334
440,1788018554.818598,6.426635742187501,-12.601606588924632,7.55314022288603,16.035961549323115
441,1788018554.838598,6.287724609375001,-11.404096823299632,4.976099207261029,13.940963684015415
442,1788018554.8481445,6.134443359375001,-12.055542135799632,6.13049862132353,14.850942894761602
443,1788018554.8681445,5.8709912109375,-12.639926901424632,6.911274988511029,15.556413848926802
444,1788018554.907966,5.880571289062501,-12.165713034237132,6.1017583869485295,14.826231744103092
445,1788018554.9279659,6.278144531250001,-12.572866354549632,6.690933191636029,15.564724671498919
446,1788018554.937886,6.838579101562501,-12.318994284237132,5.96284725413603,15.299651358104606
447,1788018554.957886,6.920009765625001,-12.611186667049632,5.531743738511029,15.411967852810742
448,1788018554.9679797,7.1690917968750005,-12.970439596737132,6.058648035386029,16.01047771121505
449,1788018554.9879797,7.590615234375001,-13.071030417049633,6.020327722886029,16.27002217855626
450,1788018555.0287445,7.901967773437501,-13.176411276424632,5.828726160386029,16.43267955845009
451,1788018555.0487444,7.8875976562500005,-13.842226706112132,6.4610113166360295,17.192036069179917
452,1788018555.0580132,7.868437500000001,-13.641045065487132,5.73771541819853,16.760423544477934
453,1788018555.0780132,7.969028320312501,-13.693735495174632,5.8622564338235295,16.893485569226193
454,1788018555.087082,8.203740234375001,-13.535664206112132,6.039487879136029,16.940807925714743
455,1788018555.107082,8.3043310546875,-13.267422018612132,5.708975183823529,16.660696232010057
456,1788018555.147019,8.337861328125001,-13.233891745174631,5.70418514476103,16.64913062041847
457,1788018555.167019,8.3618115234375,-13.305742331112132,5.967637293198529,16.80997816175308
458,1788018555.1774182,8.4671923828125,-13.181201315487131,5.938897058823529,16.75434013150803
459,1788018555.1974182,8.73064453125,-12.936909323299632,5.838306238511029,16.66354093537623
460,1788018555.209261,8.874345703125,-13.061450338924631,6.197559168198529,16.96364454526471
461,1788018555.229261,8.788125,-12.850688620174632,6.005957605698529,16.686607378066963
462,1788018555.268572,8.721064453125,-12.582446432674631,5.85746639476103,16.391608706665792
463,1788018555.288572,8.6683740234375,-12.697407370174632,6.403530847886029,16.654430925558493
464,1788018555.299544,8.663583984375,-12.759677877987132,6.56160213694853,16.760718648313404
465,1788018555.319544,8.510302734375001,-12.625556784237132,6.35563045726103,16.49921135242442
466,1788018555.329549,8.2947509765625,-12.750097799862132,6.74841366038603,16.640582159315176
467,1788018555.349549,8.0648291015625,-12.730937643612132,6.963965418198529,16.601658232502405
468,1788018555.3885515,7.8732275390625,-12.405214987362132,6.59513241038603,16.105056419492932
469,1788018555.4085515,7.7007861328125005,-11.983691549862131,6.413110926011029,15.621746444456088
470,1788018555.4179487,7.42775390625,-11.34182631548713,6.1352886603860295,14.881206913713347
471,1788018555.4379487,7.355903320312501,-10.67601088579963,6.25024959788603,14.392780903194879
472,1788018555.4478574,7.044550781250001,-9.852124167049631,6.566392176011029,13.777066179769633
473,1788018555.4678574,6.584707031250001,-9.880864401424631,7.787852136948529,14.200017215260955
474,1788018555.5077682,6.191923828125001,-9.191098776424633,7.270527918198529,13.254312265093228
475,1788018555.5277681,5.334506835937501,-8.611504049862132,6.384370691636029,11.973936458478345
476,1788018555.5388265,5.0183642578125,-9.224629049862132,7.236997644761029,12.753505237460288
477,1788018555.5588264,5.506948242187501,-9.344380026424632,6.90169491038603,12.856022310824763
478,1788018555.59909,6.191923828125001,-9.832964010799632,7.256157801011029,13.699595905141004
479,1788018555.61909,6.575126953125,-10.187426901424631,7.184307215073529,14.093623788158201
480,1788018555.6302476,6.9152197265625,-10.608950338924632,6.484961511948529,14.227607563180184
481,1788018555.6502476,6.757148437500001,-11.777719870174632,6.829844324448529,15.199358994474629
482,1788018555.657436,6.6565576171875005,-11.801670065487132,6.504121668198529,15.029729682209243
483,1788018555.6774359,6.8289990234375,-12.136972799862132,6.585552332261029,15.404896491948664
484,1788018555.7181249,7.188251953125,-12.165713034237132,6.187979090073529,15.426166892400712
485,1788018555.7381248,7.422963867187501,-12.457905417049632,6.393950769761029,15.848735167194052
486,1788018555.7490578,7.485234375000001,-12.783628073299631,6.350840418198529,16.1177868946875
487,1788018555.7690578,7.576245117187501,-13.162041159237132,6.2215093635110295,16.41176396105596
488,1788018555.7781527,7.897177734375001,-13.425493307674632,6.312520105698529,16.806462947556003
489,1788018555.7981527,8.280380859375,-13.305742331112132,6.317310144761029,16.89721555829107
490,1788018555.8381574,8.46240234375,-13.224311667049632,6.26940975413603,16.905625429425157
491,1788018555.8581574,8.5055126953125,-13.138090963924633,5.986797449448529,16.756936596144406
492,1788018555.8682158,8.524672851562501,-13.185991354549632,6.173608972886029,16.87168820772015
493,1788018555.8882158,8.4815625,-12.984809713924632,6.231089441636029,16.714325035068143
494,1788018555.8978345,8.4767724609375,-12.611186667049632,6.039487879136029,16.351547766126295
495,1788018555.9178345,8.448032226562502,-12.505805807674632,6.317310144761029,16.36071009661279
496,1788018555.9579573,8.4097119140625,-12.175293112362132,6.187979090073529,16.039080462066543
497,1788018555.9779572,8.232480468750001,-12.074702292049631,6.32210018382353,15.92297462298676
498,1788018555.9906027,8.1031494140625,-12.069912252987132,6.365210535386029,15.870088764125411
499,1788018556.0106027,8.318701171875,-11.614858542049632,6.125708582261029,15.544453472977564
500,1788018556.0187995,8.313911132812501,-11.921421042049632,6.480171472886029,15.913328385480307
501,1788018556.0387995,8.242060546875,-11.720239401424632,6.005957605698529,15.535993706438859
502,1788018556.07829,8.060039062500001,-12.132182760799632,6.298149988511029,15.868862010498773
503,1788018556.09829,7.983398437500001,-12.204033346737132,6.154448816636029,15.828781405299083
504,1788018556.107817,7.997768554687501,-12.366894674862131,6.068228113511029,15.928834803308344
505,1788018556.127817,8.112729492187501,-12.678247213924632,6.226299402573529,16.288681238248973
506,1788018556.138277,8.1702099609375,-12.769257956112131,6.111338465073529,16.344868839798703
507,1788018556.158277,8.141469726562502,-12.817158346737132,6.192769129136029,16.398581245969034
508,1788018556.1979485,8.112729492187501,-12.649506979549631,6.001167566636029,16.1814838257166
509,1788018556.2179484,8.012138671875,-12.683037252987132,6.044277918198529,16.17365436784268
510,1788018556.227588,7.858857421875001,-12.716567526424631,6.005957605698529,16.11037728896891
511,1788018556.247588,7.815747070312501,-12.797998190487132,5.9293169806985295,16.125490994335962
512,1788018556.262026,7.9067578125,-13.128510885799631,6.044277918198529,16.47446244150356
513,1788018556.282026,8.175,-13.257841940487133,5.8957867072610295,16.65416761103525
514,1788018556.3271446,8.404921875000001,-13.300952292049631,5.871836511948529,16.79394258723322
515,1788018556.3471446,8.6492138671875,-13.329692526424632,5.94368709788603,16.965170782722645
516,1788018556.349097,8.529462890625,-13.123720846737132,6.01074764476103,16.766421004932212
517,1788018556.369097,8.457612304687501,-12.706987448299632,5.838306238511029,16.34272179418969
518,1788018556.3790846,8.3426513671875,-12.697407370174632,6.034697840073529,16.347524698852382
519,1788018556.3990846,7.978608398437501,-12.960859518612132,6.192769129136029,16.431447316764167
520,1788018556.4378383,7.8540673828125005,-13.018339987362133,5.613174402573529,16.207136617984613
521,1788018556.4578383,8.0360888671875,-13.128510885799631,5.3832525275735295,16.30692889956662
522,1788018556.4679902,8.098359375000001,-13.545244284237132,5.780825769761029,16.806993004896572
523,1788018556.4879901,7.830117187500001,-12.975229635799632,5.680234949448529,16.184325390718406
524,1788018556.4994676,7.844487304687501,-12.132182760799632,5.63712459788603,15.508159573171115
525,1788018556.5194676,7.3415332031250005,-12.893798971737132,6.42269100413603,16.167842200824644
526,1788018556.5581412,7.260102539062501,-12.601606588924632,6.20234920726103,15.810715138428812
527,1788018556.5781412,7.557084960937501,-13.621884909237131,6.705303308823529,16.959551115835872
528,1788018556.5892787,7.011020507812501,-15.375039206112131,8.76023006663603,19.03386114194507
529,1788018556.6092787,8.529462890625,-10.752651510799632,3.567827722886029,14.180995958515915
530,1788018556.618366,6.311674804687501,-13.530874167049632,7.821382410386029,16.855142164163258
531,1788018556.638366,7.6337255859375,-12.615976706112132,7.50044979319853,16.543681019375725
532,1788018556.677745,7.571455078125001,-10.230537252987132,5.2970318244485295,13.785839496891107
533,1788018556.697745,7.365483398437501,-11.657968893612132,8.113574793198529,15.999646256774339
534,1788018556.7071762,7.542714843750001,-10.393398581112132,6.60950252757353,14.44301924605763
535,1788018556.7271762,7.978608398437501,-10.331128073299631,6.949595301011029,14.788078782937685
536,1788018556.7400908,7.901967773437501,-10.38381850298713,7.428599207261029,15.014954797718904
537,1788018556.7600908,7.499604492187501,-9.809013815487132,6.590342371323529,13.99619348762079
538,1788018556.8014307,7.470864257812501,-10.565839987362132,7.51960994944853,14.966473238176262
539,1788018556.8214307,7.657675781250001,-10.134736471737131,6.8202642463235295,14.417658829088053
540,1788018556.828101,7.5475048828125,-10.489199362362132,7.131616785386029,14.75967788242875
541,1788018556.848101,7.4085937500000005,-10.599370260799631,7.12203670726103,14.763377599236437
542,1788018556.859425,7.485234375000001,-10.637690573299631,6.9400152228860295,14.742896787125632
543,1788018556.879425,7.379853515625001,-10.929882956112131,7.2130474494485295,15.031720887988477
544,1788018556.9190152,7.231362304687501,-10.901142721737132,6.8537945197610295,14.768277243485242
545,1788018556.9390152,7.360693359375,-11.140644674862132,6.690933191636029,14.935272259895966
546,1788018556.9494262,7.509184570312501,-11.600488424862132,6.96875545726103,15.476522129648025
547,1788018556.9694262,7.6480957031250005,-11.830410299862132,6.95438534007353,15.710361269094761
548,1788018557.0084114,7.777426757812501,-11.883100729549632,6.724463465073529,15.713524710098289
549,1788018557.0284114,8.050458984375,-12.098652487362132,6.7005132697610295,16.002629782235847
550,1788018557.036871,8.175,-12.103442526424631,6.690933191636029,16.065258571383186
551,1788018557.056871,8.012138671875,-12.069912252987132,6.710093347886029,15.96566630709499
552,1788018557.0673907,7.949868164062501,-11.782509909237131,6.671773035386029,15.701608166775458
553,1788018557.0873907,7.930708007812501,-11.471157370174632,6.556812097886029,15.410235747822863
554,1788018557.1273677,7.911547851562501,-11.356196432674631,6.724463465073529,15.387468788535816
555,1788018557.1473677,8.050458984375,-11.250815573299631,6.74841366038603,15.392590030764492
556,1788018557.157223,8.208530273437502,-11.552588034237132,6.4083208869485295,15.55341879230543
557,1788018557.177223,8.232480468750001,-11.816040182674632,6.44185116038603,15.77624754621639
558,1788018557.1875334,8.1606298828125,-11.667548971737132,6.719673426011029,15.74425577931124
559,1788018557.2075334,7.796586914062501,-11.916631002987131,6.676563074448529,15.727980050120049
560,1788018557.2476132,7.743896484375001,-11.849570456112131,6.499331629136029,15.576314210382664
561,1788018557.2676132,7.863647460937501,-12.017221823299632,6.60950252757353,15.809367330867438
562,1788018557.2781298,7.997768554687501,-11.873520651424633,6.38916073069853,15.676931120498539
563,1788018557.2981298,7.969028320312501,-11.954951315487131,6.552022058823529,15.790986871786078
564,1788018557.3076284,7.667255859375,-11.854360495174632,6.403530847886029,15.502189602843375
565,1788018557.3276284,7.413383789062501,-11.792089987362132,6.14965877757353,15.225962976264197
566,1788018557.3672013,7.662465820312501,-11.715449362362131,6.058648035386029,15.253601287113007
567,1788018557.3872013,7.945078125000001,-11.451997213924631,6.1352886603860295,15.2287318430115
568,1788018557.3972104,7.825327148437501,-11.384936667049631,6.590342371323529,15.306375810885685
569,1788018557.4172103,7.801376953125001,-11.030473776424632,6.4083208869485295,14.953240808842818
570,1788018557.426789,7.758266601562501,-11.265185690487131,6.173608972886029,15.006950291520761
571,1788018557.446789,7.964238281250001,-11.729819479549631,5.79040584788603,15.314912872967403
572,1788018557.4870317,8.246850585937501,-12.199243307674632,5.594014246323529,15.751986454244195
573,1788018557.5070317,8.2947509765625,-12.352524557674633,5.752085535386029,15.952248892163658
574,1788018557.517331,7.964238281250001,-11.887890768612131,5.728135340073529,15.413065003469645
575,1788018557.5373309,7.4469140625,-11.811250143612131,6.106548426011029,15.239819312854586
576,1788018557.547277,7.0158105468750005,-11.566958151424632,6.120918543198529,14.848628297554049
577,1788018557.567277,6.4505859375000005,-11.413676901424632,6.552022058823529,14.656434505243663
578,1788018557.607468,6.1967138671875,-11.34182631548713,6.839424402573529,14.622380554512612
579,1788018557.6274679,6.2110839843750005,-11.806460104549632,6.278989832261029,14.744347316002807
580,1788018557.637655,6.158393554687501,-12.544126120174631,5.804775965073529,15.131964026456028
581,1788018557.657655,6.2110839843750005,-13.358432760799632,6.0490679572610295,15.925341856215415
582,1788018557.6673398,6.0242724609375005,-13.593144674862131,6.518491785386029,16.234413324524166
583,1788018557.6873398,5.660229492187501,-13.094980612362132,6.532861902573529,15.690602275899607
584,1788018557.7277062,5.166855468750001,-12.568076315487131,6.6478228400735295,15.127672862005697
585,1788018557.7477062,4.611210937500001,-12.184873190487131,6.2215093635110295,14.43750600826289
586,1788018557.757579,4.0747265625,-12.429165182674632,5.560483972886029,14.212899975377185
587,1788018557.777579,4.577680664062501,-12.357314596737131,5.01920955882353,14.101448468162758
588,1788018557.786866,5.842250976562501,-12.975229635799632,5.421572840073529,15.227669967368662
589,1788018557.806866,7.063710937500001,-12.860268698299631,5.474263269761029,15.660462366982564
590,1788018557.8475163,8.510302734375001,-12.639926901424632,5.632334558823529,16.245497754349866
591,1788018557.8675163,9.621591796875,-13.085400534237131,6.020327722886029,17.321867155074703
592,1788018557.8770185,9.219228515625002,-13.473393698299631,5.6562847541360295,17.277733340706618
593,1788018557.8970184,8.615683593750001,-13.075820456112131,4.827607996323529,16.386362724969207
594,1788018557.9077141,8.184580078125,-13.588354635799632,5.49821346507353,16.78871895264835
595,1788018557.927714,8.7833349609375,-13.550034323299633,5.97721737132353,17.218522895494747
596,1788018557.9669614,8.658793945312501,-12.817158346737132,6.518491785386029,16.785261267816445
597,1788018557.9869614,8.5965234375,-11.648388815487131,6.45622127757353,15.851434332363922
598,1788018557.997408,9.310239257812501,-11.46157729204963,7.624990808823529,16.61892878298671
599,1788018558.017408,9.861093750000002,-12.266303854549632,8.630899011948529,17.949813312479947
600,1788018558.027538,9.4347802734375,-12.989599752987132,7.476499597886029,17.709964053832483
601,1788018558.047538,10.364047851562502,-14.417031393612131,6.532861902573529,18.91937014575199
602,1788018558.0873246,11.815429687500002,-15.298398581112131,5.455103113511029,20.084907961598127
603,1788018558.1073246,11.983081054687503,-15.873203268612132,5.641914636948529,20.673268109820068
604,1788018558.1170518,11.068183593750001,-15.657651510799631,6.058648035386029,20.10905156677683
605,1788018558.1370518,9.640751953125001,-14.709223776424631,6.125708582261029,18.623363497537326
606,1788018558.147625,8.759384765625,-13.981137838924631,6.652612879136029,17.78921850062335
607,1788018558.167625,8.395341796875,-12.994389792049631,6.757993738511029,16.882132842855913
608,1788018558.207201,8.251640625,-12.271093893612132,6.978335535386029,16.351345057652804
609,1788018558.227201,8.495932617187501,-10.527519674862132,5.991587488511029,14.795562245919607
610,1788018558.2371109,9.142587890625,-10.67601088579963,6.293359949448529,15.400340945084233
611,1788018558.2571108,8.965356445312501,-10.738281393612132,5.5030035041360295,15.03234349815212
612,1788018558.2683816,7.882807617187501,-10.374238424862131,5.34493221507353,14.08303160577317
613,1788018558.2883816,7.844487304687501,-10.527519674862132,6.6478228400735295,14.715916556267095
614,1788018558.3273458,8.208530273437502,-10.177846823299632,6.532861902573529,14.61666240448164
615,1788018558.3473458,8.419291992187501,-10.723911276424632,6.90169491038603,15.281365886280858
616,1788018558.3571486,8.701904296875,-11.600488424862132,7.51960994944853,16.33520749421865
617,1788018558.3771486,8.788125,-11.624438620174631,6.585552332261029,15.991504424874515
618,1788018558.4174023,9.200068359375,-11.677129049862131,7.064556238511029,16.459178457972687
619,1788018558.4374022,10.033535156250002,-11.873520651424633,7.8980230353860295,17.4364872683405
620,1788018558.4469814,9.473100585937502,-12.093862448299632,6.4945415900735295,16.678735386559623
621,1788018558.4669814,9.4635205078125,-11.830410299862132,6.7340435431985295,16.579028038656716
622,1788018558.4779754,9.827563476562501,-11.332246237362131,6.892114832261029,16.507636279344958
623,1788018558.4979753,11.288525390625002,-11.178964987362132,6.432271082261029,17.139841742535
624,1788018558.537721,10.340097656250002,-11.217285299862132,6.62866268382353,16.633829325059352
625,1788018558.557721,9.391669921875001,-10.048515768612132,5.36409237132353,14.763116880983825
626,1788018558.5670578,8.2755908203125,-10.240117331112131,5.881416590073529,14.420002340019773
627,1788018558.5870578,7.4469140625,-9.952714987362132,5.814356043198529,13.722966183409559
628,1788018558.5980964,6.096123046875,-9.919184713924631,5.632334558823529,12.93352752245552
629,1788018558.6180964,5.181225585937501,-9.818593893612132,5.565274011948529,12.41862147938009
630,1788018558.6571786,4.611210937500001,-9.306059713924633,5.555693933823529,11.778444243429359
631,1788018558.6771786,3.2843701171875006,-9.555141745174632,6.073018152573529,11.78852706314664
632,1788018558.6870224,3.5526123046875004,-9.320429831112133,6.178399011948529,11.733033741319785
633,1788018558.7070224,4.0747265625,-9.205468893612133,6.54244198069853,12.006148474061536
634,1788018558.7170331,4.726171875,-9.368330221737132,6.7675738166360295,12.486086941038488
635,1788018558.7370331,5.502158203125001,-8.884536276424633,6.666982996323529,12.39586189067094
636,1788018558.7767868,6.3308349609375005,-8.764785299862133,7.289688074448529,13.039957242186993
637,1788018558.7967868,7.011020507812501,-8.841425924862133,7.67289119944853,13.645456397803862
638,1788018558.8097687,7.638515625000001,-9.617412252987133,8.19979549632353,14.767470520668184
639,1788018558.8297687,7.2553125000000005,-9.689262838924632,7.974663660386029,14.49540045430631
640,1788018558.837557,6.048222656250001,-9.535981588924633,8.367446863511029,14.054540518194324
641,1788018558.857557,5.281816406250001,-10.551469870174632,10.178081629136031,15.582825373464566
642,1788018558.896782,5.214755859375001,-11.413676901424632,10.178081629136031,16.15732170665536
643,1788018558.916782,5.435097656250001,-10.834082174862132,8.50156795726103,14.805211272945995
644,1788018558.9272554,5.9763720703125,-10.723911276424632,8.65005916819853,15.018083093416886
645,1788018558.9472554,7.331953125000001,-9.741953268612132,7.921973230698529,14.540318083966525
646,1788018558.957584,7.9402880859375005,-10.067675924862131,8.41055721507353,15.334397480297522
647,1788018558.977584,7.140351562500001,-11.087954245174632,8.645269129136029,15.769211397351954
648,1788018559.0175245,10.867001953125001,-10.211377096737131,8.616528894761029,17.222326319497085
649,1788018559.0375245,5.765610351562501,-10.968203268612132,8.420137293198529,14.981403729422393
650,1788018559.047338,4.1417871093750005,-10.858032370174632,6.02990780101103,13.092404496494856
651,1788018559.067338,4.702221679687501,-11.279555807674631,5.335352136948529,13.334363515691736
652,1788018559.0774224,4.970463867187501,-11.58132826861213,5.493423426011029,13.748104467810018
653,1788018559.0974224,5.2530761718750005,-11.064004049862131,5.009629480698529,13.232663466466997
654,1788018559.1374764,5.3057666015625005,-12.223193502987131,6.52328182444853,14.836132393683451
655,1788018559.1574764,5.760820312500001,-12.146552877987132,6.470591394761029,14.919596190534298
656,1788018559.1684766,5.674599609375001,-11.883100729549632,6.1017583869485295,14.513463373297176
657,1788018559.1884766,5.679389648437501,-11.677129049862131,6.54244198069853,14.540094796689587
658,1788018559.2294762,5.444677734375,-11.351406393612132,6.896904871323529,14.355007472942098
659,1788018559.2494762,5.1524853515625,-11.667548971737132,6.959175379136029,14.529622371676542
660,1788018559.2574766,5.8709912109375,-11.03526381548713,6.480171472886029,14.079709073496897
661,1788018559.2774765,5.449467773437501,-11.068794088924632,6.892114832261029,14.132096392885918
662,1788018559.2946684,4.783652343750001,-11.313086081112132,6.3412603400735295,13.823198946883004
663,1788018559.3146684,5.502158203125001,-11.58132826861213,6.59513241038603,14.418622710512071
664,1788018559.317136,5.995532226562501,-11.590908346737132,7.43338924632353,15.018350064822975
665,1788018559.337136,5.9907421875,-11.111904440487132,6.997495691636029,14.433584385247993
666,1788018559.377296,5.779980468750001,-10.565839987362132,6.513701746323529,13.692094773909881
667,1788018559.397296,6.287724609375001,-10.546679831112131,7.87407284007353,14.586602048253427
668,1788018559.407296,6.991860351562501,-10.254487448299631,7.763901941636029,14.639631052810932
669,1788018559.427296,6.225454101562501,-11.212495260799631,7.026235926011029,14.623416838484898
670,1788018559.4372964,5.6841796875,-12.448325338924631,6.72925350413603,15.249706724603843
671,1788018559.4572964,6.00990234375,-12.510595846737132,5.589224207261029,14.962398265680566
672,1788018559.4967337,6.4170556640625005,-14.177529440487131,6.623872644761029,16.913208839412153
673,1788018559.5167336,6.603867187500001,-14.651743307674632,7.510029871323529,17.73936843442571
674,1788018559.53875,5.756030273437501,-13.880547018612132,7.0070757697610295,16.580126081782467
675,1788018559.55875,7.676835937500001,-11.212495260799631,6.087388269761029,14.889934718848497
676,1788018559.556738,7.892387695312501,-9.291689596737132,7.80701229319853,14.476695757022256
677,1788018559.5767379,4.9177734375,-10.858032370174632,7.38069881663603,14.019845846379097
678,1788018559.6230974,1.5120556640625005,-13.784746237362132,7.423809168198529,15.729541751924037
679,1788018559.6430974,4.457929687500001,-14.464931784237132,3.8216997931985293,15.611302890235049
680,1788018559.6470973,5.554848632812501,-16.687509909237132,11.01154842601103,20.750506717734204
681,1788018559.6670973,0.5875781250000004,-11.087954245174632,1.5943316291360294,11.217391440960247
682,1788018559.6770017,9.707812500000001,-14.943935690487132,8.63568905101103,19.8024736546302
683,1788018559.6970017,13.544633789062502,-13.238681784237132,7.342378504136029,20.31330406315291
684,1788018559.7373683,7.7199462890625,-7.931318502987133,1.6422320197610294,11.189294433008916
685,1788018559.7573683,5.042314453125001,-11.480737448299632,8.78418026194853,15.309934365482727
686,1788018559.7693684,7.034970703125,-7.140962057674632,4.880298426011029,11.149056669956499
687,1788018559.7893684,8.5198828125,-6.820029440487133,6.518491785386029,12.711881838028125
688,1788018559.8273673,8.495932617187501,-10.072465963924632,9.847568933823531,16.45022964996589
689,1788018559.8473673,8.194160156250001,-9.253369284237133,4.95214901194853,13.315137386196248
690,1788018559.8571908,8.725854492187501,-12.711777487362133,9.30150448069853,18.00688227071778
691,1788018559.8771908,10.047905273437502,-12.424375143612131,9.67991756663603,18.682245640983552
692,1788018559.887073,10.100595703125002,-10.005405417049632,5.828726160386029,15.36568318592707
693,1788018559.907073,9.295869140625001,-10.843662252987132,7.46691951976103,16.116857052510905
694,1788018559.9464278,9.214438476562501,-10.541889792049632,6.20234920726103,15.313603511743644
695,1788018559.9664278,8.203740234375001,-11.873520651424633,6.54244198069853,15.845674285549256
696,1788018559.9773414,7.0493408203125005,-12.970439596737132,8.05609432444853,16.817436341426788
697,1788018559.9973414,6.881689453125,-12.261513815487131,6.37000057444853,15.436297421827176
698,1788018560.0093415,7.609775390625001,-11.753769674862133,6.57597225413603,15.46942772544083
699,1788018560.0293415,7.868437500000001,-11.404096823299632,7.524399988511029,15.766493847197092
700,1788018560.0673425,8.548623046875,-9.928764792049632,6.499331629136029,14.625342318007288
701,1788018560.0873425,9.214438476562501,-9.90481459673713,6.805894129136029,15.143692532902953
702,1788018560.1053412,9.410830078125,-9.976665182674632,6.757993738511029,15.289475147835805
703,1788018560.1253412,8.8887158203125,-9.291689596737132,6.858584558823529,14.573432905356217
704,1788018560.127342,8.749804687500001,-8.458222799862133,7.48128963694853,14.285317974529587
705,1788018560.147342,8.548623046875,-7.557695456112133,7.917183191636029,13.888106649029755
706,1788018560.1875694,7.672045898437501,-6.867929831112132,7.51960994944853,12.750422825328457
707,1788018560.2075694,7.863647460937501,-7.217602682674633,7.85970272288603,13.255401418553982
708,1788018560.2241285,8.606103515625001,-7.912158346737132,7.457339441636029,13.866476804627608
709,1788018560.2441285,9.406040039062502,-9.109668112362133,6.925645105698529,14.812974126215181
710,1788018560.247352,10.330517578125002,-10.029355612362131,7.58667049632353,16.27467777410525
711,1788018560.2673519,10.435898437500002,-10.968203268612132,7.6920513556985295,16.981669917829414
712,1788018560.3071158,8.083989257812501,-11.753769674862133,7.098086511948529,15.933763397930893
713,1788018560.3271158,7.212202148437501,-12.208823385799631,6.504121668198529,15.600475216169029
714,1788018560.3372157,7.935498046875001,-13.238681784237132,7.08850643382353,16.98475045735458
715,1788018560.3572156,9.204858398437501,-13.339272604549631,7.797432215073529,17.98514834251973
716,1788018560.3671825,9.521000976562501,-12.146552877987132,8.099204676011029,17.42943839592545
717,1788018560.3871825,8.539042968750001,-10.134736471737131,6.753203699448529,14.87393352075916
718,1788018560.4272115,9.549741210937501,-10.26406752642463,7.270527918198529,15.792695007255315
719,1788018560.4472115,7.969028320312501,-9.430600729549633,7.404649011948529,14.396890965770183
720,1788018560.4592144,3.6867333984375006,-7.701396627987132,4.909038660386029,9.848968156202494
721,1788018560.4792144,5.368037109375001,-7.260713034237132,5.48384334788603,10.564388957120139
722,1788018560.4872448,7.0685009765625,-5.905131979549632,6.2885699103860295,11.152596167232872
723,1788018560.5072448,6.886479492187501,-7.471474752987133,7.802222254136029,12.810979934563111
724,1788018560.5469856,6.359575195312501,-8.922856588924633,4.243223230698529,11.750170626713869
725,1788018560.5669856,6.048222656250001,-16.15102553423713,10.671455652573531,20.28094151788815
726,1788018560.5773592,7.346323242187501,-10.570630026424631,0.3010210822610293,12.876229961685986
727,1788018560.5973592,10.799941406250001,-16.356997213924632,5.1772808478860295,20.272995072575217
728,1788018560.607359,14.478691406250002,-18.287382956112133,6.676563074448529,24.261850191360256
729,1788018560.627359,13.626064453125002,-16.941381979549632,3.2660552619485292,21.985158012437108
730,1788018560.6667984,11.484916992187502,-17.94729018267463,5.392832605698529,21.97933544790769
731,1788018560.6867983,12.538725585937502,-14.570312643612132,4.4252447150735295,19.72552763908569
732,1788018560.6969454,10.268247070312501,-12.922539206112132,5.91015682444853,17.531653405200036
733,1788018560.7169454,8.7545947265625,-11.207705221737132,5.6898150275735295,15.317623190681749
734,1788018560.727467,7.456494140625001,-8.898906393612133,4.789287683823529,12.55894567190533
735,1788018560.747467,3.9501855468750007,-9.215048971737133,7.203467371323529,12.345486445498066
736,1788018560.7872705,2.1874511718750003,-8.554023581112133,7.3663286994485295,11.498654728440142
737,1788018560.8072705,2.1443408203125003,-8.793525534237133,7.22741756663603,11.582739466873026
738,1788018560.8173194,2.0197998046875005,-8.611504049862132,5.579644129136029,10.458012328335139
739,1788018560.8373194,2.1730810546875006,-9.741953268612132,5.27787166819853,11.290875258545595
740,1788018560.8476503,2.9825976562500007,-13.813486471737132,7.663311121323529,16.075902295863013
741,1788018560.8676503,5.20517578125,-15.102006979549632,5.526953699448529,16.90300822102164
742,1788018560.9073787,6.527226562500001,-15.672021627987132,4.051621668198529,17.453727013120087
743,1788018560.9273787,4.443559570312501,-17.12819350298713,5.589224207261029,18.556930284120785
744,1788018560.9378457,3.7969042968750006,-16.27556654986213,5.10543026194853,17.47500978306561
745,1788018560.9578457,4.429189453125001,-15.044526510799631,5.3832525275735295,16.581161145150645
746,1788018560.966752,5.674599609375001,-14.594262838924632,7.442969324448529,17.337571366919217
747,1788018560.986752,4.7118017578125,-11.70107924517463,4.760547449448529,13.482549585491327
748,1788018561.0276866,3.8112744140625003,-12.208823385799631,7.217837488511029,14.685991935701539
749,1788018561.0476866,5.506948242187501,-11.892680807674632,7.4190191291360295,15.06001927534792
750,1788018561.0571465,4.788442382812501,-10.283227682674632,3.7785894416360293,11.95624063808036
751,1788018561.0771465,6.16318359375,-11.926211081112132,5.455103113511029,14.49060015115139
752,1788018561.0873547,9.027626953125,-11.921421042049632,6.25024959788603,16.207527513550215
753,1788018561.1073546,13.012939453125002,-12.271093893612132,6.35563045726103,18.981843352683274
754,1788018561.1472957,10.282617187500001,-8.539653463924633,5.91015682444853,14.614645093130587
755,1788018561.1672957,4.5585205078125,-6.173374167049633,2.2697271369485295,8.002644506832942
756,1788018561.1781151,9.3964599609375,-19.26455092486213,5.632334558823529,22.161669041762757
757,1788018561.198115,5.329716796875001,-17.372485495174633,4.727017176011029,18.776416718779114
758,1788018561.237243,3.0640283203125005,-15.307978659237131,1.4458404181985294,15.678422583099136
759,1788018561.257243,4.855502929687501,-18.062251120174633,5.651494715073529,19.538685133420767
760,1788018561.267369,4.8459228515625,-12.467485495174632,4.008511316636029,13.963857841989247
761,1788018561.287369,6.000322265625001,-11.092744284237131,4.2528033088235295,13.309364336074472
762,1788018561.2973578,5.1716455078125,-14.364340963924631,6.76278377757353,16.69776790497976
763,1788018561.3173578,2.1443408203125003,-13.324902487362131,4.74617733226103,14.30655175507489
764,1788018561.3567731,0.6977490234375004,-16.476748190487132,5.201231043198529,17.292278305566363
765,1788018561.376773,-0.05428710937499964,-17.31979506548713,2.758311121323529,17.538144954433857
766,1788018561.3877497,3.0831884765625004,-16.055224752987133,4.238433191636029,16.88906773539915
767,1788018561.4077497,5.847041015625001,-15.691181784237132,5.905366785386029,17.755968892018164
768,1788018561.4167333,7.691206054687501,-13.981137838924631,2.945122644761029,16.226540396503378
769,1788018561.4367332,7.624145507812501,-16.14144545611213,4.841978113511029,18.496448529073366
770,1788018561.4768865,6.7619384765625,-16.01690444048713,3.4193365119485293,17.718829024471596
771,1788018561.4968865,7.216992187500001,-14.503252096737132,2.2457769416360294,16.35459604171042
772,1788018561.5082796,8.452822265625,-16.098335104549633,4.161792566636029,18.652804474403514
773,1788018561.5282795,7.8875976562500005,-14.177529440487131,2.8541119025735293,16.473083881750004
774,1788018561.537279,9.2096484375,-14.167949362362132,3.040923426011029,17.169613529711913
775,1788018561.5572789,8.965356445312501,-14.694853659237133,3.2804253791360294,17.52362779010046
776,1788018561.5978606,8.256430664062501,-13.981137838924631,2.753521082261029,16.468841517603405
777,1788018561.6178606,7.997768554687501,-14.881665182674633,4.300703699448529,17.433425158987802
778,1788018561.6270661,8.179790039062501,-15.676811667049632,2.916382410386029,17.92140272107344
779,1788018561.647066,8.1223095703125,-15.753452292049632,2.1739263556985295,17.85690700188234
780,1788018561.658112,8.644423828125001,-16.45279799517463,3.467236902573529,18.90614600940248
781,1788018561.678112,8.390551757812501,-15.351089010799631,3.2660552619485292,17.796752782238826
782,1788018561.7172406,8.38576171875,-15.149907370174631,2.9307525275735293,17.562175358035894
783,1788018561.7372406,8.1223095703125,-16.371367331112133,4.607266199448529,18.847293781303897
784,1788018561.7475789,7.5810351562500005,-14.527202292049632,2.394268152573529,16.560320662984108
785,1788018561.7675788,8.414501953125,-15.710341940487131,3.927080652573529,18.249401345194606
786,1788018561.7771401,10.316147460937502,-12.026801901424632,4.841978113511029,16.56839203011681
787,1788018561.7971401,11.556767578125003,-12.453115377987132,4.401294519761029,17.550223728543727
788,1788018561.8379624,9.865883789062503,-14.996626120174632,2.3751079963235293,18.107335417498355
789,1788018561.8579624,8.34744140625,-17.497026510799632,1.7284527228860294,19.463125739861372
790,1788018561.8972902,7.643305664062501,-18.526884909237133,2.0589654181985293,20.1470822827462
791,1788018561.9172902,5.574008789062501,-18.493354635799633,2.3367876838235295,19.455958376427184
792,1788018561.8982904,6.230244140625,-18.229902487362132,4.4587749885110295,19.774376378250103
793,1788018561.9182904,6.704458007812501,-15.873203268612132,2.806211511948529,17.458040045634917
794,1788018561.9571788,8.357021484375,-14.383501120174632,2.825371668198529,16.873281768163217
795,1788018561.9771788,9.679072265625,-13.990717917049631,4.794077722886029,17.675061781241862
796,1788018561.9871566,10.028745117187501,-12.472275534237133,3.414546472886029,16.364367181255155
797,1788018562.0071566,9.908994140625001,-14.776284323299631,3.8216997931985293,18.19703636835583
798,1788018562.0168705,9.0132568359375,-14.987046042049633,2.9738628791360293,17.73962255181865
799,1788018562.0368705,9.4347802734375,-14.273330221737131,3.869600183823529,17.541859650830837
800,1788018562.07717,9.894624023437501,-14.800234518612132,3.936660730698529,18.23315178677917
801,1788018562.0971699,10.469428710937501,-14.881665182674633,2.8636919806985293,18.41938185452894
802,1788018562.1081874,8.357021484375,-16.491118307674633,4.995259363511029,19.150702525932864
803,1788018562.1281874,7.470864257812501,-13.166831198299631,2.0733355353860294,15.27998615200522
804,1788018562.1366286,7.197832031250001,-15.269658346737131,4.636006433823529,17.50610772360951
805,1788018562.1566286,7.140351562500001,-15.710341940487131,4.573735926011029,17.85268956331256
806,1788018562.196928,6.943959960937501,-14.038618307674632,3.601357996323529,16.07081713371675
807,1788018562.216928,4.7597021484375,-12.309414206112132,7.471709558823529,15.165846048634762
808,1788018562.229842,1.0857421875000004,-8.874956198299632,6.140078699448529,10.846393412322636
809,1788018562.249842,8.46240234375,-9.018657370174633,6.451431238511029,13.948813541421604
810,1788018562.2588587,7.0876611328125,-13.641045065487132,7.0597661994485295,16.916067793760693
811,1788018562.2788587,6.335625,-14.076938620174632,4.497095301011029,16.078688105786632
812,1788018562.3172085,6.891269531250001,-12.946489401424632,6.06343807444853,15.870301347365999
813,1788018562.3372085,5.420727539062501,-12.443535299862132,6.068228113511029,14.867725120181339
814,1788018562.3470986,5.712919921875001,-13.976347799862133,5.325772058823529,16.010608979018027
815,1788018562.3670986,6.2637744140625005,-14.848134909237132,5.435942957261029,17.00739415747651
816,1788018562.4071221,6.345205078125001,-13.569194479549632,4.894668543198529,15.758884683094825
817,1788018562.427122,5.712919921875001,-13.104560690487132,5.6227544806985295,15.36171646902234
818,1788018562.4371216,6.019482421875001,-13.296162252987132,5.991587488511029,15.777237398147493
819,1788018562.4571216,6.148813476562501,-13.463813620174632,5.095850183823529,15.654068910808169
820,1788018562.4670384,6.685297851562501,-13.114140768612131,6.432271082261029,16.063872719203562
821,1788018562.4870384,7.111611328125001,-12.462695456112131,6.513701746323529,15.758239246634504
822,1788018562.4980505,6.4170556640625005,-11.734609518612132,5.847886316636029,14.597172271446205
823,1788018562.5180504,5.985952148437501,-11.418466940487132,6.705303308823529,14.531830678125207
824,1788018562.5579433,7.4612841796875005,-11.327456198299632,5.799985926011029,14.75201214331041
825,1788018562.5779433,8.802495117187501,-12.036381979549631,5.3832525275735295,15.853637412952388
826,1788018562.5877223,7.025390625000001,-12.855478659237132,5.6227544806985295,15.691870919114605
827,1788018562.6077223,6.076962890625,-14.685273581112131,5.110220301011029,16.694343043408704
828,1788018562.6478858,5.095004882812501,-15.930683737362132,5.067109949448529,17.47630860151931
829,1788018562.6678858,5.291396484375,-15.336718893612131,5.167700769761029,17.02700661955366
830,1788018562.6772337,5.765610351562501,-13.957187643612132,5.220391199448529,15.978042243038521
831,1788018562.6972337,6.134443359375001,-13.736845846737133,5.273081629136029,15.941697494744126
832,1788018562.7072344,6.46974609375,-14.057778463924631,5.268291590073529,16.34728253063536
833,1788018562.7272344,6.752358398437501,-14.014668112362132,5.594014246323529,16.53173498543574
834,1788018562.7675917,7.125981445312501,-13.765586081112131,4.870718347886029,16.247918911044568
835,1788018562.7875917,7.130771484375001,-14.086518698299631,4.990469324448529,16.558462944312875
836,1788018562.7976506,7.212202148437501,-13.612304831112132,5.589224207261029,16.38749919554774
837,1788018562.8176506,7.3750634765625005,-12.778838034237133,6.0490679572610295,15.946206004569044
838,1788018562.8271923,7.6145654296875005,-12.515385885799631,5.814356043198529,15.761447482720103
839,1788018562.8471923,7.389433593750001,-12.774047995174632,5.708975183823529,15.823161146527548
840,1788018562.8870564,7.1547216796875,-12.845898581112131,5.694605066636029,15.768185676702496
841,1788018562.9070563,7.011020507812501,-12.740517721737131,5.455103113511029,15.53168858681834
842,1788018562.9174714,5.981162109375001,-12.754887838924631,5.94368709788603,15.29015631966356
843,1788018562.9374714,6.8481591796875,-13.047080221737131,6.686143152573529,16.181103074867558
844,1788018562.9470773,6.378735351562501,-12.477065573299631,5.761665613511029,15.151310855751309
845,1788018562.9670773,6.867319335937501,-12.18008315142463,5.325772058823529,14.962564902445859
846,1788018563.0086665,7.739106445312501,-13.157251120174632,6.484961511948529,16.584985722715224
847,1788018563.0286665,6.584707031250001,-12.050752096737131,5.3305620978860295,14.730712306736109
848,1788018563.036997,6.651767578125001,-11.543007956112131,6.26940975413603,14.723876638084105
849,1788018563.056997,7.331953125000001,-11.044843893612132,6.23587948069853,14.650334677380426
850,1788018563.0674243,7.796586914062501,-10.479619284237131,5.632334558823529,14.224358700257921
851,1788018563.0874243,8.136679687500001,-10.599370260799631,5.967637293198529,14.634373957422046
852,1788018563.1269307,8.3330712890625,-10.848452292049632,5.373672449448529,14.697120460669732
853,1788018563.1469307,8.357021484375,-12.050752096737131,5.440732996323529,15.641675412966583
854,1788018563.1572933,8.208530273437502,-12.941699362362131,5.12459041819853,16.159485715516954
855,1788018563.1772933,7.925917968750001,-14.052988424862132,4.521045496323529,16.755491986106836
856,1788018563.1878011,7.878017578125001,-15.173857565487133,4.4923052619485295,17.677384448652692
857,1788018563.207801,8.261220703125002,-15.001416159237133,4.468355066636029,17.69905227095208
858,1788018563.2472034,7.537924804687501,-15.020576315487132,4.870718347886029,17.49748326002713
859,1788018563.2672033,6.397895507812501,-14.761914206112133,4.4252447150735295,16.686220924636856
860,1788018563.277576,5.55005859375,-15.054106588924633,5.07189998851103,16.827163904776718
861,1788018563.297576,5.061474609375001,-14.742754049862132,5.067109949448529,16.39033024181863
862,1788018563.3071969,5.334506835937501,-13.971557760799632,4.880298426011029,15.731455818612279
863,1788018563.3271968,4.788442382812501,-14.852924948299632,5.55090389476103,16.563547144926712
864,1788018563.3673956,4.8650830078125,-14.484091940487131,4.789287683823529,16.012346128279077
865,1788018563.3873956,5.6506494140625,-14.354760885799632,4.83239803538603,16.166046816136923
866,1788018563.427798,6.733198242187501,-14.230219870174631,5.052739832261029,16.533762304285947
867,1788018563.447798,7.911547851562501,-14.206269674862131,4.889878504136029,16.980035314088198
868,1788018563.427798,9.0611572265625,-14.599052877987132,5.3305620978860295,17.99032538611154
869,1788018563.447798,9.1952783203125,-14.833764792049632,4.640796472886029,18.059089489689445
870,1788018563.4873233,9.171328125,-15.049316549862132,4.171372644761029,18.110647087716963
871,1788018563.5073233,9.72697265625,-14.541572409237132,4.180952722886029,17.987542657615293
872,1788018563.517352,10.387998046875001,-13.353642721737131,3.7354790900735293,17.3258212328899
873,1788018563.537352,11.695678710937502,-12.860268698299631,3.673208582261029,17.767044571079854
874,1788018563.5479605,11.499287109375002,-12.572866354549632,3.2133648322610293,17.338866339481832
875,1788018563.5679605,11.484916992187502,-16.356997213924632,3.079243738511029,20.222176395604276
876,1788018563.6077673,10.023955078125002,-17.00844252642463,0.11899959788602929,19.742870953517752
877,1788018563.6277673,10.273037109375002,-18.043090963924634,2.868482019761029,20.959881013038864
878,1788018563.637149,11.360375976562501,-18.182002096737133,5.196441004136029,22.060062141437367
879,1788018563.657149,12.236953125000001,-15.590590963924631,2.2888872931985293,19.95115418788651
880,1788018563.6670513,12.184262695312501,-15.710341940487131,3.6157281135110293,20.207537977355056
881,1788018563.6870513,12.399814453125002,-14.599052877987132,2.3463677619485295,19.297491678467008
882,1788018563.7452347,11.983081054687503,-15.236128073299632,3.601357996323529,19.715567697808833
883,1788018563.7652347,11.216674804687502,-15.336718893612131,3.951030847886029,19.40719930481309
884,1788018563.7572353,9.956894531250002,-14.747544088924633,2.5714995978860293,17.978943671504734
885,1788018563.7772353,9.113847656250002,-15.274448385799632,3.5295074103860293,18.13362664090558
886,1788018563.787025,8.950986328125001,-13.966767721737131,3.500767176011029,16.95423627474488
887,1788018563.807025,8.558203125,-13.530874167049632,4.38692440257353,16.600376567029613
888,1788018563.8470962,8.471982421875001,-13.890127096737132,5.03836971507353,17.032183838423077
889,1788018563.8670962,8.936616210937501,-13.171621237362132,4.640796472886029,16.57985848024257
890,1788018563.8779163,9.214438476562501,-13.080610495174632,5.325772058823529,16.86333583213516
891,1788018563.8979163,9.68865234375,-12.400424948299632,4.482725183823529,16.362620456704054
892,1788018563.907604,10.469428710937501,-12.366894674862131,4.315073816636029,16.768091229342524
893,1788018563.927604,11.465756835937501,-12.357314596737131,4.913828699448529,17.558830153262036
894,1788018563.9671628,10.249086914062502,-13.530874167049632,4.88508846507353,17.663307380219955
895,1788018563.9871628,10.843051757812502,-13.521294088924632,4.621636316636029,17.937577526105304
896,1788018563.998054,10.507749023437501,-12.860268698299631,5.10543026194853,17.37425447872906
897,1788018564.018054,9.755712890625,-13.118930807674632,6.111338465073529,17.45361674196923
898,1788018564.0568962,8.931826171875,-11.643598776424632,4.018091394761029,15.214991609843267
899,1788018564.0768962,8.721064453125,-11.226865377987131,4.822817957261029,15.01196337791583
900,1788018564.087172,9.214438476562501,-10.86282240923713,4.899458582261029,15.063581298359003
901,1788018564.107172,9.085107421875001,-11.835200338924631,5.373672449448529,15.858357403068329
902,1788018564.1169455,8.4767724609375,-13.521294088924632,5.2970318244485295,16.814862810707588
903,1788018564.1369455,8.615683593750001,-14.354760885799632,5.100640222886029,17.501591200785683
904,1788018564.1771095,8.658793945312501,-14.043408346737131,5.55090389476103,17.407026300590797
905,1788018564.1971095,8.4001318359375,-13.550034323299633,5.694605066636029,16.92909247091189
906,1788018564.2070587,7.791796875000001,-13.377592917049633,4.995259363511029,16.267289476255744
907,1788018564.2270586,6.8625292968750005,-13.918867331112132,4.736597254136029,16.225428489856814
908,1788018564.2365587,6.958330078125001,-14.426611471737132,4.827607996323529,16.728755930993895
909,1788018564.2565587,7.801376953125001,-14.311650534237131,4.602476160386029,16.937166533567577
910,1788018564.2970202,8.270800781250001,-14.608632956112132,6.240669519761029,17.909892754129082
911,1788018564.3170202,7.624145507812501,-14.086518698299631,6.020327722886029,17.11145667828408
912,1788018564.3277488,7.351113281250001,-12.615976706112132,3.740269129136029,15.072867938162998
913,1788018564.3477488,7.782216796875001,-12.869848776424632,4.43961483226103,15.681392975766986
914,1788018564.3568165,8.3330712890625,-13.478183737362132,6.571182215073529,17.15464804857242
915,1788018564.3768165,8.1223095703125,-13.042290182674632,5.51737362132353,16.325276648264122
916,1788018564.4170861,7.810957031250001,-13.348852682674632,4.870718347886029,16.2150181903141
917,1788018564.437086,8.725854492187501,-13.334482565487132,5.119800379136029,16.738020128746125
918,1788018564.447761,10.258666992187502,-12.865058737362132,5.239551355698529,17.268551855363476
919,1788018564.467761,8.8791357421875,-14.297280417049631,6.33647030101103,17.9833849630023
920,1788018564.4774683,7.370273437500001,-13.099770651424631,4.6982769416360295,15.747975358240595
921,1788018564.4974682,7.140351562500001,-12.649506979549631,4.909038660386029,15.332752780598
922,1788018564.5372434,7.466074218750001,-13.770376120174632,5.694605066636029,16.667154814062176
923,1788018564.5572433,7.4804443359375,-13.420703268612131,4.564155847886029,16.028220184755014
924,1788018564.5673292,8.328281250000002,-15.010996237362132,5.641914636948529,18.069905295485523
925,1788018564.5873291,8.2276904296875,-14.752334127987131,4.477935144761029,17.47507239444893
926,1788018564.5969808,8.630053710937501,-14.872085104549631,5.086270105698529,17.931170792749583
927,1788018564.6169808,7.628935546875001,-14.848134909237132,5.651494715073529,17.62405062338915
928,1788018564.657745,8.165419921875001,-14.048198385799632,5.43115291819853,17.13252411083063
929,1788018564.6777449,8.759384765625,-12.951279440487133,5.067109949448529,16.435877337630878
930,1788018564.687678,8.548623046875,-14.000297995174632,5.512583582261029,17.305371354081572
931,1788018564.707678,8.836025390625,-13.324902487362131,5.61796444163603,16.946678006882824
932,1788018564.717324,8.7545947265625,-12.797998190487132,6.111338465073529,16.66673766352477
933,1788018564.737324,9.003676757812501,-12.132182760799632,4.86592830882353,15.872407253067413
934,1788018564.789183,8.701904296875,-13.061450338924631,5.526953699448529,16.639466353943376
935,1788018564.809183,9.377299804687501,-12.778838034237133,5.162910730698529,16.669976015142307
936,1788018564.807183,9.1330078125,-13.583564596737132,5.72334530101103,17.34017705479161
937,1788018564.827183,9.099477539062502,-13.147671042049632,5.172490808823529,16.805249372776867
938,1788018564.8371835,8.433662109375001,-12.635136862362131,5.4167828010110295,16.128077257350263
939,1788018564.8571835,8.136679687500001,-12.726147604549631,6.020327722886029,16.26052690046388
940,1788018564.897395,8.2899609375,-12.999179831112132,5.488633386948529,16.36542773908444
941,1788018564.9173949,9.338979492187502,-12.726147604549631,5.407202722886029,16.685598943240517
942,1788018564.9281597,9.4252001953125,-13.123720846737132,6.38916073069853,17.37491935024453
943,1788018564.9481597,8.390551757812501,-12.424375143612131,5.646704676011029,16.020353623057833
944,1788018564.9569345,8.2660107421875,-11.351406393612132,5.268291590073529,14.997875082188711
945,1788018564.9769344,8.855185546875001,-11.768139792049631,6.1017583869485295,15.941608471151916
946,1788018565.0177913,8.4097119140625,-11.734609518612132,5.36409237132353,15.40122728875587
947,1788018565.0377913,8.031298828125001,-12.232773581112133,6.005957605698529,15.818155300629874
948,1788018565.0472093,8.4671923828125,-13.315322409237131,6.484961511948529,17.060066926039426
949,1788018565.0672092,8.495932617187501,-13.142881002987131,5.73771541819853,16.66846034625585
950,1788018565.0772126,8.3618115234375,-12.927329245174631,5.526953699448529,16.357962909925163
951,1788018565.0972126,8.994096679687502,-13.492553854549632,5.97721737132353,17.28206909214113
952,1788018565.1369944,9.142587890625,-13.185991354549632,6.360420496323529,17.26013413128974
953,1788018565.1569943,8.232480468750001,-12.251933737362132,5.5030035041360295,15.753306400232177
954,1788018565.1671908,7.585825195312501,-11.351406393612132,5.469473230698529,14.70762755947077
955,1788018565.1871908,6.311674804687501,-11.260395651424632,5.0910601447610295,13.87633389855995
956,1788018565.1979468,6.278144531250001,-12.290254049862131,5.694605066636029,14.929633961700922
957,1788018565.2179468,9.018046875000001,-12.735727682674632,5.186860926011029,16.444678632090145
958,1788018565.2574089,10.895742187500002,-13.890127096737132,5.89099666819853,18.610660125978995
959,1788018565.2774088,10.397578125000003,-14.680483542049632,5.34493221507353,18.766846519263687
960,1788018565.2869039,9.477890625,-14.326020651424631,4.727017176011029,17.816003193387992
961,1788018565.3069038,8.5198828125,-13.961977682674632,5.24434139476103,17.176389044704404
962,1788018565.316858,7.801376953125001,-13.990717917049631,5.85746639476103,17.056130357292602
963,1788018565.336858,9.2527587890625,-13.789536276424633,4.650376551011029,17.24502415172555
964,1788018565.3775268,10.598759765625003,-14.153579245174631,4.2528033088235295,18.186364397603217
965,1788018565.3975267,9.908994140625001,-17.26231459673713,5.8622564338235295,20.749499285803736
966,1788018565.4071553,8.620473632812502,-15.116377096737132,3.2995855353860293,17.711710445072864
967,1788018565.4271553,7.542714843750001,-15.466049948299633,6.120918543198529,18.263539964363353
968,1788018565.4676833,8.146259765625,-13.641045065487132,4.808447840073529,16.60002497824625
969,1788018565.4876833,8.179790039062501,-13.626674948299632,5.708975183823529,16.887499308046642
970,1788018565.496873,8.2755908203125,-12.477065573299631,4.703066980698529,15.693355529350509
971,1788018565.516873,8.553413085937501,-12.410005026424631,5.119800379136029,15.91796017386565
972,1788018565.5272045,9.693442382812501,-11.456787252987132,5.22518123851103,15.890982297026254
973,1788018565.5472045,9.094687500000001,-11.495107565487132,5.445523035386029,15.63664157655651
974,1788018565.5871537,8.591733398437501,-11.519057760799631,5.129380457261029,15.258345859292742
975,1788018565.6071537,8.074409179687501,-12.247143698299631,4.95214901194853,15.48264810051449
976,1788018565.6171584,8.194160156250001,-12.951279440487133,4.157002527573529,15.87956453515374
977,1788018565.6371584,7.969028320312501,-14.987046042049633,4.50667537913603,17.56209225603171
978,1788018565.6486254,8.711484375000001,-14.172739401424632,4.52583553538603,17.240640633396612
979,1788018565.6686254,8.6396337890625,-13.617094870174633,4.808447840073529,16.828241599856906
980,1788018565.7077744,7.3271630859375,-13.425493307674632,5.507793543198529,16.25629044883367
981,1788018565.7277744,7.6001953125,-13.147671042049632,5.2635015510110295,16.072606235318307
982,1788018565.7374184,7.997768554687501,-13.454233542049632,5.282661707261029,16.51929831353994
983,1788018565.7574184,9.109057617187501,-13.511714010799631,5.287451746323529,17.13179769179465
984,1788018565.767366,9.918574218750003,-14.244589987362131,4.995259363511029,18.062089429234213
985,1788018565.787366,10.038325195312503,-14.555942526424632,5.07189998851103,18.394771133473803
986,1788018565.8270097,9.698232421875002,-15.216967917049631,4.995259363511029,18.723366171871174
987,1788018565.8470097,9.655122070312501,-15.236128073299632,4.856348230698529,18.680072242805526
988,1788018565.8628676,9.5018408203125,-14.723593893612131,5.91015682444853,18.49321902233748
989,1788018565.8828676,9.985634765625003,-14.560732565487132,4.6120562385110295,18.24825737606977
990,1788018565.8872588,10.153286132812502,-16.36657729204963,4.248013269761029,19.723075021189345
991,1788018565.9072587,10.584389648437503,-17.51618666704963,5.095850183823529,21.090609016357316
992,1788018565.947827,10.622709960937502,-17.180883932674632,4.976099207261029,20.803516600390957
993,1788018565.967827,9.5305810546875,-17.09466322954963,6.005957605698529,20.472689440645862
994,1788018565.9778233,9.5689013671875,-16.24203627642463,5.967637293198529,19.773222060221507
995,1788018565.9978232,8.8503955078125,-16.539018698299632,6.666982996323529,19.90771966902989
996,1788018566.0077627,8.927036132812502,-16.371367331112133,7.011865808823529,19.921844907731163
997,1788018566.0277627,9.3868798828125,-15.231338034237131,6.173608972886029,18.926717095091995
998,1788018566.0674953,9.549741210937501,-14.043408346737131,5.249131433823529,17.775495942410114
999,1788018566.0874953,9.070737304687501,-13.047080221737131,4.631216394761029,16.551517841521274
1000,1788018566.0972285,5.439887695312501,-9.631782370174633,3.1798345588235293,11.509776608844659
1001,1788018566.1172285,6.0625927734375,-7.524165182674633,0.07109920726102928,9.662978212227477
1002,1788018566.1278796,9.976054687500001,-14.900825338924632,9.708657801011029,20.391525180973137
1003,1788018566.1478796,10.560439453125001,-9.056977682674633,2.9403326056985293,14.219609067049605
1004,1788018566.1872292,7.988188476562501,-11.360986471737132,5.320982019761029,14.872660098405403
1005,1788018566.2072291,8.682744140625001,-10.781391745174632,3.903130457261029,14.382728570785035
1006,1788018566.217795,8.179790039062501,-8.649824362362132,3.697158777573529,12.465849734753286
1007,1788018566.2377949,6.627817382812501,-7.2894532686121325,3.783379480698529,10.553580080245865
1008,1788018566.2477927,13.142270507812501,-9.200678854549633,3.1271441291360293,16.344748266322885
1009,1788018566.2677927,13.616484375000002,-11.020893698299632,3.869600183823529,17.93997074207444
1010,1788018566.3072264,14.349360351562503,-12.160922995174632,2.638560144761029,18.99353022034299
1011,1788018566.3272264,13.046469726562503,-13.593144674862131,4.176162683823529,19.298297573610082
1012,1788018566.337,11.015493164062502,-14.541572409237132,3.1367242072610293,18.51046883612113
1013,1788018566.3569999,10.694560546875001,-16.639609518612133,4.176162683823529,20.216096680230407
1014,1788018566.3676982,8.725854492187501,-15.844463034237132,2.969072840073529,18.330382947221754
1015,1788018566.3876982,6.838579101562501,-17.17130385454963,4.703066980698529,19.07193433342657
1016,1788018566.4274728,9.334189453125001,-18.153261862362132,7.696841394761029,21.815347268527
1017,1788018566.4474728,-2.5019970703124996,-22.54572768267463,9.42125545726103,24.562774282888817
1018,1788018566.4566073,5.1524853515625,-12.889008932674631,-5.676947667738971,14.996746026617892
1019,1788018566.4766073,5.641069335937501,-24.854526510799634,8.99494198069853,27.02735896392818
1020,1788018566.4876366,7.763056640625001,-15.796562643612132,-0.44622501148897076,17.60669067485405
1021,1788018566.5076365,7.743896484375001,-17.271894674862132,3.524717371323529,19.253828475603395
1022,1788018566.5480235,8.778544921875001,-13.923657370174631,2.796631433823529,16.695874726531866
1023,1788018566.5680234,8.246850585937501,-10.838872213924631,2.758311121323529,13.896041727721682
1024,1788018566.5773978,7.106821289062501,-12.208823385799631,5.79040584788603,15.267320563332412
1025,1788018566.5973978,8.792915039062501,-9.521611471737133,2.628980066636029,13.224521771831949
1026,1788018566.6076696,12.524355468750002,-10.302387838924632,6.226299402573529,17.371398312793296
1027,1788018566.6276696,15.585190429687502,-7.241552877987132,5.651494715073529,18.090816491491218
1028,1788018566.6675687,16.567148437500002,-7.308613424862132,7.94592342601103,19.77432518788605
1029,1788018566.6875687,12.457294921875002,-8.716884909237132,6.518491785386029,16.542642305496543
1030,1788018566.6981156,10.282617187500001,-8.118130026424632,4.813237879136029,13.95720280829069
1031,1788018566.7181156,11.163984375000002,-8.467802877987133,5.953267176011029,15.224310256122005
1032,1788018566.728061,11.437016601562503,-8.376792135799633,6.590342371323529,15.63357309773019
1033,1788018566.748061,11.307685546875001,-7.9744288545496325,6.211929285386029,15.167179481693891
1034,1788018566.7871559,9.985634765625003,-9.928764792049632,5.75687557444853,15.2129842025812
1035,1788018566.8071558,10.086225585937502,-10.417348776424632,5.10543026194853,15.372654951559795
1036,1788018566.8174093,10.541279296875002,-10.699961081112132,4.6982769416360295,15.737901466598037
1037,1788018566.8374093,11.144824218750003,-11.116694479549631,5.718555261948529,16.747832017979075
1038,1788018566.8772812,12.399814453125002,-11.226865377987131,6.274199793198529,17.865147291090167
1039,1788018566.8972812,12.208212890625003,-10.905932760799631,5.833516199448529,17.378427506973512
1040,1788018566.9151435,11.369956054687503,-10.551469870174632,4.717437097886029,16.213069724121937
1041,1788018566.9351435,10.847841796875002,-11.226865377987131,4.7844976447610295,16.328184086976673
1042,1788018566.938143,10.622709960937502,-10.944253073299631,6.0155376838235295,16.395283952165336
1043,1788018566.958143,11.240625000000001,-9.056977682674633,4.966519129136029,15.265870672685706
1044,1788018566.9972491,10.890952148437503,-10.580210104549632,5.948477136948529,16.307607574526955
1045,1788018567.017249,11.518447265625001,-10.450879049862131,5.94368709788603,16.650012511809358
1046,1788018567.0272586,11.949550781250002,-9.785063620174633,5.685024988511029,16.45778669944815
1047,1788018567.0472586,10.469428710937501,-10.149106588924631,5.43115291819853,15.559907586731105
1048,1788018567.0578182,10.277827148437503,-10.350288229549632,5.574854090073529,15.615415314794614
1049,1788018567.0778182,10.124545898437502,-9.631782370174633,5.009629480698529,14.845000801948727
1050,1788018567.1174924,10.162866210937501,-10.067675924862131,5.0239995978860295,15.161877196080397
1051,1788018567.1374924,10.124545898437502,-9.919184713924631,4.909038660386029,14.99984385277688
1052,1788018567.1473732,11.005913085937502,-9.564721823299633,5.12459041819853,15.455596182826685
1053,1788018567.1673732,11.384326171875003,-10.053305807674631,5.172490808823529,16.044516235076287
1054,1788018567.1771564,12.102832031250003,-10.771811667049631,5.349722254136029,17.062531991572527
1055,1788018567.1971564,12.854868164062502,-10.709541159237132,5.368882410386029,17.571761599036517
1056,1788018567.2376077,12.428554687500002,-10.374238424862131,5.028789636948529,16.952360299638073
1057,1788018567.2576077,15.187617187500003,-13.320112448299632,2.4277984260110292,20.346579974696827
1058,1788018567.2672393,13.875146484375001,-16.36178725298713,5.594014246323529,22.170267645270926
1059,1788018567.2872393,12.931508789062502,-14.790654440487131,4.990469324448529,20.27047514040468
1060,1788018567.297461,12.145942382812501,-13.032710104549631,3.6396783088235294,18.18303349904937
1061,1788018567.317461,12.323173828125002,-13.411123190487132,6.034697840073529,19.186881363306412
1062,1788018567.3603728,12.998569335937502,-11.667548971737132,4.549785730698529,18.049793737999526
1063,1788018567.3803728,12.256113281250002,-11.528637838924631,4.966519129136029,17.543891114686947
1064,1788018567.3878114,11.456176757812502,-11.643598776424632,5.905366785386029,17.36924682427367
1065,1788018567.4078114,12.323173828125002,-9.444970846737133,4.640796472886029,16.205094242140365
1066,1788018567.4183578,12.452504882812502,-8.961176901424633,6.044277918198529,16.48941675340635
1067,1788018567.4383578,13.463203125000001,-7.279873190487132,4.621636316636029,15.987930269357324
1068,1788018567.477338,18.2915625,-6.872719870174633,8.19021541819853,21.18714623779702
1069,1788018567.497338,13.491943359375002,-9.238999167049633,1.3787798713235293,16.410139400836727
1070,1788018567.506891,10.819101562500002,-15.911523581112132,6.83463436351103,20.419151994509058
1071,1788018567.526891,13.218911132812503,-11.269975729549632,3.740269129136029,17.769118651193708
1072,1788018567.5377424,13.908676757812502,-9.900024557674632,2.978652918198529,17.330151430468433
1073,1788018567.5577424,12.213002929687502,-12.836318502987131,5.459893152573529,18.54019812483687
1074,1788018567.597139,11.417856445312502,-11.787299948299632,4.846768152573529,17.111371873749626
1075,1788018567.6171389,12.620156250000003,-10.125156393612132,5.22518123851103,17.00263669978296
1076,1788018567.628162,13.147060546875002,-8.362422018612133,3.9845611213235292,16.08266241547491
1077,1788018567.648162,11.528027343750002,-10.858032370174632,6.676563074448529,17.186296165174667
1078,1788018567.6570458,11.322055664062502,-6.762548971737132,4.31986385569853,13.877400217153186
1079,1788018567.6770458,10.589179687500001,-10.311967917049632,1.9056841681985295,14.902987650982809
1080,1788018567.717507,13.180590820312503,-14.781074362362132,7.131616785386029,21.049182683700217
1081,1788018567.7375069,13.841616210937502,-10.843662252987132,2.5906597541360292,17.773206473493914
1082,1788018567.7489645,11.025073242187503,-12.390844870174632,6.652612879136029,17.870157657725866
1083,1788018567.7689645,10.723300781250002,-10.709541159237132,4.674326746323529,15.85978505585579
1084,1788018567.7784476,11.815429687500002,-11.188545065487132,4.88508846507353,16.98976187868115
1085,1788018567.7984476,12.198632812500001,-11.27476576861213,5.886206629136029,17.623121576842014
1086,1788018567.8377779,12.759067382812502,-12.232773581112133,4.521045496323529,18.24484591181115
1087,1788018567.8577778,11.619038085937502,-13.334482565487132,4.942568933823529,18.364080673895547
1088,1788018567.8672395,12.438134765625001,-13.344062643612132,4.650376551011029,18.825440402569267
1089,1788018567.8872395,12.610576171875001,-12.774047995174632,4.157002527573529,18.42508082978035
1090,1788018567.8984432,12.174682617187502,-12.697407370174632,4.76533748851103,18.225133528531998
1091,1788018567.9184432,12.524355468750002,-12.103442526424631,4.750967371323529,18.05337895966994
1092,1788018567.9578624,11.968710937500003,-12.702197409237131,4.362974207261029,17.9897583213863
1093,1788018567.9778624,11.446596679687502,-12.788418112362132,4.688696863511029,17.791910848526726
1094,1788018567.9886093,11.446596679687502,-11.921421042049632,4.564155847886029,17.145739232038054
1095,1788018568.0086093,11.341215820312502,-11.897470846737132,4.621636316636029,17.074323151302824
1096,1788018568.0184746,11.140034179687502,-12.41958510454963,4.616846277573529,17.310740170324937
1097,1788018568.0384746,11.240625000000001,-12.146552877987132,4.703066980698529,17.20491895456934
1098,1788018568.0774744,11.058603515625002,-12.29983412798713,4.607266199448529,17.169901954419295
1099,1788018568.0974743,10.953222656250002,-12.405214987362132,4.535415613511029,17.159033778955678
1100,1788018568.1077724,10.981962890625002,-12.314204245174631,4.827607996323529,17.191536699466642
1101,1788018568.1277723,10.934062500000001,-12.328574362362131,4.602476160386029,17.10936162950333
1102,1788018568.1371465,11.523237304687502,-12.362104635799632,4.607266199448529,17.516664375365
1103,1788018568.1571465,11.489707031250003,-12.371684713924632,4.688696863511029,17.523008548836877
1104,1788018568.19765,11.020283203125002,-12.208823385799631,4.674326746323529,17.09828473485345
1105,1788018568.21765,11.106503906250001,-12.438745260799632,4.88508846507353,17.37644675974367
1106,1788018568.227772,11.508867187500002,-12.826738424862132,4.74617733226103,17.874715153775664
1107,1788018568.247772,11.312475585937502,-12.774047995174632,4.707857019761029,17.700630604133014
1108,1788018568.2877276,11.039443359375001,-12.893798971737132,4.71264705882353,17.61614043737891
1109,1788018568.3077276,11.331635742187503,-12.960859518612132,4.837188074448529,17.88262387130052
1110,1788018568.3180335,11.216674804687502,-12.764467917049632,5.043159754136029,17.725092247580495
1111,1788018568.3380334,10.857421875000002,-12.352524557674633,4.8515581916360295,17.146605775094795
1112,1788018568.3476825,10.991542968750002,-12.932119284237132,4.83239803538603,17.646693650313598
1113,1788018568.3676825,10.675400390625002,-12.836318502987131,5.167700769761029,17.476852618708982
1114,1788018568.4077475,10.603549804687502,-12.472275534237133,5.01920955882353,17.122657213697995
1115,1788018568.4277475,10.785571289062503,-12.874638815487131,4.9042486213235295,17.496757619640587
1116,1788018568.437059,11.029863281250002,-13.056660299862132,5.081480066636029,17.831312398606062
1117,1788018568.457059,10.450268554687502,-12.529756002987131,4.95214901194853,17.05070902326426
1118,1788018568.4671152,10.771201171875003,-12.683037252987132,5.0575298713235295,17.391285663946487
1119,1788018568.4871151,11.025073242187503,-12.956069479549631,5.009629480698529,17.734383662490224
1120,1788018568.5268207,10.426318359375003,-12.702197409237131,4.990469324448529,17.17436221909077
1121,1788018568.5468206,10.359257812500003,-12.036381979549631,5.01920955882353,16.654764428800995
1122,1788018568.55743,10.488588867187502,-12.050752096737131,4.923408777573529,16.717388447750803
1123,1788018568.57743,10.728090820312502,-13.214731588924632,5.287451746323529,17.823529661262263
1124,1788018568.5868902,10.459848632812502,-12.759677877987132,4.875508386948529,17.204313267391672
1125,1788018568.6068902,10.737670898437502,-12.295044088924632,4.995259363511029,17.0709783428044
1126,1788018568.6473217,10.138916015625002,-12.271093893612132,5.306611902573529,16.779079033197178
1127,1788018568.6673217,10.086225585937502,-12.721357565487132,5.0910601447610295,17.014222823184465
1128,1788018568.6766741,10.775991210937502,-13.262631979549631,5.268291590073529,17.882233917528715
1129,1788018568.696674,10.670610351562502,-12.917749167049632,5.13896053538603,17.525383995848404
1130,1788018568.707661,10.220346679687502,-12.889008932674631,5.407202722886029,17.315307643988074
1131,1788018568.727661,10.057485351562502,-12.654297018612132,5.234761316636029,16.990790760712084
1132,1788018568.7680955,10.531699218750003,-12.055542135799632,5.162910730698529,16.819882039878337
1133,1788018568.7880955,10.119755859375003,-11.634018698299633,5.215601160386029,16.277663996715262
1134,1788018568.7980957,10.081435546875001,-12.414795065487132,5.46468319163603,16.900450928563647
1135,1788018568.8180957,10.253876953125001,-14.723593893612131,6.566392176011029,19.106117238283122
1136,1788018568.8280966,9.3581396484375,-12.831528463924633,6.556812097886029,17.18181263101046
1137,1788018568.8480966,10.445478515625002,-9.751533346737133,3.141514246323529,14.631115329760869
1138,1788018568.8880963,9.7317626953125,-10.79576186236213,6.092178308823529,15.759768903547052
1139,1788018568.9080963,8.6492138671875,-10.858032370174632,5.316191980698529,14.86498115194742
1140,1788018568.9177713,9.34376953125,-12.251933737362132,5.03836971507353,16.211140575036612
1141,1788018568.9377713,11.614248046875002,-14.991836081112131,5.8095660041360295,19.83423716540892
1142,1788018568.9474413,11.901650390625003,-14.824184713924632,4.659956629136029,19.573475170205466
1143,1788018568.9674413,9.832353515625002,-14.436191549862132,4.803657801011029,18.11501946975902
1144,1788018569.0074549,9.1856982421875,-13.971557760799632,5.79040584788603,17.694922388728347
1145,1788018569.0274549,10.162866210937501,-13.253051901424632,5.086270105698529,17.45844717927092
1146,1788018569.037456,9.7317626953125,-12.951279440487133,5.5365337775735295,17.120048205938946
1147,1788018569.057456,9.1569580078125,-12.285464010799632,5.82393612132353,16.39209376079674
1148,1788018569.0675974,9.4347802734375,-12.706987448299632,6.207139246323529,17.00032900983212
1149,1788018569.0875974,9.6647021484375,-12.213613424862132,5.871836511948529,16.645037835133834
1150,1788018569.1276934,9.827563476562501,-12.232773581112133,5.919736902573529,16.770958182772713
1151,1788018569.1476934,10.617919921875002,-11.945371237362131,5.589224207261029,16.931377519409967
1152,1788018569.157369,9.7317626953125,-11.816040182674632,5.7760357306985295,16.361191873416914
1153,1788018569.1773689,9.0228369140625,-11.576538229549632,5.598804285386029,15.709055757239199
1154,1788018569.1871378,10.004794921875002,-11.662758932674631,5.4503130744485295,16.304041828944207
1155,1788018569.2071378,9.837143554687502,-11.691499167049631,5.6562847541360295,16.292762298288274
1156,1788018569.2491255,9.338979492187502,-11.346616354549631,5.651494715073529,15.744892288210037
1157,1788018569.2691255,9.018046875000001,-13.387172995174632,6.710093347886029,17.48047261889033
1158,1788018569.277579,9.324609375000001,-12.165713034237132,5.91015682444853,16.428112104478732
1159,1788018569.297579,9.046787109375002,-11.193335104549632,6.005957605698529,15.595083665262743
1160,1788018569.3083827,8.970146484375,-11.360986471737132,6.45622127757353,15.849868603465849
1161,1788018569.3283827,9.5162109375,-12.376474752987132,6.66219295726103,16.97410418602705
1162,1788018569.3671186,9.003676757812501,-12.644716940487132,7.035816004136029,17.04282161228803
1163,1788018569.3871186,9.482680664062501,-10.819712057674632,6.278989832261029,15.697551239005785
1164,1788018569.3976114,9.602431640625001,-10.608950338924632,6.48975155101103,15.712205316265928
1165,1788018569.4176114,9.204858398437501,-12.697407370174632,7.543560144761029,17.402840909376767
1166,1788018569.4271867,9.204858398437501,-12.53933608111213,7.27531795726103,17.1724959999882
1167,1788018569.4471867,9.458730468750002,-10.470039206112132,6.69572323069853,15.618002837754279
1168,1788018569.487329,9.1282177734375,-9.109668112362133,6.2550396369485295,14.333036443701834
1169,1788018569.507329,9.1330078125,-11.475947409237131,7.44775936351103,16.44926503463084
1170,1788018569.517522,8.9557763671875,-11.365776510799632,7.31363826976103,16.213454621808147
1171,1788018569.537522,9.2096484375,-8.597133932674632,6.4083208869485295,14.134882836047584
1172,1788018569.5471263,8.3426513671875,-7.984008932674633,6.619082605698529,13.310014463272555
1173,1788018569.5671263,8.2133203125,-10.259277487362132,7.510029871323529,15.136444555660761
1174,1788018569.607371,8.950986328125001,-10.723911276424632,7.14119686351103,15.688184150956662
1175,1788018569.627371,8.246850585937501,-9.248579245174632,6.959175379136029,14.21185718330387
1176,1788018569.6372342,8.2276904296875,-8.338471823299633,6.877744715073529,13.584122147583003
1177,1788018569.6572342,8.7066943359375,-9.282109518612133,7.16035701976103,14.602561283055694
1178,1788018569.6976755,8.246850585937501,-10.489199362362132,7.67289119944853,15.391787005046899
1179,1788018569.7176754,8.5150927734375,-9.248579245174632,7.24178768382353,14.508153288826964
1180,1788018569.7271297,8.4001318359375,-8.501333151424632,7.136406824448529,13.919884431153791
1181,1788018569.7471297,8.34744140625,-8.405532370174633,7.2130474494485295,13.869419813562011
1182,1788018569.7578807,8.141469726562502,-8.381582174862132,7.32800838694853,13.792539866960265
1183,1788018569.7778807,7.897177734375001,-8.151660299862133,7.39985897288603,13.548907506926843
1184,1788018569.8178613,6.81462890625,-9.253369284237133,7.10766659007353,13.512325284569226
1185,1788018569.8378613,8.069619140625,-10.532309713924631,7.524399988511029,15.25335688207279
1186,1788018569.8498611,8.495932617187501,-11.370566549862131,7.682471277573529,16.139734187135062
1187,1788018569.8698611,7.978608398437501,-12.256723776424632,8.32912655101103,16.830324382196178
1188,1788018569.877862,7.729526367187501,-11.768139792049631,7.55314022288603,15.977628711822277
1189,1788018569.897862,6.94875,-10.91551283892463,7.490869715073529,14.951477391463166
1190,1788018569.9377544,7.025390625000001,-9.866494284237131,7.423809168198529,14.206222772452586
1191,1788018569.9577544,7.969028320312501,-8.793525534237133,7.476499597886029,14.02603115383725
1192,1788018569.9674404,6.920009765625001,-9.157568502987132,7.20825741038603,13.553839711964741
1193,1788018569.9874403,7.130771484375001,-9.349170065487133,6.164028894761029,13.275923135180665
1194,1788018569.9978116,7.590615234375001,-9.535981588924633,7.84054256663603,14.492290786479096
1195,1788018570.0178115,8.65400390625,-8.247461081112133,7.2465777228860295,13.97945945262826
1196,1788018570.059665,9.30544921875,-9.009077292049632,6.76278377757353,14.611300532090599
1197,1788018570.079665,8.8791357421875,-9.646152487362132,7.356748621323529,15.033597693665342
1198,1788018570.0886638,9.24796875,-9.670102682674633,7.87886287913603,15.52779096210003
1199,1788018570.1086638,9.712602539062502,-10.105996237362131,7.888442957261029,16.083946664961992
1200,1788018570.1178746,10.201186523437501,-9.943134909237132,7.8980230353860295,16.28830581051146
1201,1788018570.1378746,9.961684570312501,-8.817475729549633,7.462129480698529,15.253406639380893
1202,1788018570.1773374,9.774873046875001,-8.041489401424633,6.9400152228860295,14.435286840573617
1203,1788018570.1973374,10.205976562500002,-7.9744288545496325,6.78194393382353,14.62013121254727
1204,1788018570.2075431,10.383208007812502,-8.673774557674633,7.438179285386029,15.439296768065937
1205,1788018570.227543,9.707812500000001,-8.716884909237132,8.55904842601103,15.603942322850473
1206,1788018570.2378237,9.4922607421875,-8.108549948299633,8.03693416819853,14.847353538112474
1207,1788018570.2578237,9.952104492187502,-9.698842917049634,7.0597661994485295,15.586925179261574
1208,1788018570.2971573,10.114965820312502,-11.073584127987132,8.166265222886029,17.07702218409921
1209,1788018570.3171573,10.775991210937502,-11.140644674862132,8.07525448069853,17.47700447095491
1210,1788018570.3277128,10.019165039062502,-11.346616354549631,8.017774011948529,17.12933363806026
1211,1788018570.3477128,10.062275390625002,-10.470039206112132,7.270527918198529,16.239817832217422
1212,1788018570.3571894,9.760502929687501,-11.006523581112132,6.911274988511029,16.253513489360813
1213,1788018570.3771894,9.875463867187502,-11.423256979549631,6.044277918198529,16.264958720063746
1214,1788018570.4178414,10.507749023437501,-10.283227682674632,6.106548426011029,15.920034384149282
1215,1788018570.4378414,9.760502929687501,-9.804223776424633,7.39506893382353,15.686850092821384
1216,1788018570.4470475,7.916337890625001,-10.206587057674632,8.10878475413603,15.251072590258866
1217,1788018570.4670475,8.256430664062501,-9.042607565487133,6.896904871323529,14.05363638699831
1218,1788018570.477596,9.621591796875,-8.338471823299633,6.872954676011029,14.468678137001875
1219,1788018570.497596,9.803613281250001,-8.027119284237132,7.083716394761029,14.516353375868173
1220,1788018570.537801,8.965356445312501,-8.180400534237133,7.624990808823529,14.333075522256097
1221,1788018570.557801,9.26712890625,-7.979218893612132,7.60104061351103,14.398730177535633
1222,1788018570.5670855,9.5593212890625,-8.151660299862133,7.198677332261029,14.479335084384251
1223,1788018570.5870855,8.8264453125,-8.745625143612132,7.02144588694853,14.272098596579285
1224,1788018570.5972774,8.567783203125002,-8.405532370174633,6.30294002757353,13.55680406412194
1225,1788018570.6172774,8.323491210937501,-7.878628073299633,6.312520105698529,13.08438750346332
1226,1788018570.6579673,8.4001318359375,-7.849887838924633,6.54244198069853,13.228246331832276
1227,1788018570.6779673,8.663583984375,-8.338471823299633,6.4083208869485295,13.625504628907574
1228,1788018570.6869807,9.176118164062501,-8.831845846737133,6.666982996323529,14.375371574141408
