imu_index,t_imu,ax,ay,az,mag
0,1789996850.1366148,-0.06370751953124999,-0.04502636718750003,-0.012837304687499216,0.07906211595048458
1,1789996850.1566148,-0.09244775390624999,0.0028740234374999727,-0.003257226562499216,0.09254975277065472
2,1789996850.1811423,-0.034967285156249986,0.04119433593749997,0.025483007812500784,0.05974167750994341
3,1789996850.2011423,-0.03975732421874999,0.08430468749999998,0.020692968750000786,0.095478396086214
4,1789996850.2269673,-0.08765771484374998,0.055564453124999975,0.015902929687500785,0.10499612657309841
5,1789996850.2469673,-0.11639794921874999,0.022034179687499975,0.015902929687500785,0.11952778266778537
6,1789996850.2567048,-0.06370751953124999,0.012454101562499974,-0.017627343749999216,0.06726422480215095
7,1789996850.2767048,-0.01580712890624999,-0.016286132812500027,-0.008047265624999217,0.02408032247052535
8,1789996850.3018918,-0.030177246093749988,-0.02586621093750003,-0.008047265624999217,0.04055225683122074
9,1789996850.3218918,-0.08286767578125,-0.016286132812500027,0.015902929687500785,0.0859371455426485
10,1789996850.3465796,-0.04454736328124999,0.0028740234374999727,0.020692968750000786,0.04920291192317247
11,1789996850.3665795,0.008143066406250014,0.017244140624999973,0.011112890625000784,0.02207184302306
12,1789996850.3765435,-0.011017089843749987,-0.016286132812500027,0.015902929687500785,0.025288684490444396
13,1789996850.3965435,-0.034967285156249986,-0.03544628906250003,-0.008047265624999217,0.05043717798945639
14,1789996850.4212894,-0.034967285156249986,-0.04502636718750003,-0.017627343749999216,0.05967250640774792
15,1789996850.4412894,-0.011017089843749987,-0.011496093750000028,-0.003257226562499216,0.016252567951357696
16,1789996850.4663336,0.003353027343750014,0.007664062499999973,0.025483007812500784,0.026820968169397188
17,1789996850.4863336,-0.020597167968749986,0.012454101562499974,0.015902929687500785,0.028848763347976605
18,1789996850.4969566,-0.04454736328124999,0.022034179687499975,0.015902929687500785,0.05218118264717934
19,1789996850.5169566,-0.034967285156249986,0.06514453124999997,0.030273046875000785,0.07989354385728999
20,1789996850.5420196,0.032093261718750016,0.04598437499999997,0.015902929687500785,0.05828759185739621
21,1789996850.5620196,0.003353027343750014,0.012454101562499974,-0.003257226562499216,0.01330251716692935
22,1789996850.5875933,-0.04454736328124999,-0.016286132812500027,-0.003257226562499216,0.04754277255459025
23,1789996850.6075933,-0.034967285156249986,0.007664062499999973,0.015902929687500785,0.03917080619349059
24,1789996850.6161885,0.056043457031250014,0.0028740234374999727,0.011112890625000784,0.05720686518920694
25,1789996850.6361885,0.032093261718750016,-0.030656250000000027,-0.008047265624999217,0.045105893138812594
26,1789996850.6612616,-0.07328759765625,-0.02107617187500003,-0.008047265624999217,0.07668138936644417
27,1789996850.6812615,-0.05891748046874999,-0.02107617187500003,-0.003257226562499216,0.06265847149882871
28,1789996850.7067585,-0.006227050781249987,-0.02107617187500003,-0.008047265624999217,0.023403838710265083
29,1789996850.7267585,0.04167333984375002,-0.040236328125000026,0.015902929687500785,0.0600710623125723
30,1789996850.736335,-0.08765771484374998,0.03161425781249998,0.006322851562500785,0.09339868693158818
31,1789996850.756335,-0.10681787109374999,0.050774414062499974,0.011112890625000784,0.11879223479013439
32,1789996850.781927,-0.0014370117187499864,0.03161425781249998,-0.008047265624999217,0.032654016349514106
33,1789996850.801927,0.04167333984375002,-0.02586621093750003,-0.003257226562499216,0.04915625745391303
34,1789996850.8265066,-0.05412744140624999,0.022034179687499975,0.006322851562500785,0.05878148891929738
35,1789996850.8465066,-0.08286767578125,0.060354492187499977,0.030273046875000785,0.10689328221966692
36,1789996850.8712254,-0.01580712890624999,0.04119433593749997,-0.008047265624999217,0.04485083189451116
37,1789996850.8912253,0.012933105468750015,-0.030656250000000027,-0.008047265624999217,0.03423199329819412
38,1789996850.901646,-0.0014370117187499864,0.017244140624999973,0.006322851562500785,0.018422916176762512
39,1789996850.9216459,-0.034967285156249986,0.06993457031249997,0.025483007812500784,0.08223708921870033
40,1789996850.962043,-0.034967285156249986,0.08430468749999998,0.020692968750000786,0.09358520353859183
41,1789996850.982043,0.008143066406250014,-0.006706054687500028,-0.003257226562499216,0.011040390611196193
42,1789996850.991102,0.012933105468750015,-0.04502636718750003,-0.017627343749999216,0.05005359334603288
43,1789996851.011102,-0.04933740234374999,-0.006706054687500028,0.015902929687500785,0.052269050231914506
44,1789996851.0213218,-0.06849755859375,0.055564453124999975,0.030273046875000785,0.09325117345900012
45,1789996851.0413218,-0.01580712890624999,0.03640429687499998,-0.003257226562499216,0.03982144748877654
46,1789996851.066645,0.012933105468750015,-0.011496093750000028,-0.008047265624999217,0.019083602191774365
47,1789996851.086645,-0.07328759765625,-0.011496093750000028,0.006322851562500785,0.07445274067228545
48,1789996851.110922,-0.10681787109374999,-0.006706054687500028,0.011112890625000784,0.10760355520388702
49,1789996851.130922,-0.05412744140624999,0.04119433593749997,0.006322851562500785,0.06831348094190522
50,1789996851.1411707,0.008143066406250014,0.03161425781249998,-0.003257226562499216,0.032808236045408834
51,1789996851.1611707,-0.01580712890624999,-0.0019160156250000273,-0.003257226562499216,0.016252567951357676
52,1789996851.1857426,-0.10202783203124999,-0.02107617187500003,0.006322851562500785,0.10437366517365826
53,1789996851.2057426,-0.08765771484374998,0.017244140624999973,0.020692968750000786,0.09170296785388939
54,1789996851.2317116,0.003353027343750014,0.06514453124999997,0.030273046875000785,0.07191321235521435
55,1789996851.2517116,0.03688330078125002,0.04598437499999997,0.011112890625000784,0.059986973241729837
56,1789996851.2609756,-0.034967285156249986,-0.016286132812500027,-0.008047265624999217,0.03940441139294159
57,1789996851.2809756,-0.025387207031249987,-0.040236328125000026,-0.012837304687499216,0.04927746719820233
58,1789996851.3061507,0.032093261718750016,0.03640429687499998,0.011112890625000784,0.04978701253092566
59,1789996851.3261507,0.012933105468750015,0.055564453124999975,0.011112890625000784,0.05812202685892296
60,1789996851.3658955,-0.03975732421874999,0.007664062499999973,-0.008047265624999217,0.04128124473750767
61,1789996851.3858955,-0.034967285156249986,-0.02586621093750003,0.0015328125000007842,0.04352150518561951
62,1789996851.3809261,-0.030177246093749988,0.050774414062499974,0.025483007812500784,0.06432799540141851
63,1789996851.400926,-0.020597167968749986,0.09867480468749998,0.035063085937500786,0.10672572512712075
64,1789996851.4264965,-0.05891748046874999,0.08430468749999998,0.011112890625000784,0.10345069442638564
65,1789996851.4464965,-0.05412744140624999,0.012454101562499974,-0.008047265624999217,0.05612168068541234
66,1789996851.471072,-0.025387207031249987,0.0028740234374999727,-0.012837304687499216,0.028593123005480486
67,1789996851.491072,-0.0014370117187499864,-0.006706054687500028,-0.003257226562499216,0.007592476343790367
68,1789996851.5161176,-0.04933740234374999,0.012454101562499974,-0.012837304687499216,0.05247933219275776
69,1789996851.5361176,-0.09723779296874999,0.022034179687499975,-0.003257226562499216,0.09975621775515535
70,1789996851.5467136,-0.034967285156249986,0.03161425781249998,0.020692968750000786,0.05148175680687505
71,1789996851.5667136,-0.030177246093749988,0.04119433593749997,0.020692968750000786,0.05509844327041245
72,1789996851.5902798,-0.05891748046874999,0.03161425781249998,-0.008047265624999217,0.06734604135255498
73,1789996851.6102798,-0.04933740234374999,-0.006706054687500028,-0.012837304687499216,0.051419323518892175
74,1789996851.6366308,-0.030177246093749988,-0.0019160156250000273,-0.008047265624999217,0.03129050625536901
75,1789996851.6566308,-0.05891748046874999,0.03640429687499998,0.0015328125000007842,0.06927403445670555
76,1789996851.6661808,-0.07328759765625,0.06514453124999997,0.011112890625000784,0.09868322177579039
77,1789996851.6861808,-0.034967285156249986,0.055564453124999975,0.006322851562500785,0.06595527222413868
78,1789996851.7117095,-0.030177246093749988,0.07951464843749997,-0.012837304687499216,0.08601187063180091
79,1789996851.7317095,-0.06370751953124999,0.07472460937499997,0.0015328125000007842,0.0982077634672081
80,1789996851.7565167,-0.09244775390624999,0.06993457031249997,0.015902929687500785,0.11700570285140018
81,1789996851.7765167,-0.10681787109374999,0.050774414062499974,0.025483007812500784,0.12098546357130331
82,1789996851.786059,-0.04454736328124999,0.06514453124999997,0.015902929687500785,0.08050578053617936
83,1789996851.806059,-0.020597167968749986,0.060354492187499977,-0.003257226562499216,0.0638554428410245
84,1789996851.8314185,-0.11639794921874999,0.11783496093749998,-0.012837304687499216,0.1661275323151239
85,1789996851.8514185,-0.08765771484374998,0.055564453124999975,0.006322851562500785,0.10397721805563911
86,1789996851.8765037,-0.034967285156249986,0.04119433593749997,0.006322851562500785,0.05440278298406728
87,1789996851.8965037,-0.06849755859375,0.050774414062499974,0.006322851562500785,0.08549815850985229
88,1789996851.9060597,-0.11160791015624999,0.050774414062499974,0.0015328125000007842,0.12262428897651527
89,1789996851.9260597,-0.06370751953124999,0.07951464843749997,0.011112890625000784,0.10249255435887548
90,1789996851.9511447,-0.03975732421874999,0.06993457031249997,0.011112890625000784,0.08120951478658173
91,1789996851.9711447,-0.07807763671875,0.09388476562499998,0.0015328125000007842,0.122118041608136
92,1789996852.0115263,-0.10681787109374999,0.026824218749999976,0.011112890625000784,0.11069368832319244
93,1789996852.0315263,-0.11160791015624999,0.08430468749999998,-0.008047265624999217,0.14010126490491623
94,1789996852.0267873,-0.11639794921874999,0.132205078125,0.006322851562500785,0.17625732244718081
95,1789996852.0467873,-0.14992822265625,0.1657353515625,-0.012837304687499216,0.2238559248669716
96,1789996852.071152,-0.18824853515625,0.11304492187499998,0.011112890625000784,0.21986396177691783
97,1789996852.091152,-0.17387841796875,0.14178515625,0.015902929687500785,0.22492140391878632
98,1789996852.116735,-0.10202783203124999,0.12262499999999998,0.0015328125000007842,0.15952717213113607
99,1789996852.136735,-0.14513818359375,0.12741503906249999,-0.017627343749999216,0.1939340294117361
100,1789996852.1615486,-0.20261865234374998,0.12262499999999998,0.0015328125000007842,0.23684078706328768
101,1789996852.1815486,-0.16908837890625,0.170525390625,0.030273046875000785,0.2420459586443211
102,1789996852.1911027,-0.12118798828124999,0.1657353515625,0.015902929687500785,0.205931149741479
103,1789996852.2111027,-0.15471826171875,0.151365234375,-0.022417382812499217,0.21760448924328843
104,1789996852.235965,-0.19303857421875,0.07951464843749997,-0.022417382812499217,0.20997383052349453
105,1789996852.255965,-0.19303857421875,0.06514453124999997,0.011112890625000784,0.20403724519369817
106,1789996852.2812705,-0.17866845703125,0.14178515625,0.015902929687500785,0.22864459591997824
107,1789996852.3012705,-0.18345849609375,0.1657353515625,0.011112890625000784,0.2474847932390376
108,1789996852.3117816,-0.18345849609375,0.1465751953125,0.015902929687500785,0.23535974771086834
109,1789996852.3317816,-0.24093896484375,0.10825488281249998,0.020692968750000786,0.26495075653489725
110,1789996852.3566027,-0.22177880859375,0.09867480468749998,-0.012837304687499216,0.2430789036774256
111,1789996852.3766026,-0.17387841796875,0.06514453124999997,0.006322851562500785,0.18578883884393854
112,1789996852.4009886,-0.18824853515625,0.10346484374999998,0.006322851562500785,0.21490105474977833
113,1789996852.4209886,-0.24572900390625,0.12741503906249999,0.011112890625000784,0.27702135635741054
114,1789996852.4315445,-0.22177880859375,0.1369951171875,-0.008047265624999217,0.26080310688049585
115,1789996852.4515445,-0.20740869140624998,0.08430468749999998,-0.003257226562499216,0.22391126619758359
116,1789996852.4764202,-0.18824853515625,0.12741503906249999,-0.003257226562499216,0.2273383220943001
117,1789996852.4964201,-0.27925927734375,0.18010546874999997,0.035063085937500786,0.3341453932821329
118,1789996852.5213244,-0.19782861328125,0.132205078125,0.020692968750000786,0.23883580525228673
119,1789996852.5413244,-0.20261865234374998,0.10346484374999998,-0.027207421874999218,0.22912777215975702
120,1789996852.551136,-0.23135888671875,0.06514453124999997,-0.03678749999999922,0.24315440479615325
121,1789996852.571136,-0.21698876953125,0.11304492187499998,0.006322851562500785,0.2447514227053485
122,1789996852.5967124,-0.17866845703125,0.17531542968749997,0.020692968750000786,0.2511694973123307
123,1789996852.6167123,-0.21219873046874999,0.18968554687499997,0.015902929687500785,0.2850645735240747
124,1789996852.6418204,-0.18824853515625,0.17531542968749997,-0.017627343749999216,0.25784439905234957
125,1789996852.6618204,-0.14034814453125,0.060354492187499977,-0.003257226562499216,0.1528099339881249
126,1789996852.6712027,-0.23135888671875,-0.016286132812500027,0.030273046875000785,0.23389876004977406
127,1789996852.6912026,-0.30799951171875,-0.030656250000000027,0.04943320312500079,0.31344400848357035
128,1789996852.7164652,-0.23135888671875,0.03161425781249998,0.04464316406250079,0.23773810771158663
129,1789996852.7364652,-0.21698876953125,0.08430468749999998,0.059013281250000785,0.2401540626369878
130,1789996852.761651,-0.26488916015625,0.1561552734375,0.04943320312500079,0.31143920459990493
131,1789996852.781651,-0.21698876953125,0.11304492187499998,0.011112890625000784,0.24492198105203625
132,1789996852.7911944,-0.27446923828125,-0.02107617187500003,0.025483007812500784,0.2764542484223495
133,1789996852.8111944,-0.26967919921875,-0.21267773437500004,0.030273046875000785,0.34478275269689074
134,1789996852.8364875,-0.24572900390625,-0.14082714843750002,-0.022417382812499217,0.2841083739525423
135,1789996852.8564875,-0.09723779296874999,-0.030656250000000027,-0.06073769531249922,0.11867628944894584
136,1789996852.8810375,-0.12597802734375,0.04598437499999997,-0.04636757812499922,0.14189777453766197
137,1789996852.9010375,-0.22177880859375,0.09388476562499998,0.054223242187500784,0.24686099155404997
138,1789996852.9266396,-0.26967919921875,0.14178515625,0.1021236328125008,0.3213395982491508
139,1789996852.9466395,-0.29841943359375,0.21842578124999998,0.06859335937500079,0.37612368871348084
140,1789996852.955868,-0.35110986328125,0.2711162109375,0.03985312500000079,0.44538792922434567
141,1789996852.975868,-0.38943017578125,0.19926562499999997,-0.003257226562499216,0.43746229625024297
142,1789996853.0011692,-0.42775048828125,0.132205078125,-0.03678749999999922,0.44922375612063875
143,1789996853.0211692,-0.46128076171875,0.17531542968749997,-0.022417382812499217,0.4939817608682583
144,1789996853.046849,-0.38464013671875,0.23758593749999998,-0.03678749999999922,0.4535950094842563
145,1789996853.066849,-0.31757958984375,0.1561552734375,-0.07031777343749922,0.3608127694093882
146,1789996853.0759149,-0.37506005859375,0.12741503906249999,-0.06552773437499922,0.40149535950489645
147,1789996853.0959148,-0.45649072265625,0.1465751953125,-0.022417382812499217,0.47996938111121734
148,1789996853.1209908,-0.42775048828125,0.1609453125,-0.017627343749999216,0.45736702667360174
149,1789996853.1409907,-0.37506005859375,0.10825488281249998,-0.017627343749999216,0.39076833348260953
150,1789996853.166086,-0.42775048828125,0.10346484374999998,0.04943320312500079,0.44285335686687227
151,1789996853.186086,-0.48044091796875,0.1369951171875,0.059013281250000785,0.5030643151285566
152,1789996853.196134,-0.39901025390625,0.10825488281249998,0.006322851562500785,0.41348310827282847
153,1789996853.216134,-0.37985009765625,0.017244140624999973,-0.05594765624999922,0.3843352668117064
154,1789996853.241789,-0.46128076171875,0.007664062499999973,-0.04636757812499922,0.46366866541422874
155,1789996853.261789,-0.44691064453125,0.04119433593749997,-0.012837304687499216,0.4489887458503928
156,1789996853.285966,-0.50439111328125,0.06993457031249997,0.0015328125000007842,0.5092186060976689
157,1789996853.305966,-0.33673974609375,0.04598437499999997,0.0015328125000007842,0.33986845816813305
158,1789996853.3162334,-0.5475014648437501,0.06514453124999997,0.030273046875000785,0.5521939164142704
159,1789996853.3362334,-0.42775048828125,0.1465751953125,0.011112890625000784,0.45230328811958526
160,1789996853.3614178,-0.47086083984375,0.18489550781249997,-0.012837304687499216,0.5060247777522792
161,1789996853.3814178,-0.49002099609375,0.1465751953125,0.006322851562500785,0.511512309671517
162,1789996853.4064927,-0.51876123046875,0.18489550781249997,0.030273046875000785,0.5515578123948475
163,1789996853.4264927,-0.49002099609375,0.18968554687499997,0.030273046875000785,0.526324653301624
164,1789996853.4360476,-0.45649072265625,0.12262499999999998,0.0015328125000007842,0.4726764432573148
165,1789996853.4560475,-0.50439111328125,0.09388476562499998,-0.017627343749999216,0.5133570566586579
166,1789996853.4811342,-0.56187158203125,0.11783496093749998,0.025483007812500784,0.5746600180981914
167,1789996853.5011342,-0.55708154296875,0.11783496093749998,0.03985312500000079,0.5708004862540423
168,1789996853.525843,-0.49481103515625,0.06993457031249997,0.006322851562500785,0.49976872960307867
169,1789996853.545843,-0.51876123046875,0.08909472656249998,-0.008047265624999217,0.5264179356962845
170,1789996853.5711,-0.47565087890625,0.017244140624999973,0.0015328125000007842,0.4759658270341927
171,1789996853.5911,-0.49960107421875,0.050774414062499974,0.025483007812500784,0.5028207018123768
172,1789996853.6013198,-0.51397119140625,0.055564453124999975,0.020692968750000786,0.5173799310007385
173,1789996853.6213198,-0.49002099609375,0.055564453124999975,-0.008047265624999217,0.49322686823390977
174,1789996853.6465468,-0.49481103515625,0.04119433593749997,-0.012837304687499216,0.49668876594641337
175,1789996853.6665468,-0.49481103515625,0.10346484374999998,0.030273046875000785,0.5064181984997257
176,1789996853.69158,-0.46607080078125,0.1369951171875,0.015902929687500785,0.48604789542465676
177,1789996853.71158,-0.47086083984375,0.10825488281249998,-0.008047265624999217,0.48321197070762745
178,1789996853.7216287,-0.51397119140625,0.09388476562499998,0.0015328125000007842,0.5224778314207996
179,1789996853.7416286,-0.49002099609375,0.12741503906249999,0.020692968750000786,0.5067379675411128
180,1789996853.766597,-0.45649072265625,0.14178515625,0.015902929687500785,0.47826740802265405
181,1789996853.786597,-0.45649072265625,0.10346484374999998,-0.012837304687499216,0.46824518166776363
182,1789996853.8106651,-0.44212060546875,0.060354492187499977,-0.008047265624999217,0.44629368468678154
183,1789996853.830665,-0.46128076171875,0.08430468749999998,0.0015328125000007842,0.46892384347616944
184,1789996853.841332,-0.45649072265625,0.09867480468749998,0.020692968750000786,0.4674919206863688
185,1789996853.861332,-0.43254052734375,0.1561552734375,0.035063085937500786,0.46119973678723003
186,1789996853.8868997,-0.42296044921875003,0.10825488281249998,0.011112890625000784,0.4367357983885889
187,1789996853.9068997,-0.40380029296875003,0.06993457031249997,-0.003257226562499216,0.4098245115306328
188,1789996853.9317174,-0.39901025390625,0.06514453124999997,-0.003257226562499216,0.40430632223475277
189,1789996853.9517174,-0.37027001953125,0.07472460937499997,0.011112890625000784,0.37789833414287743
190,1789996853.9614246,-0.43733056640625,0.10825488281249998,-0.008047265624999217,0.45060171154801315
191,1789996853.9814246,-0.45170068359375,0.04119433593749997,-0.012837304687499216,0.4537568481731514
192,1789996854.0065234,-0.41338037109375003,0.012454101562499974,-0.008047265624999217,0.41364621880947355
193,1789996854.0265234,-0.39422021484375,0.06993457031249997,0.020692968750000786,0.40090974155280257
194,1789996854.0507858,-0.42775048828125,0.19447558593749997,0.030273046875000785,0.47085846187328706
195,1789996854.0707858,-0.41817041015625,0.18489550781249997,-0.003257226562499216,0.45723456809865987
196,1789996854.0819533,-0.40859033203125,0.10346484374999998,-0.017627343749999216,0.42185513694786236
197,1789996854.1019533,-0.41817041015625,0.12262499999999998,-0.027207421874999218,0.436627560239079
198,1789996854.1414702,-0.40859033203125,0.1369951171875,0.0015328125000007842,0.43094787512735705
199,1789996854.1614702,-0.41338037109375003,0.12262499999999998,-0.003257226562499216,0.43119697512330246
200,1789996854.171541,-0.43254052734375,0.09388476562499998,-0.031997460937499216,0.44376738784831554
201,1789996854.191541,-0.38943017578125,0.04119433593749997,-0.027207421874999218,0.39254691302751454
202,1789996854.2161915,-0.37027001953125,0.007664062499999973,-0.08947792968749922,0.38100515103976906
203,1789996854.2361915,-0.47086083984375,-0.06897656250000003,-0.06073769531249922,0.479746562577109
204,1789996854.2467308,-0.55708154296875,0.03640429687499998,-0.05115761718749922,0.5606087942083223
205,1789996854.2667308,-0.56187158203125,0.2519560546875,0.0015328125000007842,0.6157790818971933
206,1789996854.2912989,-0.58582177734375,0.381287109375,0.07338339843750079,0.7028172861789687
207,1789996854.3112988,-0.46607080078125,0.3669169921875,0.1308638671875008,0.6074334714452814
208,1789996854.3361487,-0.40859033203125,0.17531542968749997,0.1021236328125008,0.4561916216840708
209,1789996854.3561487,-0.55708154296875,-0.04981640625000003,0.035063085937500786,0.560402480226104
210,1789996854.3669803,-0.53792138671875,-0.13603710937500002,-0.06073769531249922,0.5581707454250919
211,1789996854.3869803,-0.54271142578125,-0.18393750000000003,-0.027207421874999218,0.5736801716852792
212,1789996854.4115107,-0.6337221679687501,-0.04981640625000003,0.006322851562500785,0.6357086116756318
213,1789996854.4315107,-0.7055727539062501,0.022034179687499975,0.08296347656250079,0.7107751786413812
214,1789996854.456183,-0.6624624023437501,0.04119433593749997,0.11170371093750078,0.6730758700693356
215,1789996854.476183,-0.51876123046875,0.012454101562499974,0.08296347656250079,0.5255009584449083
216,1789996854.4868865,-0.39422021484375,-0.006706054687500028,0.020692968750000786,0.39481989301023407
217,1789996854.5068865,-0.49960107421875,-0.04981640625000003,-0.027207421874999218,0.502815225999848
218,1789996854.5316858,-0.62893212890625,-0.02107617187500003,-0.04157753906249922,0.6306572123950903
219,1789996854.5516858,-0.49481103515625,0.03161425781249998,0.006322851562500785,0.4958602628375421
220,1789996854.5762038,-0.51876123046875,0.1369951171875,0.11649375000000078,0.5490461457470867
221,1789996854.5962038,-0.6672524414062501,0.25674609374999996,0.2889351562500008,0.7711211978254114
222,1789996854.6064885,-0.60019189453125,0.4435576171875,0.09254355468750079,0.7520225924400559
223,1789996854.6264884,-0.37985009765625,0.25674609374999996,0.054223242187500784,0.46167609136565735
224,1789996854.6513755,-0.50439111328125,0.28548632812499997,0.23145468750000078,0.6240866214469887
225,1789996854.6713755,-0.20261865234374998,0.1369951171875,0.3512056640625008,0.4279806057292742
226,1789996854.6960933,-0.38943017578125,0.24716601562499999,0.6242378906250008,0.7761571008377772
227,1789996854.7160933,-0.6672524414062501,0.400447265625,0.9451705078125008,1.2243084259890076
228,1789996854.7268074,-0.7438930664062501,0.5680986328125,1.0697115234375008,1.421406238281549
229,1789996854.7468073,-0.6672524414062501,0.5872587890625,1.1367720703125008,1.443034804062717
230,1789996854.7720068,-0.7630532226562501,0.5441484375,1.1846724609375008,1.5105616777687345
231,1789996854.7920067,-0.8732241210937501,0.3381767578125,1.1750923828125008,1.5025731241202498
232,1789996854.8162336,-0.8205336914062501,0.419607421875,0.9547505859375008,1.3269870415996354
233,1789996854.8362336,-0.6145620117187501,0.3477568359375,1.0218111328125008,1.2420625082211543
234,1789996854.8463242,-0.8396938476562501,0.400447265625,1.0122310546875009,1.3747928856420766
235,1789996854.8663242,-0.7391030273437501,0.6878496093750001,0.6865083984375008,1.2209439591034712
236,1789996854.8913295,-0.48044091796875,0.5968388671875,0.3655757812500008,0.8489321297258468
237,1789996854.9113295,-0.25530908203125,0.8267607421875001,0.06380332031250079,0.8676329384439971
238,1789996854.9365675,-0.33194970703125,0.9896220703125,-0.23317910156249924,1.0695395941493826
239,1789996854.9565675,-0.33673974609375,0.7740703125,-0.3337699218749992,0.9077339180847954
240,1789996854.9812095,-0.40859033203125,0.5201982421875,-0.3816703124999992,0.7636913630834246
241,1789996855.0012095,-0.25051904296875,0.3573369140625,-0.45352089843749926,0.6293891215784123
242,1789996855.0117617,-0.01580712890624999,0.457927734375,-0.5493216796874992,0.7153334767846217
243,1789996855.0317616,0.03688330078125002,0.41481738281249997,-0.5780619140624993,0.7124530970172932
244,1789996855.056316,-0.11160791015624999,0.30464648437499997,-0.7313431640624992,0.8000803895062297
245,1789996855.0763159,-0.23135888671875,0.40523730468749997,-0.9468949218749992,1.055629764949241
246,1789996855.1018047,-0.10202783203124999,0.44834765625,-0.9947953124999993,1.0959210797981014
247,1789996855.1218047,0.15184423828125002,0.21363574218749998,-0.8606742187499993,0.8996982904619407
248,1789996855.1313925,0.22369482421875003,0.12262499999999998,-0.8654642578124992,0.9022774775855805
249,1789996855.1513925,0.25243505859375004,0.14178515625,-0.7552933593749993,0.8088847557322605
250,1789996855.176218,0.15184423828125002,0.18968554687499997,-0.5780619140624993,0.6270509196884103
251,1789996855.196218,0.08957373046875002,0.2711162109375,-0.6068021484374992,0.6706238143486705
252,1789996855.2218993,0.08957373046875002,-0.05939648437500003,-0.47747109374999924,0.48941806353364037
253,1789996855.2418993,0.24764501953125004,-0.011496093750000028,-0.5493216796874992,0.6026728164143771
254,1789996855.251963,0.17100439453125002,-0.33242871093750004,-0.5780619140624993,0.6884089825780658
255,1789996855.271963,0.07041357421875001,-0.385119140625,-0.6068021484374992,0.7221382632559799
256,1789996855.2963393,0.017723144531250016,-0.28931835937500006,-0.4726810546874992,0.5544786762211906
257,1789996855.3163393,0.056043457031250014,-0.16956738281250003,-0.30023964843749923,0.3493391087235548
258,1789996855.3412657,0.21890478515625003,-0.13124707031250005,-0.3146097656249992,0.40512270123573085
259,1789996855.3612657,0.23806494140625004,-0.31805859375000006,-0.4822611328124992,0.6248295652468631
260,1789996855.3712535,0.48235693359375004,-0.5863007812500001,-0.38646035156249925,0.8519204310322275
261,1789996855.3912535,0.47277685546875003,-0.6437812500000001,-0.38646035156249925,0.8873127161538329
262,1789996855.4168525,0.43924658203125005,-0.7060517578125001,-0.3433499999999992,0.8996309615816123
263,1789996855.4368525,0.38176611328125004,-0.749162109375,-0.22838906249999924,0.8712926002455779
264,1789996855.461816,0.51588720703125,-0.89286328125,-0.20922890624999924,1.0521982629683397
265,1789996855.481816,0.52067724609375,-0.9982441406250001,-0.28586953124999925,1.1616012860654945
266,1789996855.491858,0.27159521484375004,-1.1084150390625,-0.28586953124999925,1.1764647246913273
267,1789996855.511858,0.23327490234375003,-1.4485078125,-0.30023964843749923,1.4975766789820462
268,1789996855.536145,0.25722509765625,-1.77423046875,-0.21401894531249924,1.8055089631618522
269,1789996855.556145,0.27159521484375004,-1.9849921875,-0.19964882812499923,2.0134094466187804
270,1789996855.581413,0.30991552734375005,-2.2005439453125,-0.12779824218749922,2.2259320924157753
271,1789996855.601413,0.032093261718750016,-2.492736328125,-0.07510781249999922,2.494074089216355
272,1789996855.6112182,0.32907568359375006,-2.837619140625,0.015902929687500785,2.856680958025713
273,1789996855.6312182,0.21890478515625003,-2.77055859375,0.1787642578125008,2.7849364240925745
274,1789996855.6570559,0.30512548828125,-2.837619140625,0.1883443359375008,2.8601848785908883
275,1789996855.6770558,0.52067724609375,-2.9765302734375,0.0973335937500008,3.023294741132922
276,1789996855.7018425,0.30033544921875005,-2.8615693359375,0.03985312500000079,2.877562982457113
277,1789996855.7218425,0.03688330078125002,-2.9046796875,0.011112890625000784,2.904935104471296
278,1789996855.7470095,0.07999365234375001,-2.6603876953125,0.006322851562500785,2.661597575186251
279,1789996855.7670095,0.13747412109375,-2.435255859375,-0.04157753906249922,2.439487431069335
280,1789996855.776873,-0.011017089843749987,-2.1526435546875,-0.21401894531249924,2.163284484010121
281,1789996855.796873,-0.21698876953125,-1.8556611328125,-0.31939980468749923,1.8954098768256087
282,1789996855.8212738,-0.22177880859375,-1.8652412109375,-0.11342812499999923,1.8818014120681996
283,1789996855.8412738,0.09915380859375002,-2.0664228515625,-0.19485878906249923,2.077956887640656
284,1789996855.8670826,0.032093261718750016,-1.822130859375,-0.27628945312499925,1.843238104001362
285,1789996855.8870826,-0.40859033203125,-1.7023798828125,-0.15653847656249922,1.7577109032712452
286,1789996855.8965476,-0.5283413085937501,-1.7023798828125,-0.19006874999999923,1.7925869388952438
287,1789996855.9165475,-0.51876123046875,-1.649689453125,-0.15653847656249922,1.736402257725387
288,1789996855.940774,-0.35589990234375,-1.793390625,-0.04636757812499922,1.82895178357095
289,1789996855.960774,-0.43254052734375,-1.7311201171875,-0.031997460937499216,1.7846265731050066
290,1789996855.9862797,-0.62893212890625,-1.5490986328125,-0.03678749999999922,1.6723084395853398
291,1789996856.0062797,-0.62893212890625,-1.4149775390625,0.1596041015625008,1.556660055393434
292,1789996856.0158255,-0.7055727539062501,-1.228166015625,0.3655757812500008,1.462829561099852
293,1789996856.0358255,-0.9067543945312501,-1.0796748046875,0.2937251953125008,1.4401998841272317
294,1789996856.0609705,-1.05045556640625,-1.1946357421875,0.3991060546875008,1.6400905756676907
295,1789996856.0809705,-1.1845766601562502,-1.16110546875,0.3895259765625008,1.7038539432020174
296,1789996856.1065874,-1.07919580078125,-1.074884765625,0.3464156250000008,1.562064217963121
297,1789996856.1265874,-0.9833950195312501,-1.0413544921875,0.3368355468750008,1.4713745710989214
298,1789996856.136555,-0.9163344726562501,-1.1563154296875,0.2889351562500008,1.503402063065236
299,1789996856.156555,-1.17499658203125,-1.2521162109375,0.3176753906250008,1.7462329819604108
300,1789996856.1812458,-1.13667626953125,-1.2616962890624999,0.3512056640625008,1.734144136460157
301,1789996856.2012458,-0.9833950195312501,-1.1563154296875,0.2649849609375008,1.5408920036444165
302,1789996856.2267103,-1.1175161132812501,-1.2329560546875,0.2075044921875008,1.6769260599417586
303,1789996856.2467103,-1.08877587890625,-1.3095966796875,0.1356539062500008,1.7084725225234048
304,1789996856.2562623,-0.9833950195312501,-1.25690625,0.08775351562500079,1.5983052791104948
305,1789996856.2762623,-0.98818505859375,-1.1467353515625,0.08296347656250079,1.516045716657133
306,1789996856.3006825,-1.05524560546875,-1.228166015625,0.04464316406250079,1.6198543335420035
307,1789996856.3206825,-0.96902490234375,-1.3287568359375,0.020692968750000786,1.6446982061669062
308,1789996856.347092,-0.81095361328125,-1.19942578125,0.0015328125000007842,1.447850239885068
309,1789996856.367092,-0.7965834960937501,-1.0700947265625,-0.022417382812499217,1.3342228183920315
310,1789996856.3909988,-0.8636440429687501,-1.0605146484375,-0.04636757812499922,1.3684744443383299
311,1789996856.4109988,-0.6864125976562501,-1.1706855468750001,-0.04157753906249922,1.3577170528640026
312,1789996856.4207187,-0.8396938476562501,-1.0844648437500002,-0.03678749999999922,1.3720433940942685
313,1789996856.4407187,-0.8971743164062501,-1.026984375,0.11649375000000078,1.368645116274568
314,1789996856.4657426,-0.7582631835937501,-0.7779023437500001,0.1452339843750008,1.0959872363412406
315,1789996856.4857426,-0.71036279296875,-0.873703125,0.08775351562500079,1.1294570057216327
316,1789996856.511627,-0.7007827148437501,-0.9359736328125001,0.006322851562500785,1.1692660232795131
317,1789996856.531627,-0.8636440429687501,-0.8353828125,-0.003257226562499216,1.2015640165637027
318,1789996856.5412958,-0.7343129882812501,-0.7539521484375,-0.027207421874999218,1.0528056091687323
319,1789996856.5612957,-0.7438930664062501,-0.7731123046875,-0.11821816406249923,1.0793771649524644
320,1789996856.5863943,-0.8732241210937501,-0.9024433593750001,-0.08468789062499922,1.2586089231204822
321,1789996856.6063943,-1.01692529296875,-0.7874824218750001,-0.031997460937499216,1.286580527502317
322,1789996856.6308033,-0.7965834960937501,-0.7347919921875,0.006322851562500785,1.083745595831281
323,1789996856.6508033,-0.7343129882812501,-0.8114326171875,0.07817343750000079,1.0971552047567663
324,1789996856.661604,-0.9019643554687501,-0.7922724609375,0.1643941406250008,1.211718112585577
325,1789996856.681604,-0.9594448242187501,-0.691681640625,0.1931343750000008,1.1984401317981974
326,1789996856.706518,-0.9594448242187501,-0.7731123046875,0.2075044921875008,1.2495179553161126
327,1789996856.726518,-0.9977651367187501,-0.873703125,0.1596041015625008,1.3358015900281468
328,1789996856.7515767,-1.3091176757812502,-0.48091992187500004,0.1404439453125008,1.4017123678109213
329,1789996856.7715766,-1.05524560546875,-0.48091992187500004,0.2889351562500008,1.1951195687606229
330,1789996856.7809496,-0.71036279296875,-0.8593330078125001,0.4517964843750008,1.202991512540322
331,1789996856.8009496,-0.81095361328125,-0.95034375,0.4949068359375008,1.3437751978346848
332,1789996856.8267298,-1.09356591796875,-0.9263935546875001,0.4565865234375008,1.5041817338653334
333,1789996856.8467298,-1.1510463867187501,-1.266486328125,0.5475972656250008,1.796874555728867
334,1789996856.870796,-1.05524560546875,-1.19942578125,0.5475972656250008,1.6887949129211217
335,1789996856.890796,-0.9929750976562501,-1.0557246093750001,0.6098677734375008,1.5724161969666461
336,1789996856.9016411,-1.1079360351562502,-1.2137958984375001,0.6242378906250008,1.7579805701865423
337,1789996856.921641,-1.0696157226562502,-1.1658955078125002,0.7152486328125008,1.736367108658469
338,1789996856.9607704,-1.7354311523437502,-0.23662792968750004,0.4422164062500008,1.8064521614451945
339,1789996856.9807703,-1.1175161132812501,-0.34679882812500007,0.4853267578125008,1.2667492855655766
340,1789996856.9908342,-1.0312954101562501,-0.5240302734375001,0.5092769531250008,1.2639386715630683
341,1789996857.0108342,-0.7582631835937501,-0.7970625000000001,0.4757466796875008,1.1985852442499285
342,1789996857.0208871,-0.16429833984375,-1.180265625,0.4182662109375008,1.2629202323361786
343,1789996857.040887,-0.09723779296874999,-1.0700947265625,0.08296347656250079,1.0777016519620084
344,1789996857.081286,-0.21698876953125,-1.1227851562500002,-0.022417382812499217,1.1437802115136393
345,1789996857.101286,-0.51397119140625,-0.7012617187500001,-0.08947792968749922,0.8740370036107884
346,1789996857.1118855,-0.49002099609375,-0.25099804687500005,-0.4822611328124992,0.7319128338602696
347,1789996857.1318855,-0.45649072265625,-0.5479804687500001,-0.5589017578124993,0.906111223243922
348,1789996857.1559875,-0.33673974609375,-0.7252119140625001,-0.4918412109374992,0.9387405145587059
349,1789996857.1759875,-0.30799951171875,-0.7060517578125001,-0.5445316406249993,0.9433384819728616
350,1789996857.1865437,-0.32715966796875,-0.8114326171875,-0.6115921874999992,1.0674742827779098
351,1789996857.2065437,-0.34631982421875,-0.5527705078125,-0.6211722656249993,0.9007483769265919
352,1789996857.2315571,-0.15950830078125,-0.615041015625,-0.5541117187499992,0.8430647340360238
353,1789996857.251557,-0.09244775390624999,-0.519240234375,-0.5014212890624993,0.7277226925974027
354,1789996857.27611,0.022513183593750014,-0.14082714843750002,-0.5157914062499992,0.5351447504497406
355,1789996857.29611,0.12789404296875,0.352546875,-0.7361332031249993,0.8261587486931489
356,1789996857.306478,0.20453466796875003,0.5297783203125,-0.9421048828124993,1.1000277766008337
357,1789996857.326478,0.25243505859375004,-0.0019160156250000273,-0.9468949218749992,0.9799679193707139
358,1789996857.3512805,-0.05412744140624999,-0.5527705078125,-1.0139554687499992,1.1561101620643712
359,1789996857.3712804,-0.47565087890625,-0.710841796875,-1.1624466796874993,1.4431985663467306
360,1789996857.3967688,-0.49960107421875,-0.9982441406250001,-1.2103470703124992,1.6465213719435057
361,1789996857.4167688,-0.12597802734375,-0.5000800781250001,-1.4163187499999992,1.5072854240363665
362,1789996857.4262652,-0.22656884765625,-0.30847851562500006,-1.6749808593749993,1.7181540433276334
363,1789996857.4462652,-0.6193520507812501,-0.5144501953125,-1.8186820312499994,1.9889344627351686
364,1789996857.4716923,-0.37506005859375,-1.0605146484375,-1.5121195312499993,1.8846397119583835
365,1789996857.4916923,0.19016455078125002,-1.2042158203125002,-1.2390873046874993,1.738285260508894
366,1789996857.5167305,-0.22177880859375,-1.3670771484375,-0.7505033203124992,1.575227286305489
367,1789996857.5367305,-0.38464013671875,-0.9838740234375001,-0.45831093749999924,1.1515229238717921
368,1789996857.5463972,0.33386572265625003,-1.4053974609375,0.0015328125000007842,1.4445105376869052
369,1789996857.5663972,0.30033544921875005,-1.2712763671875,0.3224654296875008,1.3454846476903481
370,1789996857.5914001,-0.10681787109374999,-0.9742939453125001,0.5811275390625008,1.1394595061319364
371,1789996857.6114001,-0.6528823242187501,-0.519240234375,0.6817183593750008,1.0773141007988454
372,1789996857.6361141,-1.3378579101562502,-0.6389912109375001,0.8781099609375008,1.7231513743489517
373,1789996857.656114,-1.5150893554687501,-1.1754755859375001,0.9882808593750009,2.157298696332247
374,1789996857.6812458,-0.8875942382812501,-1.1754755859375001,0.8876900390625009,1.7197557938311956
375,1789996857.7012458,-0.49481103515625,-0.93118359375,0.5236470703125008,1.177347484826986
376,1789996857.7261724,-0.6241420898437501,-0.93118359375,0.3751558593750008,1.182115964026831
377,1789996857.7461724,-1.01692529296875,-0.5719306640625,0.035063085937500786,1.1672493975025264
378,1789996857.7565207,-0.7582631835937501,-0.34200878906250004,-0.26670937499999925,0.8735370387697462
379,1789996857.7765207,-0.39422021484375,-0.6629414062500001,-0.18527871093749923,0.7932396148950464
380,1789996857.8009138,-0.60498193359375,-1.1706855468750001,-0.07510781249999922,1.319904910641439
381,1789996857.8209138,0.04646337890625002,-1.5778388671874999,1.0122310546875009,1.8751922686649198
382,1789996857.8318248,0.6691684570312499,-0.8258027343750001,1.510395117187501,1.846897395636979
383,1789996857.8518248,-0.04454736328124999,0.323806640625,0.5092769531250008,0.6051431426302737
384,1789996857.8764906,-1.52466943359375,1.2003837890625,-0.7744535156249992,2.089333953833865
385,1789996857.8964906,-4.07297021484375,1.0471025390625,-1.3684183593749992,4.422451684822576
386,1789996857.9215841,-6.38176904296875,0.5106181640625,-0.5972220703124993,6.429959659946023
387,1789996857.941584,-3.53648583984375,1.2674443359375003,0.12128378906250079,3.7587041646829245
388,1789996857.95178,-0.98818505859375,-0.07855664062500003,0.04464316406250079,0.9923073454891533
389,1789996857.97178,-0.25530908203125,-2.54063671875,0.3943160156250008,2.5836994376681632
390,1789996857.996118,2.55165380859375,-2.8232490234375,0.8349996093750008,3.8960103381418523
391,1789996858.016118,0.99968115234375,-1.1179951171875,0.054223242187500784,1.5007383677376094
392,1789996858.0418766,-1.88871240234375,-2.703498046875,5.150824804687501,6.116137048563257
393,1789996858.0618765,-1.01213525390625,0.4914580078125,1.4145943359375008,1.8074915991255283
394,1789996858.0717862,-2.32939599609375,1.224333984375,0.3464156250000008,2.6542575604408287
395,1789996858.0917861,-0.8923842773437501,-1.1323652343750001,-0.027207421874999218,1.4419920132499209
396,1789996858.1317947,-0.8205336914062501,0.352546875,-0.8989945312499993,1.267184282187259
397,1789996858.1517947,-1.56298974609375,-0.8689130859375,0.1931343750000008,1.798679455632458
398,1789996858.1609733,-1.4959291992187502,0.1657353515625,-0.28586953124999925,1.5319901320602203
399,1789996858.1809733,0.59252783203125,-0.15040722656250002,1.8456978515625009,1.9443024777015299
400,1789996858.1909163,1.00926123046875,-1.9897822265625,-0.04636757812499922,2.2315894543514254
401,1789996858.2109163,0.35781591796875,-1.4101875,-0.7840335937499993,1.6526855999967471
402,1789996858.2367187,-0.34152978515625,-0.7012617187500001,-0.9468949218749992,1.226792804594867
403,1789996858.2567186,-2.2048549804687503,1.3057646484375003,0.3943160156250008,2.5926611660965913
404,1789996858.2819104,-2.13779443359375,1.186013671875,-0.19964882812499923,2.4528866921956523
405,1789996858.3019104,-1.3570180664062501,-0.02107617187500003,0.04464316406250079,1.3579157741448376
406,1789996858.3114688,-0.7534731445312501,-0.46175976562500004,0.030273046875000785,0.8842286571057065
407,1789996858.3314688,0.06562353515625002,-0.39948925781250005,0.7296187500000009,0.8344109514055705
408,1789996858.3561146,-0.26488916015625,-0.26057812500000005,0.6529781250000009,0.7512973167297458
409,1789996858.3761146,-0.44691064453125,-0.15040722656250002,1.084081640625001,1.182194764638109
410,1789996858.4009223,-0.72952294921875,0.24237597656249998,1.280473242187501,1.493506468486032
411,1789996858.4209223,2.45106298828125,-0.4952900390625001,-2.106084374999999,3.269344489333585
412,1789996858.431832,1.96247900390625,-0.7252119140625001,-0.9660550781249992,2.3044562428135102
413,1789996858.451832,-1.07919580078125,-0.17914746093750003,0.2745650390625008,1.127893323794245
414,1789996858.4765017,0.80328955078125,0.7980205078125,-0.42478066406249926,1.2093591054128798
415,1789996858.4965017,0.87993017578125,0.342966796875,-0.3146097656249992,0.9954308829023419
416,1789996858.5210419,0.89909033203125,-0.39469921875,-0.9564749999999993,1.3707645035012115
417,1789996858.5410419,-0.6241420898437501,-1.026984375,0.2985152343750008,1.2382897883624115
418,1789996858.5667832,-0.55708154296875,-0.32284863281250004,0.8254195312500008,1.046846926629827
419,1789996858.5867832,-0.14513818359375,0.1465751953125,0.4517964843750008,0.4966582763947471
420,1789996858.5960443,0.04167333984375002,0.2711162109375,0.1787642578125008,0.327410028798896
421,1789996858.6160443,-0.13076806640625,-0.011496093750000028,-0.003257226562499216,0.13131282072980402
422,1789996858.641043,-0.5475014648437501,0.055564453124999975,-0.031997460937499216,0.5512432312179254
423,1789996858.661043,-0.39901025390625,0.08430468749999998,0.035063085937500786,0.4093236898253793
424,1789996858.6866136,-0.5283413085937501,0.151365234375,-0.06073769531249922,0.5529421671168051
425,1789996858.7066135,-0.50918115234375,0.20405566406249998,0.0015328125000007842,0.5485494594403109
426,1789996858.7166617,-0.52355126953125,0.18489550781249997,-0.08947792968749922,0.5624042856684032
427,1789996858.7366617,-0.48044091796875,0.2615361328125,-0.031997460937499216,0.5479493242368491
428,1789996858.7618594,-0.46607080078125,0.27590624999999996,0.1260738281250008,0.5560942908069011
429,1789996858.7818594,-0.45170068359375,0.25674609374999996,0.020692968750000786,0.5199810219331407
430,1789996858.806162,-0.43254052734375,0.22800585937499998,-0.03678749999999922,0.49033794454477164
431,1789996858.826162,-0.41338037109375003,0.22321582031249998,-0.003257226562499216,0.4698076661446343
432,1789996858.8363314,-0.39901025390625,0.19447558593749997,0.06859335937500079,0.44914917922491193
433,1789996858.8563313,-0.36068994140625,0.18968554687499997,0.011112890625000784,0.4076779818226085
434,1789996858.8810828,-0.29362939453125,0.151365234375,-0.031997460937499216,0.3318937977977804
435,1789996858.9010828,-0.24572900390625,0.08430468749999998,0.006322851562500785,0.25986535387987353
436,1789996858.9267936,-0.21698876953125,0.09388476562499998,0.015902929687500785,0.23696282090613432
437,1789996858.9467936,-0.24093896484375,0.09867480468749998,0.03985312500000079,0.26339433067619306
438,1789996858.9560652,-0.22656884765625,0.07472460937499997,0.006322851562500785,0.23865705191007613
439,1789996858.9760652,-0.24093896484375,0.06993457031249997,-0.008047265624999217,0.25101232517310995
440,1789996859.0011349,-0.27446923828125,0.08430468749999998,0.035063085937500786,0.28925777965790794
441,1789996859.0211349,-0.31278955078125,0.12741503906249999,0.035063085937500786,0.339560473631274
442,1789996859.046461,-0.33194970703125,0.17531542968749997,-0.031997460937499216,0.3767624522044258
443,1789996859.066461,-0.35589990234375,0.19447558593749997,-0.03678749999999922,0.4072331201784485
444,1789996859.0766425,-0.37506005859375,0.23279589843749998,-0.04157753906249922,0.44338771931139864
445,1789996859.0966425,-0.40859033203125,0.22321582031249998,0.030273046875000785,0.4665702725573988
446,1789996859.1211593,-0.43254052734375,0.28548632812499997,0.025483007812500784,0.5188864375065863
447,1789996859.1411593,-0.43733056640625,0.33338671875,0.006322851562500785,0.5499497313427696
448,1789996859.1660912,-0.44212060546875,0.3908671875,-0.05115761718749922,0.5923384926209987
449,1789996859.1860912,-0.45170068359375,0.3956572265625,-0.05594765624999922,0.6030823233440511
450,1789996859.1967123,-0.47086083984375,0.3908671875,-0.027207421874999218,0.6125580238374206
451,1789996859.2167122,-0.49960107421875,0.3908671875,-0.008047265624999217,0.6343840714494087
452,1789996859.2413144,-0.53792138671875,0.3669169921875,-0.022417382812499217,0.6515289989689692
453,1789996859.2613144,-0.54271142578125,0.3477568359375,-0.022417382812499217,0.644959725616213
454,1789996859.2862587,-0.56187158203125,0.3860771484375,-0.022417382812499217,0.6820980708755108
455,1789996859.3062587,-0.55708154296875,0.3860771484375,0.011112890625000784,0.6778782386241042
456,1789996859.330804,-0.5475014648437501,0.3764970703125,-0.027207421874999218,0.6650173995957037
457,1789996859.350804,-0.5283413085937501,0.41002734375,-0.05594765624999922,0.6711163097624024
458,1789996859.3608153,-0.5283413085937501,0.3669169921875,-0.012837304687499216,0.643379680992583
459,1789996859.3808153,-0.51876123046875,0.3764970703125,-0.031997460937499216,0.6417843062102672
460,1789996859.406151,-0.49481103515625,0.37170703125,-0.031997460937499216,0.6196998588829394
461,1789996859.426151,-0.48044091796875,0.3142265625,0.0015328125000007842,0.5740767873319577
462,1789996859.4667516,-0.48044091796875,0.29506640624999997,0.025483007812500784,0.564390860524085
463,1789996859.4867516,-0.46128076171875,0.3142265625,-0.027207421874999218,0.5588009641343515
