imu_index,t_imu,ax,ay,az,mag,vx,vy,vz,velocity
0,1790597329.2792218,0.03647415161132831,0.01432022094726567,0.013422088623046512,0.04141962007007772,0.0,0.0,0.0,0.0
1,1790597329.2992218,0.03168411254882831,0.03827041625976567,0.042162322998046516,0.06516263675830006,0.00014874179769331101,9.714414487434642e-05,0.00010048968459150118,0.00020410606060013322
2,1790597329.294272,0.05084426879882831,0.05743057250976567,0.06611251831054651,0.10126339617971197,0.00014874179769331101,9.714414487434642e-05,0.00010048968459150118,0.00020410606060013322
3,1790597329.314272,0.08916458129882832,0.09096084594726568,0.042162322998046516,0.13417100854591935,0.0005714444072580818,0.0005119363492709762,0.00047355587979666105,0.0009016000818441762
4,1790597329.3392105,0.1083247375488283,0.062220611572265674,0.0038420104980465123,0.12498165591044309,0.001388845804308579,0.0012380804335871615,0.0009550115274319079,0.0020913590905687965
5,1790597329.3592105,0.13706497192382833,0.004740142822265671,-0.04884841918945349,0.14558654999608958,0.0023141312942919516,0.0018335150091461408,0.0012156977740819602,0.0031929456640997426
6,1790597329.3841991,0.11311477661132831,-0.05753036499023433,-0.04884841918945349,0.13598111501619942,0.0037656758670503547,0.0023669409243344637,0.001309453023906921,0.004636527935513136
7,1790597329.4041991,0.08437454223632831,-0.06711044311523433,-0.04884841918945349,0.1183598031851254,0.005049407204504163,0.0025428739022430352,0.0012266903691595464,0.005785109338758953
8,1790597329.414764,0.03168411254882831,-0.04795028686523433,-0.005738067626953489,0.0577584488932708,0.005717768753283498,0.002530699063685285,0.0011462773909613902,0.006356985852115133
9,1790597329.434764,-0.025796356201171693,-0.014420013427734331,0.023002166748046515,0.03744981249110207,0.006802070914424179,0.0024175529881874476,0.001042779792574247,0.007293841297378949
10,1790597329.4596756,-0.03537643432617169,0.06701065063476568,-0.04405838012695349,0.08765306762195885,0.007835777671477593,0.00239601899100199,0.0008938612813567677,0.008242530358596064
11,1790597329.4796755,-0.044956512451171694,0.04306045532226567,-0.05363845825195349,0.08217283631456171,0.008420691444112682,0.002546430451424551,0.0006456925022550199,0.008820956368124893
12,1790597329.5042007,-0.04016647338867169,-0.04795028686523433,0.03258224487304651,0.07052785461013472,0.008873784928714747,0.002694213109996281,0.00034829055489637154,0.009280309776822692
13,1790597329.5242007,-0.0545365905761717,-0.014420013427734331,0.037372283935546514,0.06766730455314536,0.009045798965528349,0.0027030954996619897,0.0002470736586823674,0.00944427072874668
14,1790597329.5338967,-0.016216278076171695,0.05743057250976567,-0.010528106689453488,0.06059768447645252,0.009065231104912237,0.0027380330612625466,0.00022488523050283524,0.009472371054648007
15,1790597329.5538967,0.017313995361328306,0.05264053344726567,-0.02968826293945349,0.06286647081988078,0.009100947999366636,0.0029643954998051446,0.00012565781942283557,0.009572391814694103
16,1790597329.594319,0.05563430786132831,-0.02400009155273433,-0.02010818481445349,0.06383979716666481,0.00938346415665454,0.0034401047953106726,-0.00019577748189257522,0.009996101710384713
17,1790597329.614319,0.046054229736328306,-0.06711044311523433,-0.02010818481445349,0.08383998299297196,0.009654811271736218,0.0035035025140810307,-0.0003912841936482572,0.010278278741074101
18,1790597329.6241653,0.05084426879882831,-0.04316024780273433,0.013422088623046512,0.06803013393405788,0.009839916590253085,0.003448601066467683,-0.00047803423490122023,0.010437687701235246
19,1790597329.6441653,0.06042434692382831,-0.02400009155273433,0.06132247924804651,0.08937310868957107,0.010326413113122624,0.003253070508481255,-0.0005156958537752101,0.01083896755828812
20,1790597329.654692,0.05084426879882831,0.01432022094726567,0.05174240112304652,0.07394244026027447,0.010631910051353511,0.003157951140817245,-0.00044328039316200105,0.0110998497401912
21,1790597329.674692,0.02689407348632831,0.04785049438476567,-0.0009480285644534881,0.054898631674328076,0.011241878541099908,0.003097594473482295,-0.0002501418416288758,0.011663511289312672
22,1790597329.6992776,-0.030586395263671694,0.04306045532226567,-0.02010818481445349,0.056516099337433165,0.01187242273530874,0.0032021615011719154,-8.715864610607518e-05,0.01229698566783968
23,1790597329.7192776,-0.04016647338867169,0.04306045532226567,-0.03926834106445349,0.07077818171582224,0.012202288061608297,0.0034036464021269417,-6.352739295807583e-05,0.012668254753470823
24,1790597329.7446287,-0.044956512451171694,0.033480377197265675,-0.02489822387695349,0.06133469834661649,0.012395844977480223,0.003766259645470607,-0.00016006831802363062,0.01295636161463769
25,1790597329.7646286,-0.025796356201171693,0.01911026000976567,0.0038420104980465123,0.03233287917222464,0.012419511770524125,0.004088307835383395,-0.0002563913198493443,0.013077624787549863
26,1790597329.7893376,-0.011426239013671693,-0.00483993530273433,0.027792205810546512,0.030436665644383295,0.012375385104382715,0.004452946635256499,-0.00029891956861213885,0.013155540396605494
27,1790597329.8093376,0.02689407348632831,0.004740142822265671,0.027792205810546512,0.038963660588800936,0.012368227328300325,0.00470367141054022,-0.000244802812185403,0.013234708172064177
28,1790597329.819338,0.06042434692382831,0.00953018188476567,0.03258224487304651,0.06930749417555825,0.012430677004011369,0.0048209377647933675,-0.0001765191400074452,0.013333954054100264
29,1790597329.839338,0.06042434692382831,0.004740142822265671,0.04695236206054652,0.07666873520680567,0.012718109258537332,0.005041686528232221,5.885936434628147e-05,0.013681095372294666
30,1790597329.8646436,0.05084426879882831,0.01432022094726567,0.027792205810546512,0.059687646137888434,0.01323841656566472,0.0053152734686447945,0.0004538641613060699,0.014272834262663578
31,1790597329.8846436,0.04126419067382831,0.033480377197265675,0.013422088623046512,0.05480713048721089,0.013726116276757514,0.0055707672196968535,0.0007810457465456317,0.014834073881348765
32,1790597329.9097433,0.017313995361328306,0.02869033813476567,0.03258224487304651,0.0467387699734006,0.014356637703634724,0.005960347997103302,0.0012166659295802895,0.015592275984736831
33,1790597329.9297433,0.002943878173828307,0.00953018188476567,0.027792205810546512,0.0295279103438566,0.014814074642190455,0.006281540544045626,0.0016022716838441687,0.016170399922689857
34,1790597329.9394648,-0.011426239013671693,0.033480377197265675,0.0038420104980465123,0.035584485944521384,0.01499688691830411,0.006445605620428152,0.001784655387267529,0.016420640788525852
35,1790597329.9594648,-0.0018461608886716936,0.01432022094726567,-0.005738067626953489,0.015537131591669653,0.015296661525786629,0.006804206474963029,0.002100745049070466,0.01687300238101103
36,1790597329.9847445,-0.011426239013671693,0.00953018188476567,0.0038420104980465123,0.015366988951039447,0.015593572386444576,0.007234703883380874,0.0024367539960755873,0.01736197598457282
37,1790597330.0047445,0.007733917236328307,0.04306045532226567,-0.015318145751953489,0.04635366088732696,0.015787698769229475,0.007603088115971666,0.002645497119730217,0.01772165444696573
38,1790597330.028897,0.017313995361328306,0.02869033813476567,-0.02489822387695349,0.04174723332013972,0.016032338954921597,0.008111200426412217,0.002786918887920748,0.018182254579968228
39,1790597330.048897,0.046054229736328306,-0.00962997436523433,-0.005738067626953489,0.047398880819836536,0.016299583571586583,0.008497430727260724,0.0028405055789545493,0.01859976412527325
40,1790597330.0592964,0.05084426879882831,-4.989624023432962e-05,-0.015318145751953489,0.053101673689257535,0.016493274370454277,0.008660584054191681,0.002847766612823947,0.01884525378709233
41,1790597330.0792964,0.05084426879882831,0.03827041625976567,-0.02489822387695349,0.06833510066291071,0.016962436734734666,0.00898462434865725,0.002799311853727361,0.019398038084321292
42,1790597330.1043973,0.04126419067382831,-0.00962997436523433,0.0038420104980465123,0.042546808140073555,0.01763633574831604,0.00938422536118162,0.0027079809248654265,0.02016028732300732
43,1790597330.1243973,0.03647415161132831,-0.04795028686523433,0.023002166748046515,0.06448793236978036,0.018209351132560527,0.009568490693047134,0.0026863919424312543,0.020744955639387917
44,1790597330.149695,0.02689407348632831,-4.989624023432962e-05,-0.005738067626953489,0.027499438147247816,0.01894565908056695,0.009675531854270095,0.0026959361053062497,0.021443460218536516
45,1790597330.169695,0.02689407348632831,0.04306045532226567,-0.005738067626953489,0.051092263811073756,0.019521139249145898,0.009811979158544495,0.0026851355844208185,0.02201271827146704
46,1790597330.1798108,0.04126419067382831,0.033480377197265675,-0.010528106689453488,0.05417111887068387,0.01982026326519077,0.009928711939948992,0.0026681511974745013,0.022328035907811974
47,1790597330.1998107,0.04126419067382831,0.004740142822265671,-0.010528106689453488,0.042849077194334666,0.020446741844880947,0.010182215311035395,0.0026080241787127595,0.022990183792832963
48,1790597330.2243226,0.022104034423828307,0.02869033813476567,-0.0009480285644534881,0.036230133842645354,0.02121587310486556,0.010507761362203914,0.002524289103855973,0.02380962737899586
49,1790597330.2443225,0.007733917236328307,0.04785049438476567,-0.015318145751953489,0.050834327751657714,0.021794055173446302,0.01084835250967153,0.0024418160361004537,0.024466917636504104
50,1790597330.2689006,-0.025796356201171693,-4.989624023432962e-05,0.018212127685546513,0.031577461546602646,0.022364711298718743,0.011292237379874183,0.0023610017848561477,0.025164841862140908
51,1790597330.2889006,-0.0545365905761717,-0.05274032592773433,0.06132247924804651,0.09755115658854958,0.022638918950302088,0.01152007493069647,0.0024244066134744445,0.025516867462027287
52,1790597330.3143017,-0.030586395263671694,0.04306045532226567,0.07090255737304652,0.08841325143791823,0.022772772982273853,0.011747595638785215,0.002744754953188827,0.02577089195871268
53,1790597330.3343017,0.02689407348632831,0.09096084594726568,0.037372283935546514,0.10195025400012173,0.022856817829716908,0.012100898206187724,0.0031215638098549096,0.026050144324290755
54,1790597330.3594756,0.046054229736328306,0.023900299072265672,-0.0009480285644534881,0.051895232252195084,0.023084466239834442,0.012695756498231993,0.003593479093843166,0.026589244190806625
55,1790597330.3794756,0.03647415161132831,-0.062320404052734334,-0.02489822387695349,0.07638139858165159,0.02336199009398425,0.013039835320906247,0.0038733950324042862,0.027033739575294178
56,1790597330.3892708,0.02689407348632831,-0.04795028686523433,-0.02489822387695349,0.06035265322563033,0.023524074923824186,0.01310206476420262,0.003953340476151511,0.027215346829085822
57,1790597330.4092708,0.03168411254882831,-0.014420013427734331,0.0038420104980465123,0.03502257586086377,0.023893247513651274,0.013116511355528302,0.004060505041477715,0.027557537046698704
58,1790597330.4343476,0.017313995361328306,0.04785049438476567,0.037372283935546514,0.06313582069473475,0.02437885370730674,0.013194782945005576,0.004252231988351979,0.02804482629525163
59,1790597330.4543476,-0.011426239013671693,0.08138076782226568,0.05653244018554651,0.09974620344991313,0.02471688505756274,0.013441691138253055,0.004523063513938953,0.028496694039065035
60,1790597330.4645967,0.007733917236328307,0.13886123657226568,-0.0009480285644534881,0.13907967233336485,0.02486128948579029,0.013718538375971487,0.004683761608861115,0.028778805271899504
61,1790597330.4845967,0.03168411254882831,0.07659072875976568,-0.02010818481445349,0.08528986936612716,0.025159936418863552,0.01450091547318745,0.004918723153380374,0.029453230512481714
62,1790597330.5091279,0.022104034423828307,0.02869033813476567,0.027792205810546512,0.04565227862782702,0.025570259187627797,0.015510301109741697,0.005177825242060712,0.030351564534215354
63,1790597330.5291278,0.03168411254882831,0.062220611572265674,0.008632049560546513,0.07035481342487741,0.025935293562274912,0.01634616808926724,0.0054120184063539516,0.03113079836102298
64,1790597330.5532806,0.046054229736328306,0.062220611572265674,0.008632049560546513,0.07789036436330876,0.02645081846774872,0.017429599659378306,0.0056836892407294065,0.032182931272417996
65,1790597330.5732806,0.06521438598632831,0.04785049438476567,0.05653244018554651,0.09868385250775681,0.026980574859733035,0.018357282461759945,0.005972652148719237,0.033175500189629364
66,1790597330.5835683,0.07000442504882831,0.1915516662597657,0.2529240417480465,0.3249049572836297,0.027316532817731533,0.018947611909517565,0.006337766574836367,0.033843348643611035
67,1790597330.6035683,0.12269485473632831,0.3927333068847657,0.4588957214355465,0.6163430545299128,0.02816073427461198,0.02079952682185311,0.008008827540554509,0.03591362679363694
68,1790597330.62864,0.05563430786132831,0.34004287719726567,0.18586349487304651,0.39149658142853144,0.029395593924337778,0.024150716827526297,0.011001804940716117,0.039603002126120335
69,1790597330.64864,0.012523956298828307,0.1963417053222657,-0.1302790832519535,0.23596515476485042,0.03033513624114834,0.027227590201860285,0.013114590243173293,0.04282002611180668
70,1790597330.6742418,0.06042434692382831,0.023900299072265672,-0.1398591613769535,0.15421709055088423,0.03149750462137266,0.0309983707936459,0.01489476701480779,0.04663524282834986
71,1790597330.6942418,0.08437454223632831,-0.15812118530273434,-0.058428497314453494,0.1885079890019431,0.03248653106978056,0.033300888957064144,0.015779397258017382,0.04912548507755278
72,1790597330.7186868,0.09395462036132832,-0.22997177124023435,-0.16859939575195348,0.3002336465197328,0.03384099137183431,0.03498149012854904,0.016282225459325686,0.05132278455569857
73,1790597330.7386868,0.05563430786132831,-0.28266220092773436,-0.1302790832519535,0.31617358456627803,0.03500731562462971,0.035381291228998975,0.016183593231479287,0.05233790792681405
74,1790597330.7482412,0.046054229736328306,-0.20602157592773435,-0.05363845825195349,0.2178140629711504,0.03555378321450941,0.0351934546699593,0.016011751010990345,0.052526440226887273
75,1790597330.7682412,0.09874465942382832,0.01432022094726567,0.10922286987304652,0.14793651272086553,0.036743303375548236,0.03457168798551153,0.01578937112250307,0.05286375122481633
76,1790597330.7940347,0.13227493286132833,0.22508193969726567,0.23855392456054653,0.35364744077200866,0.038494198716658455,0.034353217957520256,0.01621837220227793,0.05408310748991873
77,1790597330.8140347,0.1083247375488283,0.3879432678222657,0.22418380737304652,0.4609692042880044,0.04000907589370248,0.03512876592607082,0.017195223658823568,0.05595026421772899
78,1790597330.8242052,0.05084426879882831,0.4885340881347657,0.33435470581054655,0.5941748599840048,0.04078528555350063,0.03613255594522326,0.01804350727918743,0.057398338580043985
79,1790597330.8442051,0.03647415161132831,0.5843348693847658,0.5115861511230465,0.7774946902298241,0.04221370210917431,0.03941969881713492,0.020730328456976633,0.061364939652295517
80,1790597330.8685353,0.07479446411132831,0.7184559631347657,0.4588957214355465,0.8557794493778494,0.043893768962704,0.04519599057686659,0.025279484191460488,0.06788514446446846
81,1790597330.8885353,0.06521438598632831,0.7328260803222657,0.11880294799804651,0.745252387177053,0.045277680348791455,0.05140892901828644,0.02932462287762857,0.0745176477587
82,1790597330.9141376,0.1418550109863283,0.6705555725097657,0.042162322998046516,0.6866915475280169,0.04718112463769632,0.06086396969118605,0.034035221953023664,0.08419547293078787
83,1790597330.9341376,0.21849563598632832,0.6370252990722657,0.04695236206054652,0.6750896969338551,0.04898553929847502,0.06910349705291582,0.037296737078685166,0.09255227151194807
84,1790597330.9441793,0.1658052062988283,0.5699647521972657,-0.005738067626953489,0.5936194998508548,0.050045043117218205,0.07352892548144618,0.0387197041166829,0.09700631273243905
85,1790597330.9641793,0.12748489379882832,0.5508045959472657,0.018212127685546513,0.5656587157097147,0.05227865054685127,0.08270204726698682,0.04114740804250588,0.10614044994142051
86,1790597330.9889624,0.2520259094238283,0.5843348693847658,0.042162322998046516,0.6377632476714307,0.05533668404896667,0.09447387523325639,0.04381669038581833,0.11792948765890031
87,1790597331.0089624,0.3095063781738283,0.6034950256347656,0.07090255737304652,0.6819293341235773,0.05827663885764318,0.10433050030467732,0.04581728098225164,0.1279853240296521
88,1790597331.033802,0.26639602661132833,0.5316444396972657,0.10443283081054652,0.603753980861764,0.062453197701946524,0.11685073251530587,0.048255920941139285,0.14100755121070455
89,1790597331.053802,0.3095063781738283,0.4454237365722657,0.1619132995605465,0.566049838624536,0.06617544270039936,0.12688504643414736,0.05032441886834549,0.15169558780540143
90,1790597331.0636723,0.3669868469238283,0.3065126037597657,0.1619132995605465,0.5048219870937356,0.06823766776850279,0.1316509555481393,0.05143184812618462,0.1569509107998346
91,1790597331.0836723,0.5106880187988283,0.22508193969726567,0.10443283081054652,0.5677766711248888,0.07310602886237287,0.14065685632885355,0.05373873521326392,0.16738188178731633
92,1790597331.1085956,0.6879194641113283,0.2873524475097657,0.037372283935546514,0.7464591789238235,0.08050329914016686,0.1511541550727802,0.056447356726529556,0.18031822938801656
93,1790597331.1285956,0.6352290344238284,0.2586122131347657,0.09964279174804652,0.6930547517367119,0.08753363396879359,0.15913321781740652,0.05850040641334361,0.19080832172426668
94,1790597331.1533823,0.6543891906738284,0.14844131469726568,0.12359298706054651,0.6823014460122074,0.0973370477962692,0.16829536529655134,0.06107815934721153,0.20378511330133076
95,1790597331.1733823,0.8603608703613284,-0.04795028686523433,0.05653244018554651,0.8635484781138192,0.1063328493035453,0.17472996728057363,0.06311630097567314,0.21405817843692065
96,1790597331.198729,0.8364106750488284,-0.062320404052734334,-0.03926834106445349,0.8396479337834919,0.11924904400972805,0.18145194073785245,0.065344684074371,0.22674891186408486
97,1790597331.218729,0.7166596984863284,-4.989624023432962e-05,-0.010528106689453488,0.7167370277546811,0.13024149559458723,0.1858667903132521,0.06676455850592541,0.23657306944907414
98,1790597331.228769,0.5202680969238284,-0.09106063842773433,-0.2596101379394535,0.588530675724342,0.13586341086605586,0.18768201028797524,0.06716700720061772,0.24123600530223963
99,1790597331.248769,0.5202680969238284,-0.14854110717773433,-0.47995193481445353,0.7232545975868158,0.1469433413735136,0.19039617100962913,0.06673909849280558,0.24959397984882026
100,1790597331.273637,0.7933003234863284,-0.30661239624023434,-0.49911209106445353,0.986128513033886,0.16110356329005598,0.19241583720311187,0.06446079226138021,0.2591011506155315
101,1790597331.293637,0.6591792297363284,-0.5556944274902343,-0.2883503723144535,0.9090981744967715,0.17296232847254897,0.19250303915902997,0.06172213020887404,0.26605076303899255
102,1790597331.319273,0.4005171203613283,-0.5173741149902343,-0.37936111450195353,0.7563099852313357,0.1879202747255449,0.19053486275621065,0.05745447106024701,0.27371258616158856
103,1790597331.339273,0.35261672973632835,-0.6227549743652344,-0.6476033020019535,0.9651695980243161,0.19896904382552885,0.18751951307941475,0.0530840112378425,0.2785142014969531
104,1790597331.3488305,0.4100971984863283,-0.8287266540527344,-0.5709626770019535,1.0867225763151387,0.20400370434096202,0.1852542589614194,0.050435276750710516,0.2801434792907021
105,1790597331.3688304,0.5250581359863283,-1.0107481384277344,-0.5949128723144536,1.2849977319614232,0.21436163101073247,0.1784658219512775,0.04397513773131374,0.2823734604965816
106,1790597331.3933995,0.5873286437988283,-0.8814170837402344,-0.5374324035644535,1.1877224422131527,0.22722699250520764,0.16789078762975268,0.03514301042578347,0.28470063905036663
107,1790597331.4133995,0.6400190734863284,-1.0538584899902343,-0.5518025207519535,1.3508249898706364,0.23796990613594587,0.15767072294024867,0.02739797030607012,0.2867758390725129
108,1790597331.4389884,0.6352290344238284,-1.1879795837402345,-0.5613825988769535,1.4594388784325614,0.25210060335158024,0.14225358672546173,0.01683858681012431,0.28995574688605735
109,1790597331.4589884,0.6974995422363284,-1.2119297790527344,-0.5086921691894535,1.48796744714707,0.26348738919526227,0.12841138855812598,0.008218375028319656,0.29322795000556773
110,1790597331.469321,0.7501899719238283,-1.3652110290527342,-0.4176814270019535,1.6127752237322746,0.26960960635493414,0.1203356519716758,0.00371504862812788,0.2952690477524188
111,1790597331.489321,0.7118696594238283,-1.5520225524902342,-0.37936111450195353,1.74912757414737,0.28187544885278104,0.10267296619989799,-0.004889742265037538,0.300032358644298
112,1790597331.513903,0.7118696594238283,-1.4322715759277342,-0.3937312316894535,1.6471747211593575,0.29731483598853226,0.07871821721546557,-0.015304750276858951,0.30793977463378464
113,1790597331.533903,0.8076704406738283,-1.4945420837402343,-0.2500300598144535,1.7171204417919195,0.31027148107001024,0.05776173905766871,-0.0234730445148831,0.3164740025391369
114,1790597331.5737295,0.7741401672363284,-1.5855528259277343,-0.1494392395019535,1.770763351958425,0.33692719611779604,0.013089867648277402,-0.03849218635668623,0.33937137258373323
115,1790597331.5937295,0.6687593078613283,-1.5807627868652343,-0.2835603332519535,1.7396713663169445,0.35046952593943304,-0.010727773975101683,-0.0455526005542785,0.35358027824516663
116,1790597331.5887637,0.6831294250488283,-1.6142930603027343,-0.3410408020019535,1.7857538252903857,0.35046952593943304,-0.010727773975101683,-0.0455526005542785,0.35358027824516663
117,1790597331.6087637,0.7693501281738283,-1.5424424743652343,-0.1877595520019535,1.7338633325077866,0.36415623297826305,-0.036744811154408336,-0.0522433152745643,0.36971517030623674
118,1790597331.633451,0.7406098937988284,-1.4083213806152344,-0.2452400207519535,1.6099735381891003,0.38131223587479085,-0.06950564569314832,-0.06006500460253028,0.3922216985187785
119,1790597331.653451,0.7262397766113283,-1.5472325134277343,-0.3506208801269535,1.7447887165274123,0.39532635130961774,-0.09649850199547184,-0.06634491041563129,0.412306357051651
120,1790597331.678285,0.7501899719238283,-1.9783360290527343,-0.2739802551269535,2.1334628232108113,0.4128673595195515,-0.1315544357820186,-0.07413633692535479,0.4396159944579833
121,1790597331.6982849,0.6735493469238284,-2.1172471618652344,-0.1925495910644535,2.2301299541028983,0.4270106109969501,-0.16169523899284685,-0.08016972866520558,0.463584509675631
122,1790597331.7089698,0.6016987609863284,-2.2130479431152343,-0.36020095825195353,2.3215010936514067,0.43445517339746603,-0.17885270485979546,-0.08335252053836317,0.47716583114006145
123,1790597331.7289698,0.5011079406738284,-2.3088487243652343,-0.4176814270019535,2.3992393325118115,0.44795382085176605,-0.21293339470570827,-0.08958322481378636,0.5040123117192976
124,1790597331.7541375,0.5154780578613284,-2.217837982177734,-0.3554109191894535,2.3045259522959993,0.46431124299266086,-0.2579315424930263,-0.09770703513860776,0.5400558079474739
125,1790597331.7741375,0.6687593078613283,-2.1507774353027345,-0.3506208801269535,2.2794774817136427,0.47713651604494156,-0.29487927783025114,-0.10425345746795323,0.5705101461246921
126,1790597331.7989733,0.7214497375488284,-2.0837168884277344,-0.4607917785644535,2.252708338449704,0.49326341815269065,-0.3417660202402114,-0.11267476822819893,0.6105803924740681
127,1790597331.8189733,0.6783393859863284,-1.9016954040527343,-0.3506208801269535,2.049274196869858,0.5064018744583463,-0.37983784687278654,-0.1196562263416597,0.6442338557342416
128,1790597331.8288236,0.8412007141113284,-1.6526133728027343,-0.2021296691894535,1.8653702057646562,0.5130247034521476,-0.39840192288468984,-0.12298727563967209,0.6610932676102903
129,1790597331.8488235,0.9609516906738284,-1.6190830993652343,-0.03926834106445349,1.883188847956831,0.5271578759421247,-0.43534809702346117,-0.12909823207497556,0.6957655821285254
130,1790597331.8741794,0.9082612609863283,-1.5711827087402344,0.20023361206054652,1.825827790853121,0.545942767007425,-0.48122903596913563,-0.13537743508850736,0.7402445135484964
131,1790597331.8941793,0.8651509094238283,-1.5376524353027343,0.2720841979980465,1.7851865220949734,0.5611973440906879,-0.5166534800794174,-0.13887889454878552,0.7753454874078443
132,1790597331.9192677,0.9034712219238283,-1.4945420837402343,0.19065353393554652,1.7567768950317082,0.5807904815623243,-0.5601303902306962,-0.14174164232845332,0.8192400934423044
133,1790597331.9392676,0.8507807922363283,-1.5376524353027343,0.03258224487304651,1.7576303851810458,0.5966982800836835,-0.5941388828661793,-0.14334660339407632,0.8541651469668592
134,1790597331.963905,0.7501899719238283,-1.5520225524902342,-0.1111189270019535,1.7273987418518753,0.6163135148851087,-0.6354580710804445,-0.14517226784898662,0.8970642653030686
135,1790597331.983905,0.7358198547363284,-1.6813536071777342,0.09485275268554652,1.8377643634823795,0.632077147708655,-0.6688185984762941,-0.14645638563132377,0.9318204286317693
136,1790597331.9935632,0.7022895812988283,-1.7436241149902343,0.07569259643554652,1.881266881527317,0.6395893443937013,-0.6849929875160031,-0.14685994111995757,0.948608330510449
137,1790597332.0135632,0.7358198547363284,-1.6957237243652343,-0.1350691223144535,1.8534167032273368,0.6549693189878318,-0.7186218278297258,-0.14765933580881832,0.9834660236633606
138,1790597332.0389287,0.8364106750488284,-1.6478233337402344,-0.2308699035644535,1.862311861350369,0.6745405677497913,-0.761235845914588,-0.14921728365412104,1.0279838463646322
139,1790597332.0589287,0.6974995422363284,-1.6047129821777342,-0.05363845825195349,1.7505674653646717,0.6899580545394485,-0.7946745012958886,-0.15068818026559272,1.0631352725337853
140,1790597332.0988433,0.6687593078613283,-1.4801719665527342,-0.06321853637695349,1.6254675160585017,0.7202018809811238,-0.8606338133220024,-0.15353319135061738,1.1326754834674517
141,1790597332.1188433,0.6974995422363284,-1.3795811462402343,-0.1350691223144535,1.5517710585921505,0.7351323798799415,-0.8930160919718844,-0.15504233788285138,1.1670199154276948
142,1790597332.114365,0.7885102844238283,-1.3460508728027343,-0.0967488098144535,1.5629976817051465,0.7351323798799415,-0.8930160919718844,-0.15504233788285138,1.1670199154276948
143,1790597332.134365,0.8076704406738283,-1.2981504821777343,-0.010528106689453488,1.5289333066379989,0.7502085948607297,-0.9238537640564235,-0.1565891790552743,1.2003494841758948
144,1790597332.1585364,0.8412007141113284,-1.2167198181152343,-0.1446492004394535,1.486253393067128,0.7686852995205524,-0.9600918806316934,-0.1584595368039229,1.2400656973555946
145,1790597332.1785364,0.8699409484863283,-1.1688194274902344,-0.3554109191894535,1.4997509891348577,0.7842468836076919,-0.9891568607435952,-0.16052506989300397,1.2724947024128057
146,1790597332.2036088,0.9849018859863283,-1.3795811462402343,-0.4464216613769535,1.7528742578483787,0.8043168165464664,-1.024919862475118,-0.16423383714604078,1.3131485137406085
147,1790597332.2236087,1.0423823547363285,-1.5376524353027343,-0.3314607238769535,1.8870087961456663,0.82096590686904,-1.0535443644379627,-0.1679153428332591,1.3461561240952356
148,1790597332.2338946,1.1142329406738283,-1.4466416931152342,-0.1973396301269535,1.836635555563651,0.8299077411323033,-1.068359744428487,-0.16993264745236064,1.3634575559865412
149,1790597332.2538946,1.0519624328613284,-1.4322715759277342,-0.1925495910644535,1.787484873329318,0.8479356807312426,-1.0971642842669143,-0.17385158839379025,1.3974937424243195
150,1790597332.2793906,0.9513716125488284,-1.4753819274902342,-0.2979304504394535,1.7806241406955068,0.8713011950228606,-1.133936361011269,-0.17903597562671628,1.4411909394109979
151,1790597332.2993906,0.8843110656738283,-1.5472325134277343,-0.2212898254394535,1.7958016868028912,0.8896341512464376,-1.162988813063366,-0.1832716015844927,1.4756626925967369
152,1790597332.324256,0.8938911437988284,-1.5041221618652343,-0.12069900512695349,1.7538509356883096,0.9123242300696781,-1.1993813483979359,-0.1883855029261886,1.5186639580136994
153,1790597332.344256,0.7885102844238283,-1.3939512634277342,-0.16380935668945348,1.6098702117850792,0.9303605963317517,-1.2286093244985385,-0.1923085401595503,1.553072530846459
154,1790597332.3534396,0.7645600891113283,-1.3987413024902342,-0.1254890441894535,1.5989924519414036,0.9384699991432066,-1.2419406906769659,-0.19403898340666398,1.5686917305616552
155,1790597332.3734396,0.9130513000488284,-1.3556309509277342,-0.1494392395019535,1.6412586749007638,0.9559978512892777,-1.2707501374754306,-0.19765462494936947,1.602437254411984
156,1790597332.3990262,0.9370014953613284,-1.2837803649902342,-0.2691902160644535,1.6119947891567923,0.9786084370359764,-1.3071434628216274,-0.20238973636031923,1.6453753707951604
157,1790597332.4190261,0.9226313781738283,-1.3173106384277342,-0.3075105285644535,1.6374121971219746,0.9964205719261938,-1.335225167136198,-0.20640083971371134,1.6787738113713047
158,1790597332.4441035,0.9561616516113284,-1.3460508728027343,-0.2452400207519535,1.6692036196832083,1.018938168500317,-1.3701635654947333,-0.21171543954237432,1.7205832193697115
159,1790597332.4641035,0.9657417297363283,-1.3173106384277342,-0.1877595520019535,1.6441466041801063,1.037085747109702,-1.397843418007232,-0.21596771673318993,1.753897124347713
160,1790597332.474259,0.9370014953613284,-1.3221006774902342,-0.1494392395019535,1.6273457192718528,1.046367601052042,-1.4118005532476823,-0.21805985771191252,1.770767082432697
161,1790597332.4942589,0.8555708312988284,-1.3795811462402343,-0.2021296691894535,1.635879576740759,1.0645940778214056,-1.439217011777215,-0.2220894088915463,1.8038929743926444
162,1790597332.519171,0.7501899719238283,-1.4322715759277342,-0.2308699035644535,1.6332445541184117,1.0868918706869064,-1.4734983183520087,-0.22716478119493477,1.8450298291807703
163,1790597332.539171,0.7453999328613283,-1.4035313415527342,-0.1829695129394535,1.5996871973282123,1.1043512259420993,-1.5011455187609029,-0.23124896438373602,1.8778992471014808
164,1790597332.5638137,0.7358198547363284,-1.3125205993652342,-0.1063288879394535,1.508458489582231,1.1253742828273976,-1.5351206893049776,-0.23606107694160863,1.918016589925202
165,1790597332.5838137,0.7310298156738283,-1.2981504821777343,-0.1494392395019535,1.497308035136831,1.1420774928346649,-1.5624747574102515,-0.23976440623015302,1.9501680280628735
166,1790597332.609581,0.7741401672363284,-1.3221006774902342,-0.16380935668945348,1.540803915262367,1.1632782009377793,-1.5974943019857584,-0.24442533651952092,1.9912177085358302
167,1790597332.629581,0.8076704406738283,-1.2694102478027343,-0.1063288879394535,1.5083234899633753,1.1796380737151189,-1.6244856959150944,-0.24790559049025593,2.0228586067709693
168,1790597332.6391523,0.8555708312988284,-1.2262998962402343,-0.03926834106445349,1.4957790229502925,1.1874869181531411,-1.637256830135045,-0.24942580922858038,2.0378783925735195
169,1790597332.6591523,0.8364106750488284,-1.1975596618652344,-0.07279861450195349,1.4625428538459362,1.2039655266732636,-1.6635759255178235,-0.2522940292854162,2.068978039176149
170,1790597332.6841037,0.7885102844238283,-1.2885704040527342,-0.2069197082519535,1.5247878280291478,1.2244808799566396,-1.6961381364784531,-0.2558590522535138,2.1075345449164176
171,1790597332.7041037,0.7645600891113283,-1.3604209899902342,-0.1973396301269535,1.5729718145874623,1.2407880501985757,-1.722296979005236,-0.2588943701952404,2.138431239092091
172,1790597332.7287621,0.7501899719238283,-1.3460508728027343,-0.1111189270019535,1.544987172142909,1.2606790693604977,-1.7547163508106913,-0.2626457952026857,2.1765394555265223
173,1790597332.7487621,0.7549800109863284,-1.2406700134277342,-0.1542292785644535,1.4604942894699051,1.2766500571674815,-1.7809469404994716,-0.26563011862962305,2.207298514760373
174,1790597332.7585237,0.7645600891113283,-1.3029405212402343,-0.2308699035644535,1.5282365798931643,1.2843883786656216,-1.7936913745979757,-0.26715015453698,2.222240189454689
175,1790597332.7785237,0.7549800109863284,-1.3939512634277342,-0.2356599426269535,1.60269477766655,1.3001441371125573,-1.819931409806024,-0.2704971233038119,2.2529300493762197
176,1790597332.803513,0.7310298156738283,-1.3747911071777343,-0.17338943481445349,1.5666904850302652,1.3196626093572679,-1.852988799176392,-0.2748184098000044,2.291419221961316
177,1790597332.823513,0.7310298156738283,-1.3077305603027343,-0.1446492004394535,1.5051535472972808,1.3351338929128078,-1.8795011464339615,-0.27823518969082384,2.322180417675029
178,1790597332.848161,0.7358198547363284,-1.2885704040527342,-0.17338943481445349,1.4939573089382752,1.354052277532446,-1.9120733745422587,-0.2824023246692667,2.3599222938272417
179,1790597332.868161,0.7118696594238283,-1.2789903259277342,-0.1254890441894535,1.4691229240729013,1.369272043647807,-1.938390163430519,-0.285724764304575,2.390376747740101
180,1790597332.879054,0.6591792297363284,-1.2646202087402343,-0.06800857543945349,1.4277278086537633,1.3774382716164,-1.9526518038558474,-0.28742099680214384,2.406822820362523
181,1790597332.899054,0.6400190734863284,-1.2167198181152343,-0.06800857543945349,1.3764652907189383,1.3921314338976374,-1.9786307906571503,-0.2902721942001447,2.436650915028289
182,1790597332.9241486,0.6831294250488283,-1.2119297790527344,-0.08237869262695349,1.3936376321416117,1.4102922330323155,-2.0109087714482543,-0.2935960886630591,2.473636378475432
183,1790597332.9441485,0.7214497375488284,-1.2358799743652342,-0.12069900512695349,1.4361257899936626,1.4247019222419095,-2.0364468258240125,-0.2961524386231642,2.502917798999986
184,1790597332.9693124,0.7262397766113283,-1.2310899353027343,-0.1494392395019535,1.4371286401151029,1.442844811598461,-2.0684148060940037,-0.299396198414024,2.539641518807381
185,1790597332.9893124,0.7118696594238283,-1.2358799743652342,-0.0871687316894535,1.4289003152178101,1.4572587765194713,-2.0937118853511145,-0.30194249881194796,2.5687354618941103
186,1790597332.9988668,0.7022895812988283,-1.2454600524902342,-0.04405838012695349,1.430497304859143,1.4641250937924184,-2.1057621388992067,-0.303070488717535,2.5825855643183453
187,1790597333.0188668,0.6879194641113283,-1.2837803649902342,-0.1159089660644535,1.4610818262684013,1.4784275463396497,-2.1309968411876756,-0.3053174559534894,2.6115348544175396
188,1790597333.0445127,0.6831294250488283,-1.2981504821777343,-0.1398591613769535,1.4735742501709548,1.4966537144606114,-2.1634677358991103,-0.30825850537603455,2.6486955830034216
189,1790597333.0645127,0.6831294250488283,-1.2837803649902342,-0.1159089660644535,1.4588326584348639,1.5107847084132568,-2.1888646595704793,-0.3105916950807849,2.6776979168952337
190,1790597333.088972,0.7549800109863284,-1.2502500915527344,-0.1254890441894535,1.4659016367506108,1.5281123569919761,-2.2199139257704337,-0.31345993458940447,2.7131904363707804
191,1790597333.108972,0.7501899719238283,-1.2119297790527344,-0.08237869262695349,1.4277062135918615,1.5424133407262623,-2.2451873551576056,-0.3157652476285035,2.742191252451193
192,1790597333.1186252,0.7022895812988283,-1.2310899353027343,-0.04405838012695349,1.4180036056597265,1.5493319850664327,-2.257324652793322,-0.31680255607279006,2.756140063130435
193,1790597333.1386251,0.6974995422363284,-1.2310899353027343,-0.06800857543945349,1.4165850509436,1.5636160371615813,-2.2823928189745364,-0.3187974521305977,2.7849315803553196
194,1790597333.1789515,0.6879194641113283,-1.2502500915527344,-0.1159089660644535,1.4317099458147828,1.5922872388654088,-2.3328611973868023,-0.3227727025636558,2.8428510750383778
195,1790597333.1989515,0.6831294250488283,-1.2646202087402343,-0.1781794738769535,1.4483362898970682,1.6064304454251068,-2.3579089548227112,-0.32488964184642277,2.871568681853341
196,1790597333.208807,0.6879194641113283,-1.3029405212402343,-0.1877595520019535,1.485308331748316,1.6133678910173035,-2.3702982928740433,-0.3260468306728303,2.8857540582591272
197,1790597333.228807,0.6879194641113283,-1.2837803649902342,-0.16380935668945348,1.465659824098583,1.6273981998474392,-2.395549012059238,-0.32857024397778084,2.914624911591935
198,1790597333.2383845,0.6687593078613283,-1.2598301696777343,-0.1015388488769535,1.42993748328822,1.634083683027884,-2.407654292634586,-0.3297879891246784,2.9284447738946047
199,1790597333.2583845,0.6448091125488283,-1.2215098571777343,-0.0871687316894535,1.3840027133617638,1.64792069569383,-2.432863044075424,-0.33223253497785743,2.9571681838917763
200,1790597333.283744,0.6591792297363284,-1.2023497009277344,-0.1254890441894535,1.3769203173925404,1.665314174623012,-2.4646427802318724,-0.3352716998291142,2.9933497034352206
201,1790597333.303744,0.6735493469238284,-1.2215098571777343,-0.1446492004394535,1.402383130642856,1.6789730907835134,-2.489582307007007,-0.3377142295942112,3.0217580319754074
202,1790597333.3285067,0.6974995422363284,-1.2119297790527344,-0.1015388488769535,1.401994842574663,1.695894217236163,-2.5203483616541256,-0.3407419989559962,3.056847750543069
203,1790597333.3485067,0.6927095031738283,-1.1688194274902344,-0.1302790832519535,1.3649021757616553,1.7095961814081038,-2.5450409227305757,-0.34316834274138375,3.0850797256016476
204,1790597333.3895211,0.6304389953613283,-1.2023497009277344,-0.0871687316894535,1.360403071878905,1.737550395419293,-2.5953768096201912,-0.34806662654790604,3.142644195109027
205,1790597333.409521,0.6304389953613283,-1.2167198181152343,-0.08237869262695349,1.372824348438465,1.7510283924426737,-2.61986902357153,-0.3503512265264316,3.1705772524476656
206,1790597333.4195201,0.6543891906738284,-1.1879795837402345,-0.06800857543945349,1.3579933249422373,1.7577195232207292,-2.6320805726360104,-0.3514348685066817,3.1844830867758622
207,1790597333.4395201,0.6448091125488283,-1.1831895446777343,-0.058428497314453494,1.3487513408924332,1.7710443260413653,-2.656398936329903,-0.35346689100335116,3.212163158492036
208,1790597333.4494975,0.6400190734863284,-1.1592393493652344,-0.07279861450195349,1.3261824617361044,1.7776559782139694,-2.668463672490792,-0.3544267418274658,3.2258917315380162
209,1790597333.4694974,0.6591792297363284,-1.1927696228027345,-0.0967488098144535,1.3662272732592005,1.7908700982231225,-2.6925482943449697,-0.3563165133832469,3.2533050093403935
210,1790597333.493847,0.6687593078613283,-1.1975596618652344,-0.1063288879394535,1.3757521535466983,1.8069698585097567,-2.721837569713864,-0.35864301078399535,3.286664667204863
211,1790597333.5138469,0.6591792297363284,-1.2071397399902344,-0.0919587707519535,1.3784629209005514,1.8202020861438852,-2.7458934215978075,-0.3605647257551385,3.3140720026329458
212,1790597333.5247874,0.6543891906738284,-1.2023497009277344,-0.1015388488769535,1.3726544190083014,1.8274325637886693,-2.7590558504964706,-0.36161704585096993,3.329063809722489
213,1790597333.5447874,0.6687593078613283,-1.1927696228027345,-0.1302790832519535,1.3736487995354234,1.8406523672481603,-2.7831009751493583,-0.36359992071394237,3.3564649673841003
214,1790597333.569375,0.6591792297363284,-1.2119297790527344,-0.12069900512695349,1.3848679706416873,1.8569155503758301,-2.81266197672339,-0.3661347977668487,3.390170710549673
215,1790597333.589375,0.6543891906738284,-1.2071397399902344,-0.07758865356445349,1.375293264688075,1.8701303291476032,-2.8367291689165675,-0.3681848528172408,3.417598559167512
216,1790597333.6138654,0.6208589172363284,-1.1783995056152343,-0.07758865356445349,1.3342080756418915,1.8862271606236563,-2.8661609956957363,-0.3706036605234154,3.4510982060664848
217,1790597333.6338654,0.6208589172363284,-1.1496592712402345,-0.0871687316894535,1.3094963241051274,1.8992633530486467,-2.8900831865277623,-0.3725298120174211,3.4782985165344544
218,1790597333.6444082,0.5873286437988283,-1.1831895446777343,-0.12069900512695349,1.3264466383160354,1.9060598431563522,-2.9026466786622507,-0.37355723149193515,3.492558785767554
219,1790597333.6644082,0.5681684875488283,-1.2023497009277344,-0.12069900512695349,1.3353008962039874,1.91875217389872,-2.9264831463979597,-0.3755760037280998,3.5195128704934064
220,1790597333.7038343,0.6256489562988283,-1.1927696228027345,-0.1446492004394535,1.3546436360853593,1.9435496410830821,-2.973506042446408,-0.37974330252001676,3.572580071548892
221,1790597333.7238343,0.6591792297363284,-1.1736094665527343,-0.1063288879394535,1.3502526686914615,1.9561692062748357,-2.9973312298598063,-0.3819166508736381,3.5995072986848293
