imu_index,t_imu,ax,ay,az,mag,vx,vy,vz,velocity
0,1790994993.2770996,-0.06926005460778066,-0.009091298628826523,0.013001534598214598,0.07105383013560798,0.0,0.0,0.0,0.0
1,1790994993.2970996,-0.05967997648278066,0.010068857621173478,0.003421456473214597,0.06062002846567146,-0.0002817163475948609,-1.0125057607216784e-05,4.121140391757246e-05,0.0002848947123177179
2,1790994993.3072193,-0.050099898357780656,0.010068857621173478,-0.006158621651785404,0.05147145160091423,-0.00048619905428494924,8.043275446746237e-07,5.685843721964742e-05,0.0004895130735878652
3,1790994993.3272192,-0.04051982023278066,0.024438974808673478,-0.030108816964285405,0.056086185290004156,-0.0009656377706120816,7.092623515222521e-05,2.8742688232510892e-05,0.0009686655650906412
4,1790994993.3525107,-0.03572978117028066,0.014858896683673479,-0.010948660714285404,0.040215385669775214,-0.0016256150633458554,0.00022084187678039484,-7.935878844380228e-05,0.0016424656118226965
5,1790994993.3725107,-0.01656962492028066,-0.009091298628826523,0.0609019252232146,0.06376714417826246,-0.0021476767192875126,0.0003302610822276001,-7.709082589929647e-05,0.0021742885430507046
6,1790994993.3824325,0.045700882892219345,0.03880909199617348,0.0561118861607146,0.08211735557851822,-0.002346140255797325,0.000398514609476888,1.0939497960361759e-05,0.002379770507098296
7,1790994993.4024324,0.026540726642219344,0.04838917012117348,0.032161690848214596,0.0638771971358247,-0.002577825172763453,0.0006462574042588693,0.00029418080736914605,0.0026738312589459903
8,1790994993.427511,-0.03093974210778066,0.04359913105867348,0.0417417689732146,0.06782718590492004,-0.002833038001537235,0.001083331164650809,0.000735074660847396,0.0031209045944209325
9,1790994993.447511,-0.03572978117028066,0.08191944355867348,-0.0013685825892854032,0.08938280323273894,-0.0031060432829605115,0.001567887988403582,0.001094503050127367,0.0036474257424301943
10,1790994993.472655,0.045700882892219345,0.024438974808673478,-0.03968889508928541,0.0652766618343465,-0.003378980048936121,0.0022862691630416397,0.001401170812321553,0.004313677375776416
11,1790994993.492655,0.026540726642219344,-0.03783153300382652,-0.006158621651785404,0.04662149376378311,-0.0034551509112339686,0.002751879504161967,0.001539738379933161,0.004677788249105214
12,1790994993.5020018,-0.07405009367028066,-0.013881337691326523,0.0369517299107146,0.08391387401420805,-0.003518712998787592,0.0029005858111474173,0.0016163685245084221,0.00483811806622038
13,1790994993.5220017,-0.021359663982780656,0.01964893574617348,0.032161690848214596,0.0433207834604902,-0.0037774353319851134,0.0031797068241816656,0.0018594147999663854,0.005276075868807325
14,1790994993.5475616,0.08402119539221935,0.03401905293367348,-0.020528738839285403,0.09294238191467424,-0.003938362899042462,0.003585796250140389,0.0021457354941384244,0.005742196259523049
15,1790994993.5675616,0.016960648517219346,0.014858896683673479,-0.03968889508928541,0.045647111652206876,-0.0038939237870144992,0.0039292046568732185,0.002245842063072437,0.005970351603292471
16,1790994993.5921767,-0.05488993742028066,-0.004301259566326523,-0.03968889508928541,0.06787204474058185,-0.003917456576787557,0.004307948888925869,0.002204025991954565,0.006225963398047327
17,1790994993.6121767,-0.09321024992028067,0.0004887794961734774,0.032161690848214596,0.09860407676061467,-0.004155859184731041,0.004563803722626125,0.002163855606456071,0.006540775265024843
18,1790994993.6377614,-0.01656962492028066,0.06275928730867349,0.0369517299107146,0.07469076888669583,-0.0046257377935722595,0.004963371352956149,0.002252794758463775,0.007148957234869318
19,1790994993.6577613,0.012170609454719344,0.04838917012117348,-0.006158621651785404,0.05027488577973114,-0.004944551401653477,0.005395590205720868,0.002358080800709837,0.007689052431498999
20,1790994993.667822,-0.011779585857780658,0.01964893574617348,-0.020528738839285403,0.030761476513159525,-0.005080572682161501,0.00563173318444817,0.002382961634709943,0.007950292044449683
21,1790994993.6878219,-0.05967997648278066,0.01964893574617348,0.0177915736607146,0.06530176385264903,-0.005417606200676661,0.006089706558844114,0.002420898704204386,0.008502689777620826
22,1790994993.712656,-0.011779585857780658,0.01964893574617348,0.0369517299107146,0.04347723153942164,-0.0059064269610322444,0.006646270475472128,0.002562902264997206,0.009253499808130375
23,1790994993.732656,0.021750687579719343,0.08670948262117348,0.003421456473214597,0.08946135004022823,-0.006226087894934365,0.007186798452246374,0.0027206691650178156,0.009890211482781238
24,1790994993.7574198,0.016960648517219346,0.08191944355867348,-0.0013685825892854032,0.08366798580933474,-0.006490621298847327,0.00806887665858559,0.002890525838196959,0.010751282481536895
25,1790994993.7774198,-0.006989546795280657,0.0052788185586734775,0.0369517299107146,0.03797565052995423,-0.0066572627788193395,0.008805207066080421,0.0030605045052477416,0.011455021039240726
26,1790994993.7871306,-0.05488993742028066,0.02922901387117348,0.0656919642857146,0.09045813757534023,-0.006771104597956373,0.009134229559516593,0.0032054125585469226,0.011813410887330676
27,1790994993.8071306,0.021750687579719343,0.04359913105867348,0.003421456473214597,0.04884345405128559,-0.007020108161724341,0.009819467836533665,0.0035627627630543776,0.012585592783052959
28,1790994993.8328755,0.040910843829719344,0.01964893574617348,-0.030108816964285405,0.05446392088167891,-0.007171566698925873,0.010691351810488957,0.003902231251207564,0.013452277918281684
29,1790994993.8528755,-0.0021995077327806568,0.03401905293367348,-0.020528738839285403,0.03979400601977923,-0.007213511448625132,0.011347579580151545,0.004050434160520422,0.014043088215774654
30,1790994993.8772511,-0.04530985929528066,0.0052788185586734775,0.022581612723214597,0.050899690646552795,-0.007343820310530125,0.01209925348496211,0.004207720537481288,0.014765789642557703
31,1790994993.8972511,0.021750687579719343,0.024438974808673478,0.003421456473214597,0.03289471483821734,-0.007470038501252004,0.0126680594344518,0.0043564191177626315,0.01533817435598508
32,1790994993.907286,0.040910843829719344,0.014858896683673479,-0.015738699776785405,0.0462838052041916,-0.007476708264912649,0.012940219417889386,0.0044105659172898794,0.01558215443295611
33,1790994993.927286,0.03133076570471934,-0.004301259566326523,-0.010948660714285404,0.03346626487879204,-0.0073796452203953,0.013417122895337981,0.004462265168748031,0.015949613186649
34,1790994993.9521847,-0.01656962492028066,0.01964893574617348,0.013001534598214598,0.028804045685712466,-0.007249368174082745,0.013950441866778227,0.004520806797854154,0.016358663188209693
35,1790994993.9721847,0.012170609454719344,0.01964893574617348,-0.0013685825892854032,0.023153345951724837,-0.007167018204772884,0.014373519648724834,0.00457822633011084,0.016701029111092076
36,1790994993.9972532,0.040910843829719344,-0.009091298628826523,-0.015738699776785405,0.04476667872739693,-0.006979480945647766,0.01484412212016737,0.004607237785870022,0.01703783307244941
37,1790994994.0172532,0.026540726642219344,-0.03304149394132652,-0.015738699776785405,0.0452090385126195,-0.006751127045209655,0.015100057663527226,0.004579695579408502,0.017162839783161243
38,1790994994.0273035,-0.026149703045280658,0.0052788185586734775,0.032161690848214596,0.04178573025505102,-0.006653293669429589,0.015188450730398824,0.004580310450931758,0.017202749665920825
39,1790994994.0473034,-0.026149703045280658,0.05796924824617348,0.0704820033482146,0.09493130941665442,-0.006566258456073357,0.015432838792851225,0.004735315894871758,0.017427319929992496
40,1790994994.0728123,0.007380570392219343,0.04838917012117348,0.0177915736607146,0.05208190374453498,-0.00650780957155447,0.0159012681613949,0.005072243718415285,0.017914507274809723
41,1790994994.0928123,0.05528096101721935,0.01964893574617348,-0.025318777901785404,0.06389918498216167,-0.0063748650437390865,0.016315502452081958,0.005285493059419556,0.018296747292099524
42,1790994994.117069,-0.026149703045280658,-0.018671376753826522,-0.034898856026785406,0.04743793240875902,-0.006184813940333584,0.016744319565305546,0.005395783041191936,0.01864775149473076
43,1790994994.137069,-0.06447001554528066,0.01964893574617348,-0.025318777901785404,0.0719965561315673,-0.006187548648747752,0.01704631656394365,0.0053827519152784675,0.018916571699444745
44,1790994994.1476216,-0.011779585857780658,-0.013881337691326523,0.027371651785714598,0.03287335548069107,-0.006249122753765194,0.017186323298133993,0.005378532357569646,0.019061737959090535
45,1790994994.1676216,0.026540726642219344,0.0004887794961734774,0.0369517299107146,0.04549812545025664,-0.006326175039608115,0.01739178099202241,0.005468219761332322,0.019297563682093604
46,1790994994.192327,-0.006989546795280657,0.02922901387117348,0.0177915736607146,0.034924620393202606,-0.006370851976523015,0.017662571922022828,0.005663824006606563,0.019612065270776795
47,1790994994.212327,-0.021359663982780656,0.01964893574617348,0.0417417689732146,0.05083985836356915,-0.006444118298125859,0.01792222211077123,0.005887720730102147,0.01993484289939934
48,1790994994.2372446,0.016960648517219346,0.02922901387117348,0.032161690848214596,0.04665161527988111,-0.006529928236991469,0.018288535530717187,0.006262939440630466,0.020404286438774774
49,1790994994.2572446,-0.0021995077327806568,0.07233936543367347,0.027371651785714598,0.07737589383710877,-0.006566330203658522,0.018690804542080167,0.006608231573554326,0.020883763820332843
50,1790994994.2829103,0.03133076570471934,0.04359913105867348,0.008211495535714597,0.054313255910951104,-0.0065499616267802405,0.019352771629310993,0.007053369935461942,0.021614388598686675
51,1790994994.3029103,0.012170609454719344,-0.03783153300382652,0.003421456473214597,0.03988803063974231,-0.006473867728694732,0.019799883820906496,0.007365661382439791,0.02209523320290589
52,1790994994.3119183,-0.01656962492028066,-0.042621572066326524,-0.020528738839285403,0.05012564207803663,-0.006447708088908318,0.01991670139981224,0.007473660643858078,0.022228439838832815
53,1790994994.3319182,-0.006989546795280657,-0.047411611128826525,-0.006158621651785404,0.04831814622773028,-0.00643367771078289,0.020002112701102047,0.007637448447524142,0.022356371355441412
54,1790994994.3576035,0.026540726642219344,0.010068857621173478,0.008211495535714597,0.02955030834738507,-0.006380698415791899,0.020023412944737477,0.007820198245015886,0.022423333356575672
55,1790994994.3776035,0.03133076570471934,0.01964893574617348,0.032161690848214596,0.04901093667557683,-0.0062588265813298145,0.02008208729214283,0.008001712066692054,0.022505344613727878
56,1790994994.4021823,0.03612080476721934,0.024438974808673478,0.003421456473214597,0.04374565568292073,-0.006007178264285741,0.020224650666899702,0.008256915834842601,0.022656110531172557
57,1790994994.4221823,-0.0021995077327806568,0.04359913105867348,0.003421456473214597,0.04378845084878032,-0.005782243296525018,0.020425311976721205,0.008443692400202447,0.022845648343521263
58,1790994994.4322076,0.012170609454719344,0.04359913105867348,0.027371651785714598,0.052898159562021665,-0.005678907119151604,0.020576372471258163,0.0085464262281214,0.02299300962067869
59,1790994994.4522076,0.06965107820471934,0.03880909199617348,0.003421456473214597,0.07980679595777222,-0.005380946047930924,0.020956140162472783,0.008766823090520112,0.023344626319143018
60,1790994994.476998,0.040910843829719344,0.03880909199617348,0.008211495535714597,0.05698483502968314,-0.004861448148611773,0.02150057743728528,0.009020661882417867,0.023817658344918134
61,1790994994.496998,-0.006989546795280657,0.05796924824617348,-0.010948660714285404,0.059406739332052566,-0.004454323061470152,0.022019090056320433,0.009190624871315101,0.024272389795187657
62,1790994994.5226912,-0.006989546795280657,0.07712940449617348,-0.0013685825892854032,0.07745754850653007,-0.004036695848499359,0.022845619205096875,0.009352482661478353,0.02501371947893468
63,1790994994.5426912,0.045700882892219345,0.05317920918367348,0.013001534598214598,0.0713136655097592,-0.0037023043516014407,0.02358795792443692,0.009477025862093839,0.025688768669356047
64,1790994994.5527775,0.007380570392219343,0.08191944355867348,0.013001534598214598,0.08327249218190702,-0.003518806741222455,0.02400837322822962,0.009550084158789551,0.02607658132094789
65,1790994994.5727775,0.0025905313297193435,0.06275928730867349,0.013001534598214598,0.06414420393123181,-0.0031945734580005013,0.024933981460264584,0.009712225069438606,0.026948767074558552
66,1790994994.5979054,0.0025905313297193435,0.04359913105867348,0.008211495535714597,0.04444123918810889,-0.0028385487953646767,0.026122914221258873,0.00992535912297645,0.028088730131406208
67,1790994994.6179054,0.045700882892219345,0.03880909199617348,0.003421456473214597,0.06005349850836257,-0.002525247347394379,0.027050885239693966,0.010087001929919813,0.028980594789459052
68,1790994994.64198,0.040910843829719344,-0.004301259566326523,-0.034898856026785406,0.053945603423216026,-0.0020483014443343833,0.02806266397119227,0.010195554598585267,0.02992754553149403
69,1790994994.66198,0.016960648517219346,0.04838917012117348,-0.04447893415178541,0.06787894346864413,-0.0016247041461850058,0.028843252279164417,0.010153141308728492,0.030621220485754042
70,1790994994.6728413,0.03133076570471934,0.09149952168367348,-0.015738699776785405,0.09798717272505027,-0.001389829064649496,0.029317533488946206,0.010084509347133026,0.031034605257306565
71,1790994994.6928413,0.05528096101721935,0.04838917012117348,0.022581612723214597,0.07685977926838224,-0.0008922910561389686,0.030269699291006633,0.00998735269480407,0.03188727163536014
72,1790994994.7174423,0.06965107820471934,0.024438974808673478,-0.006158621651785404,0.07407067439566584,-0.00014158497346084692,0.031399602646889985,0.009916072889236,0.03292846176534719
73,1790994994.7374423,0.03133076570471934,0.024438974808673478,-0.025318777901785404,0.04711603637598277,0.0005286470571952441,0.03225371508961548,0.009819600447273542,0.033719521908491895
74,1790994994.7624974,0.012170609454719344,0.06754932637117349,-0.006158621651785404,0.06891272631632316,0.0013240858583153897,0.033336071778036436,0.009657721808217178,0.03473209575415083
75,1790994994.7824974,0.03133076570471934,0.08670948262117348,-0.0013685825892854032,0.09220642208859044,0.0019290447014078077,0.03430184098287766,0.009536596027149109,0.03565507217857918
76,1790994994.7920582,0.09839131257971935,0.05796924824617348,-0.010948660714285404,0.11472208725796032,0.00226787962657111,0.034798010768433266,0.009478546112281123,0.03613706778147963
77,1790994994.8120582,0.08402119539221935,0.014858896683673479,-0.010948660714285404,0.08602453869234128,0.0031439763837991805,0.035789486338080295,0.009342482314405867,0.0371221483166116
78,1790994994.8376064,0.021750687579719343,0.01964893574617348,0.008211495535714597,0.03044013378881361,0.004297913816313322,0.03693215190663777,0.009189499464769898,0.038300167206429155
79,1790994994.8576064,0.040910843829719344,0.03880909199617348,0.0369517299107146,0.06741864065539695,0.005159744953064234,0.03778017740808517,0.009155448262093694,0.039214627447509115
80,1790994994.8819747,0.12713154695471934,0.02922901387117348,-0.006158621651785404,0.13059362198679958,0.006359420962741596,0.03878278559089336,0.009176461172310909,0.040357826165658285
81,1790994994.9019747,0.08402119539221935,0.05796924824617348,-0.034898856026785406,0.10787921565038505,0.007513076614429693,0.039613029786377985,0.009129534196180412,0.04133989409408286
82,1790994994.927818,-0.01656962492028066,0.05317920918367348,-0.006158621651785404,0.05604024785856614,0.008910926526487966,0.04074035806480433,0.008998412391420572,0.04266324896647002
83,1790994994.947818,0.007380570392219343,0.02922901387117348,-0.034898856026785406,0.04611657210996989,0.009816659836520586,0.041605535860812115,0.00885057325926466,0.04365455384755283
84,1790994994.9570837,0.07923115632971935,-0.009091298628826523,-0.025318777901785404,0.0836735822021674,0.010233518061634795,0.04196022926501511,0.008750508828044424,0.04406764273977131
85,1790994994.9770837,0.050490921954719346,0.010068857621173478,0.032161690848214596,0.060704937623303375,0.011192923156247363,0.04261246212216869,0.008577182004654342,0.04488509226943714
86,1790994995.0026639,-0.01656962492028066,0.10107959980867348,0.0369517299107146,0.10889016627260135,0.012301026675536321,0.0435347821137682,0.008521343300404272,0.04603483249246023
87,1790994995.0226638,0.007380570392219343,0.1441899513711735,0.027371651785714598,0.1469504073393956,0.013023662900219682,0.0445156384770443,0.008580719178464471,0.047168703670729964
88,1790994995.047916,0.11276142976721935,0.1729301857461735,-0.010948660714285404,0.20673621442986265,0.01402674512006612,0.046168904962457874,0.008675545917929212,0.04902634456157082
89,1790994995.067916,0.07444111726721934,0.1393999123086735,-0.006158621651785404,0.15815101679188662,0.014982834249274567,0.047750396174442565,0.00871372338439755,0.05079876604975017
90,1790994995.0772426,0.03133076570471934,0.11065967793367348,0.027371651785714598,0.11822177684972754,0.015435801282684609,0.048552192769655604,0.008743694920360494,0.05169169744592127
91,1790994995.0972426,0.07444111726721934,0.024438974808673478,0.0417417689732146,0.0887756650592047,0.01642009237386524,0.050216293629670734,0.00890199475978182,0.0535774307910594
92,1790994995.122336,0.10318135164221935,0.0004887794961734774,0.003421456473214597,0.10323922024361334,0.01780409160138679,0.05203791626955699,0.009155813448265153,0.055756249222194174
93,1790994995.142336,0.08881123445471935,0.0052788185586734775,-0.054059012276785404,0.10410416946063285,0.019029698951144806,0.053280663386177735,0.009251811878507972,0.05732847945024954
94,1790994995.1670623,0.06965107820471934,-0.028251454878826524,-0.020528738839285403,0.0779156371736886,0.020611521229791454,0.05454403001689161,0.00921437255828474,0.05903211566200714
95,1790994995.1870623,0.06965107820471934,0.0004887794961734774,-0.034898856026785406,0.07790662200643861,0.0219080148312934,0.05537098075191598,0.009105490819146729,0.06023965958017016
96,1790994995.1976275,0.08881123445471935,0.024438974808673478,-0.08279924665178541,0.12385642535279832,0.02261573761194817,0.05576205485030277,0.008963336696861678,0.06083765078963823
97,1790994995.2176275,0.040910843829719344,0.0004887794961734774,-0.03968889508928541,0.057001267018057314,0.023949076426852012,0.05642870120858386,0.008550872665141587,0.06189405468316241
98,1790994995.2423723,0.026540726642219344,0.024438974808673478,0.013001534598214598,0.03834988347185112,0.025476466389986324,0.05717604407034806,0.008067575792554849,0.06311288406041277
99,1790994995.2623723,0.03612080476721934,0.07712940449617348,-0.010948660714285404,0.08586926543532591,0.026619796561565483,0.05784183134429685,0.00773862348535029,0.06414185307339686
100,1790994995.2880177,0.06486103914221934,0.06275928730867349,-0.0492689732142854,0.10282564983354643,0.0280601813211419,0.058836559500125604,0.007264263674294648,0.06558874931203414
101,1790994995.3080177,0.03133076570471934,0.04359913105867348,-0.0492689732142854,0.07286928591872831,0.02915927666797197,0.059655486192913346,0.006802011443617947,0.06674809217042325
102,1790994995.3175755,0.007380570392219343,0.07712940449617348,-0.010948660714285404,0.07825146023356616,0.029633482637578257,0.060074678962243715,0.006571077132529159,0.06730742455576463
103,1790994995.3375754,-0.04530985929528066,0.1250297951211735,0.032161690848214596,0.13682034708191937,0.030420042053019812,0.06112352074405223,0.0061921420006824405,0.06855513379180798
104,1790994995.3623216,0.007380570392219343,0.11544971699617348,0.013001534598214598,0.11641370140889613,0.03117688194052003,0.06267292313654278,0.005877432052224255,0.07024555124376657
105,1790994995.3823216,0.06007100007971935,0.03880909199617348,-0.015738699776785405,0.07322825508510279,0.031797988580162355,0.06396871040226118,0.005657128733141352,0.0716596894618992
106,1790994995.4075084,0.050490921954719346,-0.009091298628826523,-0.030108816964285405,0.05948550890414323,0.0326716977669272,0.06541190884752977,0.005334701119032807,0.07331177729451381
107,1790994995.4275084,0.012170609454719344,0.02922901387117348,-0.015738699776785405,0.03535768172610219,0.033355405837702724,0.06641621184147607,0.005048305233371926,0.07449282972004063
108,1790994995.437559,0.026540726642219344,0.08191944355867348,-0.0013685825892854032,0.08612246177370568,0.033676630701092836,0.06692898062214458,0.004913076458884911,0.07508490009840889
109,1790994995.4575589,0.06486103914221934,0.06754932637117349,-0.0013685825892854032,0.09365756194836335,0.03435706920660667,0.06802050662442255,0.0046802379234272135,0.07634855698001475
110,1790994995.4822438,0.08402119539221935,0.03880909199617348,0.013001534598214598,0.09345986731540726,0.03534655950823175,0.06936254549621892,0.004457501677090147,0.07797699217067346
111,1790994995.5022438,0.08881123445471935,-0.004301259566326523,0.022581612723214597,0.09173802609828322,0.03628724939399745,0.07033854158623914,0.004357482504968478,0.07926703321584812
112,1790994995.527782,0.10797139070471935,-0.018671376753826522,-0.010948660714285404,0.1101195472749095,0.0376851611281939,0.07135386214766856,0.004271205571041548,0.08080710494552147
113,1790994995.547782,0.10318135164221935,-0.004301259566326523,-0.020528738839285403,0.10529160117931449,0.038932435989927065,0.07199527031771559,0.004166557664548542,0.08195372915860948
114,1790994995.5725763,0.10318135164221935,0.024438974808673478,-0.0013685825892854032,0.10604493309309028,0.040630511951963454,0.0727086084885256,0.004015564115735298,0.08338767897587702
115,1790994995.5925763,0.12713154695471934,0.0052788185586734775,-0.025318777901785404,0.1297356414826525,0.04214024925375991,0.07324227810137181,0.0038720059425383564,0.0845885591475984
116,1790994995.6021218,0.06965107820471934,-0.018671376753826522,-0.0013685825892854032,0.07212326963793972,0.04289360997156831,0.07344919289924562,0.0037946603301270004,0.08514132463712705
117,1790994995.6221218,0.03612080476721934,0.04838917012117348,0.027371651785714598,0.06629805158167061,0.044393950453069715,0.07386227034665203,0.0036959177644131386,0.08625611645392357
118,1790994995.647642,0.06007100007971935,0.07712940449617348,0.003421456473214597,0.09782216749239453,0.04620533853033043,0.07455053945236961,0.003647759321879289,0.08778395291516618
119,1790994995.6676419,0.08402119539221935,0.03880909199617348,-0.025318777901785404,0.09595179733149815,0.04762811704951445,0.07518293151702264,0.003582833042920261,0.08907158591710942
120,1790994995.6926918,0.06007100007971935,-0.023461415816326523,-0.034898856026785406,0.07332730210953158,0.04941355193101225,0.07588502490127505,0.003400577504285013,0.09061898281303221
121,1790994995.7126918,-0.0021995077327806568,0.01964893574617348,0.032161690848214596,0.037753051114313214,0.050712033940877296,0.07635577772180296,0.0032727851138465917,0.09172037014929392
122,1790994995.7227416,0.03612080476721934,0.07712940449617348,0.013001534598214598,0.08615507806783354,0.051292206381467295,0.07662978997674982,0.00325224388622502,0.09226912938602655
123,1790994995.7427416,0.06965107820471934,0.05796924824617348,-0.0636390904017854,0.11073229097455281,0.05243226691921763,0.07729594894156742,0.003141540680394171,0.09345413642483705
124,1790994995.7680373,0.06007100007971935,-0.023461415816326523,-0.020528738839285403,0.06767859485107387,0.05390401764518313,0.07807758385731192,0.002862845484913261,0.09492074643384489
125,1790994995.7880373,0.03612080476721934,0.02922901387117348,0.0609019252232146,0.07660347436511512,0.05503739444545375,0.07861153254261308,0.0027361082605822833,0.09600194854510197
126,1790994995.8123987,0.03612080476721934,0.11065967793367348,0.0513218470982146,0.12721717198157032,0.05634283950702689,0.07941995231254713,0.002809934076884394,0.09741632367605692
127,1790994995.8323987,0.07444111726721934,0.10586963887117348,0.022581612723214597,0.13137651847984796,0.0574196549344293,0.08030888181509248,0.002972306689570696,0.09876926585854674
128,1790994995.8422158,0.11755146882971935,0.05317920918367348,-0.006158621651785404,0.12916773875111084,0.05801029375391902,0.08079687338341297,0.0030521451029907197,0.09951203203472912
129,1790994995.8622158,0.07923115632971935,0.06275928730867349,0.008211495535714597,0.10140874191000553,0.059328256870279754,0.08181581961576606,0.003193477917192594,0.10111314802671839
130,1790994995.8880248,0.07923115632971935,0.10107959980867348,-0.0013685825892854032,0.12843883621837168,0.06108064383217764,0.0832506265679576,0.00336174953455465,0.10330930855854156
131,1790994995.9080248,0.11276142976721935,0.06754932637117349,-0.006158621651785404,0.1315901977998236,0.06252290004420703,0.08444865275073409,0.0034612964029078113,0.1051316724595436
132,1790994995.9328446,0.17024189851721935,0.0004887794961734774,0.0369517299107146,0.17420669694227456,0.06457106385382937,0.08583903645767944,0.0036236239131500463,0.10747508137918335
133,1790994995.9528446,0.15587178132971935,0.04838917012117348,0.0800620814732146,0.1817896061103037,0.06646309291973072,0.08686467573149198,0.0039103282508092235,0.10944453059620243
134,1790994995.9624717,0.21335225007971936,0.07233936543367347,0.1327525111607146,0.26148689379183293,0.06750381282321045,0.08737148836213168,0.00418129310363339,0.11048993137975802
135,1790994995.9824717,0.17024189851721935,0.1633501076211735,0.27166364397321463,0.35981480948871697,0.06991695468857846,0.08861997534592142,0.00526639898861069,0.11300272360232602
136,1790994996.0072618,0.08402119539221935,0.3549516701211735,0.4967954799107146,0.6163245883920786,0.07293212762242952,0.09089900832246811,0.007838403179980248,0.1168039619103496
137,1790994996.0272617,0.24209248445471934,0.7477348732461735,0.40099469866071463,0.8823338144103551,0.07548897780898617,0.09411590254230182,0.010948860613990193,0.1211456414021662
138,1790994996.0523174,0.22293232820471937,0.9680766701211735,0.3243540736607146,1.04502479745314,0.0790855429746147,0.1007657714632121,0.015624137210459913,0.1290440911849016
139,1790994996.0723174,0.03133076570471934,0.7285747169961735,0.30040387834821464,0.7886984374603181,0.08190716758224072,0.10782260982211717,0.019733397543555114,0.13683532536888918
140,1790994996.0978935,-0.07884013273278066,0.5130229591836735,0.1662827845982146,0.5450305382569236,0.08488310089611287,0.11787493702256198,0.025095307993830127,0.14740900949100033
141,1790994996.1178935,-0.08842021085778067,0.3597417091836735,0.0800620814732146,0.37900154076777676,0.08661026001381217,0.12586568401834958,0.02902879045899556,0.15551906066003435
142,1790994996.127952,-0.05488993742028066,0.33100147480867353,0.0609019252232146,0.34100429037097657,0.08724049496952112,0.12980276512665181,0.030816668354887243,0.1594030390097594
143,1790994996.147952,0.012170609454719344,0.3741118263711735,0.027371651785714598,0.37530919211598424,0.08824156823642228,0.13751444549389705,0.03397074861234121,0.16688561605363128
144,1790994996.1729007,0.012170609454719344,0.2926811623086735,0.11359235491071461,0.3141872206169709,0.08934856856515194,0.14693893273264658,0.03757883564280386,0.1760295019180585
145,1790994996.1929007,0.10797139070471935,0.2112504982461735,0.1854429408482146,0.30112070425396215,0.09028309185337488,0.15411667881772353,0.040485940081814234,0.18314502097714405
146,1790994996.2026126,0.19898213289221936,0.2831010841836735,0.0896421595982146,0.3574574518089391,0.09089240979692587,0.15743944724771053,0.04188624687609367,0.18655580233732214
147,1790994996.2226126,0.26604267976721935,0.30226124043367353,-0.0013685825892854032,0.40266914203168075,0.0926565047957834,0.16413370911023592,0.04446977324109936,0.19365604322966368
148,1790994996.2481031,0.36663350007971934,0.24478077168367351,-0.010948660714285404,0.4409734943714835,0.09577717747264784,0.1724317548794833,0.04724508399497404,0.20282523456694793
149,1790994996.2681031,0.5199147500797193,0.1873003029336735,0.0561118861607146,0.5554649355252012,0.09918821857635601,0.1786139579692692,0.04916372209701869,0.2101388118749883
150,1790994996.292841,0.47680439851721934,0.2591508888711735,0.013001534598214598,0.54283575559279,0.10462369782918615,0.18594199043994394,0.05130912823834759,0.21943830248340934
151,1790994996.312841,0.43369404695471936,0.2831010841836735,-0.10195940290178541,0.5278564862441517,0.10972473709486039,0.19179123408289453,0.05265002711930497,0.22714625411227768
152,1790994996.3379223,0.33789326570471934,0.2543608498086735,-0.07321916852678541,0.42922295787124953,0.11661367922697996,0.19903731806359287,0.05374984292563651,0.23686209021143803
153,1790994996.3579223,0.48159443757971937,0.2926811623086735,-0.04447893415178541,0.5653086242587859,0.12251218336451064,0.2047692221435724,0.05431874291591313,0.24472473361307034
154,1790994996.3677464,0.6636159219547194,0.2687309669961735,-0.1306996372767854,0.7277944900030461,0.1258187327926905,0.2075760682032633,0.05442719910951683,0.24875790965352493
155,1790994996.3877463,0.6492458047672194,0.2399907326211735,-0.19297014508928542,0.7185771661051176,0.13350983455998092,0.21319625050496546,0.0541293726763902,0.2573081929126024
156,1790994996.412538,0.5247047891422194,0.2591508888711735,-0.020528738839285403,0.5855729912400603,0.14379637510851756,0.2200460433225702,0.05341859285126418,0.2682372172881255
157,1790994996.432538,0.6348756875797193,0.2352006935586735,-0.07800920758928541,0.6815217835102637,0.1525893507714618,0.22548455666249825,0.05278339565723879,0.2773317185596487
158,1790994996.4579132,0.7115163125797194,0.1920903419961735,-0.2600306919642854,0.7815178330138558,0.16463444744229644,0.23216288087085152,0.051455035656392825,0.28922607979448206
159,1790994996.4779131,0.7210963907047194,0.1729301857461735,-0.21213030133928543,0.7712873125987977,0.17485293752740988,0.23718453257917144,0.0498568644082895,0.29885742283803307
160,1790994996.4874294,0.8025270547672194,0.1873003029336735,-0.03968889508928541,0.8250492624721276,0.18007314666335025,0.23947259512074587,0.04903077127178971,0.3036074414348431
161,1790994996.5074294,0.7594167032047194,0.24957081074617352,-0.025318777901785404,0.7997751929119001,0.19174153719277418,0.24421533796062767,0.04745751195929196,0.3140989713794649
162,1790994996.532379,0.7402565469547194,0.3549516701211735,-0.1498597935267854,0.8345228583729902,0.2069204087797853,0.2503755304354484,0.045461498573648285,0.32797973971418937
163,1790994996.552379,0.6636159219547194,0.4459624123086735,-0.16422991071428542,0.816235277746071,0.219368709202851,0.255774297543237,0.043630332147750264,0.33977452486080284
164,1790994996.5779655,0.6061354532047194,0.3549516701211735,-0.1498597935267854,0.7182261715291303,0.23534203337219345,0.2631820387455101,0.041036326940432896,0.3554358427603551
165,1790994996.5979655,0.5917653360172194,0.2831010841836735,-0.1450697544642854,0.6718464634407716,0.24775171135747398,0.2690608906808416,0.0388704513066403,0.36781188855080094
166,1790994996.6075141,0.5821852578922194,0.34058155293367354,-0.2408705357142854,0.7162081287454294,0.2536285141312987,0.27189328840753413,0.03771510760108064,0.373732274232336
167,1790994996.6275141,0.5630251016422194,0.2926811623086735,-0.3079310825892854,0.7053233864506386,0.2658091059565162,0.2778858467017523,0.03483498741257768,0.3861198012982327
168,1790994996.6529238,0.5438649453922194,0.1681401466836735,-0.38457170758928544,0.6869902372169694,0.28107251871829264,0.2852354893874767,0.03040498602617479,0.40160367075016906
169,1790994996.6729238,0.47680439851721934,0.1585600685586735,-0.2983510044642854,0.5843774907125929,0.29281528233186005,0.29064270921920105,0.02641677588339035,0.4134148280328576
170,1790994996.697745,0.3905836953922194,0.1393999123086735,-0.1163295200892854,0.4307209257769018,0.3068175141641332,0.29690149612121924,0.021437623550090695,0.42748924793537424
171,1790994996.717745,0.6252956094547194,0.04359913105867348,-0.3797816685267854,0.7328912601344141,0.3179313971440263,0.30146260936621483,0.017283258484116236,0.438473247940702
172,1790994996.7280288,0.7929469766422194,-0.24380321269132652,-0.4899525669642854,0.963461692107964,0.32388266846553865,0.3033016675085793,0.014796752861763652,0.4439716526323442
173,1790994996.7480288,0.5773952188297193,-0.32523387675382653,-0.20255022321428542,0.6929566409523035,0.3357762178242122,0.30548825704728844,0.009647560814251405,0.45405045873755884
174,1790994996.7726378,0.7115163125797194,-0.4210346580038265,-0.16901994977678542,0.843856261296903,0.35059445014436014,0.30639780906925296,0.0035762861157824215,0.46562740007096504
175,1790994996.7926378,0.7689967813297194,-0.4689350486288265,-0.41331194196428545,0.9910009540349984,0.3630516677142897,0.30569117524973105,-0.0014912536618828572,0.4746112429064159
176,1790994996.8172336,0.6061354532047194,-0.5647358298788265,-0.6432338169642854,1.048845311982211,0.3786101237324683,0.30304572458352197,-0.008737442682896267,0.48503472028887135
177,1790994996.8372335,0.5821852578922194,-0.8856684470663265,-0.5043226841517854,1.1737502470227514,0.3911462347204417,0.2990416481950987,-0.015467167840284015,0.49260584402970653
178,1790994996.8477972,0.6731960000797194,-1.0485297751913265,-0.3414613560267854,1.29197654841168,0.39776897314687515,0.29571159337047687,-0.019158594529614815,0.496016687417244
179,1790994996.8677971,0.7977370157047193,-1.0437397361288265,-0.6097035435267855,1.4482801503814318,0.41063332033262856,0.28721414652435673,-0.026525940567314985,0.5018120317948689
180,1790994996.892991,0.6827760782047194,-1.0389496970663266,-0.8108851841517855,1.4842959367591435,0.42720522615321826,0.2741802296891176,-0.037098740940438635,0.5089748718594715
181,1790994996.912991,0.5773952188297193,-1.2113911033163265,-0.5282728794642855,1.4421948131576585,0.4402776245323145,0.2620098898664508,-0.04624163253286711,0.5144238112985752
182,1790994996.9373338,0.7402565469547194,-1.3455121970663266,-0.4372621372767854,1.5967407442848827,0.4562075694197119,0.2447506751148259,-0.05746336933519845,0.5208937302179377
183,1790994996.9573338,0.8121071328922194,-1.3407221580038267,-0.6815541294642854,1.7092600538381157,0.46966092494690187,0.22866820830407267,-0.06697838728267741,0.526646597135083
184,1790994996.9830194,0.7163063516422193,-1.3838325095663266,-0.7534047154017854,1.7308107548560212,0.48729146422287556,0.2058633685275145,-0.0801296595445577,0.5350265974180125
185,1790994997.0030193,0.7785768594547193,-1.3119819236288268,-0.5234828404017854,1.612920574052638,0.5012025616037985,0.1867262645750748,-0.09074916030110221,0.5424998762541108
186,1790994997.0129304,0.9318581094547194,-1.1012202048788267,-0.3702015904017854,1.4893269262743825,0.508333617336331,0.17687152034092102,-0.09588661338052806,0.5466999577899518
187,1790994997.0329304,0.9126979532047194,-0.8952485251913266,-0.5091127232142855,1.3761116381238825,0.5233320191549605,0.1569734327165986,-0.10601761945229896,0.5565579902274093
188,1790994997.0581508,0.7977370157047193,-0.8617182517538265,-0.6336537388392854,1.334338694775861,0.5426436610141054,0.13232195925446533,-0.11903829491124039,0.571087873619382
189,1790994997.0781507,0.8791676797672194,-1.0149995017538265,-0.41331194196428545,1.4049863198900128,0.558176163478024,0.11289038649604909,-0.12938541967119266,0.5839909722433763
190,1790994997.1022205,0.9749684610172193,-0.9287787986288265,-0.26482073102678544,1.372342368486178,0.5774125486377271,0.08950355647779755,-0.14119437376892718,0.6011256017925782
191,1790994997.1222205,0.9797585000797194,-0.8617182517538265,-0.4372621372767854,1.3761116381238825,0.5939308906382859,0.07030018717611412,-0.15058791303960897,0.6167436572231684
192,1790994997.1322768,1.0276588907047195,-0.8569282126913266,-0.5234828404017854,1.4368169826202386,0.6025047198972986,0.060796597103322574,-0.1553272427801454,0.6251677503418968
193,1790994997.1522768,0.8983278360172194,-0.9096186423788265,-0.3270912388392854,1.3196164799106966,0.6198876540600007,0.04208107287491101,-0.16461488348365558,0.642751569593301
194,1790994997.1779985,0.8695876016422194,-0.8473481345663265,-0.3127211216517854,1.25378465376238,0.6423008247555375,0.018232266737808513,-0.17600220300929903,0.6662278442816457
195,1790994997.1979985,0.9701784219547194,-0.8090278220663265,-0.3989418247767854,1.3247364895933698,0.6598737311250248,-1.4391586951115198e-05,-0.18459577680084202,0.6852072256249824
196,1790994997.2229855,0.9414381875797194,-0.7323871970663265,-0.3223011997767854,1.235546409827495,0.6821176545092074,-0.022280037807198776,-0.19507332976423436,0.7098130026021913
197,1790994997.2429855,0.9462282266422194,-0.6749067283163266,-0.2456605747767854,1.187937736929334,0.7000828851349217,-0.039539489596895516,-0.20305371265730005,0.7300070051173018
198,1790994997.2530794,0.9653883828922194,-0.6653266501913265,-0.2408705357142854,1.1969347919804791,0.7092370100958593,-0.047958278292349346,-0.20684556137977336,0.7403392595351093
199,1790994997.2730794,0.8456374063297194,-0.5695258689413265,-0.2265004185267854,1.0443968488894617,0.7273707341688329,-0.06398930515059444,-0.21393277035708144,0.7608745273247216
200,1790994997.297018,0.7689967813297194,-0.5024653220663265,-0.1211195591517854,0.926551346220925,0.7487187863209979,-0.08222382530454045,-0.22176736976792613,0.78518873191831
201,1790994997.317018,0.8408473672672194,-0.4689350486288265,-0.03968889508928541,0.9635868322399089,0.7662938225096921,-0.09663012884112929,-0.22757230575421145,0.8051911316964793
202,1790994997.342098,0.8168971719547193,-0.43540477519132653,-0.034898856026785406,0.926345636336139,0.7881452589477417,-0.11368686223265506,-0.2339000838012669,0.8299439143992496
203,1790994997.362098,0.7546266641422193,-0.44498485331632653,-0.07321916852678541,0.8791097591058357,0.8053141283719346,-0.126569031896947,-0.23835142622550345,0.8493303053432809
204,1790994997.372148,0.7785768594547193,-0.3970844626913265,-0.16901994977678542,0.8901829811964393,0.8138030901731275,-0.13270607924953853,-0.2404353075090453,0.8588920247284204
205,1790994997.392148,0.7881569375797194,-0.3204438376913265,-0.2504506138392854,0.8869053621113483,0.8305125294147385,-0.14416337561013937,-0.24458946223721295,0.8777004873074106
206,1790994997.4169543,0.6588258828922193,-0.3779243064413265,-0.20255022321428542,0.7860692833917547,0.8508208089962898,-0.1575417189124057,-0.2498118451747912,0.9006227846377252
207,1790994997.4369543,0.6731960000797194,-0.38271434550382655,-0.1450697544642854,0.7878504670545572,0.8667363111040041,-0.16785099095735426,-0.2539122269515597,0.9186278937344778
208,1790994997.4624128,0.8647975625797194,-0.3683442283163265,-0.21692034040178543,0.9646795990678979,0.8868933664764146,-0.18043959078483746,-0.2590399822112535,0.9414032089420952
209,1790994997.4824128,0.9079079141422194,-0.35397411112882654,-0.2983510044642854,1.0191210790560494,0.9030123123507365,-0.1899291150815783,-0.2632369512559642,0.9595821994593431
210,1790994997.49211,0.8264772500797194,-0.38271434550382655,-0.25524065290178544,0.9458766864911552,0.9109168360314328,-0.1943758315777181,-0.2653692753824279,0.9684896996788559
211,1790994997.51211,0.7546266641422193,-0.43540477519132653,-0.16901994977678542,0.887471951058945,0.9271457670106598,-0.20339846727926883,-0.2697438045043499,0.9867785617076514
212,1790994997.537611,0.8073170938297194,-0.4066645408163265,-0.19776018415178542,0.9253356305594018,0.9477219223755903,-0.21478766794822923,-0.2751863881261297,1.0099693721414664
213,1790994997.557611,0.8408473672672194,-0.4401948142538265,-0.2456605747767854,0.9803799709989162,0.9639110457342015,-0.22365044741777126,-0.27947976014557097,1.0282280695690023
214,1790994997.5821857,0.8312672891422194,-0.47372508769132654,-0.2312904575892854,0.9843353292846245,0.9839013077385518,-0.23459143574228938,-0.28484295041738655,1.050823691917794
215,1790994997.6021857,0.8168971719547193,-0.4306147361288265,-0.25524065290178544,0.958069846834064,1.0002021378528154,-0.24351654911480833,-0.2892828196575066,1.0692937744170798
216,1790994997.6122925,0.8504274453922194,-0.43540477519132653,-0.3031410435267854,1.0023465720030444,1.0084678371547335,-0.24800668937621925,-0.291613177837578,1.0786811123030893
217,1790994997.6322925,0.7785768594547193,-0.42582469706632653,-0.2983510044642854,0.9362274940284817,1.0248145278990095,-0.256851100588162,-0.29643515655910074,1.0973108522704214
218,1790994997.6572087,0.8073170938297194,-0.3970844626913265,-0.2791908482142854,0.9420108758539552,1.0450882456423705,-0.26775456751172455,-0.3026205945222172,1.120482562930909
219,1790994997.6772087,0.8504274453922194,-0.3491840720663265,-0.25524065290178544,0.9540986044193166,1.0614073570046143,-0.27631326452503113,-0.30764248579559306,1.1391130307052468
220,1790994997.7019246,0.8695876016422194,-0.3491840720663265,-0.26482073102678544,0.9737772500404032,1.0817377674835391,-0.28659810879432424,-0.31388164872684154,1.162246429537314
221,1790994997.7219245,0.8264772500797194,-0.4066645408163265,-0.25524065290178544,0.9558182277768187,1.0982654373876457,-0.2948059577591111,-0.3189531341359429,1.181028630248092
222,1790994997.7476938,0.8073170938297194,-0.4162446189413265,-0.2217103794642854,0.9349737777870947,1.119524055774731,-0.3053855707885077,-0.3254291915703553,1.2051965055667315
223,1790994997.7676938,0.8504274453922194,-0.40187450175382655,-0.2600306919642854,0.975882121877252,1.1360349975197557,-0.3135921273543673,-0.3304240626827632,1.2239671560659344
224,1790994997.777249,0.8264772500797194,-0.4306147361288265,-0.2791908482142854,0.9728521088003285,1.143941883987174,-0.3175214329086318,-0.3328389248551503,1.232965791980949
225,1790994997.797249,0.8360573282047193,-0.41145457987882655,-0.26482073102678544,0.9687191269556086,1.1605028903348262,-0.3257751955629348,-0.33795124263258125,1.251841634918914
226,1790994997.8223314,0.9126979532047194,-0.3970844626913265,-0.25524065290178544,1.027541442078456,1.1814466545839388,-0.33609471826404647,-0.3443793050084508,1.2756852915161614
227,1790994997.8423314,0.9126979532047194,-0.40187450175382655,-0.2408705357142854,1.025933372066265,1.1983797337759066,-0.3442873853816744,-0.34948019830802424,1.294907023329157
228,1790994997.8673007,0.8743776407047193,-0.4497748923788265,-0.2312904575892854,1.0101133541096252,1.219695739726488,-0.3545763110174681,-0.3557774718516384,1.3190753076753596
229,1790994997.8873007,0.8695876016422194,-0.4785151267538265,-0.27440080915178544,1.0297840198436041,1.23682435402071,-0.3629737986526928,-0.3608234081296397,1.338535764580611
230,1790994997.8973477,0.8216872110172194,-0.42582469706632653,-0.2696107700892854,0.9639432103236283,1.245412619218239,-0.3672409335185178,-0.3633879282005882,1.3483209119944344
231,1790994997.9173477,0.9174879922672194,-0.40187450175382655,-0.2456605747767854,1.0313275178691201,1.262553176692492,-0.3757026981249171,-0.3685001375436915,1.3678396809291522
232,1790994997.9419298,0.9079079141422194,-0.4066645408163265,-0.2265004185267854,1.0202819555947455,1.2838260529744465,-0.38603373323809353,-0.3747115835758545,1.3919914325740697
233,1790994997.9619298,0.8552174844547193,-0.3587641501913265,-0.26482073102678544,0.9644888183701893,1.3011821688864282,-0.3943263864039202,-0.37974414054008154,1.411656455344886
234,1790994997.9871259,0.8600075235172194,-0.38271434550382655,-0.2887709263392854,0.9846176205306769,1.3230089622620043,-0.4046076193584464,-0.38617930007585904,1.4363824322497039
235,1790994998.0071259,0.8168971719547193,-0.38271434550382655,-0.2456605747767854,0.9349547463924129,1.3402510204523501,-0.412692587392735,-0.3913227976596872,1.455926337930831
236,1790994998.0173514,0.7689967813297194,-0.30607372050382653,-0.2504506138392854,0.8647327228982361,1.3489604171336893,-0.41673444026096523,-0.39393856294122054,1.4657930931974372
237,1790994998.0373514,0.8360573282047193,-0.2677534080038265,-0.2696107700892854,0.9183538048544334,1.3658473959065616,-0.4243147734842723,-0.3990673724397221,1.4848693220777676
238,1790994998.0620956,0.8121071328922194,-0.2869135642538265,-0.3031410435267854,0.9130891965836436,1.3866649900980572,-0.4333158611063838,-0.40552392007773014,1.5083275771546516
239,1790994998.0820956,0.7881569375797194,-0.3012836814413265,-0.28398088727678544,0.8902855493022397,1.4033676337618073,-0.44038214660253266,-0.4108404248626499,1.5271434134480597
240,1790994998.1071768,0.8312672891422194,-0.3108637595663265,-0.25524065290178544,0.923465957089537,1.4242180979980343,-0.4490659576557331,-0.41752187683364794,1.5506069594275302
241,1790994998.1271768,0.8791676797672194,-0.2677534080038265,-0.2791908482142854,0.9605077961013913,1.4409161719716175,-0.4558197610932908,-0.4228522048359856,1.5693358647488875
242,1790994998.1375563,0.8073170938297194,-0.31565379862882653,-0.25524065290178544,0.9036293496075708,1.449595088832262,-0.4592532389147873,-0.4256196169782165,1.579047661527992
243,1790994998.1575563,0.8312672891422194,-0.33481395487882654,-0.2696107700892854,0.9358395469991597,1.4662675875443005,-0.4658524060772542,-0.43093945485767526,1.5977070808768359
244,1790994998.181749,0.8456374063297194,-0.3683442283163265,-0.29356096540178545,0.9679659776694804,1.486452851919595,-0.47391349237822095,-0.43743114074895817,1.6203339415487643
245,1790994998.201749,0.8791676797672194,-0.3204438376913265,-0.26482073102678544,0.972496828705977,1.5032239888485548,-0.48061109759537485,-0.4428303386407096,1.6391363874315756
246,1790994998.2270164,0.8073170938297194,-0.3108637595663265,-0.20255022321428542,0.888495222229997,1.5244298846065896,-0.48899977513248744,-0.4495140348838052,1.6628499994644141
247,1790994998.2470164,0.8264772500797194,-0.24380321269132652,-0.25524065290178544,0.8986948549489292,1.5411479862521462,-0.4954757109856848,-0.4546975384182594,1.6814824254655294
248,1790994998.2568836,0.8552174844547193,-0.24859325175382652,-0.2504506138392854,0.9251600188654254,1.5494033432766927,-0.49855582649962316,-0.457245503321758,1.690645463307338
249,1790994998.2768836,0.8073170938297194,-0.2246430564413265,-0.16422991071428542,0.8539302409273178,1.5661201299464595,-0.5045723488323266,-0.46225736056923356,1.7090954871013266
250,1790994998.3022788,0.8456374063297194,-0.2246430564413265,-0.17860002790178542,0.8930090121369854,1.5873107538089062,-0.511921678778207,-0.4683196000685284,1.7323228573706584
251,1790994998.3222787,0.8695876016422194,-0.2773334861288265,-0.2504506138392854,0.946478721065989,1.60406898221394,-0.5175944195069802,-0.4730213500335559,1.7506257396694478
252,1790994998.347622,0.8264772500797194,-0.2150629783163265,-0.2265004185267854,0.88352655259162,1.6253428138958366,-0.5246403669673164,-0.47899209904929196,1.7738151561778028
253,1790994998.367622,0.8073170938297194,-0.17195262675382653,-0.1402797154017854,0.8372616045122401,1.6420638037208175,-0.5299472498912755,-0.48354739506155936,1.7919363008846674
254,1790994998.392313,0.8264772500797194,-0.12884227519132652,-0.20734026227678543,0.8617743098612413,1.6626358723465866,-0.5360731712113588,-0.488971333614749,1.8140632442126388
255,1790994998.412313,0.8073170938297194,-0.08094188456632653,-0.2983510044642854,0.8644800752658562,1.679250562475735,-0.5406055831976901,-0.4934642862091836,1.8318416552539485
256,1790994998.4219754,0.8456374063297194,-0.11926219706632653,-0.2600306919642854,0.892716111312307,1.6872712792764812,-0.5426119107863502,-0.495713973600052,1.8403924579341386
257,1790994998.4419754,0.8791676797672194,-0.07136180644132653,-0.21213030133928543,0.9072086757257899,1.7039701130344014,-0.5464277741396928,-0.5003803086480454,1.858084473792417
258,1790994998.4670591,0.8504274453922194,-0.013881337691326523,-0.25524065290178544,0.8880131318320504,1.7250259585948897,-0.5506560863551734,-0.5062341668985428,1.8802153374019892
259,1790994998.487059,0.8312672891422194,-0.023461415816326523,-0.2887709263392854,0.8803092592542746,1.7418186373626086,-0.5535777466099246,-0.5110175079597297,1.897766945767269
260,1790994998.5121908,0.8408473672672194,0.024438974808673478,-0.2887709263392854,0.8893875456901577,1.7629066018063668,-0.5566965245912644,-0.5172151825063687,1.9197036886456098
261,1790994998.5321908,0.8839577188297194,0.014858896683673479,-0.28398088727678544,0.9285726572691054,1.7797584615315754,-0.5587472309877731,-0.5222666384840842,1.9371373444346192
262,1790994998.5422518,0.8504274453922194,0.010068857621173478,-0.2887709263392854,0.8981741867082247,1.788272942599713,-0.5596052908236367,-0.5248587960345983,1.9459072317371484
263,1790994998.5622518,0.8264772500797194,-0.023461415816326523,-0.3031410435267854,0.8806302147904931,1.8051751048710365,-0.5610752321568206,-0.5301265979524916,1.9632872396169314
264,1790994998.5876353,0.8408473672672194,-0.013881337691326523,-0.3079310825892854,0.8955660434612983,1.8265833206311475,-0.5627320944769579,-0.5369728302623369,1.985299437818456
265,1790994998.6076353,0.8408473672672194,0.0052788185586734775,-0.2887709263392854,0.8890673815096574,1.8434435094280561,-0.5638546428218922,-0.5424529855255927,2.0026161070434494
266,1790994998.6329358,0.8552174844547193,-0.018671376753826522,-0.2696107700892854,0.8969033021318847,1.8647911520021756,-0.5650871009517396,-0.5494051955167789,2.024503776511289
267,1790994998.6529357,0.8743776407047193,0.0004887794961734774,-0.2983510044642854,0.9238775997579957,1.8817295092451167,-0.5659424914962451,-0.5549284855278265,2.041847808651529
268,1790994998.6624837,0.8983278360172194,0.06275928730867349,-0.2696107700892854,0.9400114874058776,1.8898723225443212,-0.5662443071984096,-0.5575764867563111,2.050156469525481
269,1790994998.6824837,0.9366481485172193,0.04838917012117348,-0.2312904575892854,0.9659951043755926,1.90712294433152,-0.5666149631313985,-0.5630425654862172,2.0676526235781054
270,1790994998.7072942,0.8839577188297194,0.06754932637117349,-0.2360804966517854,0.9174301941135327,1.9287006215163214,-0.5667900637288723,-0.5696759492937904,2.0894180412217667
271,1790994998.7272942,0.8552174844547193,0.05317920918367348,-0.25524065290178544,0.8940764871643749,1.9460942263417185,-0.566728948567774,-0.5749580695960022,2.1069032300366497
272,1790994998.7523904,0.8983278360172194,0.03401905293367348,-0.2217103794642854,0.9259080350056812,1.967946593111153,-0.5664996381011936,-0.5814896424147131,2.1288179437289063
273,1790994998.7723904,0.9126979532047194,0.02922901387117348,-0.19776018415178542,0.9343345115491097,1.9854657768420472,-0.5662494327093976,-0.5865432915647532,2.146333106471203
274,1790994998.782448,0.8408473672672194,0.01964893574617348,-0.2504506138392854,0.8775738633805398,1.9942771352216468,-0.5661056119432115,-0.5890415820149757,2.155130353664057
275,1790994998.802448,0.8312672891422194,0.0004887794961734774,-0.34625139508928543,0.9004974033857768,2.0116786832112576,-0.565832312677253,-0.594159363908127,2.172565920812526
276,1790994998.8277283,0.8552174844547193,-0.009091298628826523,-0.3175111607142854,0.9123009013510561,2.0335727047580576,-0.5655549874400819,-0.6009164712239349,2.194623201085685
277,1790994998.8477283,0.8408473672672194,0.0004887794961734774,-0.25524065290178544,0.8787333639047398,2.050839684067575,-0.5653814006882538,-0.6063194919943903,2.2120630335419778
278,1790994998.8728187,0.8504274453922194,0.024438974808673478,-0.2696107700892854,0.8924763698351754,2.0724348622014346,-0.5651493886001964,-0.6130686354400994,2.233882996323541
279,1790994998.8928187,0.9031178750797194,0.01964893574617348,-0.3318812779017854,0.9623685154794847,2.089696943554463,-0.5649260575128084,-0.6185437400844273,2.251348734593435
280,1790994998.9028964,0.8647975625797194,0.0004887794961734774,-0.3223011997767854,0.9229047223450397,2.0984265909182285,-0.5648151834112468,-0.6213831952694038,2.2602051730424373
281,1790994998.9228964,0.8025270547672194,-0.004301259566326523,-0.2887709263392854,0.8529107939087496,2.115653519270031,-0.5646338698528126,-0.6270896475535561,2.2777275180875947
282,1790994998.9474828,0.8887477578922194,0.03880909199617348,-0.3366713169642854,0.9511710143010461,2.136773043407834,-0.5643807789903517,-0.6342057650878735,2.299248062997733
283,1790994998.9674828,0.9510182657047194,0.01964893574617348,-0.29356096540178545,0.9954897602625543,2.154135518875261,-0.5641180955420055,-0.6400714624848832,2.316942065845727
284,1790994998.9927645,0.8647975625797194,-0.05699168925382653,-0.2265004185267854,0.8957819581129313,2.1762340248495478,-0.5639066560889618,-0.6473600909578915,2.339457273612687
285,1790994999.0127645,0.8312672891422194,-0.03783153300382652,-0.2696107700892854,0.87471509546561,2.1936376711992556,-0.5639067139605884,-0.6530053010326106,2.357212959774957
286,1790994999.0225055,0.9414381875797194,-0.004301259566326523,-0.2983510044642854,0.9875918609081851,2.2021378106737672,-0.5639375192986477,-0.6557573357458936,2.365893942309401
287,1790994999.0425055,0.9845485391422194,0.014858896683673479,-0.26482073102678544,1.019650249997172,2.2198611198236944,-0.5639754439296208,-0.6614049073944425,2.3839689897702048
288,1790994999.0671277,0.8791676797672194,-0.023461415816326523,-0.2265004185267854,0.9081787746761051,2.2418492403950023,-0.5640310159263667,-0.6682220837750521,2.406354038131391
289,1790994999.0871277,0.8791676797672194,-0.023461415816326523,-0.2504506138392854,0.9144461477593185,2.2596680676927594,-0.5641397688540043,-0.6736443140256602,2.424489661098203
290,1790994999.1127207,0.9941286172672193,-0.03304149394132652,-0.25524065290178544,1.0269037145152597,2.2826454526280733,-0.5643665160962149,-0.6805127661655072,2.4478720252105566
291,1790994999.1327207,0.9510182657047194,-0.028251454878826524,-0.20734026227678543,0.9737678731442051,2.3008257233935185,-0.5646090705632202,-0.6857689539828193,2.4663457726438645
292,1790994999.157582,0.8839577188297194,-0.018671376753826522,-0.2408705357142854,0.9163779154714562,2.3234566354302375,-0.5649528478198402,-0.6921584168444482,2.4893183265691756
293,1790994999.177582,0.9270680703922194,-0.009091298628826523,-0.3031410435267854,0.9754139383472127,2.341648009300482,-0.5652295639488872,-0.6973434973555466,2.5078053777609663
294,1790994999.1873078,0.9462282266422194,-0.013881337691326523,-0.3079310825892854,0.9951693825953395,2.3505338133869444,-0.5653607008690399,-0.6999324740989579,2.5168526771070234
295,1790994999.2073078,0.8695876016422194,0.0052788185586734775,-0.29356096540178545,0.9178172493818532,2.36878925265399,-0.5656028221220443,-0.7053600481975459,2.535468767994336
296,1790994999.2322018,0.8312672891422194,-0.018671376753826522,-0.2696107700892854,0.8740960437251017,2.391279014851285,-0.565883990007023,-0.7121538694753713,2.558437638642604
297,1790994999.2522018,0.8935377969547194,-0.018671376753826522,-0.2887709263392854,0.939226843097782,2.409224362801139,-0.5661320121845753,-0.7176309067854436,2.5767928911552844
298,1790994999.277244,0.9079079141422194,0.01964893574617348,-0.3127211216517854,0.9604568502359612,2.4317069961767865,-0.5663941458098531,-0.7245898153911536,2.5998137710673412
299,1790994999.297244,0.9126979532047194,0.0004887794961734774,-0.3079310825892854,0.9632441768908283,2.449700257358387,-0.5665418889025517,-0.7302448538960059,2.6182548786213724
300,1790994999.307474,0.8887477578922194,0.010068857621173478,-0.25524065290178544,0.9247279329326935,2.4589052875780815,-0.5665980226649314,-0.7331355699448546,2.627686491285752
301,1790994999.3274739,0.8983278360172194,0.03401905293367348,-0.27440080915178544,0.9399180820630268,2.476882870707428,-0.566625174272155,-0.7387338399780036,2.6460802198065476
302,1790994999.3526294,0.8887477578922194,0.014858896683673479,-0.2983510044642854,0.9376068930175114,2.499474528740016,-0.5665619860148481,-0.7457996069695464,2.669191348999383
303,1790994999.3726294,0.8839577188297194,-0.03783153300382652,-0.2983510044642854,0.9337161214378323,2.5174009074394434,-0.5665537426463549,-0.751469667094232,2.687563419278928
304,1790994999.397705,0.8791676797672194,-0.042621572066326524,-0.26482073102678544,0.9191748621096217,2.5398212237399256,-0.5666962637350356,-0.7585714908045136,2.710584293201819
305,1790994999.417705,0.8743776407047193,-0.009091298628826523,-0.2360804966517854,0.9057333554498606,2.557651330561869,-0.5668704547445049,-0.7641375036475428,2.7288877891309196
306,1790994999.4424586,0.8791676797672194,0.014858896683673479,-0.2887709263392854,0.9254972954346119,2.579664585844862,-0.5670430008722022,-0.7709674996309218,2.7514719743779787
307,1790994999.4624586,0.8552174844547193,0.014858896683673479,-0.3031410435267854,0.9074757433663021,2.597384181440396,-0.5671169235484974,-0.7765459959442013,2.7696660222468843
308,1790994999.4720454,0.8121071328922194,0.010068857621173478,-0.2456605747767854,0.8485095728321966,2.605802675425701,-0.5671291192679825,-0.7792134920017538,2.778311841261701
309,1790994999.4920454,0.8935377969547194,0.04359913105867348,-0.2265004185267854,0.9228288673467978,2.6232893850580594,-0.5670702436389305,-0.784651917798652,2.796228619244877
310,1790994999.5182996,0.9222780313297194,0.06275928730867349,-0.2696107700892854,0.9629254709296318,2.646376574727774,-0.5667951235442963,-0.7916970071552728,2.8198137950013855
311,1790994999.5382996,0.8743776407047193,0.010068857621173478,-0.2887709263392854,0.9208834282128199,2.664020866348217,-0.5665077369349996,-0.7970963827016497,2.8378338280565294
312,1790994999.547779,0.8504274453922194,-0.013881337691326523,-0.2456605747767854,0.8853070932801214,2.672355674979423,-0.5663946651261965,-0.7996516453234815,2.846353900017827
313,1790994999.567779,0.9510182657047194,0.05317920918367348,-0.2360804966517854,0.9813244982638346,2.6900049660523733,-0.5661329424574109,-0.8049567045878347,2.864365291331192
314,1790994999.5923405,0.9701784219547194,0.03401905293367348,-0.2696107700892854,1.007518453298594,2.711967414434945,-0.5656991120565221,-0.8114259841559824,2.8867273633133426
315,1790994999.6123405,0.8695876016422194,0.01964893574617348,-0.3031410435267854,0.921120605499808,2.7299281970794564,-0.5653183378439052,-0.816762772125781,2.9050291238200483
316,1790994999.637237,0.8791676797672194,-0.047411611128826525,-0.2791908482142854,0.9236510162088922,2.752197992073498,-0.5649672775817934,-0.8234970243981588,2.9277857096283872
317,1790994999.657237,0.9510182657047194,-0.06178172831632653,-0.21692034040178543,0.9773981572203781,2.770149594691688,-0.5648913554434983,-0.8288394922334619,2.9461510355565848
318,1790994999.6672401,0.9414381875797194,-0.013881337691326523,-0.2696107700892854,0.9793817028705535,2.7792011714074687,-0.5649158433676547,-0.8314757558904492,2.955408769336998
319,1790994999.6872401,0.8647975625797194,0.0052788185586734775,-0.3127211216517854,0.9196179587722011,2.7972934350173433,-0.5649703637062878,-0.8368295124803209,2.973941106749694
320,1790994999.712425,0.8647975625797194,-0.013881337691326523,-0.27440080915178544,0.9073936961667074,2.8199256059522164,-0.5650449689854358,-0.8436689428028366,2.9971709202397485
321,1790994999.732425,0.9222780313297194,-0.03783153300382652,-0.2456605747767854,0.9551843329758414,2.8378831089262864,-0.5651728973635992,-0.8490657030188306,3.0156116314748407
322,1790994999.7579536,0.8983278360172194,0.0052788185586734775,-0.2983510044642854,0.9465907715341428,2.860852275024439,-0.5653740228111199,-0.8559626150369495,3.039209687323833
323,1790994999.7779536,0.8216872110172194,-0.004301259566326523,-0.3175111607142854,0.8809095928421067,2.8787278613003844,-0.5655064893985885,-0.8614791807618248,3.057616402995161
324,1790994999.787436,0.7642067422672194,0.02922901387117348,-0.2360804966517854,0.8003750877419357,2.8870596069551846,-0.5655421455676896,-0.8640960687265296,3.0662050010581767
325,1790994999.807436,0.8552174844547193,0.04359913105867348,-0.20734026227678543,0.8810719688578997,2.9044258649251273,-0.5654968277074941,-0.8694527466568368,3.0840597182386773
326,1790994999.8322825,0.8456374063297194,0.04838917012117348,-0.2265004185267854,0.876781942310561,2.9259338067829783,-0.5652775535535801,-0.8759177474095476,3.1061003291030485
327,1790994999.8522825,0.7977370157047193,0.05796924824617348,-0.20734026227678543,0.8262776557118704,2.943114575366069,-0.5649679889520323,-0.8809918539552885,3.1236611338313054
328,1790994999.8777199,0.8743776407047193,0.05796924824617348,-0.2217103794642854,0.9039093896341465,2.964878571832636,-0.5644121345316914,-0.8872959563127847,3.1458480760214678
329,1790994999.8977199,0.8695876016422194,0.04838917012117348,-0.25524065290178544,0.90756371655582,2.982039566656417,-0.5638811151896149,-0.8922244632048699,3.1633188871678892
330,1790994999.9220731,0.8168971719547193,-0.013881337691326523,-0.2887709263392854,0.86654620706721,3.0028818058644364,-0.5632684739400025,-0.8983191750837276,3.184579698178312
331,1790994999.942073,0.8312672891422194,-0.023461415816326523,-0.2456605747767854,0.8671244789703617,3.019903134994226,-0.5628968290978057,-0.9033752819024726,3.2019922993206418
332,1790994999.952317,0.8983278360172194,0.010068857621173478,-0.2504506138392854,0.9326412991229,3.0286424744930294,-0.5627453170184792,-0.905957696396435,3.2109370716022174
333,1790994999.972317,0.8552174844547193,0.0052788185586734775,-0.26482073102678544,0.8952959461675198,3.045775931943047,-0.5624708576230916,-0.9110161810154225,3.2284787401113113
334,1790994999.997982,0.8216872110172194,-0.052201650191326526,-0.2696107700892854,0.8663630026611775,3.0676923528166964,-0.5622618075420827,-0.9175625168654671,3.2509684225022886
335,1790995000.017982,0.8647975625797194,-0.023461415816326523,-0.28398088727678544,0.9105330343345268,3.0847390520199136,-0.5622368316729662,-0.9227290582109046,3.2685094750991857
336,1790995000.0423374,0.8983278360172194,0.014858896683673479,-0.29356096540178545,0.9451940161584099,3.1056048156055795,-0.5622266928435841,-0.9291319462511225,3.2900100757296773
337,1790995000.0623374,0.8552174844547193,0.010068857621173478,-0.26482073102678544,0.8953370020234921,3.122799353991511,-0.5621822243837836,-0.9344387092789845,3.3077334173270176
338,1790995000.072685,0.8695876016422194,-0.004301259566326523,-0.2265004185267854,0.8986120060162412,3.131699628502652,-0.5621581922663038,-0.9371537834529836,3.3168993970477922
339,1790995000.092685,0.9270680703922194,0.01964893574617348,-0.2265004185267854,0.9545384892237292,3.1490167878119255,-0.5620956886312763,-0.9422938542164377,3.33469278956747
340,1790995000.1173606,0.9318581094547194,0.0052788185586734775,-0.25524065290178544,0.9661962497213642,3.1706178008595107,-0.5619840071123392,-0.948575864091928,3.356849629237954
341,1790995000.1373606,0.8504274453922194,-0.03304149394132652,-0.27440080915178544,0.894211599265725,3.1881730028621234,-0.5619487093529629,-0.9536982459342515,3.3748738928173916
342,1790995000.1623383,0.7594167032047194,-0.013881337691326523,-0.2217103794642854,0.791240742760775,3.209824536282787,-0.5619991406999553,-0.9600653017495938,3.397137320082018
343,1790995000.1823382,0.8504274453922194,-0.013881337691326523,-0.21692034040178543,0.8777664640964951,3.226975482981665,-0.5620751085954415,-0.965056709245252,3.4147669975456014
344,1790995000.192844,0.9318581094547194,0.010068857621173478,-0.26482073102678544,0.9688090305276269,3.236037546397812,-0.5621120315788607,-0.9676649072806385,3.4240742267837203
345,1790995000.212844,0.8360573282047193,-0.03783153300382652,-0.2887709263392854,0.8853314231591932,3.2533533879305043,-0.5622134232641625,-0.9727158051706871,3.44188440213877
346,1790995000.2372248,0.7833668985172194,-0.042621572066326524,-0.2408705357142854,0.8206697941761835,3.2742571222211287,-0.562465598401352,-0.9789179820489723,3.4634387055900975
347,1790995000.2572248,0.8600075235172194,0.0004887794961734774,-0.2600306919642854,0.8984593147021415,3.2912976409306407,-0.562704630633705,-0.9839938991196142,3.4810229324204167
348,1790995000.2825327,0.9270680703922194,0.03880909199617348,-0.3223011997767854,0.9822623967860502,3.3130182269269417,-0.5628871395016085,-0.9905588065714048,3.503446653374731
349,1790995000.3025327,0.7977370157047193,-0.03783153300382652,-0.2360804966517854,0.8327962367915964,3.3301957260656234,-0.5630082692140244,-0.9958062008547073,3.521194665844222
350,1790995000.3120883,0.8216872110172194,0.0052788185586734775,-0.19776018415178542,0.8451667463349347,3.3383323126511004,-0.5630807910004886,-0.9982481529593935,3.5295923251518753
351,1790995000.3320882,0.8839577188297194,0.04359913105867348,-0.2504506138392854,0.9197867377170577,3.35536628465358,-0.5631364950345391,-1.0032648572253982,3.547132079578269
352,1790995000.3571968,0.7594167032047194,-0.018671376753826522,-0.3079310825892854,0.819685245103764,3.3766382093806784,-0.5631489951414581,-1.0096697727438855,3.5690692677182767
353,1790995000.3771968,0.9318581094547194,-0.004301259566326523,-0.2696107700892854,0.9700865963090708,3.393577464341929,-0.5631919173712491,-1.014872589512902,3.5865749002671508
354,1790995000.4029517,0.8121071328922194,0.014858896683673479,-0.2360804966517854,0.8458562425166765,3.4154876048750182,-0.5632185060827363,-1.021544320538475,3.6091998370100504
355,1790995000.4229517,0.8264772500797194,0.08191944355867348,-0.2696107700892854,0.8731926519849071,3.43240764437841,-0.563090889047352,-1.0267066475810114,3.626654122838642
356,1790995000.4324188,0.8216872110172194,0.04359913105867348,-0.28398088727678544,0.8704687825056325,3.4403857297242624,-0.5629504194235001,-1.0291767954569953,3.63488266940304
357,1790995000.4524188,0.7929469766422194,-0.03783153300382652,-0.2217103794642854,0.8242278962869756,3.4571338149210376,-0.5626895286965886,-1.0343709416119524,3.652166064793121
358,1790995000.4774933,0.8600075235172194,-0.004301259566326523,-0.2456605747767854,0.8944163232744236,3.4780902115857244,-0.5624907405348724,-1.0407851005064177,3.673791090760613
359,1790995000.4974933,0.8360573282047193,0.0004887794961734774,-0.2696107700892854,0.8784543598265918,3.494842312969556,-0.5623616849586265,-1.0459066747819366,3.6910830699925063
360,1790995000.5223646,0.7881569375797194,-0.028251454878826524,-0.28398088727678544,0.8382330507062594,3.515579572925013,-0.5622770560497559,-1.052352992482635,3.7125331031675333
361,1790995000.5423646,0.8073170938297194,-0.07136180644132653,-0.2265004185267854,0.8415199563890582,3.532147046153538,-0.5623686305227558,-1.0575248798151637,3.7297024148952262
362,1790995000.567944,0.8600075235172194,-0.07615184550382653,-0.2312904575892854,0.893816155510584,3.5533567001721353,-0.5627511825593919,-1.0640256351489188,3.751690723445132
363,1790995000.587944,0.8456374063297194,-0.004301259566326523,-0.3031410435267854,0.898340478932359,3.5700110013943296,-0.5631261043855136,-1.0691476530442388,3.7689741659405085
364,1790995000.5972552,0.8456374063297194,-0.07136180644132653,-0.2696107700892854,0.8904409569144727,3.577782631860146,-0.563327309369545,-1.071574545920841,3.777054173001375
365,1790995000.6172552,0.8935377969547194,-0.05699168925382653,-0.19297014508928542,0.9159122906296638,3.594580498139859,-0.5638871907660079,-1.0766993324271819,3.794503811299511
366,1790995000.6423402,0.8504274453922194,-0.013881337691326523,-0.18818010602678542,0.8711092260541666,3.615769959711148,-0.5646174258276243,-1.0828800163407186,3.816440012483865
367,1790995000.6623402,0.8456374063297194,-0.052201650191326526,-0.2696107700892854,0.8891105682730861,3.6326740665130277,-0.5652114275470383,-1.087755326357568,3.8339270313042366
368,1790995000.6878784,0.8360573282047193,-0.042621572066326524,-0.2791908482142854,0.8824715203205319,3.6542424179616666,-0.5660377631655835,-1.0940980206273037,3.8562853729075095
369,1790995000.7078784,0.8360573282047193,-0.052201650191326526,-0.20734026227678543,0.8629639926952443,3.67110796346036,-0.5667300635986806,-1.0990499494802557,3.8737743140019387
370,1790995000.71742,0.8216872110172194,-0.052201650191326526,-0.20734026227678543,0.8490493916097934,3.679133693538589,-0.5670855228295154,-1.1013548375795745,3.8820861921644214
371,1790995000.73742,0.8743776407047193,-0.06178172831632653,-0.26482073102678544,0.9156873156813218,3.6959767672845363,-0.5678897988781753,-1.1061695641549374,3.899532560787212
372,1790995000.7617147,0.8839577188297194,-0.05699168925382653,-0.2887709263392854,0.9316748087296849,3.716571469401527,-0.5689366482657033,-1.1121495730187836,3.920901563374819
373,1790995000.7817147,0.8168971719547193,-0.042621572066326524,-0.2456605747767854,0.8540999390894979,3.7335337455314437,-0.5698185934233236,-1.1171356881466574,3.938522515381103
374,1790995000.806794,0.8073170938297194,-0.047411611128826525,-0.2456605747767854,0.8451969408718631,3.75466836818257,-0.5709279789193924,-1.123374381926387,3.9604877621465056
375,1790995000.826794,0.8887477578922194,-0.028251454878826524,-0.3606215122767854,0.9595408261132056,3.7715385787517137,-0.571793470985647,-1.128512706237829,3.9780638447132217
376,1790995000.8373578,0.8552174844547193,-0.10968211894132653,-0.3079310825892854,0.9155592086572701,3.7804944212500082,-0.5722913290494651,-1.1313493159550372,3.9874310914572013
377,1790995000.8573577,0.8168971719547193,-0.09052196269132652,-0.20734026227678543,0.8476468602184016,3.797414871542294,-0.5733928180422913,-1.1366870652957894,4.005146253859379
378,1790995000.8820014,0.8312672891422194,-0.013881337691326523,-0.26482073102678544,0.8725411263175599,3.8181828759663343,-0.5747394356879004,-1.1431502750406046,4.026864592283034
379,1790995000.9020014,0.8935377969547194,0.0004887794961734774,-0.3318812779017854,0.9531816280823983,3.835096514148141,-0.5756884643843921,-1.148503855791447,4.044557279557838
380,1790995000.9270756,0.8600075235172194,-0.07136180644132653,-0.2887709263392854,0.909996755941272,3.8564183020478047,-0.5768330844226321,-1.1553761120441588,4.066889780647624
381,1790995000.9470756,0.6971461953922193,-0.08573192362882652,-0.19297014508928542,0.728423130724667,3.873209902136403,-0.5778447610494063,-1.1607580158603839,4.084485118746776
382,1790995000.9576356,0.8408473672672194,-0.013881337691326523,-0.2217103794642854,0.8696967741336702,3.8819640999444274,-0.5783776974574385,-1.1635018528495125,4.093641727821057
383,1790995000.9776356,0.9222780313297194,-0.047411611128826525,-0.2600306919642854,0.9594063730800828,3.898701656506455,-0.5793275799428927,-1.1686416064393232,4.111109127185721
384,1790995001.0022714,0.7977370157047193,-0.10010204081632652,-0.2408705357142854,0.8392993386011643,3.919404293890436,-0.5805946866152485,-1.1749485496648118,4.13271391502631
385,1790995001.0222714,0.7881569375797194,-0.14321239237882652,-0.17860002790178542,0.8207308435488624,3.936069034261331,-0.5818340277395809,-1.1799298753350436,4.15010900929298
386,1790995001.0474012,0.7881569375797194,-0.2006928611288265,-0.21213030133928543,0.8405166551053062,3.956838198780044,-0.5838058356533039,-1.1859864403563805,4.1718055589608865
387,1790995001.0674012,0.7737868203922194,-0.1959028220663265,-0.25524065290178544,0.8380165571156581,3.973231185374728,-0.5857346313531481,-1.190784684610585,4.188987858170969
388,1790995001.07744,0.7594167032047194,-0.2054829001913265,-0.21692034040178543,0.8160829525589847,3.981379650416805,-0.5868597641241987,-1.1931873600202925,4.197556953706899
389,1790995001.09744,0.8216872110172194,-0.1959028220663265,-0.2265004185267854,0.8745571611024726,3.9975500694693205,-0.5893671633343553,-1.1979212266903747,4.214590783989156
390,1790995001.122476,0.8408473672672194,-0.25338329081632655,-0.29356096540178545,0.9259618931212847,4.017877716450928,-0.5928787519398647,-1.203934750103822,4.236071935338475
391,1790995001.142476,0.8073170938297194,-0.31565379862882653,-0.28398088727678544,0.9121641052557276,4.034152818116077,-0.5961167419369794,-1.2088843583579423,4.253368726293776
392,1790995001.1675577,0.8168971719547193,-0.2964936423788265,-0.2600306919642854,0.9071082792490138,4.0545569422561085,-0.6007198680797332,-1.2151838471334169,4.275157089539157
393,1790995001.1875577,0.8408473672672194,-0.2725434470663265,-0.2456605747767854,0.9174166684656816,4.070873188860525,-0.6046933579157556,-1.2202120893757828,4.292619261004837
394,1790995001.1974664,0.8552174844547193,-0.2917036033163265,-0.3175111607142854,0.9577584638534496,4.079004704364536,-0.6067859911265718,-1.2227480998896065,4.301346479073629
395,1790995001.2174664,0.8360573282047193,-0.39229442362882655,-0.34625139508928543,0.9862944790762866,4.095492582959469,-0.611402247898199,-1.2280946910718724,4.319153710630117
396,1790995001.2423186,0.7833668985172194,-0.43540477519132653,-0.29356096540178545,0.9430901634305839,4.115925933434771,-0.6178208088924699,-1.2349344417066985,4.3413836408148585
397,1790995001.2623186,0.7881569375797194,-0.5695258689413265,-0.3606215122767854,1.0371108661879935,4.13226047314563,-0.6237187644106722,-1.240594386598244,4.359320606133345
398,1790995001.2864637,0.7689967813297194,-0.6988569236288266,-0.46600237165178543,1.1388218735976687,4.151842294442442,-0.6320679573398337,-1.2478993660871254,4.381159340687974
399,1790995001.3064637,0.5582350625797193,-0.7898676658163265,-0.42289202008928545,1.0556301318410306,4.167620214348993,-0.6401795014745212,-1.2543759610341931,4.399130265947915
400,1790995001.33221,0.42411396882971936,-0.7323871970663265,-0.34625139508928543,0.9144143992656955,4.186781633676327,-0.651994758679044,-1.2629479828821062,4.421456233063982
401,1790995001.35221,0.44327412507971936,-0.7419672751913265,-0.2887709263392854,0.9112606846116436,4.2007347555294405,-0.6620077520148739,-1.2695605122242233,4.438041307180433
402,1790995001.3625317,0.6061354532047194,-0.6365864158163266,-0.1306996372767854,0.8886646429434732,4.207667929870573,-0.6674673110066458,-1.2727859459166095,4.446343001101759
403,1790995001.3825316,0.8312672891422194,-0.5743159080038265,0.1662827845982146,1.023959976091766,4.2212431584030465,-0.6782757047251069,-1.2780449481547707,4.462325696706684
404,1790995001.4073114,0.9318581094547194,-0.6892768455038265,0.2956138392857146,1.1961812771822964,4.238816548272361,-0.692006849848483,-1.2827249983531588,4.482390281038114
405,1790995001.4273114,0.6923561563297194,-0.7275971580038265,0.1950230189732146,1.0231268980299242,4.253308952701658,-0.7035523025127541,-1.2851997552508876,4.498595480858444
406,1790995001.452722,0.4576442422672194,-0.7707075095663265,0.0177915736607146,0.8965181860261348,4.271151748673017,-0.7188763247808484,-1.2874667964157793,4.518527545826859
407,1790995001.472722,0.22772236726721937,-0.7707075095663265,-0.16422991071428542,0.8202554513253403,4.284116808916946,-0.7314403712837826,-1.2892031272236475,4.533288712671156
408,1790995001.4822707,0.5151247110172193,-0.5551557517538266,-0.29356096540178545,0.8122372910754334,4.289910261448032,-0.7374886119024627,-1.2902356094278506,4.540036060627559
409,1790995001.5022707,0.8552174844547193,-0.5264155173788265,-0.3702015904017854,1.0703081146054565,4.302280157928748,-0.7498789649033515,-1.2930694341311249,4.55455393872947
410,1790995001.5273519,0.5103346719547194,-0.6317963767538265,-0.2312904575892854,0.844454507270969,4.31803457395298,-0.7652651615237893,-1.2972216089594029,4.573164905407037
411,1790995001.5473518,0.21814228914221936,-0.5743159080038265,-0.17860002790178542,0.6397833933957539,4.329805615898848,-0.7775030770254195,-1.3006507840792156,4.587310777392249
412,1790995001.5718513,0.3091530313297194,-0.3779243064413265,-0.3079310825892854,0.5772555151786091,4.343030815101736,-0.791995214842302,-1.3051153106352185,4.603531150683224
413,1790995001.5918512,0.7067262735172194,0.01964893574617348,-0.5091127232142855,0.8712312387042596,4.3537315113041135,-0.802588626451311,-1.309438780773484,4.616682412341675
414,1790995001.6026788,0.9701784219547194,0.3741118263711735,-0.5713832310267855,1.1864588596980232,4.360017417421395,-0.8071436471257308,-1.3123057497150772,4.6242165961434605
415,1790995001.6226788,0.4193239297672194,0.6471440529336735,-0.3510414341517854,0.8472650540499045,4.371970973415217,-0.8127634601622887,-1.3181907235960477,4.638139866189338
416,1790995001.646938,0.25646260164221935,1.0207670998086735,-0.2791908482142854,1.0888921286424649,4.38552491768732,-0.815522933233609,-1.325404939752125,4.653450839173619
417,1790995001.666938,0.5007545938297193,0.9584965919961735,-0.21213030133928543,1.1020300108690972,4.396158813608691,-0.8144877707544989,-1.3311973597963114,4.664942556335145
418,1790995001.692,0.8168971719547193,1.3800200294961735,-0.4372621372767854,1.6622197351896952,4.409961998345012,-0.8089896229816167,-1.3385876600242659,4.679107389290003
419,1790995001.712,0.8073170938297194,1.7584331154336734,-0.5186928013392854,2.003219941395511,4.421761311622618,-0.8005524370137389,-1.3450345891162268,4.690626327825558
420,1790995001.7225523,0.6779860391422193,1.9452446388711735,-0.46600237165178543,2.112060601572286,4.428228554616369,-0.7938373438526685,-1.3487052107879969,4.696636201157327
421,1790995001.7425523,1.0372389688297194,1.8781840919961734,-0.4803724888392854,2.198680943183908,4.441220153206256,-0.7772841547307263,-1.3560381631421137,4.708231791908582
422,1790995001.7669425,1.4348122110172195,1.4039702248086734,-0.4995326450892854,2.0686593089591474,4.459209094712204,-0.7541214260310938,-1.3654319019227559,4.72415591977568
423,1790995001.7869425,1.2959010782047193,1.5285112404336734,-0.5522230747767854,2.0786189022858825,4.475843452969365,-0.7335782861245347,-1.373556969928114,4.738984117614264
424,1790995001.812226,1.2240504922672195,1.5716215919961734,-0.6623939732142854,2.099299838469678,4.498496455801698,-0.7056249111460327,-1.3845910254394374,4.75935596334396
425,1790995001.832226,1.9521364297672195,1.1740483498086736,-0.9450062779017855,2.466224449109724,4.518491990670232,-0.68271132598676,-1.3944211204098718,4.777789748976692
426,1790995001.8423254,2.2155885782047195,0.7285747169961735,-1.0168568638392854,2.5443371922082836,4.530231449256093,-0.6714350808252633,-1.4001264712985744,4.788963999365916
427,1790995001.8623254,2.2491188516422196,0.2639409279336735,-0.9402162388392854,2.45198021974648,4.556689122274047,-0.6509654014033883,-1.412665694889338,4.814851615199795
428,1790995001.887118,2.6466920938297194,0.2543608498086735,-1.2132484654017854,2.922610189583264,4.593670812676946,-0.6284329580760282,-1.429882404191235,4.851938087800788
429,1790995001.907118,3.5855397500797195,0.12023975605867349,-1.4862806919642855,3.883243900870073,4.6283769732854925,-0.6124208801843927,-1.445736947989338,4.887441873220257
430,1790995001.9318814,3.3508278360172197,-0.2917036033163265,-1.2707289341517856,3.595537540188686,4.67778581104453,-0.5958875291315888,-1.4675434134357725,4.938668414836412
431,1790995001.9518814,2.9053542032047197,-0.46414500956632654,-1.3521595982142856,3.238031688391526,4.721089136431601,-0.5856711908897206,-1.486447834297333,4.984096762910799
432,1790995001.9768133,3.3699879922672196,-0.6892768455038265,-1.7449428013392856,3.857038633163887,4.778707865759261,-0.5770026620358739,-1.5122703429218234,5.045388243569251
433,1790995001.9968133,4.126814164142219,-0.8233979392538265,-1.8120033482142854,4.5816956954464,4.829240764530593,-0.5733609791320907,-1.5352130029239353,5.09972431985711
434,1790995002.0069869,4.01664326570472,-0.9191987205038266,-1.5293910435267855,4.395154875055815,4.857303607386929,-0.5731160311458128,-1.5476824145585266,5.130027404977883
435,1790995002.0269868,3.5328493203922195,-1.0724799705038266,-1.4814906529017855,3.9781970994865268,4.915520753149868,-0.5756942390575289,-1.573035078434147,5.193092285865465
436,1790995002.051968,3.8250417032047195,-1.3359321189413267,-2.1041957310267856,4.565446126299781,4.991115867483565,-0.5829439218920113,-1.6066702400340893,5.275646925157924
437,1790995002.071968,4.126814164142219,-1.5945942283163268,-2.4251283482142854,5.045252560938564,5.054486829831458,-0.5922731849225317,-1.6363532651033847,5.345678314931833
438,1790995002.097461,3.9447926797672195,-1.7718256736288267,-2.1233558872767855,4.817613073723155,5.13857872519846,-0.6088174579741957,-1.6772098819023686,5.439548051092788
439,1790995002.117461,3.9208424844547194,-1.8724164939413268,-1.9700746372767854,4.770759204899137,5.206453975900702,-0.6253163898336048,-1.7105953193156567,5.5158245020152155
440,1790995002.1276045,4.15076435945472,-2.0113276267538267,-2.0706654575892856,5.055881627087029,5.241855579725799,-0.6353836907135879,-1.7280618286809413,5.555804175533137
441,1790995002.1476045,4.093283890704719,-1.9730073142538267,-2.1664662388392855,5.03401498170519,5.3135527978516395,-0.6582324347253925,-1.763690437403097,5.63717280493233
442,1790995002.1725643,3.7100807657047197,-2.0975483298788267,-2.0898256138392854,4.746765149076613,5.4042164610763646,-0.6900902337349454,-1.8094527180574027,5.740722883727312
443,1790995002.1925642,3.6765504922672196,-2.2364594626913266,-2.0275551060267856,4.757074117398972,5.477046917941121,-0.7182894102692206,-1.846797219985791,5.824486465773655
444,1790995002.2167811,3.7771413125797197,-2.169398915816327,-1.9078041294642856,4.755292288339644,5.5655432876495885,-0.7553147476776277,-1.8923805464507932,5.926793111569368
445,1790995002.2367811,3.8346217813297194,-2.0113276267538267,-1.8694838169642856,4.716432207705613,5.639084374474502,-0.7875772006322804,-1.930045453850354,6.0120400766567315
446,1790995002.247355,3.8250417032047195,-2.102338368941327,-1.7832631138392856,4.714954716851258,5.6782073955738195,-0.8053379138578195,-1.9498684470139898,6.057441319840154
447,1790995002.267355,3.7531911172672197,-2.231669423628827,-1.8742738560267855,4.7518095991399845,5.752474230823909,-0.8403934607491254,-1.9872248907280956,6.143800429009092
448,1790995002.2919445,3.8346217813297194,-2.3274702048788267,-2.0850355747767857,4.946596315501373,5.844080822620869,-0.8854365193763131,-2.0335663001897553,6.250813578122267
449,1790995002.3119445,3.8298317422672197,-2.4999116111288266,-2.0850355747767857,5.02638464362001,5.918909732629791,-0.9238181153063989,-2.071859546242205,6.338732863320782
450,1790995002.3374667,3.6478102578922194,-2.691513173628827,-2.0610853794642856,4.979842947608153,6.0143898028562015,-0.9753877310290805,-2.121332442695297,6.451691038710263
451,1790995002.3574667,3.4705788125797197,-2.9118549705038266,-2.3197474888392855,5.089699900342973,6.088665248218296,-1.0181425385772163,-2.1608568551790603,6.5404710137952575
452,1790995002.367311,3.4322585000797194,-3.3381684470663266,-2.5448793247767854,5.422193077531917,6.124837374549133,-1.0406449696660465,-2.1809848731690056,6.5843199978856735
453,1790995002.387311,3.2454469766422194,-3.2615278220663266,-2.3245375279017857,5.15499413490768,6.197319041666037,-1.0894036253401136,-2.2230477727740774,6.67349271095252
454,1790995002.4123392,3.1352760782047193,-2.9597553611288268,-2.0658754185267854,4.780998758540606,6.286395209096761,-1.1529463207034303,-2.276031429540303,6.7844210520598995
455,1790995002.4323392,3.3556178750797194,-2.863954579878827,-1.9748646763392854,4.833476766160784,6.356634959369739,-1.2048421345024707,-2.318080750035182,6.8725505410609875
456,1790995002.5168622,3.4897389688297196,-2.878324697066327,-1.9365443638392854,4.920694585668611,6.652346488809214,-1.4276653834271347,-2.4939268436282833,7.2464897264522605
457,1790995002.5368621,3.6478102578922194,-2.6196625876913266,-1.9509144810267856,4.8964496385864456,6.722528843663655,-1.480728481055012,-2.5351257021622877,7.335653564220514
458,1790995002.5178635,3.5328493203922195,-2.4376411033163268,-2.1329359654017854,4.792967170936752,6.722528843663655,-1.480728481055012,-2.5351257021622877,7.335653564220514
459,1790995002.5378635,3.3747780313297193,-2.5861323142538266,-2.1473060825892856,4.763205907778762,6.79275235842323,-1.5330502780876267,-2.576519138755658,7.424969941379096
460,1790995002.5321946,3.1400661172672195,-2.638822743941327,-1.9125941685267855,4.5256399711238995,6.79275235842323,-1.5330502780876267,-2.576519138755658,7.424969941379096
461,1790995002.5521946,3.3699879922672196,-2.365790517378827,-1.6922523716517854,4.451685290932628,6.861560338056453,-1.5850215005225086,-2.6170095292314604,7.512791911533041
462,1790995002.5926955,3.7484010782047195,-2.3562104392538266,-1.6012416294642855,4.708100788329032,7.001621333522272,-1.688822383907895,-2.696709398642835,7.690712835826804
463,1790995002.6126955,3.5807497110172197,-2.1598188376913265,-1.9652845982142855,4.620490174924572,7.071404751916029,-1.7391661750503449,-2.7355126908479126,7.778977685509185
464,1790995002.6068385,3.6190700235172195,-2.068808095503827,-2.3341176060267856,4.777629095054085,7.071404751916029,-1.7391661750503449,-2.7355126908479126,7.778977685509185
465,1790995002.6268384,3.6813405313297194,-1.8915766501913267,-2.3628578404017855,4.765860625858483,7.141953638501489,-1.786871629802021,-2.7760752584992616,7.868100522791236
