imu_index,t_imu,ax,ay,az,mag,vx,vy,vz,velocity
0,1790595209.8293226,0.34502651367187487,0.293198291015625,0.05776787109374974,0.45644896748897973,0.0,0.0,0.0,0.0
1,1790595209.8493226,0.2923360839843749,0.22134770507812498,0.19188896484374976,0.41385573255843383,0.0013959513701317767,0.0011456457226116036,0.0004481388621718495,0.0018606484862272422
2,1790595209.8750353,0.2588058105468749,0.17823735351562497,0.2541594726562498,0.40416090768650764,0.003984288007037907,0.0031681798663808504,0.0017980456050396675,0.0053986000580307425
3,1790595209.8950353,0.34502651367187487,0.21655766601562498,0.06734794921874974,0.41288771368336297,0.006601315739871931,0.005097571329343475,0.0031727978212979747,0.008923522228921642
4,1790595209.9193316,0.4839376464843749,0.307568408203125,-0.2487946289062503,0.6250541886765009,0.010814196502260055,0.008044921216500783,0.004261721394814945,0.014136119432723446
5,1790595209.9393315,0.4887276855468749,0.331518603515625,-0.35896552734375026,0.6910973773052044,0.01522092394210348,0.011065796259173897,0.004111996210120209,0.019262317755994185
6,1790595209.948865,0.4360372558593749,0.341098681640625,-0.26795478515625026,0.6150419221504162,0.017667610116456695,0.012770689527541273,0.0036030806328695582,0.022095636408190077
7,1790595209.968865,0.3929269042968749,0.321938525390625,-0.14820380859375026,0.5291505788834673,0.02327398992197434,0.016805412828652624,0.002071344255478949,0.028781781985386362
8,1790595209.994943,0.2827560058593749,0.331518603515625,-0.04761298828125026,0.43831785268178103,0.030809160988157395,0.022555222435360546,-9.29091294315414e-06,0.03818301384416708
9,1790595210.014943,0.17737514648437488,0.36025883789062496,0.0002874023437497386,0.40155753693432805,0.03641146135679951,0.02734113223772154,-0.0014366249347295035,0.04555651349018455
10,1790595210.0392933,0.11989467773437487,0.365048876953125,0.03381767578124974,0.38571887626743534,0.04275214188777612,0.03361865292363864,-0.002851477757210768,0.05446182503178245
11,1790595210.0592933,0.11510463867187487,0.36025883789062496,0.04818779296874974,0.38125788059171384,0.047531321206978394,0.039089199745047994,-0.0037162345689963454,0.06165227028878189
12,1790595210.0693352,0.18216518554687489,0.36025883789062496,0.05297783203124974,0.4071575073486454,0.04979488317634213,0.041966593468699395,-0.004009105870388675,0.06524414370495354
13,1790595210.0893352,0.24443569335937487,0.412949267578125,0.07692802734374975,0.485997764575506,0.0542667596069859,0.047997533759806324,-0.004310048014808878,0.07257562234770089
14,1790595210.1150763,0.3114962402343749,0.436899462890625,0.09129814453124974,0.5442852189331592,0.06023225508842533,0.05623607231622382,-0.00431450355331086,0.08251687902183544
15,1790595210.1350763,0.3306563964843749,0.384209033203125,0.06734794921874974,0.5113569985781787,0.06513522638539193,0.06290864434407113,-0.0040794771743859395,0.09064622101059384
16,1790595210.159574,0.2827560058593749,0.365048876953125,0.01465751953124974,0.46198104321832684,0.07136702238998059,0.07123246262515795,-0.0036841070295777645,0.10090038781422943
17,1790595210.179574,0.2588058105468749,0.326728564453125,-0.028452832031250264,0.41778172058267854,0.07650386116905676,0.07804636401219192,-0.0034304365468772074,0.10934278030213072
18,1790595210.1899772,0.2731759277343749,0.307568408203125,-0.061983105468750264,0.4160112000676072,0.07919010682792463,0.08155392711829718,-0.0033888414980557677,0.11372598777119321
19,1790595210.2099771,0.22527553710937487,0.27882817382812497,-0.04761298828125026,0.3616092017542072,0.08432742539948576,0.08816529277350205,-0.0034852642684994476,0.12205072958145088
20,1790595210.234612,0.15821499023437488,0.302778369140625,-0.023662792968750263,0.3424421874205949,0.09041464553842998,0.09616185481076367,-0.003717907186590505,0.1320444367716203
21,1790595210.254612,0.14384487304687488,0.28840825195312497,0.005077441406249739,0.322329718933521,0.0950683975252685,0.10256689321768012,-0.003906327173420307,0.13990435012656066
22,1790595210.3250158,0.13905483398437488,0.245297900390625,0.07692802734374975,0.2922759452665781,0.11048698254528179,0.12454994588260228,-0.004037098521541096,0.16654236847058826
23,1790595210.3450158,0.14863491210937488,0.312358447265625,0.09129814453124974,0.357764570452138,0.11464154934584701,0.1306945445506364,-0.0038163360719196482,0.17389167096997024
24,1790595210.3400295,0.1917452636718749,0.350678759765625,0.009867480468749738,0.3997989568047357,0.11464154934584701,0.1306945445506364,-0.0038163360719196482,0.17389167096997024
25,1790595210.3600295,0.16300502929687488,0.321938525390625,-0.009292675781250263,0.3609728625948779,0.11860933310147516,0.13698831368659353,-0.0035269869469949674,0.18123579012545374
26,1790595210.354565,0.13905483398437488,0.307568408203125,-0.009292675781250263,0.33766984822782387,0.11860933310147516,0.13698831368659353,-0.0035269869469949674,0.18123579012545374
27,1790595210.374565,0.15342495117187488,0.36025883789062496,-0.009292675781250263,0.3916784392120291,0.12229990208265369,0.14333992237602133,-0.003369506505637691,0.18845411369954765
28,1790595210.3996572,0.17258510742187488,0.40815922851562497,-0.05719306640625026,0.44682280824868376,0.12684914970923483,0.1515595528441667,-0.003326686526165899,0.1976665669341252
29,1790595210.4196572,0.1917452636718749,0.427319384765625,-0.061983105468750264,0.4724510642390588,0.13047774326189823,0.15838153894736015,-0.003476440235061625,0.2052345950437205
30,1790595210.4442317,0.17258510742187488,0.412949267578125,-0.04761298828125026,0.4500885618966566,0.13493900500468944,0.16705523396061203,-0.0038348410472170656,0.21478056772237997
31,1790595210.4642317,0.1869552246093749,0.427319384765625,-0.07635322265625026,0.4726350888531331,0.13856449461035164,0.1743158622066974,-0.004268722127234942,0.22272036496936248
32,1790595210.4737782,0.18216518554687489,0.432109423828125,-0.07156318359375026,0.4743669447089187,0.1402997412459879,0.17787703960723283,-0.0045506660778072755,0.2265942787778984
33,1790595210.4937782,0.13905483398437488,0.436899462890625,0.03860771484374974,0.46011731457748356,0.14387161512998967,0.18552212628792814,-0.005102171552214068,0.23482660227719954
34,1790595210.5197732,0.15342495117187488,0.465639697265625,0.11045830078124974,0.5025540563195129,0.14838800920998588,0.19572794977441968,-0.005420845854224735,0.2456782798091355
35,1790595210.5397732,0.1917452636718749,0.513540087890625,0.09129814453124974,0.555720270645364,0.15185935429011072,0.20387102950999897,-0.005326615191462478,0.25426960689054867
36,1790595210.5651083,0.2013253417968749,0.494379931640625,-0.028452832031250264,0.5345586719053542,0.15634398156742113,0.21455420219661403,-0.005105738816505067,0.2655240381235605
37,1790595210.5851083,0.1869552246093749,0.456059619140625,-0.08114326171875026,0.4995266370693272,0.15993561322600533,0.22314833207146462,-0.005121923449484167,0.27459208397926804
38,1790595210.5948982,0.2156954589843749,0.39857915039062497,-0.08114326171875026,0.460406449862456,0.16172563876296134,0.22735163241137227,-0.00524781563286292,0.2790546300678778
39,1790595210.6148982,0.22048549804687487,0.40815922851562497,-0.05240302734375026,0.4668553180014537,0.1654882425798585,0.23586066105223005,-0.005666743392797562,0.28818175140845553
40,1790595210.6398134,0.2109054199218749,0.441689501953125,-0.028452832031250264,0.49028591244152686,0.17027857036444163,0.24645891517538587,-0.006261435676262592,0.2996264240208365
41,1790595210.6598134,0.23006557617187487,0.456059619140625,0.0002874023437497386,0.510803903812506,0.17420853038134335,0.2550368668637929,-0.006709450209443327,0.30892949396171365
42,1790595210.6992962,0.2109054199218749,0.470429736328125,0.01944755859374974,0.5159103027750356,0.18210889836541214,0.2721743899195468,-0.0074027890228154465,0.3275627431153577
43,1790595210.7192962,0.16300502929687488,0.470429736328125,0.01465751953124974,0.4980859557110933,0.18607139710039614,0.280964520679167,-0.0076501599034398465,0.3370788507840793
44,1790595210.7300599,0.14863491210937488,0.465639697265625,0.005077441406249739,0.4888133029885934,0.18813564200147556,0.28574127701876073,-0.007747389528943065,0.34220333024114874
45,1790595210.7500598,0.14863491210937488,0.446479541015625,-0.009292675781250263,0.47066195030665076,0.19184179219494085,0.29465381143484387,-0.007907275784527866,0.35169115262681827
46,1790595210.759298,0.16779506835937488,0.470429736328125,-0.0045026367187502615,0.4994793244218399,0.19351616631371152,0.29878839886558584,-0.007979609572348816,0.35607118402131843
47,1790595210.779298,0.17258510742187488,0.441689501953125,0.009867480468749738,0.47431276876152184,0.19710787744558378,0.3077649407475421,-0.008104669140721608,0.36556320898898176
48,1790595210.8048244,0.11031459960937487,0.446479541015625,0.01944755859374974,0.4603167376576233,0.20154601386710222,0.319203679392264,-0.008184219480333016,0.3775960355880073
49,1790595210.8248243,0.09594448242187488,0.446479541015625,0.02902763671874974,0.45759362751922183,0.20481111027034807,0.3281610826974657,-0.00816448565569842,0.38691594166351906
50,1790595210.8347843,0.09594448242187488,0.513540087890625,0.005077441406249739,0.5224505201348222,0.20633655817227528,0.3326698608873843,-0.008130656043303085,0.39154836118787023
51,1790595210.8547843,0.12947475585937487,0.532700244140625,-0.04282294921875027,0.5498791389861212,0.2092783770554288,0.3419349676363148,-0.008129532629588133,0.4009776184479346
52,1790595210.878668,0.10552456054687487,0.499169970703125,-0.023662792968750263,0.5107504481656885,0.21268546053511966,0.3531880126226296,-0.008247487303884192,0.41236500631138245
53,1790595210.898668,0.18216518554687489,0.508750048828125,-0.014082714843750262,0.5405636779005016,0.21554208272846936,0.36270956410542654,-0.008388063085645247,0.4220035271449797
54,1790595210.9399443,0.15821499023437488,0.503960009765625,-0.0045026367187502615,0.528230961147918,0.22160700658037163,0.3825477218781939,-0.008692201842599495,0.44218545798406955
55,1790595210.9599442,0.11989467773437487,0.494379931640625,0.01465751953124974,0.5089215002697642,0.22452206452942183,0.39221575540180503,-0.008802231835873399,0.45201862299163614
56,1790595210.970054,0.15342495117187488,0.484799853515625,-0.028452832031250264,0.5092933116205849,0.22598178919908413,0.39711217152519074,-0.00885996738949599,0.4569949068044574
57,1790595210.990054,0.1917452636718749,0.494379931640625,-0.033242871093750265,0.531302975173433,0.2289541555902852,0.4068145470584617,-0.009049596532730776,0.46690467577209704
58,1790595210.9992611,0.2156954589843749,0.484799853515625,-0.01887275390625026,0.530953491216752,0.23039862325752353,0.41128733490045816,-0.009159788131397428,0.4715132014770063
59,1790595211.0192611,0.1917452636718749,0.508750048828125,0.03381767578124974,0.5447352508498621,0.23367680490226744,0.421036077690933,-0.009340825184456744,0.4816258702372873
60,1790595211.0443869,0.13905483398437488,0.503960009765625,0.08650810546874975,0.5299014914200405,0.23780076479193085,0.4333546063100693,-0.009307399115926334,0.4944006939963631
61,1790595211.0643868,0.14384487304687488,0.494379931640625,0.02902763671874974,0.5156990091170782,0.2410153699083943,0.4431867855534777,-0.009111479713970196,0.5045651142160766
62,1790595211.0895436,0.14863491210937488,0.484799853515625,-0.033242871093750265,0.508161710034403,0.24500414232194623,0.45554645365883895,-0.00890996318801326,0.517328704635717
63,1790595211.1095436,0.12947475585937487,0.465639697265625,-0.06677314453125026,0.48789619070562423,0.248116769993143,0.46532431416421416,-0.008923809719166068,0.5274166126357136
64,1790595211.1492639,0.14863491210937488,0.451269580078125,-0.038032910156250266,0.4766372554224043,0.254199735939379,0.4845619527392993,-0.009259403815758543,0.5472691553095206
65,1790595211.1692638,0.1917452636718749,0.465639697265625,0.0002874023437497386,0.50357388376516,0.25731376869706973,0.49417087777251073,-0.009459653734529056,0.5572295012365373
66,1790595211.1951315,0.2109054199218749,0.513540087890625,0.04339775390624974,0.5568553520145431,0.26151844235688687,0.5066344063729858,-0.00959505156378591,0.5702301135753809
67,1790595211.2151315,0.2061153808593749,0.542280322265625,0.009867480468749738,0.5802144994001066,0.26490724076092237,0.5164090368498078,-0.009604135833631185,0.5804708252555181
68,1790595211.2089078,0.1917452636718749,0.532700244140625,-0.01887275390625026,0.5664732801183867,0.26490724076092237,0.5164090368498078,-0.009604135833631185,0.5804708252555181
69,1790595211.2289078,0.15342495117187488,0.5231201660156249,-0.014082714843750262,0.5453368193985049,0.2683806742743384,0.5264255353892445,-0.009671614087259209,0.5909700252575034
70,1790595211.2397225,0.14863491210937488,0.551860400390625,-0.009292675781250263,0.5716017778490878,0.27022214765536584,0.5319012730054316,-0.009721588476409065,0.5966854134221664
71,1790595211.2597225,0.2061153808593749,0.580600634765625,-0.08114326171875026,0.6214216573627036,0.27364895425918623,0.5422074820479722,-0.009935798886159593,0.6074301802309913
72,1790595211.2851067,0.1917452636718749,0.551860400390625,-0.08114326171875026,0.5898308033514826,0.27810334531734265,0.5554821145661061,-0.010475858657481399,0.6212983131267469
73,1790595211.3051066,0.12947475585937487,0.5231201660156249,0.01944755859374974,0.5392556240154728,0.2815683144963956,0.5659847063540046,-0.010930084265010234,0.6322490571736822
74,1790595211.3301091,0.11031459960937487,0.604550830078125,0.06734794921874974,0.618212555112801,0.28569986253671886,0.5792594203722131,-0.011249989581862622,0.645981772040856
75,1790595211.350109,0.15342495117187488,0.6907715332031249,0.03381767578124974,0.7084124236072754,0.2889046428541285,0.5902283037797633,-0.011315755123597532,0.6572392179103628
76,1790595211.3598008,0.2156954589843749,0.6716113769531249,-0.04282294921875027,0.706696665945966,0.29049299213126784,0.5957366551454643,-0.011349389578750809,0.6628854723141041
77,1790595211.3798008,0.1917452636718749,0.618920947265625,-0.06677314453125026,0.6513739616651609,0.2938902344858549,0.6073345066015066,-0.0115727808791838,0.6748041212769257
78,1790595211.4046314,0.13426479492187487,0.575810595703125,-0.033242871093750265,0.5921908187045426,0.29808247294478885,0.6217986675016169,-0.011994785036843921,0.6896597845689911
79,1790595211.4246314,0.13905483398437488,0.609340869140625,-0.014082714843750262,0.6251646699205297,0.3013626220266506,0.63347912194507,-0.01235469386092214,0.7016180345141306
80,1790595211.449279,0.16300502929687488,0.618920947265625,-0.023662792968750263,0.6404636650984469,0.30535705397714236,0.6479852725725477,-0.012801484248026868,0.7164438023205105
81,1790595211.469279,0.14863491210937488,0.590180712890625,-0.033242871093750265,0.6095167753593035,0.30857954711349084,0.6598040839909748,-0.013195002264677791,0.7285169004441154
82,1790595211.479323,0.13426479492187487,0.585390673828125,-0.023662792968750263,0.6010567393611366,0.3101682201935094,0.6657346597866889,-0.01340584754756125,0.7345656395501876
83,1790595211.499323,0.13905483398437488,0.599760791015625,-0.028452832031250264,0.6163268750790515,0.31326714731937094,0.6775503286270436,-0.013840892330025657,0.7465938144082916
84,1790595211.5249636,0.17737514648437488,0.580600634765625,-0.01887275390625026,0.607383915263325,0.3172526591423386,0.6926961391595767,-0.014405984185511827,0.7620267208699586
85,1790595211.5449636,0.2156954589843749,0.566230517578125,-0.01887275390625026,0.6062158946310113,0.3204846871770241,0.7044581643673221,-0.014837262313091217,0.7740748571111707
86,1790595211.585082,0.2061153808593749,0.566230517578125,0.01465751953124974,0.6027564948985664,0.3272645913009939,0.727920284900204,-0.01558529019923582,0.798256196442718
87,1790595211.605082,0.14863491210937488,0.566230517578125,0.05776787109374974,0.5882571402586262,0.33066966479593923,0.7395609244883614,-0.01579362508278246,0.8102729335474523
88,1790595211.5996013,0.15821499023437488,0.580600634765625,0.04339775390624974,0.6033344389882094,0.33066966479593923,0.7395609244883614,-0.01579362508278246,0.8102729335474523
89,1790595211.6196012,0.16779506835937488,0.547070361328125,0.005077441406249739,0.5722472766389076,0.33401007826994555,0.7511249997965659,-0.01574244826365628,0.8221917795640018
90,1790595211.6446075,0.15821499023437488,0.547070361328125,-0.0045026367187502615,0.5695070123501287,0.3381715873102029,0.7654669653522254,-0.015686981121240753,0.8369861282519235
91,1790595211.6646075,0.15342495117187488,0.561440478515625,-0.014082714843750262,0.5821966587119137,0.3414681579397774,0.7768798025274143,-0.015677150994901645,0.8487570344481016
92,1790595211.6892195,0.15342495117187488,0.542280322265625,-0.05240302734375026,0.5659975625684196,0.3454828131384125,0.7908550855158054,-0.0157895943773525,0.8631682638691279
93,1790595211.7092195,0.13905483398437488,0.513540087890625,-0.05240302734375026,0.5346080302426468,0.3486945379299976,0.8020918321586942,-0.01602447028362422,0.8747548065862663
94,1790595211.749384,0.13426479492187487,0.532700244140625,-0.038032910156250266,0.5506751197556032,0.35500025563837306,0.8244244913283174,-0.016697824857031137,0.8977637444006197
95,1790595211.769384,0.1869552246093749,0.575810595703125,-0.08114326171875026,0.6108144784262134,0.3581510385645979,0.8355397606030125,-0.017161592496990376,0.9092268024153668
96,1790595211.7643478,0.2109054199218749,0.566230517578125,-0.07156318359375026,0.6084565592014656,0.3581510385645979,0.8355397606030125,-0.017161592496990376,0.9092268024153668
97,1790595211.7843478,0.18216518554687489,0.575810595703125,-0.05719306640625026,0.6066407864579044,0.3615243564127112,0.8467397037209848,-0.017884499339765998,0.9208625529652947
98,1790595211.809213,0.18216518554687489,0.609340869140625,-0.08114326171875026,0.6411432589934463,0.3657686118963617,0.8607856392233815,-0.018906427054050132,0.9354656846329248
99,1790595211.829213,0.15821499023437488,0.609340869140625,-0.07635322265625026,0.6341593589547587,0.36918092459852025,0.8722166856668091,-0.019841350399368917,0.9473384722625183
100,1790595211.8687797,0.1869552246093749,0.638081103515625,-0.06677314453125026,0.6682502551462668,0.37594332599895314,0.8951407372333492,-0.02183823538170386,0.9711267848959815
101,1790595211.8887796,0.2061153808593749,0.638081103515625,-0.04761298828125026,0.6722336212534994,0.3794384188763951,0.9069043712720608,-0.022867782478416497,0.9833473383435126
102,1790595211.8835776,0.1917452636718749,0.6332910644531249,-0.023662792968750263,0.6621055400975366,0.3794384188763951,0.9069043712720608,-0.022867782478416497,0.9833473383435126
103,1790595211.9035776,0.2109054199218749,0.6524512207031249,0.03381767578124974,0.6865255470444388,0.38307487076774593,0.9189532064217498,-0.023687274480526356,0.9958827436896656
104,1790595211.9593644,0.24443569335937487,0.6428711425781249,0.03381767578124974,0.6886042036925333,0.39360184544282895,0.952939957831981,-0.025347256324492265,1.0313386734589167
105,1790595211.9793644,0.2635958496093749,0.6332910644531249,0.005077441406249739,0.6859782246242909,0.39757178788780656,0.9652110171507696,-0.02579476168487329,1.0442035260828753
106,1790595211.9736388,0.2683858886718749,0.638081103515625,-0.04282294921875027,0.6935504919482801,0.39757178788780656,0.9652110171507696,-0.02579476168487329,1.0442035260828753
107,1790595211.9936388,0.2540157714843749,0.6141309082031249,-0.07635322265625026,0.6689623301675455,0.4019019491166892,0.9775761717031234,-0.02634497387164306,1.0572957986456895
108,1790595212.0638847,0.24443569335937487,0.585390673828125,-0.09072333984375026,0.6408289737405989,0.41745552539787634,1.0208114273105977,-0.02886784300333022,1.1032490372408132
109,1790595212.0838847,0.3114962402343749,0.580600634765625,-0.17215400390625027,0.6810022069210578,0.422053489002459,1.03302362532815,-0.029872709361880623,1.116315070591579
110,1790595212.0939438,0.32586635742187486,0.604550830078125,-0.26795478515625026,0.737204419367982,0.42450002584583624,1.0391386163424445,-0.030634335704416038,1.1229193196491263
111,1790595212.1139438,0.2683858886718749,0.594970751953125,-0.23442451171875028,0.6935243561782336,0.42952606860622355,1.0512722767438523,-0.032675058046032976,1.1361046179295429
112,1790595212.109249,0.2540157714843749,0.556650439453125,-0.11467353515625027,0.6225220827981855,0.42952606860622355,1.0512722767438523,-0.032675058046032976,1.1361046179295429
113,1790595212.129249,0.23006557617187487,0.585390673828125,0.0002874023437497386,0.6289773389752211,0.43454956731109673,1.0632202220388351,-0.03476615855872447,1.1491210783827357
114,1790595212.1242821,0.22527553710937487,0.6668213378906249,0.03860771484374974,0.7049044757494568,0.43454956731109673,1.0632202220388351,-0.03476615855872447,1.1491210783827357
115,1790595212.144282,0.2923360839843749,0.719511767578125,0.06734794921874974,0.7795468657795299,0.4395360211823274,1.0755286789818312,-0.03606845410750097,1.162434852630847
116,1790595212.1692085,0.2827560058593749,0.7099316894531249,0.11045830078124974,0.7721107425433194,0.44589366511883016,1.0912402571640256,-0.03711566664445885,1.1794083398717234
117,1790595212.1892085,0.23964565429687487,0.6859814941406249,0.08171806640624975,0.7312171307511591,0.4510132214990034,1.104049523753466,-0.03754160815002993,1.193208971307899
118,1790595212.2293074,0.1869552246093749,0.6476611816406249,0.009867480468749738,0.6741770015238383,0.46102096277846494,1.129889962230664,-0.03799206382647586,1.220915661208664
119,1790595212.2493074,0.1917452636718749,0.604550830078125,-0.06677314453125026,0.6377355291336199,0.4658318080557132,1.1427233663578078,-0.03826839351803693,1.2346175259403322
120,1790595212.2444987,0.16300502929687488,0.590180712890625,-0.10509345703125027,0.6212314771121475,0.4658318080557132,1.1427233663578078,-0.03826839351803693,1.2346175259403322
121,1790595212.2644987,0.13426479492187487,0.599760791015625,-0.09551337890625027,0.6219829958649916,0.4702058542717873,1.155303692657873,-0.03898808139513929,1.247934388560253
122,1790595212.2895727,0.14384487304687488,0.6141309082031249,-0.05719306640625026,0.633339693022012,0.4753900393930916,1.170992654505963,-0.04004218623560612,1.2644456742539847
123,1790595212.3095727,0.15821499023437488,0.6332910644531249,0.0002874023437497386,0.6527554197792175,0.4793579666355238,1.1835007818727838,-0.040842219673594485,1.2775469649990567
124,1790595212.348385,0.12947475585937487,0.657241259765625,0.14398857421874975,0.6851733324120977,0.4867406205033124,1.207889943934418,-0.041741920395292155,1.3029416472828428
125,1790595212.368385,0.08636440429687488,0.6524512207031249,0.32601005859374976,0.73446168316043,0.49029801044390126,1.220537029948295,-0.04143099558267142,1.315986059164467
126,1790595212.394431,0.04804409179687487,0.700351611328125,0.6373625976562498,0.9481728192358237,0.4944984511334022,1.237179455162455,-0.039204911943240016,1.3329211332895432
127,1790595212.414431,0.30670620117187486,0.776992236328125,1.0493059570312497,1.3412041681312843,0.497772160966544,1.250257810431528,-0.03522196938156855,1.3461657787603494
128,1790595212.4094605,0.5509981933593749,1.1122949707031249,0.6565227539062498,1.404215523818693,0.497772160966544,1.250257810431528,-0.03522196938156855,1.3461657787603494
129,1790595212.4294605,0.13905483398437488,1.088344775390625,0.31163994140624973,1.1405919735182177,0.5022660669349905,1.2654167174762483,-0.02871712119049112,1.361754509415033
130,1790595212.4541206,-0.10044711914062514,0.307568408203125,0.11524833984374974,0.34346779951692047,0.5070473359648556,1.2838858493278094,-0.021110144587943677,1.3805453680403885
131,1790595212.4741206,-0.25372836914062513,0.015376025390624971,-0.01887275390625026,0.2548934842313164,0.5098121450907698,1.2971023634677774,-0.015721546489324913,1.3937826701533358
132,1790595212.4995904,-0.40221958007812514,-0.08521479492187503,-0.33980537109375025,0.5333946401080178,0.5115519451035261,1.3112753913058943,-0.010573727559660535,1.4075653974498425
133,1790595212.5195904,-0.30641879882812517,-0.43488764648437506,-0.7613288085937503,0.9287848513702024,0.511650230304691,1.3199551255076913,-0.008789479301000453,1.4156781931184965
134,1790595212.5442743,-0.45970004882812515,-0.6360692871093752,-0.8044391601562503,1.1238463575103594,0.5103350251762033,1.3270781066238828,-0.009816380452642322,1.421856005482699
135,1790595212.5642743,-0.6369314941406251,-0.5450585449218751,-0.2727448242187503,0.8815669485403124,0.5077842898891247,1.330212055738133,-0.012139387777683426,1.4238877634929268
136,1790595212.5739105,-0.7566824707031252,-0.09000483398437503,0.024237597656249738,0.76240192336463,0.5057324865997289,1.3310365568466327,-0.013270345261575675,1.4239381186441515
137,1790595212.5939105,-0.6800418457031252,0.26924809570312497,-0.01887275390625026,0.7316472030883998,0.4999576398248237,1.332759994681937,-0.015257517207665959,1.4235306940404016
138,1790595212.6193457,-0.6177713378906252,0.18302739257812498,-0.16736396484375027,0.6656959884822352,0.49123928408666445,1.3354858056712362,-0.017760917708271866,1.4230789934424475
139,1790595212.6393456,-0.7039920410156252,0.19260747070312498,-0.23921455078125028,0.7680664247898591,0.4834296038832079,1.3378710919624366,-0.020043968221098916,1.422675297206459
140,1790595212.649063,-1.101565283203125,0.245297900390625,-0.29669501953125027,1.1668954827700204,0.4788883555613099,1.339175347368569,-0.021377427428065948,1.4223859049130743
141,1790595212.669063,-1.4368680175781252,0.274038134765625,-0.26795478515625026,1.4871067097329789,0.4671361319014596,1.3422360488394598,-0.024557189373394087,1.4214136738057446
142,1790595212.6941655,-1.2021561035156252,0.14949711914062497,-0.38770576171875026,1.2719451417105743,0.4496298147795896,1.3462987450584643,-0.029183922747181276,1.4196967924988904
143,1790595212.7141654,-0.7327322753906251,0.16386723632812497,-0.5218268554687503,0.9143589697866722,0.43487175083935503,1.3495201548898539,-0.03368156477739044,1.4182568652884693
144,1790595212.7388408,-0.7471023925781252,0.302778369140625,-0.3924958007812503,0.8965989512855402,0.4166562472770672,1.3537620598371698,-0.04009035452423888,1.4169973110685372
145,1790595212.7588408,-0.9530740722656251,0.5231201660156249,0.31163994140624973,1.1309837966995318,0.40155649641282626,1.3579233476411878,-0.04462694483942432,1.416755096015573
146,1790595212.7839036,-1.0680350097656253,0.575810595703125,0.9582952148437498,1.5461521086236876,0.38167359602658435,1.3644214976377251,-0.047072074951394906,1.417581227782051
147,1790595212.8039036,-0.27288852539062514,0.590180712890625,1.1019963867187499,1.2795223552166397,0.36617573102058937,1.3705781487560182,-0.045640161218982955,1.4193844271908973
148,1790595212.8143275,0.09115444335937488,1.3134766113281249,1.0253557617187499,1.668797285214717,0.35916784871755303,1.3747939092614485,-0.04334265261061565,1.4215971377398366
149,1790595212.8343275,-0.31120883789062515,1.988872119140625,1.0014055664062498,2.2483941726275614,0.34740884924010207,1.3866227688397263,-0.03655558444352945,1.4299482236602448
150,1790595212.8588386,-0.46928012695312515,2.022402392578125,0.8960247070312498,2.261237614818333,0.33372443444960376,1.406319216278266,-0.025997233924623872,1.4456076896564836
151,1790595212.8788385,-0.17708774414062514,1.643989306640625,0.5367717773437498,1.7384432261153389,0.3232638839639893,1.4254795197525778,-0.016525163205492008,1.4617675878635739
152,1790595212.889785,-0.02380649414062513,1.184145556640625,0.21104912109374974,1.2030416368478056,0.3182324193712339,1.4367152803040542,-0.011504545846968132,1.471582489693721
153,1790595212.909785,-0.16271762695312514,1.002124072265625,-0.16257392578125027,1.0281828454508584,0.31013874582102746,1.4574438693919762,-0.003634791292564542,1.4900811675192183
154,1790595212.9353535,-0.32078891601562515,0.8488428222656249,-0.4547663085937503,1.0150133304456337,0.3004164713427241,1.4835183138990258,0.003733135153079663,1.513634890000192
155,1790595212.9553535,-0.3159988769531252,0.6524512207031249,-0.5745172851562503,0.9249962143576277,0.2929971411698063,1.5031066389717567,0.007088000852230568,1.5314134427419432
156,1790595212.9789302,-0.14355747070312513,0.6524512207031249,-0.5888874023437503,0.8905558463290477,0.2847502684977265,1.525041781315771,0.008392420968083673,1.5514205048593412
157,1790595212.9989302,0.16779506835937488,0.714721728515625,-0.5409870117187503,0.9119480692596883,0.27884022502513445,1.5429088526750072,0.007638161868986457,1.5679215351131928
158,1790595213.0094836,0.570158349609375,0.8057324707031249,-0.6080475585937503,1.1593132413142138,0.2767735544100369,1.5521260023827579,0.00639039975586282,1.57662283533586
159,1790595213.0294836,0.8240304199218749,0.877583056640625,-0.6415778320312503,1.3641115309289205,0.27553571887158995,1.5694985095780503,0.002505993578433669,1.5935029915082117
160,1790595213.0542455,0.6420089355468749,0.820102587890625,-0.4691364257812503,1.1422927444318896,0.27695568820268646,1.5909338764912642,-0.003644643037177054,1.6148648042539702
161,1790595213.0742455,0.2779659667968749,0.7434619628906249,-0.09551337890625027,0.7994520464121605,0.27931051145925395,1.60799540466184,-0.008714259727817713,1.6320966642781392
162,1790595213.0992498,0.03846401367187487,0.796152392578125,0.14877861328124975,0.8108472040560507,0.2824063629213816,1.6290137601191066,-0.0140017879560227,1.6533708702350598
163,1790595213.1192498,-0.07170688476562513,0.8871631347656249,0.41702080078124976,0.9829072455192279,0.28446130630550476,1.6458286915365132,-0.016747974594238307,1.6703145845387433
164,1790595213.15877,0.043254052734374875,0.9302734863281249,0.6229924804687498,1.1204460286705638,0.28782848077609513,1.6794581837938891,-0.01827788491226063,1.7040419908367896
165,1790595213.17877,0.3498165527343749,0.9638037597656249,0.6229924804687498,1.1997536991507556,0.2898665053907922,1.696765314384617,-0.017067013430355483,1.721431499070942
166,1790595213.1740336,0.689909326171875,1.131455126953125,0.8002239257812498,1.5480710300371228,0.2898665053907922,1.696765314384617,-0.017067013430355483,1.721431499070942
167,1790595213.1940336,1.077902490234375,1.289526416015625,0.3834905273437498,1.7238959193112433,0.29531634260201167,1.7155726376204976,-0.012601989610878163,1.7408503747600288
168,1790595213.2190871,1.135382958984375,1.284736376953125,0.24936943359374975,1.7325781760802668,0.30527798321443655,1.7404352738945148,-0.006658592875555543,1.7670183718656778
169,1790595213.239087,1.178493310546875,1.682309619140625,0.31163994140624973,2.0775301660232275,0.3155082379503562,1.7617563116130852,-0.0017842042253346365,1.7897860020426462
170,1790595213.2649362,1.0204220214843749,2.5253564941406252,0.6469426757812498,2.7995037685589015,0.33101007199914767,1.7933366769430044,0.0054291281077879635,1.823637458505903
171,1790595213.2849362,0.9150411621093749,2.6738477050781255,0.7140032226562498,2.9148863580368864,0.3441082374271402,1.8219046947341646,0.012214482479720236,1.8541565169482996
172,1790595213.2943149,1.207233544921875,1.955341845703125,0.5176116210937498,2.3555670985632395,0.35082189541805436,1.8365479067363815,0.015785401852998475,1.8698217548617198
173,1790595213.3143148,1.528166162109375,1.409277392578125,0.41702080078124976,2.1202030413458353,0.36709431325822245,1.8681374346832438,0.023660075110747594,1.9040103751938073
174,1790595213.3397844,1.600016748046875,1.222465869140625,0.36912041015624975,2.0471263450110153,0.3906840023493041,1.907358923139437,0.033685765961008945,1.9472510835019925
175,1790595213.3597844,1.245553857421875,1.222465869140625,0.20146904296874976,1.7568201354228041,0.4106976054831902,1.9372052206496273,0.04123342984123432,1.9806909869533584
176,1790595213.3846538,0.8000802246093749,1.184145556640625,-0.11946357421875027,1.4340852871038885,0.43566656255425873,1.973240164465319,0.049363907750250714,2.02136560170973
177,1790595213.4046538,0.5318380371093749,1.026074267578125,-0.4643463867187503,1.2455110064391635,0.45473244727297746,2.0011878676326034,0.054045937670397094,2.052913890922235
178,1790595213.4147344,0.30670620117187486,1.006914111328125,-0.7852790039062503,1.3132432506603577,0.46353472242870575,2.0146983862112005,0.05510706503212362,2.068069344803391
179,1790595213.4347343,0.00972377929687487,0.839262744140625,-1.1205817382812504,1.4000571194618079,0.47885361154021994,2.0402519221029136,0.054037772408919854,2.0963894599469497
180,1790595213.459764,-0.17708774414062514,0.384209033203125,-1.2259625976562503,1.2969043685529618,0.49483507678707606,2.069731521758296,0.048495309658786866,2.1286150709881024
181,1790595213.479764,-0.04775668945312513,0.14470708007812497,-1.3361334960937503,1.3447949880171204,0.5053523189897249,2.0905472498818116,0.0408877640879295,2.151148665143534
182,1790595213.5043302,0.12468471679687487,0.07764653320312498,-1.2978131835937503,1.306098894506433,0.5164747233903192,2.1126898674802885,0.02809205506393247,2.1750847752703115
183,1790595213.5243301,0.13426479492187487,0.17344731445312497,-1.2642829101562503,1.2831688442911835,0.5245599379202046,2.128389372048386,0.01539418409957663,2.192131708730902
184,1790595213.5348577,-0.11002719726562514,0.499169970703125,-1.3792438476562503,1.4709147613262656,0.5281965933141507,2.1359447843452095,0.007625601784844607,2.200297687305688
185,1790595213.5548577,-0.36868930664062516,0.681191455078125,-1.6522760742187503,1.8248204921959648,0.5333509896484834,2.149915803066527,-0.009466378934945839,2.215105155689984
186,1790595213.5797057,-0.38305942382812513,0.384209033203125,-1.5852155273437503,1.675487801062765,0.5373932820585636,2.1666552415301568,-0.03354958561336058,2.232557289286572
187,1790595213.5997057,0.06720424804687487,-0.13311518554687504,-1.2834430664062504,1.2920766882368104,0.5396850723810114,2.1784843272957013,-0.054329323325798776,2.2449956830686646
188,1790595213.624295,0.5845284667968749,-0.40614741210937505,-0.34938544921875025,0.7929056948873779,0.5432820231217071,2.1898517623136025,-0.07905636865117227,2.257621759059634
189,1790595213.644295,1.212023583984375,0.39857915039062497,0.02902763671874974,1.2762088821795268,0.5484636255548205,2.1976993652411534,-0.09663211978089228,2.2671640026939945
190,1790595213.6842954,1.235973779296875,1.299106494140625,0.10087822265624974,1.7959636082153865,0.564616527332663,2.2161335620448064,-0.126121531032276,2.2904031148137487
191,1790595213.7042954,0.7042794433593749,1.529028369140625,0.2541594726562498,1.7025082453592797,0.5743918058105958,2.2282102005417066,-0.1381218253756694,2.305195063986034
192,1790595213.6993182,0.5030978027343749,0.9685937988281249,0.45534111328124977,1.1826313354924525,0.5743918058105958,2.2282102005417066,-0.1381218253756694,2.305195063986034
193,1790595213.7193182,0.7425997558593749,0.676401416015625,0.7906438476562497,1.278315675733903,0.5848623935874858,2.2425875275520126,-0.14401844999539676,2.3220689378448283
194,1790595213.744643,0.9629415527343749,0.9111133300781249,0.7954338867187498,1.5459945026969002,0.5993713890832197,2.261077194565024,-0.1473524869339344,2.343806497396746
195,1790595213.764643,1.015631982421875,1.1937256347656249,0.5224016601562498,1.6520873794532744,0.612078809319015,2.2766461481371945,-0.1476137996037927,2.3621066839748743
196,1790595213.77437,0.9342013183593749,1.040444384765625,0.19188896484374976,1.4114099318920497,0.6187544830413848,2.284712204630011,-0.14720073279250664,2.3715891347372517
197,1790595213.79437,0.7569698730468749,0.7434619628906249,0.005077441406249739,1.061020668685119,0.6329583836172425,2.3014851946137878,-0.14618336219052278,2.3914096244263847
198,1790595213.8204665,0.6851192871093749,0.719511767578125,-0.10988349609375027,0.9995799137469905,0.6515345321704594,2.3229516113496946,-0.14526012153293114,2.4169613025844012
199,1790595213.8404665,0.7186495605468749,0.7722021972656249,-0.19610419921875027,1.0729446776452656,0.6657411635256064,2.339172955153792,-0.14511767997053687,2.4363908865318353
200,1790595213.8644779,0.8000802246093749,0.781782275390625,-0.23442451171875028,1.1429202700190881,0.6829738175696133,2.358525080227523,-0.1457476395123386,2.4597431093452164
201,1790595213.8844779,0.7569698730468749,0.757832080078125,-0.17694404296875027,1.0856436084822065,0.6975100602722113,2.3745357487698433,-0.14681070131002305,2.4792123120834257
202,1790595213.9098668,0.5653683105468749,0.7243018066406249,0.01465751953124974,0.9189500947017252,0.7157130853490509,2.3946340044675507,-0.14826680005447823,2.503697321940204
203,1790595213.9298668,0.5988985839843749,0.8680029785156249,0.04339775390624974,1.0554582178630252,0.7296478989541827,2.4104798862926895,-0.1491546944962507,2.5229043702764757
204,1790595213.9395943,0.8431905761718749,1.179355517578125,-0.17215400390625027,1.459961227446804,0.7364608964538869,2.4185245350083626,-0.14961570174687452,2.532591644275146
205,1790595213.9595942,1.010841943359375,1.1937256347656249,-0.3302252929687503,1.5986966784438656,0.7511485073363896,2.4361431825538866,-0.1511749377698991,2.553795518005934
206,1790595213.9840164,1.058742333984375,1.212885791015625,-0.33980537109375025,1.6454467363127987,0.7701841928346046,2.45883843755247,-0.15402060628130004,2.581238559303851
207,1790595214.0040164,1.034792138671875,1.188935595703125,-0.2631647460937503,1.5980044757677137,0.786575007848506,2.4782390656899445,-0.156905896903127,2.60480106153361
208,1790595214.029727,0.9725216308593749,0.9685937988281249,-0.3110651367187503,1.4073854443255875,0.8083559551676243,2.50359849808592,-0.16116594016584643,2.635795752736273
209,1790595214.049727,0.7905001464843749,0.800942431640625,-0.4308161132812503,1.2049903667071278,0.8254021717745504,2.523020601084219,-0.16509552585620663,2.6597327368221144
210,1790595214.059281,0.6994894042968749,0.499169970703125,-0.4212360351562503,0.9570244948221093,0.8333914849360453,2.5318385882972594,-0.16730168807680418,2.6707186035200925
211,1790595214.079281,0.6994894042968749,0.542280322265625,-0.3445954101562503,0.9497891194053875,0.849705577511701,2.5490908733953135,-0.1723759252637455,2.69250391065497
212,1790595214.1048498,0.7521798339843749,0.695561572265625,-0.29669501953125027,1.0665872388511122,0.8702174414586634,2.570212197772416,-0.17911972901869716,2.71943983465726
213,1790595214.1248498,0.905461083984375,0.446479541015625,-0.27753486328125027,1.0470097208203106,0.8863417088639268,2.5859682807023714,-0.18446485390712283,2.73986511638759
214,1790595214.1494732,1.0204220214843749,0.331518603515625,-0.4499762695312503,1.1634622166398307,0.9067723113987707,2.6038937181594983,-0.19140203617438978,2.7638981999418264
215,1790595214.1694732,0.9437813964843749,0.384209033203125,-0.7469586914062503,1.2634425955349988,0.9238238955339356,2.617343025195895,-0.19798686544518423,2.782648720264544
216,1790595214.1797054,0.709069482421875,0.460849658203125,-0.6942682617187503,1.0941528035872952,0.9325075306001048,2.623840227917167,-0.2019564261273214,2.7919337804318416
217,1790595214.1997054,0.7713399902343749,0.700351611328125,-0.3829157226562503,1.1099919867647807,0.9491552950898497,2.636376601298155,-0.2101673023239053,2.809901715903177
218,1790595214.2243934,1.0204220214843749,1.164985400390625,-0.10030341796875027,1.551938420398753,0.969940443288516,2.652984139924085,-0.21967722093962927,2.8332609113202443
219,1790595214.2443933,1.015631982421875,1.442807666015625,0.22541923828124974,1.7787681461671563,0.9873070256118932,2.6683316579827943,-0.22603800925690593,2.8540956854045096
220,1790595214.284383,0.9629415527343749,1.423647509765625,0.39786064453124975,1.764177360276221,1.0227568423813411,2.7030129049190466,-0.23497921930948354,2.899573340390625
221,1790595214.304383,1.0252120605468749,1.198515673828125,0.34996025390624974,1.6155407047848038,1.0408091045373344,2.7216894546045185,-0.23765847749810778,2.9235866040396288
222,1790595214.2992444,1.092272607421875,1.107504931640625,0.2541594726562498,1.5761420177361523,1.0408091045373344,2.7216894546045185,-0.23765847749810778,2.9235866040396288
223,1790595214.3192444,1.0204220214843749,1.179355517578125,0.18230888671874976,1.570151925435515,1.059720693243102,2.7415537226227222,-0.23816928770790227,2.9488725593557676
224,1790595214.344241,0.8527706542968749,1.2751562988281249,0.07692802734374975,1.5359554995708578,1.083323224882441,2.767258157683201,-0.23822594696940244,2.981284710094523
225,1790595214.364241,0.7042794433593749,1.255996142578125,-0.038032910156250266,1.4404799015483256,1.1017107390254053,2.7885363159490115,-0.23820613797562312,3.0077306232473098
226,1790595214.389831,0.7234395996093749,1.212885791015625,-0.17215400390625027,1.4227065043049196,1.1244488697030595,2.8164165302251174,-0.23858799812962211,3.041958508124869
227,1790595214.409831,0.8431905761718749,1.083554736328125,-0.3158551757812503,1.40883842452993,1.1419041317377125,2.8383824785414293,-0.23957368726290118,3.0688362113673304
228,1790595214.419906,0.8719308105468749,0.9254834472656249,-0.4787165039062503,1.3586583237355219,1.150674125295742,2.8493059530740523,-0.2405961308294188,3.082285167699193
229,1790595214.439906,0.809660302734375,0.9302734863281249,-0.5361969726562503,1.3447920875268158,1.167994714062756,2.8705215047195196,-0.24384373791666555,3.1086275315091907
230,1790595214.464878,0.7809200683593749,0.992543994140625,-0.5697272460937503,1.3854850661095572,1.1893564150556546,2.896639257755115,-0.24936178883131743,3.14122093672688
231,1790595214.484878,0.8575606933593749,1.083554736328125,-0.5745172851562503,1.4965197360400673,1.2063562472776375,2.9175332288943623,-0.25483460214604786,3.1673705516562918
232,1790595214.509116,0.967731591796875,1.040444384765625,-0.5026666992187503,1.5072168928377585,1.2271860430128716,2.9429174193799725,-0.26243035314301905,3.1993152723210065
233,1790595214.529116,0.9342013183593749,0.978173876953125,-0.3254352539062503,1.3912096683328963,1.2446485638818896,2.96374933432975,-0.2690000207782826,3.2257280070539123
234,1790595214.5535896,0.8192403808593749,0.915903369140625,-0.16736396484375027,1.2401792128406208,1.2660303740800432,2.9888938986788984,-0.27673788660439474,3.257745156321388
235,1790595214.5735896,0.8240304199218749,0.896743212890625,-0.13383369140625026,1.2251881405634997,1.283347585292796,3.009078870695843,-0.2825645859290755,3.2835010918174357
236,1790595214.5992155,0.867140771484375,0.9829639160156249,-0.15299384765625026,1.3196811339031689,1.3054581628693285,3.0346750929282944,-0.28946173250249285,3.3162120000423463
237,1790595214.6192155,0.9821017089843749,1.208095751953125,-0.14341376953125026,1.5635173878049387,1.322899950258572,3.0549419458819083,-0.2944818385298826,3.3420733271917915
238,1790595214.6294904,0.8575606933593749,1.337426806640625,-0.15299384765625026,1.5960977173521098,1.3319341586109907,3.0657537601775426,-0.29690245069025584,3.3557481708470602
239,1790595214.6494904,0.905461083984375,1.054814501953125,-0.11467353515625027,1.3948632290680008,1.349525947469791,3.087230458144308,-0.30130889733786415,3.382750247387931
240,1790595214.674651,0.6946993652343749,0.776992236328125,-0.07635322265625026,1.0450617005618468,1.371356846148159,3.113652711201694,-0.3063812938202745,3.41603897850333
241,1790595214.694651,0.6180587402343749,0.7913623535156249,-0.21526435546875028,1.0269321903987954,1.3880762515059928,3.13385770648785,-0.3102459363571316,3.4415218066335607
242,1790595214.7047298,0.809660302734375,0.939853564453125,-0.49787666015625026,1.3366958132527782,1.3963173135029543,3.1438212534801924,-0.3124404474272546,3.4541182879297025
243,1790595214.7247298,1.1401729980468749,0.7865723144531249,-0.7086383789062503,1.5559109304192906,1.413142171079674,3.163216297113492,-0.31795167642058286,3.4790805403938014
244,1790595214.749392,1.1066427246093749,0.6237109863281249,-0.5074567382812503,1.367912956157777,1.4349329591013478,3.186153709385991,-0.32597762765356136,3.5095397804669637
245,1790595214.769392,1.245553857421875,0.566230517578125,-0.4499762695312503,1.4403124848159041,1.453481897523136,3.2037496484583676,-0.3329461585390627,3.5337621002142305
246,1790595214.8092966,1.489845849609375,0.853632861328125,-0.39728583984375027,1.7624317734533375,1.493126537963967,3.237840856854114,-0.34730014056777386,3.5824094769197505
247,1790595214.8292966,1.5808565917968749,1.0356543457031249,-0.27753486328125027,1.910160487482123,1.5146218265435407,3.2551981750234504,-0.35442739238113496,3.607771225090109
248,1790595214.839574,1.595226708984375,1.0739746582031249,-0.12425361328125027,1.9270725933220796,1.5264590190726461,3.264405887434263,-0.35785024120386144,3.6213919602762368
249,1790595214.859574,1.657497216796875,0.978173876953125,-0.11467353515625027,1.928022607986775,1.5509179486535871,3.28271454409353,-0.3638703508389517,3.6488303459709805
250,1790595214.8696265,1.691027490234375,0.891953173828125,-0.16736396484375027,1.9191574020279458,1.5638920818772688,3.2919464879766935,-0.3666549549900665,3.662936797090454
251,1790595214.8896265,1.576066552734375,0.872793017578125,-0.09551337890625027,1.80412755528295,1.5907336598202135,3.3102060188914275,-0.37175839731055593,3.69135500459668
252,1790595214.9298575,1.432365380859375,0.8871631347656249,-0.09551337890625027,1.6875579449375009,1.6457053057597806,3.3467368642887037,-0.38106074799613326,3.748893288139614
253,1790595214.9498575,1.446735498046875,0.7530420410156249,-0.17694404296875027,1.640556341973065,1.6732527400806056,3.364633622746185,-0.3854002296996808,3.7774419233859753
254,1790595214.9599874,1.513796044921875,0.513540087890625,-0.25837470703125026,1.6192774242622252,1.687361774929882,3.37330085670176,-0.38759920476040355,3.7916462879401407
255,1790595214.9799874,1.4994259277343749,0.235717822265625,-0.3110651367187503,1.5493877899924196,1.7155592989926858,3.388970041154977,-0.3921436701191822,3.8186435165148347
256,1790595214.9895425,1.3796749511718749,0.19739750976562498,-0.3110651367187503,1.4280161998502119,1.7290733510384446,3.3956435592562544,-0.39443498087713863,3.8308835519928492
257,1790595215.0095425,1.360514794921875,0.230927783203125,-0.2631647460937503,1.404842991883082,1.7572271929928949,3.408159253872132,-0.3993729164437955,3.855242616741099
258,1790595215.0787084,1.374884912109375,0.240507861328125,-0.23442451171875028,1.4153117693996637,1.854176710996726,3.4473953793091767,-0.4164694692849271,3.936489933396422
259,1790595215.0987084,1.365304833984375,0.19739750976562498,-0.27753486328125027,1.4071420208704286,1.8821157738084813,3.4576959059729027,-0.4214394917606478,3.9592463941280474
260,1790595215.0797105,1.326984521484375,0.10638676757812497,-0.3206452148437503,1.3693134843333108,1.8821157738084813,3.4576959059729027,-0.4214394917606478,3.9592463941280474
261,1790595215.0997105,1.235973779296875,0.08722661132812498,-0.3062750976562503,1.2763401193559394,1.9095788461293794,3.4658157808630694,-0.42673339144355077,3.980009018059785
262,1790595215.10882,1.130592919921875,0.15428715820312497,-0.22963447265625028,1.1639488256774786,1.9218281517163378,3.469124428036518,-0.4291490858529189,3.989037061725239
263,1790595215.12882,1.087482568359375,0.235717822265625,-0.18652412109375027,1.1282608191233743,1.9480147011915394,3.4758839743199474,-0.434281449719639,4.008133113628237
264,1790595215.1688092,1.178493310546875,0.254877978515625,-0.18173408203125027,1.219359070785831,1.9993159926695836,3.4888435120457157,-0.44410860529062224,4.045556320628973
265,1790595215.1888092,1.235973779296875,0.293198291015625,-0.23442451171875028,1.2917241472769865,2.024746588336586,3.4951749069052247,-0.4489105042408393,4.064156372195631
266,1790595215.228897,1.202443505859375,0.321938525390625,-0.25837470703125026,1.271326979241595,2.075405020169635,3.5078114187764,-0.45857333462145244,4.101504169285857
267,1790595215.248897,1.202443505859375,0.36025883789062496,-0.22484443359375028,1.2752301103643149,2.100494931690022,3.5141934453243775,-0.4633958530373658,4.120239100565465
268,1790595215.2298977,1.1880733886718748,0.412949267578125,-0.22484443359375028,1.2777325595685805,2.100494931690022,3.5141934453243775,-0.4633958530373658,4.120239100565465
269,1790595215.2498977,1.159333154296875,0.5231201660156249,-0.2727448242187503,1.3008065997227543,2.1251914053537773,3.521194401710926,-0.46819985852664653,4.139379136000265
270,1790595215.2884018,1.053952294921875,0.537490283203125,-0.3206452148437503,1.2257751010324272,2.1719969234030345,3.535713795183045,-0.47777485919942475,4.176973963625218
271,1790595215.3084018,1.1449630371093749,0.499169970703125,-0.26795478515625026,1.2774626346342246,2.195960431734114,3.543679252103352,-0.4828852239017122,4.196794371778567
272,1790595215.3186693,1.197653466796875,0.518330126953125,-0.20568427734375028,1.3211154260639897,2.2082213243578,3.5479386689524968,-0.4854799601828524,4.2071131441567005
273,1790595215.3386693,1.1401729980468749,0.6237109863281249,-0.22963447265625028,1.3197506775803207,2.232028528673995,3.5567040830009353,-0.4904290654112999,4.227601678854138
274,1790595215.3492265,1.077902490234375,0.6285010253906249,-0.3254352539062503,1.2894942504158595,2.244466599263663,3.561628438631846,-0.4930891292916468,4.238627648131753
275,1790595215.3692265,1.082692529296875,0.585390673828125,-0.39728583984375027,1.2933450400185422,2.2677362373711785,3.5713788548865186,-0.4984566516524029,4.259792671127722
276,1790595215.408879,1.125802880859375,0.618920947265625,-0.3445954101562503,1.3301282878791056,2.3135190226791984,3.591392167618743,-0.5097085095649311,4.302356416506502
277,1790595215.428879,1.1880733886718748,0.575810595703125,-0.2487946289062503,1.3434935751118642,2.336617976268711,3.60176443482065,-0.5154225263719907,4.324135866465425
278,1790595215.4389443,1.1114327636718748,0.580600634765625,-0.22963447265625028,1.274798759132461,2.348235057582803,3.6070744192439226,-0.5182280133851972,4.335176354599886
279,1790595215.4589443,1.135382958984375,0.547070361328125,-0.22963447265625028,1.2810591066878665,2.3712261394693033,3.6177343100910218,-0.5236552898120306,4.357169930753261
280,1790595215.469648,1.235973779296875,0.6141309082031249,-0.22484443359375028,1.3983357875839013,2.3835884736788433,3.623515688972525,-0.5264890089136547,4.3690445908220665
281,1790595215.4896479,1.3892550292968748,0.695561572265625,0.024237597656249738,1.55384133629513,2.407160846757204,3.6346625271634347,-0.5312905861518298,4.391749618940098
282,1790595215.5591934,1.528166162109375,0.700351611328125,0.4026506835937498,1.7285577142532764,2.4920504159893557,3.6748900524100594,-0.5432559328598168,4.473282819331069
283,1790595215.5791934,1.954479638671875,0.7099316894531249,0.36912041015624975,2.111928866904998,2.5180251277293277,3.6868388535484797,-0.5450231348382752,4.497808521204511
284,1790595215.560195,1.671867333984375,0.738671923828125,0.07692802734374975,1.8293973091941962,2.5180251277293277,3.6868388535484797,-0.5450231348382752,4.497808521204511
285,1790595215.580195,1.322194482421875,0.6141309082031249,-0.05240302734375026,1.4588012541234103,2.5459065333837625,3.6993480325293615,-0.5456944395873481,4.523781423090813
286,1790595215.5892456,1.930529443359375,0.959013720703125,-0.09551337890625027,2.1577242765757627,2.558839083950316,3.7052275467660474,-0.546053062762332,4.535916950101463
287,1790595215.6092455,2.122131005859375,1.255996142578125,-0.033242871093750265,2.4661855981818177,2.589209603462367,3.7195936976950734,-0.5469198078724619,4.56492112996905
288,1790595215.6494477,1.552116357421875,0.901533251953125,-0.0045026367187502615,1.7949506024097563,2.6521788945171654,3.750644894599676,-0.5485145309321607,4.626257472790791
289,1790595215.6694477,1.317404443359375,0.40815922851562497,-0.23921455078125028,1.399775705072413,2.68311053288145,3.765739822847683,-0.5495544551834042,4.656381496854849
290,1790595215.7090776,1.868258935546875,0.274038134765625,-0.6032575195312503,1.9822734383599965,2.744676456663149,3.7931914743002544,-0.5538100060340081,4.714685136384879
291,1790595215.7290776,2.150871240234375,0.17823735351562497,-0.8906598632812504,2.3347999139788804,2.7771149718301515,3.805645773353552,-0.5578763761079416,4.744105117935971
292,1790595215.7100794,2.050280419921875,-0.05647456054687503,-1.0918415039062503,2.3235655889077558,2.7771149718301515,3.805645773353552,-0.5578763761079416,4.744105117935971
293,1790595215.7300794,1.829938623046875,-0.36303706054687507,-1.2738629882812502,2.259025937071561,2.811728585310439,3.8141699850010147,-0.5668905686730442,4.772323881379482
294,1790595215.7689543,1.5856466308593749,-0.43967768554687503,-1.3121833007812502,2.1046179510715763,2.878875151220202,3.825913138274278,-0.5893235822203893,4.824192757601415
295,1790595215.7889543,1.360514794921875,-0.5067382324218751,-1.3121833007812502,1.9569387211276021,2.9126575919294653,3.829628798341255,-0.6030700883709242,4.849053981179912
296,1790595215.7993534,1.1114327636718748,-1.014482373046875,-1.1301618164062504,1.8819465998398561,2.929516110153151,3.8300845302817814,-0.6110503908412775,4.860554981573395
297,1790595215.8193533,1.135382958984375,-1.1390233886718752,-0.7421686523437503,1.7712377175341019,2.960445874066963,3.827599284695941,-0.6269047216144555,4.8793201972680045
298,1790595215.8294,1.298244287109375,-0.45404780273437506,-0.7613288085937503,1.5720111930183012,2.9754861990844197,3.8253377339776846,-0.6348071907560484,4.887709797990359
299,1790595215.8494,1.240763818359375,0.058486376953124974,-0.7900690429687504,1.4721156890327594,3.004744333817909,3.820917638637126,-0.6505059967322614,4.904187819062782
300,1790595215.8894246,1.3461446777343749,0.02495610351562497,-0.7277985351562503,1.5304963274280832,3.062279181558424,3.813649344286134,-0.681766745370572,4.938246753866536
301,1790595215.9094245,1.805988427734375,-0.19059565429687503,-0.4212360351562503,1.864231933494728,3.091444684239418,3.810313755374495,-0.696767962216629,4.95590624843527
302,1790595215.9193623,1.9401095214843749,0.07764653320312498,-0.12904365234375026,1.9459460947526293,3.1065549776024204,3.808820766966106,-0.7035139474415891,4.965151693350718
303,1790595215.9393623,1.777248193359375,0.230927783203125,-0.04761298828125026,1.7928206208395032,3.1379793548742247,3.8067296550185814,-0.7153189172535517,4.984955992924665
304,1790595215.9789832,1.686237451171875,-0.00857416992187503,-0.061983105468750264,1.6873980453609696,3.2011864885786183,3.80386919330352,-0.7355228462801046,5.0257347355209525
305,1790595215.9989831,1.710187646484375,-0.14748530273437505,-0.14820380859375026,1.7229213764975198,3.233401173930761,3.80240777652226,-0.744506951925936,5.046531348560101
306,1790595216.009037,1.643127099609375,-0.11874506835937504,-0.17215400390625027,1.656382823441291,3.2496947223015447,3.801582579250609,-0.7485873332994686,5.056968349771693
307,1790595216.029037,1.571276513671875,-0.07084467773437503,-0.14341376953125026,1.5793974674132194,3.282066905514006,3.7999028778787927,-0.7559601566587181,5.077666866981064
308,1790595216.038587,1.628756982421875,-0.10437495117187504,-0.18652412109375027,1.6427217311431475,3.29749815476132,3.7990956193783267,-0.7591889541925266,5.087532749182244
309,1790595216.058587,1.676657373046875,-0.15227534179687505,-0.3302252929687503,1.7156387936940862,3.3299252127535808,3.7972736552510775,-0.7657116128608261,5.108228989529128
310,1790595216.099422,1.5856466308593749,-0.24328608398437504,-0.4212360351562503,1.6585846839791742,3.3961930777803295,3.7929002102676055,-0.77933302837469,5.150493121607555
311,1790595216.119422,1.5042159667968749,-0.262446240234375,-0.4260260742187503,1.5852576824270734,3.4284158502943702,3.7903209030859015,-0.7862746534942121,5.170956934808782
312,1790595216.129586,1.537746240234375,-0.19538569335937503,-0.36854560546875026,1.593318841862735,3.4446540582617264,3.788857710185837,-0.7898789401076954,5.181215404628464
313,1790595216.149586,1.4611056152343749,-0.12832514648437504,-0.2631647460937503,1.4901518867807553,3.4763117830115693,3.785924859791724,-0.7968549068056793,5.2012448893696925
314,1790595216.158724,1.4227853027343749,-0.02294428710937503,-0.2727448242187503,1.4488734234314675,3.4905831892249566,3.784682155163991,-0.7999314524449217,5.210362784406405
315,1790595216.178724,1.470685693359375,0.08243657226562498,-0.34938544921875025,1.5138633984691747,3.5214730551255022,3.782459540752976,-0.8065880669549241,5.2305216723728645
316,1790595216.2188673,1.532956201171875,0.18781743164062498,-0.24400458984375029,1.5635754993617044,3.5832171370246013,3.7794812265314657,-0.8197313945698506,5.272180094800822
317,1790595216.2388673,1.523376123046875,0.27882817382812497,-0.10030341796875027,1.5519280712861239,3.61394919901525,3.778919928886538,-0.8258138316507906,5.293659710119698
318,1790595216.2492723,1.403625146484375,0.37941899414062497,-0.0045026367187502615,1.4540091467027942,3.6298235696296555,3.7791853970721134,-0.8285853688970337,5.3051310187056
319,1790595216.2692723,1.255133935546875,0.451269580078125,-0.028452832031250264,1.3340970705746538,3.65974754229717,3.780865155535446,-0.833162990436284,5.3275560969665055
320,1790595216.2790506,1.173703271484375,0.456059619140625,-0.15778388671875027,1.269041173726011,3.673964477368815,3.782228631314681,-0.8352019227045241,5.338616923154701
321,1790595216.2990506,1.164123193359375,0.465639697265625,-0.22484443359375028,1.2737967484276862,3.7021880484597296,3.7859816480862976,-0.8393206477897015,5.361372262360675
322,1790595216.339413,1.192863427734375,0.499169970703125,-0.26795478515625026,1.3205656302380786,3.75773783001256,3.7953402295160727,-0.8478777068307761,5.407781214382775
323,1790595216.359413,1.2647140136718749,0.575810595703125,-0.2919049804687503,1.419953483788984,3.7848208778482153,3.8008943845989176,-0.852321592957063,5.431217110196589
324,1790595216.3690293,1.283874169921875,0.547070361328125,-0.2823249023437503,1.4238420610867193,3.7977277334658313,3.8039742006997908,-0.8545519436302741,5.442721257008062
325,1790595216.3890293,1.2695040527343748,0.5231201660156249,-0.22484443359375028,1.3913483630346901,3.824374746043605,3.811024033862107,-0.8592555470372709,5.466997940365902
326,1790595216.399581,1.2216036621093749,0.585390673828125,-0.19131416015625027,1.3680639079225332,3.8382959317456016,3.8150627622852458,-0.8616942035421021,5.479939455892594
327,1790595216.419581,1.235973779296875,0.590180712890625,-0.25837470703125026,1.3938084323934086,3.8644109202869608,3.823332972116353,-0.8662976913621631,5.504726920253591
328,1790595216.4591284,1.255133935546875,0.551860400390625,-0.3014850585937503,1.4038533891528577,3.9156929265627323,3.8406206361859723,-0.8756956628134643,5.554265105313327
329,1790595216.4791284,1.207233544921875,0.537490283203125,-0.2919049804687503,1.3533355659794335,3.941430712789524,3.849685988286795,-0.8806255874936197,5.579467689437828
330,1790595216.4888957,1.125802880859375,0.537490283203125,-0.2823249023437503,1.2790759483206817,3.9538237941530148,3.8542365839509736,-0.8830927008436171,5.5917541933243
331,1790595216.5088956,1.1018526855468749,0.499169970703125,-0.28711494140625027,1.2432558022697233,3.9787354434708453,3.863711888656785,-0.8882408727784241,5.6167229890527
332,1790595216.5194483,1.130592919921875,0.38899907226562497,-0.2487946289062503,1.2212532072316482,3.991674880384684,3.8686643874185256,-0.8909739099790457,5.629730633115388
333,1790595216.5394483,1.1401729980468749,0.432109423828125,-0.21526435546875028,1.2381646749813409,4.015926058077877,3.8778743710878394,-0.8960728360651818,5.654070946620914
334,1790595216.5793633,1.192863427734375,0.475219775390625,-0.22963447265625028,1.3044113550489482,4.06404983046694,3.8962143295149003,-0.9060544802603527,5.702448758843473
335,1790595216.5993633,1.1832833496093749,0.456059619140625,-0.28711494140625027,1.3002249233314167,4.088110141723234,3.905422304101321,-0.9110808232043554,5.726695047812758
336,1790595216.6993487,1.1880733886718748,0.412949267578125,-0.28711494140625027,1.290147458255178,4.208134164848824,3.951067117187836,-0.9367457675940177,5.8478044723636415
337,1790595216.7193487,1.207233544921875,0.422529345703125,-0.3014850585937503,1.3140917473754352,4.232134173663266,3.9600810808251934,-0.9419923419314205,5.87201425431304
338,1790595216.7003503,1.279084130859375,0.475219775390625,-0.25837470703125026,1.3887575519046091,4.232134173663266,3.9600810808251934,-0.9419923419314205,5.87201425431304
339,1790595216.7203503,1.2647140136718749,0.513540087890625,-0.23442451171875028,1.3849836858040272,4.256459925622987,3.969221436971464,-0.9472360105337829,5.896560520659498
340,1790595216.7013512,1.2695040527343748,0.532700244140625,-0.21526435546875028,1.3934664806703678,4.256459925622987,3.969221436971464,-0.9472360105337829,5.896560520659498
341,1790595216.7213511,1.288664208984375,0.551860400390625,-0.2487946289062503,1.4237640648679206,4.281103655100198,3.978786138853645,-0.9522940016705823,5.921608861624005
342,1790595216.7294793,1.255133935546875,0.599760791015625,-0.29669501953125027,1.422357949749543,4.2911674982563035,3.9827922828157476,-0.9543738088112163,5.931912190271596
343,1790595216.7494793,1.255133935546875,0.594970751953125,-0.3014850585937503,1.4213530991264383,4.315981330560446,3.992963191149746,-0.9596209753075159,5.957543311455925
344,1790595216.759416,1.240763818359375,0.575810595703125,-0.24400458984375029,1.389457064805725,4.328320673936333,3.998131053696788,-0.9622434634256365,5.970370529696178
345,1790595216.779416,1.197653466796875,0.599760791015625,-0.23921455078125028,1.3606286908174974,4.353088556817009,4.008735635161179,-0.9674548678773779,5.996274701636169
346,1790595216.8194153,1.212023583984375,0.638081103515625,-0.2727448242187503,1.3966167698893508,4.402422099803252,4.030476557027445,-0.977849946223624,6.04832639156597
347,1790595216.8394153,1.192863427734375,0.6716113769531249,-0.3062750976562503,1.4027791823103952,4.426996557571636,4.041681150893033,-0.9831364625751409,6.0745405052793835
348,1790595216.8493643,1.1497530761718748,0.6668213378906249,-0.33980537109375025,1.371878465118938,4.439135410804379,4.047417508939012,-0.9858538562279706,6.0876448248040065
349,1790595216.8693643,1.125802880859375,0.6476611816406249,-0.3254352539062503,1.3389567719834812,4.4632906204163865,4.059191049989793,-0.9914949760898717,6.114005023732446
350,1790595216.8789535,1.173703271484375,0.6141309082031249,-0.2919049804687503,1.3564455977023113,4.474788644221004,4.064896720686762,-0.9942379494768478,6.126632668969078
351,1790595216.8989534,1.164123193359375,0.6476611816406249,-0.2631647460937503,1.3579040831766975,4.498679387066845,4.076904573806003,-0.9999333704210642,6.1529776431271115
352,1790595216.9688451,1.1497530761718748,0.6668213378906249,-0.24400458984375029,1.3513404725300535,4.581773497096261,4.119463052695153,-1.019509566333441,6.245160044150956
353,1790595216.988845,1.178493310546875,0.6476611816406249,-0.19610419921875027,1.358958552038689,4.605477114482007,4.131786412086796,-1.0249313108062859,6.271567794339281
354,1790595216.969846,1.2216036621093749,0.681191455078125,-0.19610419921875027,1.4123718216892167,4.605477114482007,4.131786412086796,-1.0249313108062859,6.271567794339281
355,1790595216.989846,1.216813623046875,0.6859814941406249,-0.26795478515625026,1.422324073628791,4.629320721204533,4.144435082211348,-1.030044674231745,6.298249321942648
356,1790595216.999754,1.207233544921875,0.6668213378906249,-0.3158551757812503,1.4148597176818216,4.641162297844468,4.1507665585867395,-1.0326316814606613,6.311543288956451
357,1790595217.019754,1.202443505859375,0.6237109863281249,-0.3062750976562503,1.388772916892511,4.665094473022272,4.163565841357855,-1.0380036380460678,6.338441331284984
358,1790595217.0596833,1.173703271484375,0.590180712890625,-0.2631647460937503,1.3398314546792065,4.712823247690528,4.188921479696515,-1.0488251560039679,6.392010664485932
359,1790595217.0796833,1.197653466796875,0.6285010253906249,-0.27753486328125027,1.3807291428025203,4.736700860223534,4.20154469280322,-1.0542434783858892,6.418780425951994
360,1790595217.0895536,1.216813623046875,0.662031298828125,-0.3110651367187503,1.4197472849568584,4.748504588267016,4.207795320853213,-1.0569521222750704,6.432028068639695
361,1790595217.1095536,1.197653466796875,0.6476611816406249,-0.2631647460937503,1.3867568338830323,4.772456303106672,4.220525556314157,-1.0624786684830856,6.458950073931916
362,1790595217.119252,1.1401729980468749,0.657241259765625,-0.22963447265625028,1.335923848894696,4.7840292556753585,4.226721889393607,-1.0651150633631192,6.471984544762125
363,1790595217.139252,1.1497530761718748,0.6524512207031249,-0.2535846679687503,1.3460794610246856,4.807749981382604,4.2395477703874285,-1.0704611394227919,6.4987777490768055
364,1790595217.1794934,1.130592919921875,0.638081103515625,-0.2631647460937503,1.324629581742676,4.855201034395763,4.265378389452923,-1.0811639507450899,6.552506801064798
365,1790595217.1994934,1.1066427246093749,0.638081103515625,-0.27753486328125027,1.307222710532188,4.878602547357921,4.278204757100117,-1.086496394213385,6.57907844408318
366,1790595217.2090385,1.121012841796875,0.6668213378906249,-0.2823249023437503,1.3345515496312446,4.889690497600471,4.284342141926813,-1.0890603818230808,6.591715502558571
367,1790595217.2290385,1.1401729980468749,0.6332910644531249,-0.2487946289062503,1.3277615769271114,4.912830124379227,4.297223108321718,-1.0944235712864454,6.6181409192528955
368,1790595217.2393203,1.164123193359375,0.6237109863281249,-0.23921455078125028,1.342170557376784,4.924718532001911,4.303821112363246,-1.097143482564511,6.631700581902085
369,1790595217.2593203,1.192863427734375,0.6428711425781249,-0.2535846679687503,1.37859045659497,4.947910363751676,4.316630158051377,-1.102379796185676,6.65810439270505
370,1790595217.2991831,1.207233544921875,0.657241259765625,-0.27753486328125027,1.4022854580503517,4.994376960506354,4.342217871605193,-1.1128389169043678,6.710966228726018
371,1790595217.319183,1.178493310546875,0.6428711425781249,-0.2727448242187503,1.3698611346050933,5.017771766537728,4.355080215590694,-1.1181247489962651,6.73757821027783
372,1790595217.3297825,1.1497530761718748,0.6285010253906249,-0.2823249023437503,1.3403928623978734,5.030161361754213,4.361885046556904,-1.1209471325723492,6.7516729007471845
373,1790595217.3497825,1.159333154296875,0.6141309082031249,-0.29669501953125027,1.3450792057261853,5.05349624646648,4.374663034177474,-1.1263423885397017,6.778211279671871
374,1790595217.389537,1.192863427734375,0.594970751953125,-0.28711494140625027,1.3635792395327029,5.0999355484989195,4.39985743562848,-1.1371987553723033,6.830908362869357
375,1790595217.409537,1.216813623046875,0.618920947265625,-0.28711494140625027,1.3950388961514137,5.123408562614606,4.412451970643195,-1.1427025288018122,6.85746430993525
376,1790595217.4190965,1.2263937011718749,0.618920947265625,-0.2823249023437503,1.40243074685406,5.134696720140135,4.418456286433035,-1.1453468345196849,6.870202743317094
377,1790595217.4390965,1.192863427734375,0.6237109863281249,-0.2727448242187503,1.3734366715763497,5.158399941438901,4.43099803101435,-1.1508819497266947,6.8969096535257455
378,1790595217.4497445,1.192863427734375,0.6332910644531249,-0.25837470703125026,1.375041169847601,5.171031863329076,4.437677526986404,-1.1538109685542315,6.911138264876546
379,1790595217.4697444,1.216813623046875,0.618920947265625,-0.27753486328125027,1.3930987518956375,5.19481375168637,4.450219929758992,-1.1592911296366772,6.937903376466714
380,1790595217.5090666,1.2216036621093749,0.6332910644531249,-0.2727448242187503,1.4027696955428302,5.241749147538846,4.4748736725972655,-1.170072396500423,6.99067220834167
381,1790595217.5290666,1.207233544921875,0.6285010253906249,-0.2487946289062503,1.3835913913704083,5.265683793286676,4.487424813722551,-1.1755157272485675,7.01756685003453
382,1790595217.539819,1.216813623046875,0.638081103515625,-0.23442451171875028,1.39382127247031,5.278576258045396,4.494181836658465,-1.1783928995569246,7.032044334237204
383,1790595217.559819,1.212023583984375,0.6285010253906249,-0.25837470703125026,1.389522290675785,5.302602949125948,4.506764798177258,-1.1836810079623632,7.05901039174612
384,1790595217.5689647,1.1832833496093749,0.6285010253906249,-0.26795478515625026,1.3663721276680014,5.313584997607105,4.512517937822806,-1.1860974902450585,7.071338693792959
385,1790595217.5889647,1.197653466796875,0.618920947265625,-0.2727448242187503,1.3754369140868907,5.337569697159251,4.52508293478098,-1.19140026667113,7.0982716511910695
386,1790595217.629336,1.192863427734375,0.609340869140625,-0.2727448242187503,1.3669708084554593,5.385960472240495,4.550360792316523,-1.2021503652992018,7.152588276251997
387,1790595217.649336,1.1832833496093749,0.609340869140625,-0.26795478515625026,1.3576654768962664,5.409901540567645,4.562833055805319,-1.207488168546102,7.179450386412926
388,1790595217.6597755,1.159333154296875,0.6428711425781249,-0.3206452148437503,1.3638731694750212,5.422357750635282,4.569347109449979,-1.2103172641944306,7.193452888739905
389,1790595217.6797755,1.154543115234375,0.590180712890625,-0.33980537109375025,1.3404293226527622,5.44611281678993,4.581804464632276,-1.215914966258741,7.220216490556208
390,1790595217.6898522,1.121012841796875,0.580600634765625,-0.2727448242187503,1.2915713792515955,5.458005994573789,4.588024312270317,-1.2187751927572992,7.233616626367996
391,1790595217.7098522,1.1497530761718748,0.6476611816406249,-0.26795478515625026,1.3465500025097292,5.481476506577406,4.600359887151761,-1.2244115818935513,7.260101893592822
392,1790595217.7495475,1.168913232421875,0.6859814941406249,-0.25837470703125026,1.3797413686875686,5.527975445637973,4.6251410694887545,-1.2354874128459765,7.312788222528311
393,1790595217.7695475,1.164123193359375,0.657241259765625,-0.22005439453125028,1.3548331334183001,5.551388738585933,4.63776874733996,-1.2409484164274207,7.33939839857026
394,1790595217.7796204,1.154543115234375,0.657241259765625,-0.17694404296875027,1.3402406771977666,5.56316366933561,4.6441677176784255,-1.2435861963400499,7.3527947359809795
395,1790595217.7996204,1.159333154296875,0.719511767578125,-0.22963447265625028,1.383648270828773,5.586506881308892,4.657032306111554,-1.248647811144554,7.379439707142703
396,1790595217.8091707,1.1449630371093749,0.7051416503906249,-0.2535846679687503,1.3683823615098083,5.597632156592963,4.663274351594064,-1.251048385430788,7.39220775556583
397,1790595217.8291707,1.130592919921875,0.6907715332031249,-0.3014850585937503,1.3587858191107767,5.620848932766166,4.676479315891144,-1.256154109739586,7.4189840722535525
398,1790595217.868924,1.121012841796875,0.6428711425781249,-0.2919049804687503,1.3248251262169173,5.666787107375266,4.702765510993428,-1.2665494814564937,7.472123336822107
399,1790595217.888924,1.164123193359375,0.6428711425781249,-0.2823249023437503,1.3594754377186593,5.689859723552612,4.715935102076533,-1.2718562828506579,7.498810970075889
400,1790595217.8991766,1.1832833496093749,0.638081103515625,-0.25837470703125026,1.3689647436511958,5.70171844964994,4.722658622591321,-1.2745844454521809,7.512500466103368
401,1790595217.9191766,1.1401729980468749,0.6716113769531249,-0.24400458984375029,1.3455833482147763,5.724866536523818,4.735771401552252,-1.2798615690306152,7.539209060946109
402,1790595217.9596322,1.1066427246093749,0.695561572265625,-0.25837470703125026,1.3323743880670227,5.77148373610767,4.762465271816876,-1.2904591675993722,7.593180153575865
403,1790595217.9796321,1.1066427246093749,0.6668213378906249,-0.26795478515625026,1.3195107364039278,5.794392841196149,4.77572597088034,-1.2957019158628071,7.619802517245227
404,1790595217.9893131,1.116222802734375,0.657241259765625,-0.2631647460937503,1.3218075133956069,5.805432581239656,4.782143350996313,-1.298244636415108,7.632652331973322
405,1790595218.009313,1.130592919921875,0.662031298828125,-0.2727448242187503,1.3382509220410208,5.828188780880476,4.7953912912223595,-1.3035135623808207,7.65915855096518
406,1790595218.0195076,1.168913232421875,0.657241259765625,-0.29669501953125027,1.3734453586087474,5.839806502837336,4.8021399078807985,-1.3062318096109904,7.672687223253808
407,1790595218.0395076,1.154543115234375,0.638081103515625,-0.2727448242187503,1.3470363910217609,5.862664905823769,4.815336597294123,-1.3116188026806321,7.699262966463942
408,1790595218.0495424,1.125802880859375,0.676401416015625,-0.22005439453125028,1.3316812451528053,5.874129754683521,4.821954005975109,-1.314287129796218,7.712586561598234
409,1790595218.0695424,1.164123193359375,0.6907715332031249,-0.22963447265625028,1.3729821963278106,5.8969872750490495,4.835215335158385,-1.3194820833512249,7.7391730325485115
410,1790595218.1091464,1.173703271484375,0.6668213378906249,-0.28711494140625027,1.3800960313463992,5.9424043912895685,4.861568851784376,-1.329760969107686,7.792001404338927
411,1790595218.1291463,1.159333154296875,0.6476611816406249,-0.3062750976562503,1.3628363086961024,5.965399226954931,4.874852813278107,-1.335063262135517,7.81873210961879
412,1790595218.168921,1.154543115234375,0.676401416015625,-0.3110651367187503,1.3737722517960873,6.01117278314473,4.901258157411592,-1.3458679753737692,7.871968645869362
413,1790595218.188921,1.1401729980468749,0.676401416015625,-0.27753486328125027,1.354451527888571,6.034178812230388,4.914573200105697,-1.3513688892925608,7.898768356656315
414,1790595218.1699224,1.1880733886718748,0.6716113769531249,-0.2727448242187503,1.391750680855325,6.034178812230388,4.914573200105697,-1.3513688892925608,7.898768356656315
415,1790595218.1899223,1.2263937011718749,0.657241259765625,-0.24400458984375029,1.4126378954555807,6.057390876737689,4.927905310178268,-1.356820028913224,7.925729970830967
416,1790595218.2299764,1.178493310546875,0.676401416015625,-0.22005439453125028,1.3765134562161718,6.104129193298942,4.954606900662918,-1.3674935639585388,7.97988479841965
417,1790595218.2499764,1.212023583984375,0.6907715332031249,-0.22005439453125028,1.412299690494422,6.1275519098433575,4.96799050044842,-1.3726838495292937,8.007002121339127
418,1790595218.2592294,1.250343896484375,0.681191455078125,-0.21526435546875028,1.440041805185724,6.1384718115062675,4.974205764386598,-1.3750270509265947,8.019617107935627
419,1790595218.2792294,1.212023583984375,0.6476611816406249,-0.25837470703125026,1.3982931250535218,6.1622277874513856,4.987617943427604,-1.3800425210445997,8.04698088813004
420,1790595218.2892742,1.168913232421875,0.6524512207031249,-0.3014850585937503,1.372204059490873,6.1741630364701,4.994323123230891,-1.3826054266515737,8.060716495818397
421,1790595218.3092742,1.197653466796875,0.6524512207031249,-0.3062750976562503,1.3978093065121282,6.1979122672997295,5.007628416115585,-1.3878545636972184,8.088052863143758
422,1790595218.3491747,1.235973779296875,0.6285010253906249,-0.22484443359375028,1.4047062829447876,6.245468338583442,5.034024495737498,-1.3983453138499204,8.14264373583294
423,1790595218.3691747,1.212023583984375,0.599760791015625,-0.2535846679687503,1.375870400293152,6.26940202218052,5.047113173370471,-1.4035326350898811,8.169985125953003
424,1790595218.3792303,1.168913232421875,0.618920947265625,-0.3206452148437503,1.3609682721126637,6.281425964513988,5.053625850880838,-1.4061825580351306,8.183690840622205
425,1790595218.3992302,1.1497530761718748,0.6332910644531249,-0.3541754882812503,1.3595697793721817,6.305231738604744,5.066514554431407,-1.4116747701227108,8.210867351527176
426,1790595218.4098666,1.1832833496093749,0.638081103515625,-0.3254352539062503,1.3831901838183807,6.317854127290901,5.073355026238121,-1.4146996363587667,8.225301639277182
427,1790595218.4298666,1.178493310546875,0.6428711425781249,-0.2631647460937503,1.367985918257211,6.341571079289208,5.086209539058386,-1.4204171616199712,8.25243213494727
428,1790595218.4989874,1.135382958984375,0.681191455078125,-0.22005439453125028,1.3422146618838893,6.423238242891907,5.130835503129758,-1.4397182346987905,8.346032056040169
429,1790595218.5189874,1.125802880859375,0.7434619628906249,-0.23921455078125028,1.3701793379415428,6.446715705665928,5.143948044933407,-1.445154153277724,8.373100704362143
430,1790595218.499989,1.1449630371093749,0.714721728515625,-0.2727448242187503,1.377010255843145,6.446715705665928,5.143948044933407,-1.445154153277724,8.373100704362143
431,1790595218.519989,1.1497530761718748,0.6859814941406249,-0.24400458984375029,1.360897125551711,6.470015467191768,5.157382091650293,-1.4505094754134968,8.400218325927023
432,1790595218.5290432,1.116222802734375,0.7290918457031249,-0.23921455078125028,1.3545301274318147,6.480520031827299,5.163512480693271,-1.4528983570539318,8.41248564082698
433,1790595218.5490432,1.1497530761718748,0.7290918457031249,-0.3062750976562503,1.3954610317317442,6.503642186596901,5.177210069685046,-1.4582019148060887,8.439621947769655
434,1790595218.5899732,1.116222802734375,0.6668213378906249,-0.3110651367187503,1.336923917540666,6.5508198084111235,5.205322517875199,-1.4693226839805087,8.495147545924665
435,1790595218.6099732,1.121012841796875,0.6524512207031249,-0.2823249023437503,1.3274297485569289,6.573770531988893,5.218977720484156,-1.4748316967143673,8.522166155842593
436,1790595218.6192355,1.1497530761718748,0.6668213378906249,-0.22963447265625028,1.3488197892472686,6.584382506725525,5.225269543641274,-1.4773559597204766,8.534642079800408
437,1790595218.6392355,1.2311837402343748,0.6859814941406249,-0.24400458984375029,1.430357386245034,6.607431030113423,5.23884670074715,-1.4826994269175091,8.561662056062277
438,1790595218.7098281,1.2647140136718749,0.681191455078125,-0.2631647460937503,1.4604037176192288,6.689795383914279,5.286819179886161,-1.5014160262560476,8.657832835262614
439,1790595218.7298281,1.202443505859375,0.657241259765625,-0.3158551757812503,1.4062720044107737,6.713330941413417,5.3003794669006385,-1.506791850647057,8.685232092653427
440,1790595218.7098281,1.164123193359375,0.6285010253906249,-0.2823249023437503,1.352739331400438,6.713330941413417,5.3003794669006385,-1.506791850647057,8.685232092653427
441,1790595218.7298281,1.274294091796875,0.513540087890625,-0.22484443359375028,1.3921579916005322,6.737010373810007,5.313529154155013,-1.5121993159202174,8.712499504731607
442,1790595218.7692714,1.336564599609375,0.470429736328125,-0.16257392578125027,1.4262325711799761,6.784428708751429,5.338483322664715,-1.522410143859684,8.766162771511077
443,1790595218.7892714,1.312614404296875,0.460849658203125,-0.08593330078125026,1.393816169376987,6.808839705031053,5.3506354497950275,-1.5271837559410213,8.793286534045205
444,1790595218.8292773,1.3078243652343748,0.484799853515625,-0.17694404296875027,1.405967518334472,6.858207062738423,5.3741345128610885,-1.5360888545251028,8.847366548680807
445,1790595218.8492773,1.216813623046875,0.403369189453125,-0.3541754882812503,1.3299557784873133,6.882972017166219,5.38545237898425,-1.540669636084611,8.874235969533006
446,1790595218.8292773,1.274294091796875,0.10159672851562497,-0.48829658203125026,1.3684227708047325,6.882972017166219,5.38545237898425,-1.540669636084611,8.874235969533006
447,1790595218.8492773,1.3844649902343749,-0.44446772460937506,-0.5745172851562503,1.56344650639138,6.908028990867365,5.393759062185979,-1.546647620907027,8.899753941701688
448,1790595218.859251,1.2695040527343748,-0.43488764648437506,-0.8140192382812503,1.5695206673585755,6.920635530639859,5.396622357603399,-1.550220271560277,8.91189721153112
449,1790595218.879251,1.197653466796875,-0.578588818359375,-0.9673004882812503,1.6446303785015697,6.945823734191668,5.399982545940267,-1.558981725015131,8.93502674097011
450,1790595218.9197907,1.010841943359375,-0.7174999511718751,-0.9194000976562503,1.5433418785079744,6.995936401661999,5.401831218265507,-1.5798136659472255,8.9787926730625
451,1790595218.9397907,0.9533614746093749,-0.8659911621093751,-0.8523395507812503,1.5444486083864661,7.019897010007882,5.4002312083289805,-1.5912069639594852,8.998521586165198
452,1790595218.9494338,0.9581515136718749,-0.8612011230468751,-0.9002399414062503,1.5716722462371198,7.031099280008511,5.398326315612386,-1.5971438124860957,9.00717227840858
453,1790595218.9694338,0.847980615234375,-0.7270800292968751,-0.9146100585937503,1.4436855793753973,7.053557191883861,5.392585720913364,-1.6103322794253063,9.023625649744915
454,1790595218.9796417,0.8575606933593749,-0.521108349609375,-0.7852790039062503,1.2742163744057016,7.064605986612814,5.3891396425516715,-1.6173553297722614,9.03146289898543
455,1790595218.9996417,0.7138595214843749,-0.38219721679687507,-0.3062750976562503,0.865721990240241,7.0853635191117155,5.382045667158818,-1.6306886832144376,9.045879578178443
456,1790595219.039773,0.7378097167968749,0.0010059082031249702,-0.038032910156250266,0.7387900190894238,7.125136523589687,5.368798973524457,-1.654466141860977,9.073523632661862
457,1790595219.059773,0.7569698730468749,0.307568408203125,0.13919853515624975,0.8288413277671739,7.1442268845802825,5.363650418881357,-1.6643867337214726,9.08729370020106
458,1790595219.0700223,0.6659591308593749,0.446479541015625,0.37870048828124975,0.8867128082671154,7.153636435092283,5.361987353189143,-1.6683100220549043,9.094431315422035
459,1790595219.0900223,0.6132687011718749,0.580600634765625,0.3739104492187498,0.9235824927759578,7.171162293575877,5.3607695514723055,-1.6736884137193297,9.108493384254905
460,1790595219.0995467,0.45519741210937487,0.815312548828125,0.34996025390624974,0.9972017928091649,7.179019732372323,5.361273740472613,-1.6753484267462067,9.1152823757179
461,1790595219.1195467,0.4168770996093749,1.150615283203125,0.34517021484374977,1.271552013617458,7.194352568642034,5.365122555279705,-1.6772686857487162,9.129976952834573
462,1790595219.1595562,0.4168770996093749,1.337426806640625,0.44576103515624976,1.4701019963809434,7.222926461442373,5.379132999160043,-1.6781605471517018,9.160893041187276
463,1790595219.1795561,0.35460659179687487,1.390117236328125,0.5271916992187498,1.528431501051811,7.236224695670946,5.389177330660091,-1.6770800701892434,9.177078931193991
464,1790595219.1889868,0.3641866699218749,1.3517969238281249,0.5607219726562498,1.5081100703992008,7.242063067594787,5.395142479425929,-1.675877532188973,9.184966268376948
465,1790595219.2089868,0.3114962402343749,1.485918017578125,0.6852629882812498,1.6657033426608727,7.253601025758278,5.41015201450765,-1.6718408233157775,9.202147814476135
466,1790595219.2193458,0.2683858886718749,1.888281298828125,0.7475334960937497,2.048522290951301,7.259131254217077,5.419381624522762,-1.668950441227268,9.211410279291593
467,1790595219.2393458,0.13905483398437488,2.118203173828125,0.7523235351562497,2.2521349058215767,7.268817938500591,5.44053783462258,-1.661957321889681,9.230236632546886
468,1790595219.279827,0.10552456054687487,1.816430712890625,0.5846721679687498,1.9111246719165742,7.286226040568455,5.488882148768134,-1.6458667007129082,9.269616731766149
469,1790595219.299827,0.2731759277343749,1.145825244140625,0.24457939453124974,1.2030626159235154,7.294104558584616,5.513627543684566,-1.6378656279382207,9.28906097607414
470,1790595219.3094666,0.30670620117187486,0.7434619628906249,-0.033242871093750265,0.8049282406407539,7.297751456703691,5.525131101488214,-1.634434966378533,9.298151841725
471,1790595219.3294666,0.33544643554687487,0.6668213378906249,-0.17694404296875027,0.7671272398562533,7.305146263016095,5.547533911140797,-1.6287000175588286,9.31627383488223
472,1790595219.3400047,0.33544643554687487,0.6428711425781249,-0.08114326171875026,0.7296518663055451,7.308988418180138,5.5586025767976714,-1.62633548885113,9.325467356983765
473,1790595219.3600047,0.4408272949218749,0.5231201660156249,0.08171806640624975,0.6889566418995675,7.316350962820967,5.578207448386686,-1.622520187122344,9.342267471338397
474,1790595219.429607,0.6755392089843749,0.307568408203125,0.19667900390624976,0.7678764087907596,7.3439577166369086,5.640536924048367,-1.609780869127921,9.398976868889191
475,1790595219.449607,0.747389794921875,0.11117680664062497,0.18230888671874976,0.7772955152738238,7.352834912545302,5.656388687916741,-1.6061008764089464,9.414800808574716
476,1790595219.429607,0.6276388183593749,0.19260747070312498,-0.04282294921875027,0.6579224339251545,7.352834912545302,5.656388687916741,-1.6061008764089464,9.414800808574716
477,1790595219.449607,0.47435756835937487,0.20697758789062498,-0.3062750976562503,0.6013811270676741,7.362654839402765,5.668828288912152,-1.6037878838397042,9.429551210407771
478,1790595219.4600034,0.5030978027343749,-0.06126459960937503,-0.4116559570312503,0.6529329040879833,7.367755939566796,5.674438354794614,-1.6033256828370828,9.43682846472431
479,1790595219.4800034,0.6180587402343749,-0.38219721679687507,-0.3445954101562503,0.8042495356592594,7.377778824341561,5.682946558306448,-1.6037042828965296,9.449834357937208
480,1790595219.5195272,0.8144503417968749,-0.42530756835937505,-0.4403961914062503,1.0189036717776325,7.3988612828555835,5.694844662333977,-1.6066671831313102,9.473952894563297
481,1790595219.5395272,0.967731591796875,-0.43009760742187503,-0.5888874023437503,1.2117247040111483,7.410602534794062,5.698679165212071,-1.609485508929977,9.48590626983916
482,1790595219.5496204,1.135382958984375,-0.37740717773437504,-0.6272077148437503,1.3508960577768594,7.417231123418566,5.69971274716442,-1.6116150363373793,9.492067528402144
483,1790595219.5696204,1.130592919921875,-0.17622553710937505,-0.4643463867187503,1.2348738224473454,7.431794607015968,5.700623159594354,-1.6168391261135011,9.504885283279679
484,1790595219.639981,1.1832833496093749,-0.20975581054687503,-0.2727448242187503,1.2322932786715488,7.487554682104584,5.7013087513447,-1.6363505501643008,9.552279294424391
485,1790595219.659981,1.006051904296875,-0.32471674804687506,0.03381767578124974,1.0576979889348148,7.5043109881828265,5.7006726905030725,-1.6414231358061073,9.565909389199158
486,1790595219.6700242,0.905461083984375,0.07764653320312498,0.15835869140624975,0.9224783107870467,7.512902969993211,5.70021509595135,-1.6434435338890099,9.572725308172489
487,1790595219.6900241,0.9533614746093749,0.594970751953125,0.10566826171874974,1.1287400402589123,7.5302348090493485,5.700449452735318,-1.646467412328731,9.586991977803535
488,1790595219.6700242,1.216813623046875,0.499169970703125,0.16314873046874975,1.3253013095661625,7.5302348090493485,5.700449452735318,-1.646467412328731,9.586991977803535
489,1790595219.6900241,1.312614404296875,0.17823735351562497,0.31163994140624973,1.3608249636288956,7.549318171800768,5.703029913620006,-1.6475972408346327,9.60371447528152
490,1790595219.7301555,1.398835107421875,0.235717822265625,0.35954033203124974,1.4634110153496722,7.590027489917059,5.708677047179521,-1.6475041055191146,9.639075718366014
491,1790595219.7501554,1.643127099609375,0.638081103515625,0.01944755859374974,1.7627797274956654,7.611835253294441,5.71237991965318,-1.6468961712883161,9.658342884198976
492,1790595219.7901046,1.8634688964843749,0.547070361328125,-0.11467353515625027,1.9454953939995876,7.659367805894856,5.722217748073456,-1.6461493101586098,9.701520432060178
493,1790595219.8101046,1.8586788574218749,0.22134770507812498,-0.22963447265625028,1.8858456704095787,7.685178036872526,5.727556766112662,-1.6463479522003688,9.72508763699254
494,1790595219.7901046,1.652707177734375,-0.037314404296875034,-0.22484443359375028,1.668349004081834,7.685178036872526,5.727556766112662,-1.6463479522003688,9.72508763699254
495,1790595219.8101046,1.714977685546875,-0.31513666992187506,-0.09072333984375026,1.7460499153934774,7.71335446415651,5.7311201727735686,-1.6475442823371247,9.749665516660407
496,1790595219.8193643,1.839518701171875,-0.05647456054687503,-0.3829157226562503,1.8797986271426477,7.726911467338766,5.732264431826384,-1.6483440149972008,9.761201479953698
497,1790595219.8393643,1.394045068359375,0.10638676757812497,-0.4739264648437503,1.47624052613797,7.756651255651122,5.734440057511044,-1.6510975148053075,9.786499092033763
498,1790595219.8786392,1.322194482421875,0.08243657226562498,-0.4787165039062503,1.4086033965974876,7.814293507687091,5.738627783560185,-1.658499742581023,9.835936826691743
499,1790595219.8986392,1.604806787109375,-0.09000483398437503,-0.6511579101562502,1.734218071077546,7.843634204584432,5.7404290702643035,-1.6633985748239801,9.861136763314299
500,1790595219.9100327,1.992799951171875,-0.6169091308593752,-0.5888874023437503,2.1676293257306396,7.860915951718723,5.740697231187003,-1.666830356399714,9.875622903754456
501,1790595219.9300327,2.256252099609375,-1.048012646484375,-0.5984674804687503,2.55874331838141,7.893075121441759,5.7385999661007885,-1.6737318495865678,9.90118895628072
502,1790595219.9397173,2.021540185546875,-1.0384325683593751,-0.4403961914062503,2.314933201242635,7.90941879366824,5.736221270521856,-1.6773270354152425,9.913453792788598
503,1790595219.9597173,1.801198388671875,-0.5498485839843751,-0.4308161132812503,1.9319036270286736,7.943842076148049,5.72966336192866,-1.6849447313719466,9.938445950931456
504,1790595219.999498,1.6191769042968749,0.04890629882812497,-0.5170368164062503,1.7004272236685072,8.01224560439184,5.717081466814092,-1.700651764061574,9.98865939683055
505,1790595220.0194979,1.628756982421875,0.436899462890625,-0.5601471679687503,1.7769342413959894,8.046349296506955,5.712433384998674,-1.7089798351587553,10.014801258957894
506,1790595220.0297492,1.513796044921875,0.6859814941406249,-0.6224176757812503,1.7746979571322692,8.063623732263535,5.7112716316900585,-1.713517419501362,10.028798197860297
507,1790595220.0497491,1.734137841796875,0.8680029785156249,-0.7613288085937503,2.0833350138320768,8.0971422972893,5.7116760389192756,-1.7231178373540326,10.057638472202294
508,1790595220.059361,2.241881982421875,1.021284228515625,-0.9768805664062503,2.6501607384354613,8.113701025041017,5.713203205997202,-1.7282926994890269,10.072727081176945
509,1790595220.079361,2.452643701171875,0.992543994140625,-1.0391510742187504,2.842611415626955,8.15002939052325,5.718924968565207,-1.740469260804138,10.107339665326155
510,1790595220.1201265,2.380793115234375,0.6476611816406249,-0.8954499023437503,2.6247802558231355,8.227747425552993,5.733852917340489,-1.7674804734118876,10.183166707870408
511,1790595220.1401265,2.284992333984375,0.6428711425781249,-0.9098200195312504,2.5420947543840513,8.267155967177048,5.742013947040817,-1.7814525551551774,10.222043101059166
512,1790595220.1488278,2.227511865234375,0.834472705078125,-0.9912506835937503,2.576961723232498,8.284674364873187,5.745996063644526,-1.7878601612673835,10.239567571516503
513,1790595220.1688278,2.615505029296875,0.6237109863281249,-0.9816706054687503,2.8624393671106874,8.326164991977466,5.755963292663583,-1.803338232273124,10.281447645156769
514,1790595220.2690313,2.558024560546875,0.676401416015625,-1.0199909179687503,2.8357344728813576,8.541739630992108,5.808180953877531,-1.8842969860523437,10.499850334566338
515,1790595220.2890313,1.9784298339843749,0.9638037597656249,-1.1062116210937503,2.4630888018869026,8.585117528113672,5.819500223993275,-1.901221309129521,10.544452014916212
516,1790595220.2700262,1.317404443359375,1.3134766113281249,-1.2259625976562503,2.2279496329004163,8.585117528113672,5.819500223993275,-1.901221309129521,10.544452014916212
517,1790595220.2900262,0.9198312011718749,1.696679736328125,-1.3648737304687504,2.3638299148710877,8.624016093746501,5.835097156571441,-1.9203089026318823,10.588182029666568
518,1790595220.271027,1.326984521484375,1.356586962890625,-1.1876422851562503,2.23868495006222,8.624016093746501,5.835097156571441,-1.9203089026318823,10.588182029666568
519,1790595220.291027,1.810778466796875,1.1937256347656249,-1.0343610351562502,2.4028737582239614,8.659691634724442,5.854084316936331,-1.9406871455554349,10.631407667625227
520,1790595220.3287444,1.9401095214843749,1.136245166015625,-0.8475495117187503,2.4027938337408177,8.7274896339734,5.891111541144484,-1.978676786068452,10.713983028036075
521,1790595220.3487444,1.777248193359375,1.198515673828125,-0.39728583984375027,2.180111694329261,8.76362362120873,5.911302612365883,-1.9976667514862965,10.758032812701638
522,1790595220.3886974,2.179611474609375,1.370957080078125,-0.4403961914062503,2.612312826035642,8.83683589934901,5.9532864884011225,-2.032421878509085,10.847212887062058
523,1790595220.4086974,2.241881982421875,1.481127978515625,-0.25837470703125026,2.6993577756724108,8.87461993025246,5.975428735503453,-2.0482583274428108,10.89311661809665
524,1790595220.3896978,2.189191552734375,1.423647509765625,-0.05719306640625026,2.61201128126782,8.87461993025246,5.975428735503453,-2.0482583274428108,10.89311661809665
525,1790595220.4096978,2.232301904296875,1.404487353515625,-0.27753486328125027,2.651939312738759,8.914200739810182,5.99937229249967,-2.06060460174055,10.940819624614944
526,1790595220.449312,1.911369287109375,1.217675830078125,-0.2487946289062503,2.2799047669220855,8.993150310493986,6.047474405282947,-2.0829546116502278,11.035732830396238
527,1790595220.469312,2.040700341796875,0.997334033203125,-0.2727448242187503,2.287689401543228,9.032958719919927,6.071439391709742,-2.0933281727265203,11.083264066226734
528,1790595220.4793315,2.045490380859375,1.0739746582031249,-0.5505670898437502,2.374989807361237,9.052981001912576,6.083200940341352,-2.0983642460150786,11.106976690824302
529,1790595220.4993315,0.9102511230468749,1.097924853515625,-0.08114326171875026,1.4284888238616924,9.0913860739533,6.106414405258329,-2.107856430205711,11.152786932636076
530,1790595220.5093937,0.905461083984375,0.959013720703125,0.26852958984374975,1.3459848556832514,9.109180054816656,6.117893821865963,-2.1117742979401255,11.174317731840983
531,1790595220.5293937,1.576066552734375,1.160195361328125,-0.10509345703125027,1.959868283790034,9.142965038127482,6.140466955040999,-2.118148329711926,11.21542225959564
532,1790595220.5687332,1.6191769042968749,0.872793017578125,-0.25837470703125026,1.857487278065458,9.208878693933743,6.184205964470565,-2.1298776786744105,11.295318903718284
533,1790595220.5887332,1.010841943359375,0.26924809570312497,0.05776787109374974,1.0476798644743637,9.241307300407534,6.2048201709368715,-2.1352472480636986,11.334056413508549
534,1790595220.5991366,0.7617599121093749,-0.40614741210937505,0.9391350585937498,1.2756208458393548,9.257028517526718,6.213827816674205,-2.1368435365919156,11.352107003083246
535,1790595220.6191366,1.250343896484375,-0.9378417480468751,1.0876262695312497,1.9041633086554868,9.28573640374894,6.226531052566512,-2.1364118613596115,11.382391890540466
536,1790595220.629206,1.250343896484375,-1.0001122558593751,1.2456975585937498,2.028631753493543,9.299910431095496,6.230503836916185,-2.134464993910193,11.395764691255
537,1790595220.649206,1.207233544921875,-0.5258983886718751,1.1211565429687498,1.7294432459707805,9.32752661543293,6.234922022066001,-2.1276278457446316,11.41944856956067
538,1790595220.6893709,1.537746240234375,-0.559428662109375,1.0061956054687498,1.9209512028703553,9.382936668323357,6.239194508878403,-2.109548378430535,11.463735996712604
539,1790595220.7093709,1.973639794921875,-0.8755712402343752,0.7858538085937498,2.297704342448376,9.411656281425167,6.238850359178354,-2.099208095920834,11.48517315471949
540,1790595220.71952,1.801198388671875,-0.7366601074218752,0.5319817382812497,2.0174212051739984,9.426917669841552,6.237474693292817,-2.093744758831518,11.495939910184536
541,1790595220.73952,1.322194482421875,0.412949267578125,0.12482841796874974,1.3907938311887713,9.457165589240327,6.234684886329944,-2.083608451703595,11.517408597169462
542,1790595220.7791572,1.326984521484375,0.858422900390625,-0.3733356445312503,1.6239326647529855,9.515995995912524,6.233764751093854,-2.067271810661094,11.562336074745337
543,1790595220.7991571,1.312614404296875,0.38899907226562497,-0.6080475585937503,1.497998226335057,9.545187212299586,6.235241244705966,-2.061737248573676,11.586181112846722
544,1790595220.839044,0.8815108886718749,-0.38219721679687507,-0.5218268554687503,1.0933615259660274,9.601235848973728,6.237764540222115,-2.0557351186747237,11.632690280628262
545,1790595220.859044,0.2827560058593749,-0.9043114746093751,-0.36854560546875026,1.0166395945811166,9.626870408570301,6.236910218017575,-2.054512543488358,11.653184316845312
546,1790595220.8400521,0.3641866699218749,-1.249194287109375,-0.6224176757812503,1.4424014907855642,9.626870408570301,6.236910218017575,-2.054512543488358,11.653184316845312
547,1790595220.860052,0.9246212402343749,-1.6228173339843752,-0.9673004882812503,2.1033617786776135,9.648149439025387,6.229239239673929,-2.05727728486684,11.667158991360681
548,1790595220.8686295,1.255133935546875,-1.6132372558593753,-1.1876422851562503,2.3639775458631656,9.657308684141748,6.22436112255423,-2.0596714138797987,11.672554507815237
549,1790595220.8886294,1.1497530761718748,-0.9378417480468751,-1.6091657226562504,2.1888110022380003,9.679069295921588,6.210866260177215,-2.0686116969524675,11.684964548077511
550,1790595220.928696,0.689909326171875,-0.43009760742187503,-1.7480768554687502,1.9278826527759583,9.721652014158163,6.183776204794798,-2.0939239199183457,11.710427977566749
551,1790595220.948696,0.4695675292968749,-0.7079198730468751,-1.4079840820312504,1.644403656794176,9.741458837119735,6.170575021119752,-2.109397841534739,11.722694895817968
552,1790595221.01887,0.6372188964843749,-1.0575927246093753,-1.0104108398437504,1.5954561599922448,9.806355936408517,6.121911707671661,-2.1682755476547233,11.761965760816484
553,1790595221.03887,1.1449630371093749,-1.129443310546875,-0.7277985351562503,1.765296931357836,9.824750787696303,6.106842275127022,-2.185146218183319,11.772600163449813
554,1790595221.0198715,1.312614404296875,-1.287514599609375,-0.4643463867187503,1.8963828688937496,9.824750787696303,6.106842275127022,-2.185146218183319,11.772600163449813
555,1790595221.0398715,0.886300927734375,-1.3018847167968752,-0.19131416015625027,1.5865163907783573,9.84447284585374,6.08898889644649,-2.1998387508484325,11.78256007510824
556,1790595221.0492299,0.5126778808593749,-1.1917138183593752,-0.08114326171875026,1.2998479385349269,9.853298867937466,6.080137816987351,-2.205873683150985,11.786494523838527
557,1790595221.0692298,0.22527553710937487,-0.8468310058593751,-0.21047431640625028,0.9012054471492039,9.870438680307407,6.061001601470229,-2.2172738468331548,11.793116783386129
558,1790595221.0789504,0.23964565429687487,-0.5498485839843751,-0.5266168945312503,0.7981784628381912,9.87785850152121,6.052077726207391,-2.2225209028152606,11.795733658555589
559,1790595221.0989504,0.33544643554687487,-0.5929589355468751,-0.7613288085937503,1.0216389602793963,9.891697427224312,6.034756836072993,-2.233629228185585,11.800553698504606
560,1790595221.1091383,0.4983077636718749,-1.766518505859375,-0.18652412109375027,1.8449090781469695,9.898326532666834,6.025454303892678,-2.239163207288863,11.802407363943644
561,1790595221.1291382,0.4983077636718749,-2.782006787109375,0.8529143554687498,2.952174671089596,9.910883113942884,6.003108848469018,-2.247397899303463,11.803123199501005
562,1790595221.1702247,0.2588058105468749,-2.077871044921875,1.02056572265625,2.3293953982006625,9.935142136682876,5.949114139913691,-2.2560040176477556,11.79782024161478
563,1790595221.1902246,0.22527553710937487,-1.1150731933593752,0.5415618164062498,1.2599311469909094,9.94590570687035,5.921983798253673,-2.257221708732772,11.793472019685709
564,1790595221.1995277,0.15821499023437488,-0.9522118652343752,0.2637395507812498,1.0006487745829136,9.950429000525638,5.909814543301422,-2.257141277148789,11.79116754082171
565,1790595221.2195277,0.3833468261718749,-0.564218701171875,-0.09551337890625027,0.6887817778064517,9.95950697189205,5.885302441835698,-2.25674196167658,11.786494314962166
566,1790595221.2293239,0.4360372558593749,-0.6791796386718751,0.005077441406249739,0.8071178665443275,9.963888472571075,5.874183622310767,-2.2566421563381525,11.78463154045222
567,1790595221.2493238,0.35460659179687487,-1.407265576171875,0.33080009765624974,1.488479405780792,9.972677985232039,5.851758632792789,-2.2559651407917127,11.780779431347659
568,1790595221.289472,0.35460659179687487,-2.0060204589843753,0.38828056640624975,2.073795003142412,9.9898110790998,5.803217003166416,-2.2526447096907507,11.77064404227919
569,1790595221.309472,0.5845284667968749,-1.8718993652343752,-0.04282294921875027,1.9615082378212318,9.99847444918852,5.776846138506267,-2.2507205530545233,11.764658330227551
570,1790595221.3195515,0.9246212402343749,-1.8192089355468752,-0.5361969726562503,2.1099651140603903,10.00332646105038,5.762759232565135,-2.2503340062558754,11.761799921720188
571,1790595221.3395514,1.039582177734375,-2.1688817871093753,-0.5457770507812503,2.4663032862722263,10.014456212298054,5.733017993873854,-2.2513050122699214,11.756921484997173
572,1790595221.3491287,0.5653683105468749,-2.5041845214843748,-0.14341376953125026,2.571215462286993,10.020139234386619,5.717555639411996,-2.2521952879788727,11.75440412702661
573,1790595221.3691287,0.32586635742187486,-3.045458935546875,0.05297783203124974,3.0633014317380582,10.03156364031114,5.681784983349513,-2.2539112110587887,11.747130092663697
574,1790595221.4093304,0.2683858886718749,-3.011928662109375,-0.15299384765625026,3.027730564019002,10.052874809051595,5.602404449968947,-2.257144550553639,11.727827124816855
575,1790595221.4293303,0.4360372558593749,-2.791586865234375,-0.5984674804687503,2.8881220611021745,10.06294324693237,5.56013172415316,-2.2596390161944004,11.716819537076784
576,1790595221.43895,0.4935177246093749,-2.585615185546875,-0.6846881835937503,2.7198830013416244,10.06773026270076,5.538969484182394,-2.261584618175199,11.711282618670388
577,1790595221.45895,0.7234395996093749,-2.734106396484375,-0.6798981445312503,2.90877364683414,10.078015324784896,5.493591938940945,-2.2670697690522266,11.699809853837227
578,1790595221.4688969,0.6755392089843749,-2.782006787109375,-0.6511579101562502,2.935970301341095,10.083406890504767,5.470293932799577,-2.2703815472853623,11.694179860125153
579,1790595221.4888968,0.4360372558593749,-2.839487255859375,-0.4835065429687503,2.9131760917903278,10.094288907247588,5.42204338573794,-2.2777436587018007,11.6825228095032
580,1790595221.5298865,0.09594448242187488,-2.896967724609375,-0.11946357421875027,2.9010168711506554,10.114881477325502,5.320352836710621,-2.29242257220088,11.656422386691956
581,1790595221.5498865,0.12947475585937487,-2.782006787109375,-0.16736396484375027,2.790042324527657,10.1237601390266,5.269659389689906,-2.2989407247637823,11.642377673476682
582,1790595221.559735,0.6084786621093748,-2.475444287109375,-0.4595563476562503,2.5902244569720225,10.12802152733924,5.244557465103066,-2.3021320709778768,11.635377739258844
583,1790595221.579735,0.8958810058593749,-2.528134716796875,-0.4787165039062503,2.724561875613296,10.137633787478839,5.193722844555505,-2.3090481667758507,11.62230954808816
584,1790595221.6191537,0.4168770996093749,-2.590405224609375,-0.16257392578125027,2.628767016151526,10.157618211788778,5.093427332861295,-2.3225305885320773,11.59803250841576
585,1790595221.6391537,0.16779506835937488,-2.0826610839843753,-0.2631647460937503,2.105917391374906,10.167113842143456,5.043163594536185,-2.328983719662986,11.585675124342794
586,1790595221.649032,0.3977169433593749,-2.034760693359375,-0.2631647460937503,2.089900842112381,10.171519390624333,5.0190107405411135,-2.3320828992448455,11.579675564387117
587,1790595221.669032,0.1965353027343749,-2.552084912109375,0.19667900390624976,2.5671864276703324,10.17999238820196,4.970565219994956,-2.3375160844676564,11.567313649902399
588,1790595221.6788034,-0.019016455078125133,-2.753266552734375,0.5655120117187498,2.810808099349323,10.183641171921343,4.946558603782903,-2.3392138195307797,11.560575713717459
589,1790595221.6988034,0.1965353027343749,-2.154511669921875,0.5367717773437498,2.229051502770451,10.19025552700363,4.8974307382082385,-2.340514079129349,11.54574127961378
590,1790595221.7389805,0.5653683105468749,-1.3210448730468751,0.12482841796874974,1.442353291363334,10.203845559155713,4.80307066375424,-2.340740721041378,11.518116995379916
591,1790595221.7589805,0.8048702636718749,-1.3593651855468751,0.024237597656249738,1.5799611736242982,10.21165121278436,4.759123839256777,-2.340613020346587,11.506761035146182
592,1790595221.7695568,0.7042794433593749,-1.6563476074218753,0.19667900390624976,1.8105743733766686,10.216356869287958,4.736978018710131,-2.3403803848764615,11.501751552537756
593,1790595221.7895567,0.3641866699218749,-1.8479491699218753,0.29726982421874976,1.9068081742940948,10.225523315717561,4.6961249677135095,-2.3392655301905148,11.492914339426846
594,1790595221.7991095,-0.06691684570312513,-1.8718993652343752,0.5942522460937497,1.9651007174674735,10.229457789357534,4.676873902472366,-2.338174175001513,11.488342553933471
595,1790595221.8191094,0.4072970214843749,-1.4168456542968753,0.3834905273437498,1.5232883694075694,10.236970135344095,4.637681657943366,-2.334765390173817,11.478448420387867
596,1790595221.858954,1.417995263671875,-0.602539013671875,-0.12425361328125027,1.5457046261191019,10.255146083723545,4.565279164253937,-2.3282182887506226,11.464309636700955
597,1790595221.878954,2.117340966796875,-0.34387690429687506,-0.20089423828125028,2.1544703734235315,10.268203998431337,4.532968432062421,-2.3259126362746136,11.462708482337744
598,1790595221.8896549,2.189191552734375,-0.6456493652343751,0.01944755859374974,2.2824988422617767,10.277598909382663,4.517479655606171,-2.325009671361137,11.464830210381756
599,1790595221.9096549,1.825148583984375,-0.8468310058593751,0.10087822265624974,2.014563605824163,10.2985455809475,4.490634788385717,-2.323394693243447,11.472750532723403
600,1790595221.918792,1.365304833984375,-0.5450585449218751,-0.16736396484375027,1.4795799416799598,10.308866164062307,4.479256294071267,-2.3228131115439434,11.477452648026313
601,1790595221.938792,1.235973779296875,0.07764653320312498,-0.6176276367187503,1.3838800760422316,10.331969872695192,4.4573851026707505,-2.3229085453737635,11.489725301936625
602,1790595221.9795582,1.394045068359375,0.566230517578125,-1.0152008789062503,1.8151064641463621,10.380039789920824,4.421460435643227,-2.3280662116944257,11.520174942696451
603,1790595221.9995582,1.446735498046875,0.28840825195312497,-1.0295709960937502,1.7989550736750135,10.404346657026755,4.407761399244913,-2.33328417189591,11.537894302648004
604,1790595222.008842,1.485055810546875,-0.03252436523437503,-0.7709088867187504,1.673543876447486,10.415978558689028,4.402534460520658,-2.3365966204378172,11.54706035221878
605,1790595222.028842,1.5042159667968749,-0.06605463867187503,-0.6176276367187503,1.6274190571870288,10.44176220391648,4.3928152900024635,-2.344745009143548,11.568277886233618
606,1790595222.039249,1.714977685546875,-0.06605463867187503,-0.49787666015625026,1.787006672047458,10.45567887893289,4.388413418762492,-2.3492196910468235,11.580078855955177
607,1790595222.059249,2.093390771484375,-0.01336420898437503,-0.4547663085937503,2.1422595360155854,10.484124577839765,4.381103750737245,-2.3579581315992075,11.604779394230752
608,1790595222.0990143,2.366422998046875,0.26924809570312497,-0.4595563476562503,2.425622472561646,10.545499600004373,4.369513345991393,-2.375453229971512,11.65945911019338
609,1790595222.1190143,2.146081201171875,0.7674121582031249,-0.3062750976562503,2.299650055557506,10.57850662444154,4.3661133513854855,-2.3840812596180094,11.68980716919496
610,1790595222.1297302,1.944899560546875,1.0739746582031249,-0.07156318359375026,2.2228758751500317,10.596826883259954,4.366044813196257,-2.3883143803080884,11.707225669807736
611,1790595222.1497302,2.217931787109375,1.241626025390625,-0.08593330078125026,2.5432737035916264,10.63213469497914,4.369409480758297,-2.395266119578112,11.741862167744879
612,1790595222.1597867,2.308942529296875,1.735000048828125,-0.35896552734375026,2.9103774708533297,10.650639642627377,4.373092626673123,-2.3985728624202896,11.760663913865905
613,1790595222.1797867,0.9773116699218749,3.6366455566406253,-0.49787666015625026,3.798448390267772,10.686850672441325,4.387376254335946,-2.4054480015633004,11.800170667426611
614,1790595222.2191663,-0.3543191894531251,5.667622119140625,-0.06677314453125026,5.679079258666618,10.749294689083124,4.438761698909909,-2.418622147444135,11.878538412808517
615,1790595222.2391663,0.4168770996093749,4.316831103515625,1.0253557617187499,4.456475258603877,10.776345309554525,4.475921215420646,-2.422871490734842,11.917793219301387
616,1790595222.249492,1.609596826171875,1.3134766113281249,1.4468791992187497,2.531695512588447,10.789785594429544,4.496588602373082,-2.422821717287195,11.937706953452548
617,1790595222.269492,2.237091943359375,-0.5498485839843751,0.8481243164062497,2.4548378122459775,10.817683447163008,4.531760429491066,-2.419297269255203,11.975480242159446
618,1790595222.2795615,1.896999169921875,-0.49715815429687504,-0.11467353515625027,1.9644139331447914,10.832744729095037,4.546021800511851,-2.4172350336075112,11.994069275444629
619,1790595222.2995615,1.552116357421875,0.599760791015625,-1.1301618164062504,2.0114780447916685,10.863345557194629,4.570252417094681,-2.4156207222967243,12.03057385684363
620,1790595222.33902,1.638337060546875,1.447597705078125,-1.8151374023437503,2.8415508492891774,10.924104582478485,4.616945809517642,-2.421629825554612,12.104401701404559
621,1790595222.35902,1.992799951171875,1.423647509765625,-2.0881696289062504,3.218458680259692,10.955728205332163,4.641369673306718,-2.4300736935183322,12.143951214877793
622,1790595222.3690705,2.428693505859375,0.393789111328125,-2.0211090820312503,3.184101746344375,10.972569055612052,4.653172247429579,-2.4367780099024214,12.164997768761324
623,1790595222.3890705,3.099298974609375,-0.9426317871093751,-1.6762262695312504,3.647457104168655,11.009346502718147,4.67231245527065,-2.453664027604303,12.208877149719745
624,1790595222.3996232,3.3100606933593753,-1.5030663574218752,-1.3744538085937503,3.886493733494765,11.030913417280651,4.678960961753907,-2.463651656747759,12.232878074556098
625,1790595222.4196231,3.128039208984375,-1.2970946777343753,-1.3169733398437504,3.6333872177087922,11.075314189241842,4.685471262211541,-2.4837785548000886,12.279469909109135
626,1790595222.4596305,2.902907373046875,-1.095913037109375,-1.3026032226562503,3.365214964466706,11.16890561418828,4.689360475186353,-2.525860777970292,12.373945488589124
627,1790595222.4796305,2.414323388671875,-0.8899413574218752,-1.2211725585937503,2.8481951236880425,11.21665046002531,4.6880343065893,-2.5475280788066383,12.420982751556032
628,1790595222.4891298,2.093390771484375,-0.7845604980468751,-1.2020124023437504,2.538238348268283,11.239137576287686,4.686305908217676,-2.5580020199484927,12.442791120089506
629,1790595222.5091298,2.433483544921875,-0.535478466796875,-1.2594928710937503,2.7919351074379657,11.286170862476917,4.681232707017733,-2.5804384570704584,12.488004445266814
630,1790595222.5191832,2.663405419921875,-0.16185541992187505,-1.4606745117187503,3.041955890050366,11.31010984109021,4.678539288584541,-2.592075886921312,12.51104199880704
631,1790595222.5391831,2.395163232421875,-0.07563471679687503,-1.3696637695312504,2.7601641911120254,11.358177763336796,4.673628565994583,-2.6159999262205154,12.557645547252271
632,1790595222.57919,2.404743310546875,-0.31513666992187506,-0.9098200195312504,2.590342444212587,11.454309550909382,4.66410637888931,-2.6635174500318946,12.651064018819692
633,1790595222.59919,2.443063623046875,-0.31513666992187506,-0.4212360351562503,2.4990619808837335,11.502430203204,4.6591147396669985,-2.6857054896628605,12.697490488839403
634,1790595222.6091397,2.083810693359375,0.25966801757812497,-0.07156318359375026,2.101146300084291,11.526156670201326,4.656962573057436,-2.6954557077621106,12.720262161818503
635,1790595222.6291397,1.710187646484375,0.7913623535156249,0.03860771484374974,1.88480415863161,11.57238659281563,4.654861935308154,-2.71216431795616,12.764940516036662
636,1790595222.6398225,1.4994259277343749,1.093134814453125,0.12961845703124975,1.8601136469943766,11.595947497479052,4.655418084031779,-2.7196155820297605,12.788089177646514
637,1790595222.6598225,1.5856466308593749,0.992543994140625,0.36433037109374977,1.9058214600433119,11.638068474396993,4.65943162008496,-2.7307321421947846,12.830114530642991
638,1790595222.6992877,1.959269677734375,0.6332910644531249,0.6134124023437497,2.1485041349168177,11.719209374524254,4.670975703842471,-2.7464836285051,12.91127626191425
639,1790595222.7192876,2.045490380859375,0.331518603515625,0.7858538085937498,2.2161908065747595,11.760168678689572,4.677395634485474,-2.7511698250623287,12.951777201568458
640,1790595222.729764,1.801198388671875,0.22613774414062499,0.9008147460937498,2.0265540016143455,11.78142806227821,4.6806922439057805,-2.751931072351048,12.97243430107732
641,1790595222.749764,1.523376123046875,0.21176762695312498,0.6517327148437497,1.6704118868387792,11.820912540053218,4.68669851239075,-2.750837530036829,13.010235330011989
642,1790595222.7593174,1.4275753417968748,0.245297900390625,0.07692802734374975,1.4505379477399114,11.839058456409012,4.6894646759792575,-2.749871437761681,13.027516148742418
643,1790595222.7793174,1.801198388671875,0.09680668945312497,-0.6176276367187503,1.9066072139053238,11.876191607107872,4.694900119346631,-2.7489633605199577,13.063032334678715
644,1790595222.8191803,1.992799951171875,-0.02773432617187503,-1.2451227539062504,2.3499684062842037,11.950444587235545,4.704315210927529,-2.7529940134068256,13.134789053281567
645,1790595222.8391802,1.810778466796875,-0.24807612304687504,-1.4846247070312504,2.3546912620063027,11.987815994071408,4.707916670660374,-2.758807549369216,13.17130330605338
646,1790595222.8492393,1.681447412109375,-0.47799799804687504,-1.4271442382812503,2.2566541965231415,12.006427407349586,4.708908566368926,-2.763489648301569,13.189578992926494
647,1790595222.8692393,1.566486474609375,-0.38219721679687507,-1.3121833007812502,2.0788890308312666,12.042752728721656,4.709294585812624,-2.7755114172891027,13.225309539235713
648,1790595222.8788934,1.758088037109375,-0.20975581054687503,-1.2882331054687504,2.1896153955229063,12.060064079723817,4.709024362959355,-2.7823267570409365,13.242409079957294
649,1790595222.8988934,1.729347802734375,-0.16185541992187505,-0.9864606445312503,1.9974848192137298,12.095779101646063,4.707991106303231,-2.797740050261486,13.27781615031949
650,1790595222.9394076,1.772458154296875,-0.00857416992187503,-0.7230084960937503,1.9142681919070483,12.167915715522776,4.70569412488797,-2.8294738656177136,13.349443899027591
651,1790595222.9594076,2.064650537109375,-0.27681635742187505,-0.39728583984375027,2.1206709255947045,12.203940274746927,4.7043022140513395,-2.844469980946567,13.384977662410371
652,1790595222.9694674,1.853888818359375,-0.6695995605468751,0.23020927734374974,1.9845058915754368,12.22229882387248,4.702993052859912,-2.8510075272509607,13.402648100868904
653,1790595222.9894674,1.777248193359375,-0.8516210449218752,0.46492119140624977,2.0248509227031,12.258769401148658,4.698498889403737,-2.8610125482813578,13.436469471021404
654,1790595223.0298467,1.3461446777343749,-0.32471674804687506,0.48887138671874975,1.4685168342947368,12.330816363047662,4.687223883847843,-2.8752938680811186,13.50134862687215
655,1790595223.0498466,1.360514794921875,0.13033696289062496,0.23020927734374974,1.3859958666864758,12.36520866257958,4.6821854520954,-2.88022779143078,13.532071460329979
656,1790595223.0590758,1.370094873046875,0.312358447265625,0.23499931640624974,1.4247639942948198,12.380588818109839,4.6805156030778035,-2.8818410646313195,13.545892872585274
657,1790595223.0790758,1.4658956542968749,0.25966801757812497,0.16793876953124975,1.4981591967982195,12.413172760262166,4.678297811125299,-2.8842082773075832,13.575418438213386
658,1790595223.089486,1.4658956542968749,0.15428715820312497,0.04339775390624974,1.4746314663389515,12.429877833683323,4.677639794637273,-2.88509059735249,13.590655788577607
659,1790595223.1094859,1.3461446777343749,0.240507861328125,-0.12904365234375026,1.373536235038387,12.461375818717359,4.677157424261905,-2.886659923425818,13.619636352713487
660,1790595223.1495192,1.480265771484375,0.293198291015625,-0.3014850585937503,1.5388454219439949,12.523453374944856,4.677939163344514,-2.890622666668246,13.677561867943654
661,1790595223.1695192,1.4658956542968749,0.283618212890625,-0.3302252929687503,1.5291625499226795,12.554233576942124,4.679136349374314,-2.8932529929628505,13.7067140687236
662,1790595223.179294,1.326984521484375,0.18302739257812498,-0.33980537109375025,1.3819749045902476,12.569068253218527,4.679975808794596,-2.8948369339909896,13.720923117610084
663,1790595223.199294,1.1401729980468749,0.02974614257812497,-0.3541754882812503,1.1942862198705717,12.598568600739714,4.681754908279048,-2.8986326033171226,13.749357467814727
664,1790595223.2089102,1.240763818359375,-0.09000483398437503,-0.4260260742187503,1.314950165977605,12.612342141481172,4.682438542489243,-2.9007465303217073,13.762657280886714
665,1790595223.2289102,1.566486474609375,-0.06605463867187503,-0.5745172851562503,1.6698243025442792,12.640902705534733,4.683413023122748,-2.9059844710611253,13.7902691961397
666,1790595223.269799,1.518586083984375,-0.08042475585937503,-0.5026666992187503,1.6016384255909673,12.699995407341197,4.684657248929702,-2.918390189858072,13.84748707118721
667,1790595223.289799,1.2311837402343748,-0.23849604492187504,-0.29669501953125027,1.288689916262066,12.728688529433606,4.68469616939254,-2.924747051747223,13.875158925055954
668,1790595223.2997308,1.2216036621093749,-0.24328608398437504,-0.21047431640625028,1.26325099002778,12.742626999261928,4.684353725418055,-2.9278080789231162,13.888476259624904
669,1790595223.3197308,1.4994259277343749,-0.16185541992187505,-0.3014850585937503,1.5379754647833153,12.770566621421555,4.683159862147615,-2.9338154902547995,13.914978672547646
670,1790595223.3297734,1.4275753417968748,0.08243657226562498,-0.4020758789062503,1.4854063946784406,12.784696254432546,4.68259048658266,-2.9369094582758817,13.928407990479254
671,1790595223.3497734,1.202443505859375,0.21176762695312498,-0.4308161132812503,1.2947271666538498,12.812559579011698,4.682067967313539,-2.943396189099671,13.955179129709315
672,1790595223.3903875,1.135382958984375,0.27882817382812497,-0.4451862304687503,1.2510117480948837,12.867775680594262,4.682660429763396,-2.9572613040941453,14.00900974684712
673,1790595223.4103875,1.192863427734375,0.302778369140625,-0.48829658203125026,1.3240209401928131,12.894380024752225,4.683780827623378,-2.964465091920845,14.035344397098305
674,1790595223.4194665,1.298244287109375,0.374628955078125,-0.5122467773437502,1.445054270224518,12.906341750769398,4.684674403516737,-2.967926017302418,14.047363329066377
675,1790595223.4394665,1.2263937011718749,0.40815922851562497,-0.40686591796875027,1.3550554753592465,12.932526502101826,4.687521765640873,-2.9757851133019835,14.074032793463028
676,1790595223.4497,1.154543115234375,0.441689501953125,-0.29669501953125027,1.2712542451002256,12.945742463638764,4.689412447747431,-2.9797432702880298,14.087643770225567
677,1790595223.4697,1.1401729980468749,0.365048876953125,-0.17694404296875027,1.2101918618062442,12.971138708909601,4.693763329394417,-2.987028964403748,14.113971646291759
678,1790595223.5090206,1.159333154296875,0.345888720703125,-0.16736396484375027,1.2213529655631112,13.020360245472947,4.70313076133218,-3.0002196210672696,14.165116930499316
679,1790595223.5290205,1.1832833496093749,0.465639697265625,-0.19131416015625027,1.2859163740339792,13.045154821634036,4.708398009360738,-3.006460544031588,14.19097886467923
680,1790595223.5398953,1.1018526855468749,0.5231201660156249,-0.10509345703125027,1.2242461694650528,13.058478081353563,4.711638850112802,-3.009586708451441,14.204964013005148
681,1790595223.5598953,0.9964718261718749,0.585390673828125,-0.06677314453125026,1.1576255846299566,13.082453192062099,4.71836786911088,-3.014731494301149,14.230326168204472
682,1790595223.5696406,1.010841943359375,0.575810595703125,-0.09072333984375026,1.1668718871285528,13.093850309111453,4.722003606167775,-3.0169774667799283,14.242485282040398
683,1790595223.5896406,1.077902490234375,0.599760791015625,-0.11946357421875027,1.2392975149084555,13.116864762876176,4.730109207999003,-3.0212106624528343,14.26722776835424
