imu_index,t_imu,ax,ay,az,mag,vx,vy,vz,velocity
0,1791341410.9710388,0.01940454599808668,-0.04638517418686225,0.02624745894451424,0.056719043457919616,0.0,0.0,0.0,0.0
1,1791341410.9910388,-0.01891576650191332,0.006305255500637751,0.03582753706951424,0.041002132648810426,2.5473941097954026e-05,-0.00011926086138145719,0.00012657788346110677,0.0001757669915370992
2,1791341411.0164757,-0.0045456493144133215,0.05420564612563775,0.03582753706951424,0.06513468670420478,8.254124441120148e-06,-0.0001327493719691491,0.0004001183321920835,0.0004216458301521165
3,1791341411.0364757,0.02898462412308668,0.06857576331313775,0.01666738081951424,0.07629249853634903,3.3404197498902466e-05,4.2407920196889284e-05,0.0006616732871310598,0.0006638718332696405
4,1791341411.0459044,0.03377466318558668,0.08294588050063775,0.00708730269451424,0.089838615443525,8.78629534377005e-05,0.00021974662651502518,0.0007832823171486971,0.0008182540356205777
5,1791341411.0659044,0.02898462412308668,0.06378572425063775,0.01666738081951424,0.07201755783916675,0.0002801907374144376,0.0007595848789527879,0.001038174955978044,0.0013165421667711906
6,1791341411.0914323,0.02419458506058668,0.011095294563137752,0.02624745894451424,0.037381982407848825,0.0005906713980288018,0.001488643438909769,0.0013968825465495121,0.002125143015778715
7,1791341411.1114323,0.00982446787308668,-0.036805096061862254,0.011877341757014239,0.039902462484477506,0.0008484601797345937,0.0019355851187632625,0.0016929459931355343,0.002707847958111148
8,1791341411.1363835,0.01461450693558668,-0.02243497887436225,-0.01686289261798576,0.03164283864493055,0.0011675602483200858,0.0022986761113445416,0.0019975702469946467,0.003261502060401247
9,1791341411.1563835,-0.03807592275191332,-0.01764493981186225,-0.007282814492985761,0.04259294755371076,0.001349780216104715,0.002485940630832517,0.002168900989741667,0.0035645390943450242
10,1791341411.1661434,-0.057236079001913326,-0.01285490074936225,0.0022972636320142395,0.05870685337321524,0.0013555966877062955,0.0025412915939315717,0.0022363189560198555,0.003646495278779514
11,1791341411.1861434,-0.009335688376913322,-0.008064861686862249,0.01666738081951424,0.020736408919621648,0.0012658703722511736,0.0026063233359035123,0.002382195785917095,0.003751027311692052
12,1791341411.21172,-0.047656000876913324,-0.01285490074936225,0.04540761519451424,0.0670685799052686,0.0010590133267022088,0.0026368840246559777,0.0026598398119291626,0.0038922248664153706
13,1791341411.23172,-0.04286596181441332,0.01588533362563775,0.04061757613201424,0.061152448826784785,0.0007857389147411462,0.0026617424315409292,0.002973419029898429,0.004067367593587543
14,1791341411.2560554,0.005034428810586679,0.025465411750637754,0.01666738081951424,0.030848569698789855,0.00043405516916718507,0.0027629238299298367,0.0034022937066163516,0.004404288188340557
15,1791341411.2760553,0.03377466318558668,0.01588533362563775,-0.007282814492985761,0.03802776728440529,0.00024659283042352277,0.0028956322378908546,0.0037159697781226383,0.004717406646988353
16,1791341411.2870517,-0.03328588368941332,0.020675372688137753,0.0022972636320142395,0.039251732560149744,0.00015938635866697375,0.002987805396056498,0.0038584530002125383,0.004882626818719877
17,1791341411.3070517,-0.08118627431441333,0.025465411750637754,0.02624745894451424,0.08904284044059156,-0.00014714006106402968,0.003199513187556205,0.004121544433621436,0.005219737862501511
18,1791341411.3307507,-0.03328588368941332,0.04941560706313775,0.03103749800701424,0.06718019467773961,-0.0006593427163325101,0.003545843121447955,0.0044883527651636695,0.005757868251710252
19,1791341411.3507507,0.02898462412308668,0.03983552893813775,0.04061757613201424,0.06384955201235011,-0.0010332118000488525,0.003928151785070763,0.004858957084965164,0.006333037740598738
20,1791341411.3758218,0.02419458506058668,0.035045489875637756,0.050197654257014244,0.06582832824691914,-0.0013315837498424834,0.004476312547469581,0.005424608249214522,0.007157993012215395
21,1791341411.3958218,0.00024438974808667916,0.04462556800063775,0.02624745894451424,0.05177287076039414,-0.0014972423085280297,0.0049675102377182406,0.0059228267390384,0.007873866208728094
22,1791341411.4067106,0.00982446787308668,0.01588533362563775,0.011877341757014239,0.022134480807103736,-0.0015656821160271487,0.005244241186667445,0.006184524880800913,0.008258436541720955
23,1791341411.4267106,0.03856470224808668,0.001515216438137751,0.02145741988201424,0.044158272252558126,-0.001599948957493037,0.005702383644072271,0.006643098909008627,0.008899875224161158
24,1791341411.4517906,0.043354741310586684,-0.003274822624362249,0.02624745894451424,0.050786682884127084,-0.0014823837066048396,0.006187407670465018,0.007221625515186584,0.009624622081709533
25,1791341411.4717906,0.00982446787308668,0.011095294563137752,0.03582753706951424,0.03877161517011541,-0.0013229255709332926,0.006527902796913024,0.00770688131828651,0.010186248899684695
26,1791341411.496311,-0.01891576650191332,0.01588533362563775,0.02145741988201424,0.03271957999036332,-0.0011734705665529717,0.006932357033246509,0.008317923806578104,0.010891394018168991
27,1791341411.516311,-0.028495844626913323,0.01588533362563775,0.0022972636320142395,0.03270526571660866,-0.0011409708070979933,0.007260420985667808,0.008777191366065924,0.011447908784940486
28,1791341411.541388,-0.02370580556441332,-0.02243497887436225,-0.01686289261798576,0.03673759167387771,-0.001204513247784335,0.007597745855405292,0.009239273823881743,0.012022511178621654
29,1791341411.561388,-0.03807592275191332,-0.05596525231186225,-0.021652931680485762,0.0710685219355226,-0.0013402617161932726,0.0077088210366745916,0.009494749795015056,0.012303353076023971
30,1791341411.5715084,-0.01891576650191332,0.001515216438137751,-0.01686289261798576,0.025386201973809072,-0.0014419078158579303,0.007715267190055653,0.009575399726985897,0.012381143965520433
31,1791341411.5915084,-0.047656000876913324,0.04462556800063775,0.03103749800701424,0.07229012395545688,-0.001712507974620404,0.007795306389644656,0.0097321353747885,0.012586260136545048
32,1791341411.615951,-0.04286596181441332,0.05420564612563775,0.04540761519451424,0.08268974707801258,-0.002159556268518783,0.008059629703960864,0.010035093867478678,0.0130508399412059
33,1791341411.635951,0.005034428810586679,0.020675372688137753,0.05977773238201424,0.06345229545081857,-0.0025272275209746093,0.008355789124605119,0.010403580670291684,0.013580890309582337
34,1791341411.660282,0.09604517099808668,0.025465411750637754,0.05498769331951424,0.11356411618236714,-0.0027229710244521844,0.008746234769099024,0.010994044545552686,0.014310143580893926
35,1791341411.6802819,0.08646509287308668,0.025465411750637754,0.05977773238201424,0.10815764776434784,-0.002585972002777925,0.00909543555696454,0.011578750013186296,0.014949302694035858
36,1791341411.6903477,-0.0045456493144133215,0.04462556800063775,0.03103749800701424,0.05454750708881739,-0.00246552046169174,0.009297736587309419,0.011897444610023039,0.015299538719928098
37,1791341411.7103477,-0.009335688376913322,0.035045489875637756,-0.03602304886798576,0.051117526229655846,-0.002282913464283055,0.009758906543343122,0.01242820529954937,0.01596584597742497
38,1791341411.7359326,-0.01891576650191332,-0.03201505699936225,-0.021652931680485762,0.04303044907257074,-0.0021385646444656565,0.010266179693660471,0.012894660958795944,0.01662047488742068
39,1791341411.7559326,0.02419458506058668,-0.036805096061862254,0.011877341757014239,0.04561868355827234,-0.00203473343916986,0.010500008653983447,0.013189935381008532,0.016981304933879022
40,1791341411.7805066,0.02419458506058668,0.025465411750637754,0.03582753706951424,0.05017447114171609,-0.0018371085514350659,0.010723319454635998,0.013586241949334311,0.01740547380170336
41,1791341411.8005066,0.005034428810586679,0.08294588050063775,0.011877341757014239,0.0839430510089302,-0.0016565508935481102,0.011040419578054168,0.013931958631878126,0.017853136885230006
42,1791341411.8105721,0.06730493662308669,0.05420564612563775,0.0022972636320142395,0.08644931454864496,-0.0015247005687433325,0.011279608709762943,0.014090552214210206,0.01811347416071998
43,1791341411.8305721,0.11999536631058669,-0.02243497887436225,0.03582753706951424,0.1272235380170367,-0.0010210648714867444,0.011731237534042373,0.014415592268498057,0.01861380691861527
44,1791341411.855654,0.048144780373086685,-0.036805096061862254,0.05498769331951424,0.08183019852045217,-0.00016790374576479232,0.012101226204161713,0.014932914871194615,0.019221337462894648
45,1791341411.875654,-0.01891576650191332,-0.03201505699936225,0.02624745894451424,0.045515922467541846,0.0004541950070716485,0.012248766875048164,0.015405398230926428,0.019686667511723693
46,1791341411.900353,0.05293481943558668,-0.04638517418686225,-0.021652931680485762,0.07363782277731669,0.0011702343091799777,0.012258411012618618,0.01590987848985759,0.020118705784784086
47,1791341411.920353,0.09125513193558668,-0.04638517418686225,-0.0024927754304857608,0.10239774127525332,0.0018793596300211712,0.01212589355804967,0.016220887207813072,0.02033928388632937
48,1791341411.9304338,0.00982446787308668,0.025465411750637754,0.01666738081951424,0.03198138439782654,0.0022595961014027326,0.012053301821769063,0.01636485110120343,0.020449846232006123
49,1791341411.9504337,-0.04286596181441332,0.04941560706313775,0.03582753706951424,0.074585557021186,0.0028512533189146015,0.012043206710276384,0.01668636980630084,0.020775067043639017
50,1791341411.9759917,-0.04286596181441332,0.001515216438137751,0.050197654257014244,0.06602719936538187,0.0033295855419969234,0.012129867969829502,0.017200505863862542,0.021309088174291745
51,1791341411.9959917,-0.01891576650191332,-0.05117521324936225,0.04540761519451424,0.07098281616789862,0.0035550772791719015,0.012113021065633969,0.017685892910048583,0.021729120134581687
52,1791341412.0202968,-0.047656000876913324,-0.01764493981186225,0.03582753706951424,0.062177574196908184,0.003666650482373362,0.011970167673882797,0.018335364344450586,0.02220168519605004
53,1791341412.0402968,-0.03328588368941332,0.011095294563137752,0.01666738081951424,0.038844011093225904,0.00362327662896001,0.011860425715625534,0.01886837350741895,0.022579046713741228
54,1791341412.0502272,0.02898462412308668,-0.02722501793686225,0.01666738081951424,0.043117416673564765,0.0036017675916920682,0.01180209702360087,0.019118152340587266,0.02275447149148831
55,1791341412.0702271,0.01461450693558668,-0.01764493981186225,0.04540761519451424,0.050860389613014506,0.0036303445161028586,0.011634938208635093,0.019638865646610826,0.02311355083733319
56,1791341412.096164,-0.03807592275191332,0.07815584143813775,0.04061757613201424,0.09595779767769252,0.0036162067133940546,0.0115683858597679,0.02038019832435151,0.023711958715685513
57,1791341412.116164,-0.03807592275191332,0.04941560706313775,0.02624745894451424,0.06768018333213985,0.003492712605322934,0.011716121932210811,0.020966393159257427,0.024270479941327274
58,1791341412.1402779,0.01940454599808668,-0.02722501793686225,0.00708730269451424,0.03417554486087972,0.0033323827550534174,0.011907660595863007,0.02162743724164365,0.0249127115612428
59,1791341412.1602778,0.05293481943558668,-0.04638517418686225,0.0022972636320142395,0.07041986163873579,0.0033278612239822972,0.01193227769947134,0.022107541626485105,0.02534161218608946
60,1791341412.1853814,-0.028495844626913323,-0.02722501793686225,-0.0024927754304857608,0.03948960232783422,0.003369050102104868,0.01181995086335797,0.02261939818827657,0.02574293905913812
61,1791341412.2053814,-0.047656000876913324,-0.02243497887436225,-0.026442970742985763,0.05893770778023052,0.0032827152997511925,0.011669393891084791,0.02292262075115191,0.02593062890918089
62,1791341412.2153912,-0.014125727439413321,-0.02243497887436225,-0.01686289261798576,0.03142008275341415,0.00319960559488221,0.011571659297711801,0.023019105196919538,0.02596189474849572
63,1791341412.2353911,-0.02370580556441332,0.05420564612563775,-0.0024927754304857608,0.059215126603786555,0.0030017098263136156,0.011453328699102356,0.023153935101084634,0.0260056476719252
64,1791341412.261064,-0.09076635243941332,0.06857576331313775,0.00708730269451424,0.11397980482795604,0.002565373259624035,0.011560629933039931,0.023309894603318372,0.02614537226408727
65,1791341412.281064,-0.09555639150191332,0.035045489875637756,-0.026442970742985763,0.10515912237749402,0.001996957855193855,0.011787113954836635,0.023384133751368445,0.026262932192761983
66,1791341412.3059342,0.043354741310586684,0.035045489875637756,-0.16056406449298577,0.169966581307147,0.001298782867889551,0.012157241672190875,0.023113786167963304,0.02614827858640621
67,1791341412.3259342,0.06730493662308669,0.035045489875637756,-0.18930429886798578,0.20394670486271854,0.0009875350562691763,0.012515378661256774,0.022404188165341222,0.02568185304587692
68,1791341412.3362536,-0.04286596181441332,0.03025545081313775,0.03103749800701424,0.06096071906331447,0.0008699434263305921,0.012722989987146669,0.02197048189840171,0.02540341218470557
69,1791341412.3562536,-0.09555639150191332,0.04462556800063775,0.2609593730070143,0.28146449089798253,0.00046859321364000576,0.013177324002825792,0.021694002251667788,0.02538683086111154
70,1791341412.380439,0.01461450693558668,0.10689607581313776,0.23221913863201424,0.25605874947795293,-9.076816620254974e-05,0.013919171521712296,0.02230439366936207,0.02629139691360505
71,1791341412.400439,0.06251489756058669,0.035045489875637756,0.050197654257014244,0.08749916154193031,-0.00036825050286375246,0.01465352990514672,0.02315706391259676,0.027406407210102894
72,1791341412.4257803,0.02898462412308668,-0.07991544762436226,-0.007282814492985761,0.08532072779517325,-0.0004931968227634622,0.015359157994434228,0.02415695786320967,0.028630501054100754
73,1791341412.4457803,-0.047656000876913324,-0.13260587731186227,0.050197654257014244,0.14958348040520977,-0.0006050230705330672,0.015513741101504773,0.0248921006807201,0.029336988464726602
74,1791341412.4555094,0.02898462412308668,-0.07033536949936225,0.11246816206951424,0.135780190445672,-0.0006648862521804796,0.015429576146463722,0.025314769224525774,0.02965386036722467
75,1791341412.4755094,-0.02370580556441332,-0.01764493981186225,0.09809804488201425,0.10245260137300416,-0.0007615684785653728,0.0151505422602912,0.02636915763741228,0.03042123258244334
76,1791341412.5007236,-0.10992650868941332,-0.01285490074936225,0.0022972636320142395,0.11069942730707595,-0.001117880914803608,0.014793851172272129,0.02768889883411655,0.03141309932007602
77,1791341412.5207236,-0.10992650868941332,-0.02722501793686225,-0.06476328324298576,0.1304581226705234,-0.0016878940731181232,0.014493242109188183,0.02848499941865019,0.032004659740702046
78,1791341412.5455146,-0.047656000876913324,-0.05596525231186225,-0.08871347855548577,0.11520974422038008,-0.002581467666251072,0.014021837045147343,0.029038422596827002,0.032349743064582125
79,1791341412.5655146,-0.04286596181441332,-0.07991544762436226,-0.045603126992985764,0.10150672215580264,-0.0033300024957646094,0.013494758648130573,0.029216447868295973,0.03235426175380841
80,1791341412.5755677,-0.07639623525191333,-0.01764493981186225,0.02624745894451424,0.08268408409527124,-0.0037397433248249484,0.013196000087756593,0.029277916958208024,0.032331355057642876
81,1791341412.5955677,-0.07160619618941333,0.058995685188137754,0.09330800581951425,0.13158389777457236,-0.004654622330835809,0.012752822629469553,0.029561194789738364,0.032529436383962766
82,1791341412.6206474,-0.0045456493144133215,0.06857576331313775,0.07893788863201424,0.10466369238350709,-0.005773022248335785,0.012520403749156578,0.03018712863663327,0.03318660921586173
83,1791341412.6406474,0.02419458506058668,0.011095294563137752,0.04540761519451424,0.05263397216009674,-0.006501642465089103,0.012482367950108812,0.030797928253761993,0.033861382858791
84,1791341412.665342,-0.03807592275191332,-0.01764493981186225,0.05498769331951424,0.0691720045319988,-0.007292057202665936,0.012430317824906547,0.03162491995179737,0.034753740250982094
85,1791341412.685342,-0.06202611806441333,0.006305255500637751,0.050197654257014244,0.08004248910407274,-0.007986336915975221,0.012377476660121066,0.03235200444235006,0.03554765389227745
86,1791341412.6959007,0.005034428810586679,0.011095294563137752,0.05977773238201424,0.06100678916012031,-0.008343020248009156,0.012367544070507745,0.03276536617348813,0.03600182431040686
87,1791341412.7159007,-0.009335688376913322,-0.04638517418686225,0.04061757613201424,0.06235805443289872,-0.008923753558572056,0.012298617240170605,0.033581496021308714,0.03685927615436204
88,1791341412.7405436,-0.052446039939413325,-0.04638517418686225,-0.01686289261798576,0.0720175578391673,-0.009646157007968562,0.012054968279662836,0.03448015403968876,0.03777898394407561
89,1791341412.7605436,-0.047656000876913324,-0.07512540856186226,-0.055183205117985766,0.10469053232389632,-0.010294661371358396,0.01170462086306964,0.03499202600379418,0.03830691955964812
90,1791341412.7862146,0.02419458506058668,-0.09907560387436225,-0.026442970742985763,0.10535930870615044,-0.011047362659710064,0.010986991624954005,0.0353933309719997,0.03867099796999657
91,1791341412.8062146,0.02419458506058668,-0.11823576012436225,0.050197654257014244,0.1307091328536244,-0.011473236652936987,0.010185792802294613,0.03569471718238493,0.03885226337082589
92,1791341412.8156703,-0.03328588368941332,-0.06554533043686225,0.07893788863201424,0.10786718989916673,-0.011650828611372425,0.009733484429485016,0.0359074141360885,0.038984931914922846
93,1791341412.8356702,-0.057236079001913326,-0.05596525231186225,0.06935781050701424,0.1059178175953912,-0.012105896780720488,0.008738031912813055,0.03651225666982479,0.039446810082666546
94,1791341412.8604486,-0.01891576650191332,-0.05596525231186225,0.04540761519451424,0.07451018189709639,-0.012726639552770383,0.007481730094084631,0.03736248267059355,0.04017335871964497
95,1791341412.8804486,0.005034428810586679,-0.04638517418686225,0.04540761519451424,0.06510592427304522,-0.01317334180222564,0.006466278900159455,0.03808202989511151,0.04081164904760747
96,1791341412.9059072,-0.028495844626913323,-0.06075529137436225,0.09330800581951425,0.11493303502909573,-0.013701466430219335,0.005162997153961945,0.03912543575850113,0.04177542872602082
97,1791341412.9259071,-0.02370580556441332,-0.06075529137436225,0.13641835738201424,0.15120561787925868,-0.014132424482700953,0.004110464002735455,0.04016676009251519,0.04277838183483219
98,1791341412.9509969,0.00982446787308668,-0.05117521324936225,0.14120839644451424,0.15051655671898065,-0.014618082455269221,0.0027775090659610396,0.04179955859459614,0.04436897553452887
99,1791341412.9709969,0.02898462412308668,-0.05596525231186225,0.08372792769451425,0.10479782334526241,-0.014888934754387422,0.0017136320618286712,0.043243293363908655,0.045766792917144625
100,1791341412.9810855,0.00982446787308668,-0.05117521324936225,0.01666738081951424,0.054710366508457293,-0.014975702987931484,0.0011764061977955764,0.04393828688358368,0.04643520933288719
101,1791341413.0010855,-0.009335688376913322,-0.09428556481186226,-0.012072853555485761,0.09551270387930036,-0.015121179060393532,5.296013998666994e-05,0.04511628093501673,0.04758289258084533
102,1791341413.0257614,0.03377466318558668,-0.08949552574936226,-0.031233009805485764,0.10062642746298885,-0.015228514447248521,-0.0014653467626439866,0.04627152644830128,0.04873509057404831
103,1791341413.0457613,0.005034428810586679,-0.09428556481186226,0.011877341757014239,0.0951639871619178,-0.015244247663960082,-0.0027870285793515455,0.04703837875294932,0.0495253843079303
104,1791341413.0713444,-0.0045456493144133215,-0.06554533043686225,0.04061757613201424,0.07724403381884623,-0.015260416237565815,-0.00453073834828803,0.04797288516787311,0.05054508487533036
105,1791341413.0913444,0.05772485849808668,-0.06554533043686225,0.03103749800701424,0.09269129362155328,-0.01519139155567458,-0.0058860734617413165,0.04870134942316458,0.0513541203199121
106,1791341413.1005847,0.03856470224808668,-0.10386564293686225,0.06935781050701424,0.13071271522119887,-0.015097552922566659,-0.006535743213467722,0.04905700652521914,0.05174207120726309
107,1791341413.1205847,-0.028495844626913323,-0.07991544762436226,0.08851796675701425,0.12261289642121358,-0.01490981024500255,-0.008006642990937408,0.0499481392860014,0.05273732446436875
108,1791341413.1456733,-0.052446039939413325,0.08294588050063775,0.13162831831951424,0.16418471421230413,-0.014861930504491309,-0.009569308776710035,0.051312558675426036,0.054271791260316705
109,1791341413.1656733,0.01940454599808668,0.17395662268813775,0.2801195292570143,0.3303095421776765,-0.01487904941799901,-0.010242816680418257,0.052854709523235045,0.05585625948734362
110,1791341413.1907327,0.18705591318558668,-0.06554533043686225,0.3902904276945143,0.437735905483818,-0.014509247446434578,-0.010756366899861196,0.0557571520047438,0.05860953582845033
111,1791341413.2107327,0.2924367725605867,-0.2667269710618623,0.37592031050701424,0.545874182288536,-0.013539140684327685,-0.011603160071419814,0.05887544288345328,0.061516334650528214
112,1791341413.220449,0.2924367725605867,-0.11823576012436225,0.29448964644451425,0.4315357607207693,-0.012712333588692398,-0.012233366716582069,0.060651657488192984,0.06316551466233494
113,1791341413.240449,0.2924367725605867,0.08773591956313775,0.3807103495695143,0.48801355288207254,-0.010388408913195299,-0.013381751514417508,0.06477219355613872,0.06695093256568777
114,1791341413.2655332,0.07688501474808668,0.13084627112563776,0.4190306620695143,0.4456666331628529,-0.007216102575540747,-0.0141948009222007,0.07066959084777044,0.07244139410718788
115,1791341413.2855332,0.08646509287308668,0.13563631018813777,0.43340077925701426,0.46228741750948776,-0.004821157239989174,-0.014346093420526024,0.07594499291684494,0.07743833613077432
116,1791341413.310562,0.03377466318558668,0.08294588050063775,0.40466054488201425,0.41445253473652993,-0.002047895178014334,-0.014096714231026024,0.08312971815491645,0.08434133783197413
117,1791341413.3305619,0.02898462412308668,0.09252595862563776,0.41424062300701425,0.4254367816778295,-7.010278912208262e-05,-0.013664123526044632,0.08923807389945818,0.09027816468793108
118,1791341413.3413324,0.03377466318558668,0.23143709143813776,0.4381908183195143,0.49670418603648825,0.0008859265559833528,-0.013204410730378235,0.09272275615396584,0.09366243023425633
119,1791341413.3613324,0.1774758350605867,0.5236294742506378,0.49088124800701427,0.7393577604782247,0.0027117750171383624,-0.011346212682714019,0.09961649900102909,0.1002972439262764
120,1791341413.386372,0.2732766163105867,0.6960708805006377,0.36634023238201424,0.8327063981769354,0.005501321460236588,-0.007078174931064001,0.10856257219323957,0.10893207598947133
121,1791341413.406372,0.3068068897480867,0.6002700992506378,0.19868886519451426,0.7028029060864426,0.008265330230105656,-0.0022360007571985124,0.11548380058349758,0.11580079265880665
122,1791341413.431019,0.1726857959980867,0.5236294742506378,0.10288808394451425,0.5608869478435611,0.01204697909362978,0.004913725141595103,0.12329124865604445,0.12397582988315133
123,1791341413.451019,0.20142603037308668,0.6002700992506378,0.18431874800701425,0.6594467670958009,0.015216495225540232,0.01153101432433917,0.12910715624853483,0.13051116355653486
124,1791341413.4612193,0.1822658741230867,0.5619497867506378,0.20347890425701426,0.6248296377226158,0.016884048929535392,0.01528880668044201,0.13192509219793616,0.13387699081395887
125,1791341413.4812193,0.3211770069355867,0.4230386539381378,0.07893788863201424,0.536980039453585,0.020418394647936183,0.02302910830843857,0.13704515175394355,0.14045862126883518
126,1791341413.5059085,0.3930275928730867,0.40387849768813777,-0.055183205117985766,0.5662452788161095,0.025449440352092234,0.03268213814835772,0.14246157505937454,0.14836137144344833
127,1791341413.5259085,0.4648781788105867,0.42782869300063775,-0.07434336136798576,0.6361415306898086,0.03020047256024813,0.04057638403369792,0.1459968156167464,0.154510781676693
128,1791341413.5511522,0.4744582569355867,0.5571597476881378,-0.08392343949298577,0.7366008184319357,0.03707609742161386,0.05091067171162001,0.14948999290903722,0.16221526276552817
129,1791341413.5711522,0.5702590381855867,0.5332095523756378,-0.18930429886798578,0.8033330037704651,0.043273445453612724,0.059505675818284684,0.1514325730163967,0.16836074574075724
130,1791341413.5964198,0.6564797413105867,0.28891756018813775,-0.17014414261798577,0.7371485851600683,0.052253372742583286,0.07029361632547132,0.1528374794318014,0.17615590418193264
131,1791341413.6164198,0.7427004444355867,0.11647615393813776,-0.14619394730548577,0.7658611589771332,0.060393815425001725,0.07815980785267149,0.15330819055117992,0.18237261251413983
132,1791341413.6260355,0.8193410694355867,0.05420564612563775,-0.2994751973054858,0.8740385769157495,0.06484704145883902,0.08149754366772087,0.15317914893443538,0.18523185492272756
133,1791341413.6460354,0.7810207569355867,-0.24277677574936227,-0.4240162129304858,0.9212620335362812,0.07512065277795232,0.08711562970898395,0.15186577402032078,0.1905136707225222
134,1791341413.6703,0.8720314991230868,-0.7265707210618624,-0.39048593949298577,1.2003429581202751,0.08872356265901993,0.09114519467824246,0.14902909612268994,0.19593108118670122
135,1791341413.6903,0.9390920459980867,-0.6211898616868623,-0.28989511918048577,1.1626735978958513,0.10097056918039916,0.09194670601714793,0.1460211228785664,0.19992853952033707
136,1791341413.7158856,0.9199318897480867,-0.44874845543686226,-0.2946851582429858,1.065124030581016,0.11785518193741422,0.09076513225101884,0.14162851413923178,0.20539422864173307
137,1791341413.7358856,0.9726223194355867,-0.7217806819993624,-0.4192261738679858,1.2816833126898843,0.13191272601319026,0.0882242621083215,0.13763904835054097,0.21006902517894296
138,1791341413.760499,0.9869924366230868,-1.2055746273118624,-0.5102369160554858,1.6394834437941501,0.15023535221081613,0.08200843021766656,0.13174999705830234,0.21599561432014433
139,1791341413.780499,1.0492629444355868,-1.2870052913743624,-0.6060376973054858,1.767658631395378,0.1659448143954768,0.07397640955136905,0.12600813339328945,0.22110685262135624
140,1791341413.7907772,1.0061525928730868,-1.0906136898118624,-0.5868775410554858,1.5956837120011014,0.17439155159271516,0.06863499460635245,0.12258036509427406,0.223939995664406
141,1791341413.8107772,0.9007717334980867,-1.1720443538743623,-0.4383863301179858,1.5418366508006724,0.19122267409362947,0.056406414536198574,0.11537300877779064,0.23034479773328517
142,1791341413.8358564,1.0875832569355868,-1.1959945491868624,-0.7162085957429858,1.7681049332738838,0.21290243236625378,0.03891820018660227,0.10551918184683697,0.24078282694340467
143,1791341413.8558564,1.0492629444355868,-1.3301156429368624,-0.8024292988679858,1.8745807877583582,0.23080333481353113,0.023274642689337863,0.09656180511212953,0.25126892079976026
144,1791341413.8659146,0.9726223194355867,-1.4977670101243623,-0.6683082051179858,1.9068130610810163,0.23998071070740457,0.014454205385333438,0.09162330476255388,0.2572829095384383
145,1791341413.8859146,0.7570705616230867,-1.4450765804368624,-0.5772974629304858,1.7305127908540194,0.25808655082576015,-0.004868073026642673,0.08140800482224698,0.27066516048666
146,1791341413.9113338,0.8049709522480867,-1.2678451351243625,-0.6970484394929858,1.6556829550434198,0.2806245679129825,-0.030914318032634135,0.06794275966319567,0.2903826127136777
147,1791341413.9313338,0.9199318897480867,-1.2965853694993623,-0.7209986348054858,1.7456366556550815,0.29828499022484056,-0.05218027816237997,0.05681034739734038,0.30809760205808656
148,1791341413.9560077,1.0157326709980867,-1.5360873226243623,-0.6251978535554857,1.944774916989258,0.3203865106313527,-0.07972267627119381,0.04264521905459837,0.33289913790004044
149,1791341413.9760077,0.9869924366230868,-1.8091195491868624,-0.5437671894929857,2.1313728837466135,0.3386182205094902,-0.10371679222540776,0.031132206414389983,0.3555118655217718
150,1791341413.9862494,0.9582522022480867,-1.6845785335618624,-0.4048560566804858,1.9798890235267266,0.34804822454403284,-0.11684444071633497,0.025392216830036545,0.3680148836801444
151,1791341414.0062494,0.8911916553730868,-1.4833968929368624,-0.3952759785554858,1.7750864789649985,0.36647498262103845,-0.14338660890857316,0.014664374803822882,0.393800300139268
152,1791341414.0309803,0.9726223194355867,-1.5552474788743624,-0.4479664082429858,1.888243310519977,0.38929974328921474,-0.1769202920252475,0.001824652014657667,0.4276194677634801
153,1791341414.0509803,1.0971633350605867,-1.6175179866868623,-0.3569556660554858,1.9868440222085642,0.4080941120723483,-0.20473042008307002,-0.008208728827119476,0.45664289378513917
154,1791341414.075855,0.9582522022480867,-1.6079379085618624,-0.32342539261798575,1.899556681305852,0.4317976393032382,-0.24014801364756022,-0.020085090316060823,0.4944933575081899
155,1791341414.095855,0.9151418506855867,-1.6175179866868623,-0.4958667988679858,1.9234689824250728,0.45080731145935843,-0.2691914627426566,-0.029430630111976587,0.5258872860866044
156,1791341414.106424,1.1402736866230867,-1.8186996273118623,-0.5868775410554858,2.225380341196679,0.46097550016174893,-0.28496123071304913,-0.03448679715417009,0.5430383540200665
157,1791341414.126424,1.0732131397480866,-1.9288705257493624,-0.6012476582429858,2.2877558206625204,0.4806508676785016,-0.315947645832538,-0.04440163347289616,0.5769052578736658
158,1791341414.1504915,1.0588430225605867,-1.9528207210618624,-0.6156177754304858,2.305133957161664,0.5046246023434815,-0.35464924929344566,-0.0567396872405841,0.6193879813355121
159,1791341414.1704915,1.2408645069355868,-2.0869418148118624,-0.6347779316804858,2.5095844049426357,0.5250079823933239,-0.3880457238619613,-0.06733025020112944,0.6563125992820866
160,1791341414.1960316,1.2073342334980868,-1.9863509944993625,-0.48149668168048576,2.373833456499073,0.551822787167195,-0.4320985498120154,-0.08096407231293645,0.7055301029666364
161,1791341414.2160316,1.1450637256855867,-1.8953402523118623,-0.4383863301179858,2.2573586738373828,0.5731998232440524,-0.4672434773841944,-0.0914188260284431,0.745138850334289
162,1791341414.2255924,1.1546438038105868,-2.0390414241868626,-0.4240162129304858,2.381319380523344,0.5835351017255421,-0.484345299657333,-0.09628535827494683,0.7644438857523327
163,1791341414.2455924,1.0732131397480866,-2.0773617366868624,-0.3042652363679858,2.3579218736931615,0.605253916823248,-0.5209284405345654,-0.1060309011602947,0.8055689269010577
164,1791341414.2705512,1.2408645069355868,-1.8522299007493623,-0.35216562699298576,2.2571045519952886,0.6326239489603409,-0.5670899400660978,-0.11759728807233734,0.8576906103510256
165,1791341414.2905512,1.4372561084980868,-1.8043295101243624,-0.4958667988679858,2.359490195940697,0.6552834161462558,-0.6040163177950628,-0.12674743878528066,0.900164974256187
166,1791341414.3157995,1.3989357959980868,-1.9288705257493624,-0.5437671894929857,2.4440224268198776,0.6849689069108701,-0.6507095581952335,-0.13853471176174595,0.9548807249726105
167,1791341414.3357995,1.2169143116230867,-2.0007211116868624,-0.4288062519929858,2.380680619136233,0.7088802846017301,-0.6880430734456504,-0.14793008649383213,0.9988983127944702
168,1791341414.3608546,1.1259035694355868,-1.8618099788743625,-0.40006601761798577,2.2122495482102975,0.738744690877953,-0.7350557362324581,-0.1594922764569211,1.0542715209650757
169,1791341414.3808546,1.2887648975605868,-1.9049203304368625,-0.4958667988679858,2.3527686475120366,0.7626297504555188,-0.77260401352038,-0.16868114377983953,1.0986238784290652
170,1791341414.4063046,1.3414553272480867,-2.0294613460618622,-0.5150269551179858,2.4866581016817735,0.7934848748758928,-0.8207269421084787,-0.1805496012377898,1.1557720876828055
171,1791341414.4263046,1.2504445850605868,-2.0582015804368625,-0.5246070332429857,2.4647551491675896,0.8179832041698595,-0.8590033928448861,-0.19003689568108273,1.2012898788149007
172,1791341414.4353094,1.2600246631855867,-1.8330697444993624,-0.5964576191804858,2.3029477917472123,0.8290543307363384,-0.8762800266985649,-0.19442486215904695,1.2218832986537953
173,1791341414.4553094,1.1450637256855867,-1.7133187679368624,-0.6156177754304858,2.1507248503403744,0.8535628480329766,-0.9142157062588857,-0.20452689982105324,1.2673559665157264
174,1791341414.4964137,1.0875832569355868,-1.8522299007493623,-0.4958667988679858,2.2044221075411565,0.9032604949414872,-0.9914788355502757,-0.22560101530657647,1.3600755939187459
175,1791341414.5164137,1.2887648975605868,-1.9767709163743623,-0.5102369160554858,2.4143073390754743,0.9273790397087481,-1.0291769299979638,-0.23582603313125616,1.4052939032222327
176,1791341414.5104668,1.3558254444355868,-1.9671908382493624,-0.6491480488679858,2.4757818197935575,0.9273790397087481,-1.0291769299979638,-0.23582603313125616,1.4052939032222327
177,1791341414.5304668,1.1450637256855867,-2.0055111507493626,-0.6730982441804858,2.405474414326588,0.951927867951121,-1.067401396978466,-0.2466751904782124,1.4513307885010263
178,1791341414.5561242,1.0780031788105868,-2.0486215023118626,-0.5820875019929858,2.3869995335644028,0.982974782856703,-1.1168843228071872,-0.26092092022562613,1.5105461730367726
179,1791341414.5761242,1.0684231006855867,-2.0821517757493626,-0.4527564473054858,2.383667833384407,1.0067653552107028,-1.1558666684116654,-0.2719120611525408,1.556772431859531
180,1791341414.6011384,1.0732131397480866,-2.0007211116868624,-0.4335962910554858,2.311423187928713,1.0360750244098997,-1.2049686364401344,-0.28525962779158,1.6145506886617595
181,1791341414.6211383,1.0827932178730868,-1.8905502132493623,-0.40006601761798577,2.2151013701277598,1.0592283029903673,-1.2441759405272401,-0.2955813180453857,1.660513982000797
182,1791341414.6313057,1.1402736866230867,-1.8234896663743625,-0.4383863301179858,2.1948852403288437,1.0709283450343492,-1.263950083766915,-0.3006808204432498,1.6837061175379826
183,1791341414.6513057,1.2648147022480867,-1.8953402523118623,-0.4862867207429858,2.3299239639583686,1.0940986255516656,-1.3025909968585396,-0.3105942756290205,1.7292379569002307
184,1791341414.6762164,1.1881740772480867,-1.9528207210618624,-0.38090586136798577,2.3174027879670382,1.123212046500757,-1.3506898604767696,-0.32270988015980645,1.7860879226264117
185,1791341414.6962163,1.1259035694355868,-1.8474398616868624,-0.40006601761798577,2.2001694727157006,1.1465512450454123,-1.3892147061852138,-0.33214947772055736,1.8316169176294737
186,1791341414.720777,1.1833840381855867,-1.7995394710618624,-0.4575464863679858,2.2018376136603997,1.1751672353347153,-1.436146032748261,-0.3435825824469537,1.8872155280581295
187,1791341414.740777,1.2312844288105866,-1.9384506038743625,-0.4144361348054858,2.333540099960745,1.198596144421286,-1.4742371077525442,-0.3528041192687566,1.9324798870542383
188,1791341414.7515545,1.2408645069355868,-1.9480306819993625,-0.33300547074298575,2.333551136385949,1.2113258575590329,-1.4948259439119849,-0.3576321451025249,1.9569659391502237
189,1791341414.7715545,1.2360744678730868,-1.9336605648118623,-0.3377955098054858,2.3197045235290235,1.2351206361801081,-1.533124535833774,-0.36625389310574574,2.0025323324502393
190,1791341414.7964227,1.2743947803730868,-1.9432406429368625,-0.37132578324298576,2.3533272381683035,1.2649516996982422,-1.5808332611047695,-0.37668882802401643,2.0593763801555847
191,1791341414.8164227,1.3462453663105867,-2.0342513851243624,-0.3856959004304858,2.469679455273902,1.289275228962086,-1.6194132704463267,-0.3849577011853171,2.1054506378005615
192,1791341414.8414035,1.2648147022480867,-1.9671908382493624,-0.4144361348054858,2.3751533287237807,1.3199911128005475,-1.667869998159723,-0.3952357284627494,2.1634181633903378
193,1791341414.8614035,1.2504445850605868,-1.8378597835618624,-0.4479664082429858,2.267600967378414,1.3446668464390639,-1.706553459367855,-0.40352375927470263,2.2098156171707988
194,1791341414.8714619,1.2264943897480867,-1.9145004085618624,-0.5006568379304858,2.3281446629953266,1.357083845412075,-1.725920669789771,-0.40778237032213627,2.233106621599501
195,1791341414.8914618,1.3558254444355868,-2.0198812679368623,-0.5485572285554858,2.4938119426575973,1.3819436332042254,-1.764555292081549,-0.41655378566799584,2.27967994256234
196,1791341414.9160874,1.3989357959980868,-1.9767709163743623,-0.4862867207429858,2.47004441092044,1.4130493611656345,-1.8123712426391674,-0.42764509933045286,2.3375795920604285
197,1791341414.9360874,1.2983449756855867,-1.9288705257493624,-0.40006601761798577,2.3592994721835003,1.4385687923764405,-1.8512389404964262,-0.4366313995344929,2.384787781809776
198,1791341414.9608293,1.2743947803730868,-2.072571697624362,-0.3377955098054858,2.45636750191832,1.4701773545699774,-1.899534781869754,-0.447449981521942,2.4433307855031288
199,1791341414.9808292,1.3175051319355868,-2.1492123226243622,-0.35216562699298576,2.545378951989738,1.4957832298411964,-1.939051197531995,-0.4559182966878348,2.491013550862211
200,1791341415.0053298,1.3510354053730866,-2.0629916194993623,-0.36174570511798576,2.492406677062861,1.5273496000458766,-1.9879388433923457,-0.4660480018957211,2.549882033722225
201,1791341415.0253298,1.2743947803730868,-2.0677816585618625,-0.4575464863679858,2.471669846665348,1.5531903723925409,-2.0280561626207305,-0.4743055327986726,2.598148931466446
202,1791341415.0359292,1.1785939991230867,-2.2258529476243623,-0.5150269551179858,2.57075045924631,1.5667809758429083,-2.0495412043352914,-0.47879848487684806,2.623865424074142
203,1791341415.0559292,1.0732131397480866,-2.1683724788743626,-0.5150269551179858,2.473636678044251,1.5919561990616273,-2.0905916782336655,-0.4875496603013893,2.6725648310360217
204,1791341415.0803845,1.0684231006855867,-2.0055111507493626,-0.5150269551179858,2.3299904854648528,1.6220501862873906,-2.1409130757990718,-0.49853448014926,2.731866071545253
205,1791341415.1003845,1.0732131397480866,-2.072571697624362,-0.5006568379304858,2.387047790574799,1.6461823199623935,-2.1820108581820636,-0.5076940461131889,2.780079290279321
206,1791341415.1262045,1.1354836475605867,-2.0917318538743626,-0.5533472676179858,2.4435340106023618,1.6769409035198732,-2.23517376123337,-0.5197863922562608,2.842236870913288
207,1791341415.1462045,1.0923732959980867,-2.0773617366868624,-0.5006568379304858,2.3998684281074523,1.7005342380466133,-2.276430025391627,-0.5293290372687313,2.8903528478317555
208,1791341415.1559057,1.0444729053730868,-2.0486215023118626,-0.48149668168048576,2.3493856142111555,1.7118166111259028,-2.2964421719612407,-0.533978113093357,2.913605221122342
209,1791341415.1759057,1.1594338428730868,-2.0150912288743625,-0.5533472676179858,2.389785073027726,1.7348931285996105,-2.3376060097119695,-0.5436771831017279,2.961391717373622
210,1791341415.2004356,1.1929641163105866,-1.9528207210618624,-0.5533472676179858,2.3543290657836176,1.7632787456119579,-2.387820211349004,-0.5558247242575182,3.019897087741506
211,1791341415.2204356,1.1211135303730868,-1.9480306819993625,-0.4958667988679858,2.3016522257317877,1.7864219471840193,-2.4284714385597317,-0.5658171561241399,3.067397260780795
212,1791341415.2446883,1.1211135303730868,-1.9719808773118623,-0.4431763691804858,2.311278741880621,1.8143550382618903,-2.4775025343453327,-0.577824814379182,3.1247055107107595
213,1791341415.2646883,1.2360744678730868,-2.0869418148118624,-0.3761158223054858,2.4545201853573126,1.837470616799139,-2.517959434208577,-0.5874705624154848,3.171993007814638
214,1791341415.2757924,1.3079250538105867,-2.0773617366868624,-0.3377955098054858,2.4779438124947126,1.8504980992475337,-2.540520121797235,-0.5926171830756053,3.1984028561536517
215,1791341415.2957923,1.3654055225605868,-2.1252621273118626,-0.37132578324298576,2.5532242729784063,1.8744526930778318,-2.5813636436971645,-0.6015601530373725,3.2463650098703605
216,1791341415.3205564,1.3510354053730866,-2.2689632991868622,-0.40006601761798577,2.670869509744208,1.9047095287238736,-2.6325117870081196,-0.612405102303418,3.306520332143062
217,1791341415.3405564,1.3462453663105867,-2.431824627311862,-0.5198169941804858,2.827783109036483,1.9295260989453988,-2.6746750388217304,-0.621229744910725,3.356022038927831
218,1791341415.365238,1.3845656788105867,-2.6186361507493623,-0.6251978535554857,3.027399835674509,1.9606129306243105,-2.7282519227378934,-0.6326060666477371,3.4187061958018243
219,1791341415.385238,1.2791848194355868,-2.666536541374362,-0.5198169941804858,3.002822111980334,1.9860203053082477,-2.77308195500191,-0.6421592841037634,3.470825367029367
220,1791341415.3958626,1.1690139209980868,-2.513255291374362,-0.5389771504304858,2.82374610682241,1.9994437964387304,-2.797452372992726,-0.6473167182736194,3.4989332957397865
221,1791341415.4158626,1.0827932178730868,-2.484515056999362,-0.6299878926179858,2.7824702992078367,2.024299782552149,-2.8439429479651364,-0.6573223250249076,3.5521646555160498
222,1791341415.4562056,1.1929641163105866,-2.604266033561862,-0.6587281269929858,2.9392665244343563,2.073803210261754,-2.9390520788487033,-0.6783770539789716,3.660448374781706
223,1791341415.4762056,1.1833840381855867,-2.680906658561862,-0.5437671894929857,2.980493423935516,2.0982277668949614,-2.987057460446795,-0.6890529574693324,3.714817089975912
224,1791341415.4852605,0.9917824756855868,-2.633006267936862,-0.27073496293048577,2.826597230987253,2.10910435007078,-3.0091403144320656,-0.6937145462860631,3.7395837285928866
225,1791341415.5052605,1.0013625538105868,-2.494095135124362,-0.07913340043048576,2.688772880384054,2.1325141415916247,-3.058290079926816,-0.702991177856358,3.794067918897987
226,1791341415.5158052,0.9774123584980867,-2.4030843929368624,0.18910878706951426,2.601136607613761,2.1445702508412525,-3.0841896916435405,-0.7070615573211667,3.822478732534038
227,1791341415.5358052,0.9630422413105867,-2.192322674186862,0.33759999800701423,2.418202395366585,2.166917439946066,-3.132837399184028,-0.7128336427223111,3.8753494246926063
228,1791341415.5604112,0.8432912647480867,-1.9384506038743625,0.4190306620695143,2.1550678867765916,2.1936206337017268,-3.1913341415796777,-0.7174735096076962,3.9384455467611645
229,1791341415.5804112,0.7043801319355867,-1.8139095882493623,0.44298085738201426,1.995658138212923,2.2143910557348594,-3.237377376104848,-0.719386122092379,3.987688104114108
230,1791341415.6054232,0.5415188038105867,-1.7181088069993624,0.3807103495695143,1.8412172217961038,2.2388074408385275,-3.2929475910285224,-0.7198740882114739,4.046477640775098
231,1791341415.6254232,0.5702590381855867,-1.5312972835618623,0.14120839644451424,1.6401239442501656,2.2570702555581934,-3.3355912516197255,-0.7194228680719386,4.091222848918454
232,1791341415.6356583,0.4552981006855867,-1.3923861507493625,0.011877341757014239,1.4649834895089233,2.2658016632755413,-3.3563851657338146,-0.7191090781421956,4.112942550574556
233,1791341415.6556582,0.19663599131058668,-1.2726351741868625,-0.08871347855548577,1.2907889374075598,2.2812820312209454,-3.394920431509758,-0.7187031415565993,4.152862464365668
234,1791341415.6803818,0.22537622568558668,-1.0666634944993623,-0.24199472855548576,1.116748361203416,2.2983305659900064,-3.4397490803292574,-0.7188898238419468,4.198928399605478
235,1791341415.7003818,0.4600881397480867,-1.0187631038743623,-0.3377955098054858,1.1677607480119065,2.3110813924616775,-3.4737015497248507,-0.7198878717489452,4.233903424386846
236,1791341415.7256858,0.3834475147480867,-0.9469125179368624,-0.2851050801179858,1.0606414190955848,2.3263948091508606,-3.513945334109909,-0.722143341238853,4.275677212378466
237,1791341415.7456858,0.4361379444355867,-0.7122006038743623,-0.3186353535554858,0.8938537325932776,2.3379121652267902,-3.543470894585238,-0.724564238133258,4.306624270617273
238,1791341415.7704368,0.3738674366230867,-0.43916837731186226,-0.3856959004304858,0.6938350318387904,2.3515310897911905,-3.5766666231843187,-0.7284182839813363,4.341985236742932
239,1791341415.7904367,0.4552981006855867,-0.13260587731186227,-0.5246070332429857,0.7071726935576333,2.362128882551818,-3.6003244952427726,-0.7324308565782666,4.367887852097235
240,1791341415.8004122,0.5510988819355868,0.011095294563137752,-0.4958667988679858,0.7414290023000719,2.367374827240238,-3.6104453087132855,-0.7348954872492068,4.379480594435802
241,1791341415.8204122,0.3786574756855867,0.10689607581313776,-0.37132578324298576,0.5410093272928348,2.377709520645325,-3.6275160602339978,-0.7403964614782383,4.400063891807993
242,1791341415.845218,0.4648781788105867,0.41824861487563775,-0.40006601761798577,0.7423587026716612,2.3901741807156274,-3.644535849054287,-0.747630969540967,4.422050003767285
243,1791341415.865218,0.7714406788105868,0.5140493961256378,-0.5102369160554858,1.058163131604331,2.4005709801524646,-3.6548014625030762,-0.7539544001278893,4.437202046170198
244,1791341415.8906374,1.0732131397480866,0.7296011539381377,-0.6347779316804858,1.4446616592491004,2.4153197002445275,-3.6635207282487614,-0.7629687090286661,4.453905548129026
245,1791341415.9106374,0.9774123584980867,0.9595230289381377,-0.48149668168048576,1.4518465539018681,2.428259254527252,-3.6668182971683754,-0.7706716904895153,4.464967445140894
246,1791341415.9205558,0.4457180225605867,1.2469253726881377,-0.3377955098054858,1.3665991537877955,2.434772367845808,-3.6665669951788225,-0.7745282217929537,4.46897348165257
247,1791341415.9405558,0.5798391163105867,1.3858365055006379,-0.5533472676179858,1.6009214282288662,2.4474740195617284,-3.6621871306429803,-0.7824749353377012,4.473702122482949
248,1791341415.9659646,1.2552346241230867,1.2996158023756377,-0.7018384785554858,1.9383478649001522,2.464687205324614,-3.6523398866398646,-0.7934483262988012,4.477033606545491
249,1791341415.9859645,1.1546438038105868,1.3475161930006379,-0.7162085957429858,1.9136240374465547,2.479818679671631,-3.6417807918791993,-0.8029172557179437,4.478475649110786
250,1791341416.0110748,0.8241311084980867,1.5630679508131378,-0.4862867207429858,1.832716093022712,2.4996933477809105,-3.625030858330203,-0.8152869899809817,4.478170210344689
251,1791341416.0310748,0.8097609913105868,1.9989615055006378,-0.3377955098054858,2.183040487477598,2.5155996094161743,-3.6083478820323935,-0.8248975937196394,4.475362764378651
252,1791341416.041125,1.3318752491230867,1.6492886539381377,-0.5964576191804858,2.2022276073817193,2.5240080845133464,-3.598471998794849,-0.8297068620690811,4.47303375951533
253,1791341416.061125,1.9402102100605867,1.2948257633131377,-0.8120093769929858,2.469888387131559,2.543139065655307,-3.577350866488144,-0.8399543933531596,4.468838653625671
254,1791341416.0858917,1.7821389209980867,1.3523062320631378,-0.6156177754304858,2.3202880261810184,2.570190318742536,-3.550202027219226,-0.8533926108891529,4.465209027240446
255,1791341416.1058917,1.4372561084980868,1.5151675601881378,-0.4958667988679858,2.1464672695107936,2.5935875311724317,-3.527265712465844,-0.8642839003967943,4.462654630225757
256,1791341416.130506,1.2983449756855867,1.1511245914381378,-0.6970484394929858,1.8699369047915049,2.623113718610857,-3.498349624278362,-0.8778796004789208,4.459803613096665
257,1791341416.150506,2.184502202248087,0.7439712711256378,-1.0658814473054858,2.5419768652757395,2.648730358432126,-3.475535976534868,-0.8899139149349011,4.459492080031415
258,1791341416.1610637,2.5389650928730867,0.5284195133131377,-0.8167994160554858,2.7189579273954787,2.663964714663346,-3.4642919693173964,-0.896804470898419,4.461197721315628
259,1791341416.1810637,1.9929006397480868,0.5044693180006378,-0.5485572285554858,2.127688249183333,2.6952929441081097,-3.4446374803502953,-0.909947711918191,4.467452995166053
260,1791341416.2061398,1.8970998584980867,0.5858999820631378,-0.7018384785554858,2.105906909641574,2.735996578783667,-3.4216402859205397,-0.9263065891733424,4.477872644738378
261,1791341416.2261398,2.989228764748087,0.29849763831313775,-1.1616822285554858,3.220884202857584,2.770920456407706,-3.4047231029446223,-0.9401921122111734,4.489331886965771
262,1791341416.2512226,3.4873928272480867,0.025465411750637754,-1.1664722676179857,3.6773923872574272,2.820333946749224,-3.3860795849559033,-0.9593741255839706,4.510012997728633
263,1791341416.2712226,3.2047805225605868,-0.06554533043686225,-1.0658814473054858,3.378019782037373,2.8638623834387205,-3.373503987581584,-0.9757233375095182,4.531475801200407
264,1791341416.280018,2.8551076709980867,-0.14218595543686224,-1.2670630879304858,3.1268683259311625,2.8841311900029836,-3.3689401474057803,-0.9833737776631932,4.542575747804992
265,1791341416.300018,3.3245314991230868,-0.44874845543686226,-1.4682447285554858,3.6619158165978556,2.9325762855046404,-3.3610055362107083,-1.0022635425369586,4.571749565914778
266,1791341416.326041,3.535293217873087,-0.41042814293686225,-1.5400953144929859,3.87796892387978,2.9995437847593793,-3.353906927093305,-1.0290265784045511,4.615717743900298
267,1791341416.346041,3.1904104053730866,-0.33857755699936226,-1.3916041035554858,3.4971295797909727,3.0533801802460703,-3.3503931271015324,-1.0509076083560314,4.653243109117478
268,1791341416.3711286,3.286211186623087,-0.44874845543686226,-1.4634546894929858,3.6252253402433756,3.1229680410744987,-3.348128038617889,-1.0796096752400914,4.704088413223542
269,1791341416.3911285,3.597563725685587,-0.8702718929368624,-1.7029566426179858,4.0742973939860345,3.1804481739894226,-3.348571686468039,-1.1038085283381862,4.7483235140500035
270,1791341416.4161031,3.7268947803730867,-1.1576742366868624,-1.731696876992986,4.269511496184069,3.2551781840557736,-3.352841116959564,-1.135927124091013,4.809164064239541
271,1791341416.436103,3.731684819435587,-1.1049838069993623,-1.607155861367986,4.210630685309065,3.3172341145060966,-3.3591412652094887,-1.16279824884685,4.862095430737405
272,1791341416.4456358,3.918496342873087,-0.9852328304368624,-1.655056251992986,4.3662923077299185,3.347844946822264,-3.3631881095163436,-1.1760171329008349,4.88897906978868
273,1791341416.4656358,4.268169194435587,-1.1480941585618625,-1.8753980488679858,4.801302563987261,3.4147143148472887,-3.3736049777298276,-1.2048865134157614,4.949064144663883
274,1791341416.4910748,4.4837209522480865,-1.3828060726243623,-1.9185084004304858,5.0691794892899225,3.5037087364238455,-3.3896960466523316,-1.2433374156413857,5.0310935319786125
275,1791341416.5110748,4.239428960060587,-1.5265072444993624,-1.6742164082429858,4.80686830031149,3.5762652165071174,-3.4048130944678063,-1.2744218512467091,5.099664318559921
276,1791341416.5360703,3.9663967334980867,-1.4402865413743624,-1.6790064473054858,4.541562618621679,3.668726069358697,-3.4264338755894865,-1.31372941468158,5.189015807528333
277,1791341416.5560703,4.426240483498087,-1.6366781429368624,-2.062209572305486,5.150051308621402,3.7441994878201297,-3.445754043730562,-1.3460750931475145,5.2634749824493445
278,1791341416.5660882,4.680112553810587,-2.0007211116868624,-2.191540626992986,5.541587209712193,3.783175018276945,-3.456712722716282,-1.3630426022461057,5.302750343156013
279,1791341416.5860882,4.589101811623087,-1.8618099788743625,-2.0382593769929858,5.355435848068605,3.8632189604536005,-3.4811030149354605,-1.3981805752247676,5.384927841479105
280,1791341416.611117,4.766333256935587,-1.5696175960618624,-1.961618751992986,5.38791056367937,3.9659249651094663,-3.513488795312812,-1.4430659579694123,5.491411813251432
281,1791341416.6311169,5.226177006935587,-1.7276888851243624,-2.1244800801179857,5.900105982304267,4.05067363277032,-3.540431802431765,-1.479682125600317,5.579612300125522
282,1791341416.6555748,5.154326420998087,-1.9719808773118623,-2.220280861367986,5.94856592281195,4.157808167102458,-3.5752245338457564,-1.525713069932629,5.691871361301111
283,1791341416.6755748,4.886084233498087,-1.9480306819993625,-2.296921486367986,5.739729173871221,4.247334810354847,-3.6052879426690945,-1.5644836130231006,5.786671160194349
284,1791341416.6863756,4.766333256935587,-2.1061019710618623,-2.402302345742986,5.738000940139616,4.296249834243564,-3.6223722341835654,-1.5860873576783703,5.83909379505151
285,1791341416.7063756,4.775913335060587,-2.1348422054368625,-2.550793556680486,5.820089964504565,4.38755301079471,-3.655623471459548,-1.6275202165014027,5.93826796656571
286,1791341416.7303221,4.761543217873087,-2.0007211116868624,-2.464572853555486,5.72270024838846,4.497604000410664,-3.696891621561672,-1.6786951507090244,6.059163870955867
287,1791341416.750322,4.656162358498087,-1.7468490413743625,-2.162800392617986,5.423009775056054,4.589857335869353,-3.7318098285629766,-1.7219660305331075,6.161035787146743
288,1791341416.7760742,4.732802983498087,-1.4738168148118624,-2.1580103535554858,5.406345232251012,4.708959177835799,-3.776246956468538,-1.7776696828550647,6.292411867964773
289,1791341416.7960742,4.871714116310587,-1.5025570491868625,-2.272971291055486,5.581906001276215,4.8019898940097185,-3.81004626261576,-1.8210883881038582,6.39467922438104
290,1791341416.8056777,4.847763920998087,-1.6079379085618624,-2.186750587930486,5.555911940027071,4.846960878003839,-3.826081793812693,-1.8420218665062482,6.443987601053548
291,1791341416.8256776,4.799863530373087,-1.6414681819993624,-2.186750587930486,5.5240370958689455,4.941039320494828,-3.8593417742805607,-1.8856382665289257,6.547061949422903
292,1791341416.8505456,4.627422124123087,-1.8905502132493623,-2.2777613301179858,5.493215115087146,5.058052864870241,-3.901081535329529,-1.9400628338021244,6.675790569528929
293,1791341416.8705456,4.589101811623087,-2.1827425960618623,-2.478942970742986,5.654147055949397,5.151869090035776,-3.9357251237638766,-1.984402979732237,6.780084258817321
294,1791341416.8956156,4.560361577248087,-2.2498031429368623,-2.431042580117986,5.636353424294467,5.269031082137784,-3.980971243868554,-2.040878233999003,6.912018847996097
295,1791341416.9156156,4.699272710060587,-2.2833334163743624,-2.2011207051179857,5.669365736336922,5.362368297700492,-4.01845242529417,-2.086122453342126,7.018180714748946
296,1791341416.9260478,4.905244389748088,-2.4126644710618623,-2.296921486367986,5.929436793458399,5.411266039846815,-4.038744719833134,-2.109701767792559,7.074185508947761
297,1791341416.9460478,4.799863530373087,-2.2162728694993623,-2.713654884805486,5.942598604660524,5.5055055737115755,-4.078755664398689,-2.1556415719818576,7.182870594608399
298,1791341416.9713235,4.507671147560587,-2.647376385124362,-2.665754494180486,5.868044642153617,5.624383521309035,-4.130956077651477,-2.2151885915580816,7.3215810182246415
299,1791341416.9913235,4.512461186623087,-2.992259197624362,-2.574743751992986,5.9954338003996295,5.717868865521208,-4.1745245772924156,-2.263099580374713,7.432516365296978
300,1791341417.0160112,4.785493413185587,-3.030579510124362,-2.608274025430486,6.236060676946915,5.833172526277315,-4.231389784982843,-2.322966064996331,7.5714419084410975
301,1791341417.0360112,4.876504155373087,-2.714436931999362,-2.478942970742986,6.106850160874193,5.9270635508108995,-4.279164654447296,-2.371820913997289,7.685497181269218
302,1791341417.046082,4.847763920998087,-2.3982943538743626,-2.411882423867986,5.921976668994881,5.974594633263105,-4.303474447006113,-2.3964253402425,7.743289208030864
303,1791341417.066082,4.886084233498087,-2.431824627311862,-2.368772072305486,5.9496782505756975,6.06943008676928,-4.35175568792916,-2.445129739982376,7.858397965931111
304,1791341417.0913668,4.766333256935587,-2.503675213249362,-2.2538111348054857,5.836607483888447,6.189645043891324,-4.4129983569429925,-2.506233735180221,8.004215626974663
305,1791341417.1113667,4.574731694435587,-2.1635824398118624,-2.052629494180486,5.461002370473335,6.284482063677685,-4.46117518960839,-2.5537761067436544,8.119025266892496
306,1791341417.1354465,4.598681889748087,-1.7324789241868623,-2.071789650430486,5.333073288590695,6.398104601861944,-4.517515225243327,-2.6098792503903785,8.255613605801237
307,1791341417.1554465,4.565151616310587,-1.6270980648118625,-2.2011207051179857,5.322874200177641,6.492066176973271,-4.562329821023403,-2.6558966026601887,8.367530305055471
308,1791341417.1806145,4.272959233498087,-1.8618099788743625,-2.225070900430486,5.16482889557004,6.609253880222746,-4.616850888248989,-2.713473396979484,8.506496743882307
309,1791341417.2006145,4.071777592873087,-1.8618099788743625,-2.196330666055486,4.9869407012631735,6.700926792129934,-4.659263211823452,-2.7589964189343994,8.615289594101233
310,1791341417.2105303,3.9328664600605867,-1.4354965023118624,-2.148430275430486,4.705724327795392,6.745512827800882,-4.679588910098471,-2.7814120158573945,8.66814561942165
311,1791341417.2305303,3.832275639748087,-1.1912045101243625,-2.1580103535554858,4.55656816584586,6.833600120129779,-4.718375923396351,-2.826301618920336,8.772066050676763
312,1791341417.2559755,3.798745366310587,-1.1193539241868624,-2.119690041055486,4.491826514438029,6.943422721553145,-4.764730542351607,-2.88300979624073,8.900871963836956
313,1791341417.2759755,3.5736135303730867,-0.8846420101243624,-1.8993482441804859,4.142563083794134,7.027853860563456,-4.798706109688312,-2.926925148934003,8.999177798002378
314,1791341417.3005195,3.5065529834980866,-0.4439584163743623,-1.765227150430486,3.950827735319005,7.12895892737563,-4.836592425918187,-2.9794799270482883,9.115480366845267
315,1791341417.3205194,3.458652592873087,-0.16134611168686225,-1.726906837930486,3.8691753065524526,7.209435427407495,-4.863741693173448,-3.021119294528426,9.206470780469786
316,1791341417.330724,3.401172124123087,0.20269685706313775,-1.453874611367986,3.7044310250503565,7.2495877066047845,-4.875484518463437,-3.0416124200542134,9.25085278876277
317,1791341417.350724,3.219150639748087,0.7487613101881377,-1.094621681680486,3.4816333763091984,7.326408720726237,-4.893619956015482,-3.0795750963327655,9.333143296392667
318,1791341417.3761022,3.0850295459980868,1.0936441226881377,-0.9748707051179858,3.4152361058159224,7.42126516753114,-4.9096736242350625,-3.124459719548026,9.430923619794541
319,1791341417.3961022,2.677876225685587,1.3379361148756377,-0.7545289082429858,3.0871358896159644,7.493450522718867,-4.916780046301801,-3.1571204503821955,9.502312155384534
320,1791341417.435673,2.3329934131855867,1.7834097476881379,-0.6491480488679858,3.007457694376683,7.62972034723528,-4.91946778607488,-3.216213839862301,9.631086508746888
321,1791341417.455673,2.294673100685587,2.0181216617506377,-0.6539380879304858,3.1250559520564334,7.69520461220596,-4.914920172162659,-3.243555531644643,9.68985380742712
322,1791341417.451044,2.2324025928730866,1.8696304508131378,-0.6970484394929858,2.9941636371904967,7.69520461220596,-4.914920172162659,-3.243555531644643,9.68985380742712
323,1791341417.471044,1.9641604053730868,1.7594595523756378,-0.5820875019929858,2.700453642345612,7.754583848146073,-4.901234012081485,-3.2669511122195494,9.737999541422504
324,1791341417.4956403,1.9402102100605867,1.7834097476881379,-0.5916675801179858,2.700932526505445,7.823857800070188,-4.880391732133904,-3.293572695725521,9.791761610498325
325,1791341417.5156403,2.3186232959980866,1.9271109195631377,-0.6587281269929858,3.0860481574881815,7.878125609990915,-4.860420551732638,-3.313848130765334,9.83209746189879
326,1791341417.54124,2.4383742725605866,2.286363849250638,-0.5916675801179858,3.3945838139024107,7.9463017280636805,-4.830602343538343,-3.3383083155265707,9.880421679480072
327,1791341417.56124,2.2898830616230867,2.6312466617506383,-0.4958667988679858,3.5231956109619835,7.998667766084568,-4.803424581759698,-3.3561828703617507,9.915419164319946
328,1791341417.570522,2.218032475685587,2.703097247688138,-0.5341871113679858,3.5371964411955963,8.022463875135957,-4.788989674303497,-3.363951286717284,9.930282825169373
329,1791341417.590522,2.562915288185587,2.655196857063138,-0.5533472676179858,3.731594608576026,8.073217339241392,-4.75451502592808,-3.3798102700815225,9.960189194997868
330,1791341417.6161115,2.835947514748087,2.449225177375638,-0.7066285176179858,3.8132172948584464,8.138775990209433,-4.7072255491342,-3.399475918579515,9.99770391191064
331,1791341417.6361115,2.5293850147480867,1.9558511539381378,-0.7688990254304858,3.288517599238489,8.19037690265376,-4.669201875600237,-3.4147537908581187,10.027176243330565
332,1791341417.6613843,2.083911381935587,1.5343277164381377,-0.7209986348054858,2.686389253362649,8.254545622108736,-4.621745255814564,-3.4339877540514028,10.064309441392089
333,1791341417.6813843,2.184502202248087,1.3523062320631378,-0.7401587910554858,2.6736897824692116,8.304111842916328,-4.5854932310769865,-3.4491173685264656,10.093633255363848
334,1791341417.6911762,2.6347658741230866,1.0122134586256377,-0.9365503926179858,2.973834887006905,8.328278243888958,-4.568670326728189,-3.456644975603557,10.108479685359521
335,1791341417.7111762,2.697036381935587,0.6673306461256377,-0.9988209004304858,2.952452984871974,8.378232095116784,-4.536944165370244,-3.4726169784032064,10.14089266672448
336,1791341417.7357068,2.481484624123087,0.5427896305006378,-0.9557105488679858,2.713995058204024,8.439839097937595,-4.501641564421736,-3.49286459157346,10.183111696759154
337,1791341417.7557068,2.586865483498087,0.39429841956313777,-0.9796607441804858,2.794115145635921,8.490135881346779,-4.475770880224768,-3.509799442988481,10.21927709703589
338,1791341417.7812195,3.0706594288105866,-0.10386564293686225,-1.1521021504304858,3.281322410942362,8.555497613243457,-4.447163811706181,-3.532240769224128,10.268910859002165
339,1791341417.8012195,3.1712502491230867,-0.36731779137436227,-1.1521021504304858,3.393978471860116,8.608413232228383,-4.428808715414254,-3.550650497625126,10.311461776626025
340,1791341417.826544,2.917378178810587,-0.3529476741868623,-1.056301369180486,3.1227295882683572,8.676930489247956,-4.410421233947857,-3.574659328472761,10.369143045147764
341,1791341417.846544,2.9509084522480866,-0.47748868981186227,-1.0898316426179857,3.1817588141936315,8.731727439358743,-4.399323667827784,-3.5939952654923415,10.417001237301523
342,1791341417.8560996,3.765215092873087,-0.9900228694993624,-1.453874611367986,4.155808148039494,8.758794396982843,-4.395868527040209,-3.6036708242915134,10.441579516792016
343,1791341417.8760996,3.808325444435587,-1.3013754085618623,-1.525725197305486,4.304039732906508,8.818308542763473,-4.3931587051114,-3.62535365661967,10.497885410845221
344,1791341417.9010057,3.3676418506855867,-1.3253256038743624,-1.3772339863679859,3.8722439287809647,8.894709457874757,-4.39519690143788,-3.6537278280584653,10.57276402762989
345,1791341417.9210057,3.482602788185587,-1.5360873226243623,-1.4586646504304859,4.0762469264534005,8.957133134935988,-4.400880210987739,-3.6773487877433455,10.635829762418593
346,1791341417.9462326,3.908916264748087,-1.9049203304368625,-1.7221167988679857,4.6769684731743855,9.03804498625404,-4.413483951211933,-3.708691873358464,10.720050987410097
347,1791341417.9662325,3.985556889748087,-2.2114828304368626,-1.8801880879304858,4.930560543866304,9.104411969174274,-4.428152021788066,-3.735216961388082,10.791232245723874
348,1791341417.975855,3.908916264748087,-2.460564861686862,-1.884978126992986,4.9887020699398565,9.137250782147165,-4.437522456982536,-3.748781949767692,10.82748001702046
349,1791341417.995855,3.947236577248087,-2.518045330436862,-1.9089283223054858,5.056207691798282,9.20705058900453,-4.4615449012665716,-3.778437762461643,10.906500601902636
350,1791341418.0212996,3.9328664600605867,-2.4988851741868623,-2.009519142617986,5.074449023390472,9.297569484539022,-4.497096594327398,-3.8179850614541424,11.011161883653754
351,1791341418.0412996,3.956816655373087,-2.479725017936862,-2.095739845742986,5.118355176211852,9.369881480171214,-4.5283172987819755,-3.850565284488644,11.09626917125809
352,1791341418.0664692,4.148418217873087,-2.518045330436862,-2.0382593769929858,5.263499528300163,9.462534728547912,-4.57114877767464,-3.8932204945631566,11.206789480306046
353,1791341418.0864692,4.2442189991230865,-2.503675213249362,-2.043049416055486,5.33440112874925,9.537703253819853,-4.607610461392187,-3.928152507039113,11.29726691020506
354,1791341418.0963464,4.220268803810587,-2.460564861686862,-2.071789650430486,5.306350965646336,9.575528029284628,-4.626593866854752,-3.945864556562713,11.343101645809732
355,1791341418.1163464,4.249009038185587,-2.4366146663743624,-1.9807789082429859,5.283432021168979,9.653333405097676,-4.666612595686652,-3.9824281974237494,11.437825549283035
356,1791341418.1405697,4.311279545998087,-2.551575603874362,-1.9185084004304858,5.36454507563788,9.74898534929924,-4.716873865673603,-4.027154216591175,11.554634805554606
357,1791341418.1605697,4.469350835060587,-2.5228353694993624,-2.076579689492986,5.536422888045,9.829285023871044,-4.759758942984961,-4.064535660110419,11.652922354848597
358,1791341418.1862364,4.3639699756855865,-2.4557748226243623,-1.9520386738679858,5.37452499411783,9.933883003377831,-4.816123387369869,-4.11306780294776,11.781103630764628
359,1791341418.2062364,4.426240483498087,-2.0965218929368623,-1.9903589863679858,5.286637661116632,10.016347294663198,-4.860284016229847,-4.151125970255871,11.881978819483683
360,1791341418.2157748,4.493301030373087,-1.9767709163743623,-1.9759888691804859,5.291683041953719,10.056157777959388,-4.881099935954206,-4.169391550037488,11.930434683510457
361,1791341418.2357748,4.526831303810587,-1.9911410335618625,-1.8753980488679858,5.289041700572147,10.140640818595545,-4.9241512959333145,-4.207722739478221,12.032655270110997
362,1791341418.2611961,4.411870366310587,-1.7851693538743625,-1.9137183613679858,5.129692750816435,10.248959677661608,-4.977864330715078,-4.256360472126282,12.162931893175184
363,1791341418.281196,4.387920170998087,-1.7516390804368625,-1.884978126992986,5.086769646289044,10.334595181499518,-5.0190889370442395,-4.294583914611407,12.26533987800876
