imu_index,t_imu,ax,ay,az,mag,vx,vy,vz,velocity
0,1790597276.1500626,0.041002734375000016,0.1272234375,0.005460644531249391,0.1337790937113863,0.0,0.0,0.0,0.0
1,1790597276.1700625,0.026632617187500013,0.1272234375,0.0006706054687493901,0.12998287986987767,0.00015373136706207883,0.0005438796766279267,1.6159181366730203e-05,0.000565419804225247
2,1790597276.1791227,0.06974296875000001,0.19428398437500002,-0.02327958984375061,0.20773128695018953,0.0002784148845801771,0.0009717718598693844,7.018329492065747e-06,0.0010108929975712836
3,1790597276.1991227,0.07453300781250001,0.14638359375,0.02462080078124939,0.16610090187549614,0.0007287783106217274,0.002285647378050259,-8.121275069917865e-06,0.002399034747128404
4,1790597276.2242718,0.04579277343750001,0.060162890625000014,0.01025068359374939,0.07629959384946347,0.0014371003297625217,0.004079552018179323,4.1470941101575454e-05,0.004325473600172632
5,1790597276.2442718,0.01705253906250001,0.06495292968750001,-0.028069628906250612,0.07278445047125127,0.0020101710087120517,0.005479847147985215,4.826528450366988e-05,0.00583710902649902
6,1790597276.2703145,-0.073958203125,0.05537285156250001,-0.01369951171875061,0.09340045567861864,0.002533306404815479,0.00726473653407088,-2.5798218192799948e-05,0.00769380944644493
7,1790597276.2903144,-0.02605781249999999,0.14638359375,0.0006706054687493901,0.14868630005197156,0.0027247714375069594,0.008732499369494927,-9.36882493301155e-05,0.009148207590175553
8,1790597276.2998917,-0.073958203125,0.22781425781250003,0.0006706054687493901,0.23951952234386595,0.0027308632589614907,0.009598714210794572,-0.00012035845151164702,0.009980351436522952
9,1790597276.3198917,-0.10748847656249999,0.136803515625,0.0964713867187494,0.1989364293851813,0.002469506686802467,0.011683200803696803,-2.1986107375357875e-05,0.011941362053157137
10,1790597276.3445523,-0.552962109375,0.06974296875000001,-0.056809863281250615,0.560230788747412,0.0009740526960509116,0.014249917912018,0.00015447131628623754,0.014284005059558425
11,1790597276.3645523,0.17512382812500002,0.16075371093750002,0.0725211914062494,0.24853457296785436,-0.0006236080027124779,0.01636505068162404,0.0002996806987939557,0.016379669693690414
12,1790597276.390022,0.02184257812500001,0.15596367187500002,-0.008909472656250611,0.15773757912080394,-0.0019767706494974568,0.01925961558448103,0.0005783782531204554,0.01936943303420061
13,1790597276.410022,0.002682421875000011,0.07932304687500001,0.043780957031249394,0.09064277881453676,-0.002843161110966848,0.02154454303004431,0.0008167040727192703,0.021746675723400607
14,1790597276.420044,0.06495292968750001,0.10327324218750002,0.0868913085937494,0.14978099056970326,-0.0031613469900564455,0.022655014717029385,0.0010164337907127988,0.022897094668784066
15,1790597276.440044,0.10327324218750002,0.10806328125000002,0.12042158203124939,0.19194893259756243,-0.003448740090303037,0.024855689325815295,0.001666200214529896,0.02514906207449517
16,1790597276.4646175,0.12243339843750002,0.15117363281250001,-0.028069628906250612,0.19654848861697927,-0.0033329057221909743,0.027631802474445858,0.002515007891310341,0.02794548323491936
17,1790597276.4846175,0.11764335937500002,0.11764335937500002,-0.061599902343750616,0.17741045059079924,-0.002892656751480617,0.029955541733243652,0.0029677085918569097,0.03024085378920658
18,1790597276.5095806,0.08411308593750001,0.11764335937500002,-0.10471025390625062,0.1785474964934433,-0.0020478458509164145,0.03286138899739702,0.0031366225906994485,0.03307420385653822
19,1790597276.5295806,0.11764335937500002,0.16075371093750002,-0.17656083984375062,0.2661868624698508,-0.0011698923677735773,0.03525787609940992,0.0028297473615844166,0.0353905911977168
20,1790597276.5401006,0.11764335937500002,0.16554375000000002,-0.21488115234375063,0.29566637076555746,-0.0005917187931296383,0.03658679284963743,0.002383696373276498,0.03666913621224797
21,1790597276.5601006,0.07453300781250001,0.08890312500000001,-0.1286604492187506,0.1732410057737905,0.0006308571546247649,0.03911595359529147,0.001147579045266197,0.03913786841517651
22,1790597276.5842373,0.05058281250000001,0.1272234375,-0.09034013671875062,0.16402976642088204,0.002111484915770797,0.04210164757710884,-0.0005168953629476677,0.04215773094075201
23,1790597276.6042373,0.11285332031250002,0.15596367187500002,-0.08076005859375061,0.20876476214714595,0.0033994725222106035,0.04462930757919567,-0.00194586566142296,0.044800869429063785
24,1790597276.6300945,0.09848320312500002,0.16075371093750002,-0.01369951171875061,0.18901950560529332,0.00522472690406392,0.04802124234800159,-0.0036993921071629705,0.04844608332806781
25,1790597276.6500945,0.136803515625,0.14638359375,0.01025068359374939,0.20062012591129494,0.006777681501672718,0.050711996495155405,-0.004857432222357048,0.051392978147384714
26,1790597276.6743557,0.136803515625,0.12243339843750002,-0.00411943359375061,0.18363580444305674,0.008876791816558954,0.05397558001209754,-0.006040335085279519,0.0550331383671632
27,1790597276.6943557,0.07932304687500001,0.1272234375,-0.04722978515625061,0.15718969883791828,0.010671839680065236,0.056636876118360595,-0.006946225486881796,0.05805061538965927
28,1790597276.7049868,0.05537285156250001,0.17991386718750002,-0.01848955078125061,0.1891481318560046,0.011590278193928034,0.05808419716602453,-0.00740792635053606,0.05969075206302248
29,1790597276.7249868,0.026632617187500013,0.22781425781250003,-0.01369951171875061,0.22977447417467486,0.013181945467852946,0.06101017489705746,-0.008194507786806773,0.06295359469605391
30,1790597276.7495797,-0.01647773437499999,0.20865410156250003,0.019830761718749392,0.21024107338798703,0.01486428364292732,0.06487345261935752,-0.009005332443210536,0.06716105862317956
31,1790597276.7695796,-0.03563789062499999,0.26134453125,0.02941083984374939,0.26539785372680835,0.01594903734862833,0.06824896543439521,-0.009491957862718255,0.07072757835017987
32,1790597276.7942183,0.031422656250000014,0.318825,0.03420087890624939,0.3221901054793049,0.017077141076703876,0.07285570723054668,-0.009883976596864602,0.07548030085250156
33,1790597276.8142183,0.06495292968750001,0.290084765625,0.06294111328124939,0.30385792414183244,0.01800006445141005,0.07694759446369195,-0.010008745749081867,0.07965619627796369
34,1790597276.8243897,0.09848320312500002,0.29966484375,0.0006706054687493901,0.3154336849310274,0.018523709063535662,0.07916635194325457,-0.010014155060531535,0.08191899888945256
35,1790597276.8443897,0.1320134765625,0.24218437500000004,-0.04243974609375061,0.2790733981173419,0.019744646762172243,0.08368744355706158,-0.010085849560136226,0.08657461317400746
36,1790597276.8695316,0.08411308593750001,0.17991386718750002,0.02462080078124939,0.20012544731592888,0.021456798618907317,0.08931431214161706,-0.01019605780977063,0.09241969571018253
37,1790597276.8895316,0.136803515625,0.20386406250000003,0.005460644531249391,0.24557193753574572,0.022945861796883963,0.09369464192367029,-0.010225454094404889,0.0970039092523764
38,1790597276.9148743,0.11285332031250002,0.24697441406250004,-0.01369951171875061,0.2718821614751566,0.025024204393141555,0.09926945567450318,-0.010272775467371664,0.10288909345127359
39,1790597276.9348743,0.10327324218750002,0.26134453125,0.005460644531249391,0.28106252899470063,0.026742554236062043,0.10377154014227633,-0.010316877117661513,0.10765748791435603
40,1790597276.9449105,0.10806328125000002,0.23739433593750003,0.02462080078124939,0.261992227596227,0.02763457614492762,0.10606726943809341,-0.01031304542076799,0.11009220840102052
41,1790597276.9649105,0.05058281250000001,0.20386406250000003,-0.02327958984375061,0.21133176808683385,0.029383506630529004,0.1106178038817207,-0.010304543242418415,0.11491680733885724
42,1790597276.9899673,0.007472460937500011,0.20386406250000003,-0.07117998046875061,0.21606245224702533,0.03135507298683685,0.11622997222856721,-0.010473003499263913,0.12083969070036121
43,1790597277.0099673,-0.02605781249999999,0.23739433593750003,-0.052019824218750614,0.24442001235422905,0.03266481766496805,0.12069947319412316,-0.010772096043490626,0.1255045465136409
44,1790597277.0350595,-0.01647773437499999,0.21823417968750003,-0.03764970703125061,0.22207019915681642,0.03398150272958347,0.12632327356996248,-0.011259803147014755,0.13129773471047318
45,1790597277.0550594,0.007472460937500011,0.22302421875000003,-0.061599902343750616,0.23149554594045635,0.03486005259171398,0.13079530078741503,-0.011739100325614805,0.1358692034687121
46,1790597277.0645468,0.031422656250000014,0.24697441406250004,-0.06638994140625061,0.25766522630585265,0.03524197260634669,0.1329329164663528,-0.012023431611247746,0.13804970054711158
47,1790597277.0845468,0.036212695312500015,0.23260429687500003,-0.06638994140625061,0.2445889256414413,0.036027769039446725,0.13748257119667395,-0.01273208035221584,0.14269395009916686
48,1790597277.12515,0.07453300781250001,0.22781425781250003,-0.04722978515625061,0.24430546027902036,0.037721014558937095,0.14673570275360326,-0.014300949120917965,0.15218002019880414
49,1790597277.14515,0.11285332031250002,0.22302421875000003,-0.04243974609375061,0.2535287086369226,0.0387110323428059,0.15128611846356205,-0.015092317018082136,0.15688789531952738
50,1790597277.1548405,0.15117363281250001,0.22302421875000003,-0.028069628906250612,0.27088959646636684,0.039310660764888705,0.15348437957662273,-0.015469485463041704,0.15919198410813348
51,1790597277.1748405,0.14638359375,0.19907402343750003,-0.03285966796875061,0.24927571302831705,0.04080891807211347,0.15797391290197954,-0.016222541994285463,0.16396431264313294
52,1790597277.1849673,0.14638359375,0.20865410156250003,-0.08555009765625061,0.2688559276397178,0.04167611425384212,0.16021584054408258,-0.016636584143602178,0.16638145928111508
53,1790597277.2049673,0.1272234375,0.18949394531250002,-0.052019824218750614,0.23409361475948648,0.043542293121865715,0.16457660273601424,-0.01753799448063627,0.17114020775037395
54,1790597277.2294958,0.09369316406250001,0.16075371093750002,-0.008909472656250611,0.18627813418442954,0.04589412092497387,0.16976686212287537,-0.018589768689439658,0.1768407116883733
55,1790597277.2494957,0.06495292968750001,0.19428398437500002,-0.01369951171875061,0.20531153470018862,0.04776207246917288,0.1738966341774697,-0.01935263588159646,0.18137193680492278
56,1790597277.2745667,0.08890312500000001,0.23739433593750003,-0.04722978515625061,0.25785749742033454,0.05004170023707028,0.17910865869960724,-0.020280048391509688,0.18707047801978582
57,1790597277.2945666,0.08411308593750001,0.25655449218750004,-0.061599902343750616,0.27692917263494454,0.051846985579306275,0.18338373087814544,-0.02107214909284044,0.1917335081091455
58,1790597277.319604,0.08411308593750001,0.17991386718750002,-0.056809863281250615,0.206570499825907,0.05408385858837207,0.18875237322803293,-0.022137361649109354,0.19759196577747065
59,1790597277.339604,0.11764335937500002,0.23260429687500003,-0.01369951171875061,0.26102182964472675,0.05590529979208,0.19301638616049463,-0.02296639067464968,0.20225771424576158
60,1790597277.3501596,0.08890312500000001,0.26613457031250004,-0.03764970703125061,0.2831057674963964,0.056885952823185745,0.1953241477370088,-0.023378961498499756,0.20477819746872197
61,1790597277.3701596,0.11285332031250002,0.21823417968750003,-0.03285966796875061,0.24787453856426706,0.058767924988649634,0.19976734096204746,-0.024149169122557126,0.20962786525609697
62,1790597277.394843,0.09848320312500002,0.17991386718750002,-0.008909472656250611,0.20529812373018388,0.0611334444514326,0.20516554289530692,-0.02503448000313523,0.21553868147283864
63,1790597277.414843,0.10327324218750002,0.22781425781250003,0.019830761718749392,0.25091424376651894,0.06306525753074549,0.20949497988028118,-0.025627828697054288,0.22027745891530578
64,1790597277.440049,0.08411308593750001,0.23260429687500003,0.02941083984374939,0.24908787134454596,0.06548895404301805,0.21500328092889384,-0.026170365056973934,0.2262743951909996
65,1790597277.460049,0.05537285156250001,0.23260429687500003,-0.02327958984375061,0.24023499103621243,0.06733283504004521,0.21941614447306415,-0.026527079639983665,0.23104294207826503
66,1790597277.469292,0.04579277343750001,0.22781425781250003,-0.04243974609375061,0.23621483063148355,0.06812729441983906,0.2214688164809868,-0.026712765588649393,0.2332452288126181
67,1790597277.489292,0.036212695312500015,0.21344414062500003,-0.04243974609375061,0.22061480575302006,0.06971149257487061,0.22590603045546853,-0.02718160306514398,0.2379749279616539
68,1790597277.514859,0.04579277343750001,0.24697441406250004,-0.052019824218750614,0.25651393999617866,0.07159013153060222,0.2316103769694139,-0.02787217124717312,0.24401920330686003
69,1790597277.534859,0.05537285156250001,0.26134453125,-0.04722978515625061,0.27128908807829055,0.07299101986333688,0.23616577485417725,-0.02848021643331702,0.24882340107243242
70,1790597277.5588062,0.04579277343750001,0.24697441406250004,-0.056809863281250615,0.2575280564650147,0.07459848385080327,0.24171503298319516,-0.029285919339671253,0.25465418911629045
71,1790597277.5788062,0.09848320312500002,0.25655449218750004,-0.06638994140625061,0.2827132347083727,0.07595602547852358,0.24640970663119857,-0.030042681942705127,0.25959511564526405
72,1790597277.5893724,0.1320134765625,0.26613457031250004,-0.028069628906250612,0.29840085719795006,0.07674831159946637,0.24893213626657354,-0.030457373990868578,0.26226925750081415
73,1790597277.6093724,0.15596367187500002,0.22302421875000003,0.005460644531249391,0.2722026593045652,0.07845498372252856,0.2537242033802342,-0.031158484253072407,0.26739859197981136
74,1790597277.6345882,0.14638359375,0.19428398437500002,-0.01848955078125061,0.2439596003273549,0.08085577806516586,0.25964895212394257,-0.031934486903200096,0.273815716567467
75,1790597277.6545882,0.12243339843750002,0.21823417968750003,-0.09034013671875062,0.2660402874363096,0.08287756617385109,0.264262064721109,-0.0326208952828367,0.27886780494459823
76,1790597277.6793444,0.09369316406250001,0.18470390625000002,-0.056809863281250615,0.21475870772121378,0.08540605404248812,0.2698638423589325,-0.03361630799177966,0.2850451607076208
77,1790597277.6993444,0.08411308593750001,0.17512382812500002,-0.04243974609375061,0.19885798563695103,0.08740906617605101,0.27425030286683394,-0.03444872838922711,0.28989703061596567
78,1790597277.7242522,0.07453300781250001,0.20386406250000003,-0.052019824218750614,0.22320794641842798,0.08982578683141292,0.2796017207149428,-0.03550637373146481,0.295814970517379
79,1790597277.7442522,0.06495292968750001,0.23739433593750003,-0.07117998046875061,0.25620605658283657,0.09168446538125383,0.28391603449805497,-0.03641303283670488,0.30056657298793893
80,1790597277.754809,0.08411308593750001,0.251764453125,-0.08555009765625061,0.27888917205989483,0.09263640362629201,0.2862389875074379,-0.036943905994968024,0.30311567665869993
81,1790597277.774809,0.07932304687500001,0.22781425781250003,-0.07597001953125061,0.2529089276711526,0.09441451183264088,0.29069912345736937,-0.038041077802264664,0.3080052012934793
82,1790597277.7994275,0.07932304687500001,0.18470390625000002,-0.061599902343750616,0.2102432560590276,0.09656785692817839,0.29612740291012296,-0.03944304921197451,0.3139626472641828
83,1790597277.8194275,0.12243339843750002,0.18470390625000002,-0.02327958984375061,0.222816986202259,0.09835744806324724,0.30042992248184086,-0.04053847644272107,0.31870941935289004
84,1790597277.830145,0.14638359375,0.22781425781250003,0.02462080078124939,0.2719074776701355,0.09938866448149568,0.30272125928487564,-0.041036354074986216,0.3212510697355012
85,1790597277.8501449,0.15596367187500002,0.26613457031250004,0.048570996093749395,0.3122681830121197,0.10147790588068432,0.30709671236861436,-0.04171630261627533,0.326107966835392
86,1790597277.8752418,0.15596367187500002,0.251764453125,0.019830761718749392,0.2968219431113691,0.10429346096193592,0.3127384779268055,-0.042312798266457556,0.3323745695334283
87,1790597277.8952417,0.17991386718750002,0.20386406250000003,-0.06638994140625061,0.279887798778887,0.10670446068496475,0.3172435055266138,-0.04278668763242789,0.33743145136077457
88,1790597277.9199228,0.17512382812500002,0.22781425781250003,-0.11429033203125062,0.3092409598284617,0.10989067636315385,0.3227681143315956,-0.04361822661620968,0.34374084143998423
89,1790597277.9399228,0.16554375000000002,0.23260429687500003,-0.08076005859375061,0.2967013298804737,0.11259629717272156,0.32726401327936006,-0.044483554118976316,0.34893903065116816
90,1790597277.9497323,0.16554375000000002,0.21823417968750003,0.02462080078124939,0.2750219521766372,0.113967866086053,0.3294700583553602,-0.04488561485245659,0.3515023645348293
91,1790597277.9697323,0.20386406250000003,0.24697441406250004,0.11563154296874939,0.34048138115006066,0.11689892447119275,0.3339909760796858,-0.045372013143662335,0.3567547480018893
92,1790597277.9950342,0.26134453125,0.3810955078125,0.1683219726562494,0.4917997931760857,0.12093358959571308,0.34004432270397567,-0.045356210401687365,0.363747522765052
93,1790597278.0150342,0.29966484375,0.42420585937500005,0.1587418945312494,0.5430917222598449,0.12448593293031417,0.3453194250452879,-0.04485499744701796,0.36980295240453515
94,1790597278.0393662,0.309244921875,0.35714531250000003,0.11084150390624939,0.4852535779717617,0.12927065877631294,0.3522003672357284,-0.04384472294929735,0.3777278936376615
95,1790597278.0593662,0.29487480468750005,0.23739433593750003,0.1347916992187494,0.40184079354014784,0.1335197647719831,0.35789965909355553,-0.04277042863103034,0.3843813251568435
96,1790597278.08469,0.25655449218750004,0.33798515625000003,0.1922721679687494,0.4658570165644454,0.13914025476530814,0.36512642233371,-0.040993013658408683,0.3928838784566861
97,1790597278.10469,0.251764453125,0.37630546875000004,0.3216032226562494,0.5553555424152825,0.14367578322100608,0.3710492037696043,-0.03902901762965217,0.39980433529335646
98,1790597278.1152503,0.290084765625,0.4098357421875,0.2114323242187494,0.5448101821245933,0.1461405388946784,0.37433005961672944,-0.037725377378250886,0.40361275344000547
99,1790597278.1352503,0.3906755859375,0.45773613281250003,0.1347916992187494,0.6166997510199185,0.15112945485248136,0.38091295486364046,-0.03510743503346632,0.41129955422001985
100,1790597278.1600523,0.3906755859375,0.539166796875,0.2689127929687494,0.7180824037130488,0.15784162348075886,0.38970627079862147,-0.03159695204711636,0.42164359710717525
101,1790597278.1800523,0.328405078125,0.7642986328125001,0.4509342773437494,0.946226198084197,0.1635209570217807,0.3976886589176063,-0.028110996390629514,0.43091252120944135
102,1790597278.2201576,0.23739433593750003,0.7882488281250001,0.2401725585937494,0.8575401702993922,0.1749031285192322,0.4159643780374642,-0.02009047848861533,0.4516869441192772
103,1790597278.2401576,0.15596367187500002,0.8505193359375001,-0.07117998046875061,0.8676257242427927,0.1803178770165906,0.42616929948014676,-0.01643722652588242,0.46303886554697815
104,1790597278.234724,0.21823417968750003,1.10439140625,0.1539518554687494,1.1362252017910004,0.1803178770165906,0.42616929948014676,-0.01643722652588242,0.46303886554697815
105,1790597278.254724,0.29966484375,1.286412890625,0.1922721679687494,1.3347755355569277,0.1854839824059698,0.4396210670669696,-0.013172882402949284,0.4773306141125677
106,1790597278.2797973,0.46252617187500006,1.4061638671875,0.1347916992187494,1.4864037416635243,0.192422363838586,0.45901886544286624,-0.009079303075996265,0.4978022887472808
107,1790597278.2997973,0.5247966796875,1.33431328125,0.02941083984374939,1.434108951590318,0.1986076504655269,0.47628151141893127,-0.006057504840501203,0.5160676024590491
108,1790597278.3245108,0.5535369140625,1.1858220703125,0.02462080078124939,1.3088862752359998,0.20710292048204923,0.4990840131226083,-0.002783484887079047,0.5403556417905512
109,1790597278.3445108,0.6110173828125001,1.0612810546875,0.0821012695312494,1.2273550169353171,0.2146934938702662,0.5181400958222305,-0.00037126243303433953,0.5608587995607152
110,1790597278.355118,0.5726970703125001,1.0517009765625,0.06773115234374939,1.1994350284383266,0.21905708287473805,0.5284117033942718,0.0008353854888043064,0.5720189085253569
111,1790597278.375118,0.6110173828125001,1.1283416015625,0.06773115234374939,1.2849453377142068,0.22782607662251003,0.5481438334139559,0.002972445630806649,0.5936120102659485
112,1790597278.399521,0.7834587890625001,0.9032097656250001,-0.10471025390625062,1.200233224066372,0.23947290046817518,0.5723268780951702,0.005121179897320327,0.6204285228230123
113,1790597278.419521,0.8074089843750001,0.5439568359375,-0.09513017578125062,0.9781861058902733,0.24997275325889068,0.5913443153894774,0.006318297181731781,0.6420392492632804
114,1790597278.4445348,1.1379216796875,0.41462578125000005,-0.04722978515625061,1.2120276152736371,0.264784456107734,0.6133597490462216,0.007323860736114755,0.668112736656318
115,1790597278.4645348,1.0038005859375,0.36672539062500004,-0.02327958984375061,1.0689457740039112,0.2780634743149897,0.6294940648027794,0.007901505235371609,0.6882183571767272
116,1790597278.4895823,0.8505193359375001,0.17991386718750002,-0.09992021484375062,0.8750635346901098,0.2956827361322348,0.6476962883857537,0.008284981311572568,0.7120445234328112
117,1790597278.5095823,0.979850390625,-0.150598828125,-0.01369951171875061,0.9914506904843633,0.31038663440411446,0.6600942684255582,0.008374820433802575,0.7294754578752356
118,1790597278.5351808,1.0038005859375,-0.5002716796875,-0.02327958984375061,1.1217973565350894,0.3301919604372189,0.6723329074799941,0.008401564077069292,0.7490853459365076
119,1790597278.5551808,0.77866875,-0.5673322265625,-0.40648271484375065,1.045666808782641,0.34601838097584237,0.6788591846205526,0.007774681691101115,0.7619966917199986
120,1790597278.5652351,0.6014373046875,-0.514641796875,-0.6555647460937506,1.0277879873210511,0.3538218783275587,0.6808320390153029,0.00670594364568857,0.7673116424329529
121,1790597278.585235,0.6110173828125001,-0.46674140625,-0.5262336914062506,0.9317251098786132,0.36883478100514144,0.6826956852842758,0.0031262159348378893,0.775965377842948
122,1790597278.610313,0.7355583984375,-0.7876740234375,-0.36816240234375064,1.138867893660051,0.38736834703285083,0.6823226247461164,-0.0023713005889905913,0.7846171191032452
123,1790597278.630313,0.6924480468750001,-0.9888556640625,-0.49749345703125064,1.3056873905182644,0.402074059326339,0.6794049390379812,-0.007396490342816028,0.7894994163656833
124,1790597278.6397927,0.7259783203125001,-0.92658515625,-0.6555647460937506,1.347356563671087,0.4090073228986482,0.6768675878594517,-0.010240893933033192,0.7909118772581047
125,1790597278.6597927,0.72118828125,-0.9505353515625,-0.7465754882812506,1.4074817765373597,0.4236114397562989,0.6695016971420004,-0.017444949682897712,0.7924541000195924
126,1790597278.6851726,0.6972380859375,-0.7637238281250001,-0.6795149414062507,1.2373987189754294,0.44206408452294454,0.658293425050019,-0.02793013206334663,0.7934424872454651
127,1790597278.7051725,0.6924480468750001,-0.8738947265625,-0.8280061523437506,1.3888018141743088,0.4565085780573041,0.648329465147587,-0.037214605390541174,0.7937985286411356
128,1790597278.714736,0.6684978515625001,-0.9696955078125,-0.9142268554687507,1.4909760221665875,0.46335564682536895,0.6429573144060948,-0.04223788163006765,0.7936476562290407
129,1790597278.734736,0.7355583984375,-1.0463361328125,-0.7322053710937506,1.4737673377434766,0.47763308013611155,0.6303837334924639,-0.053636904560088544,0.7927130175687762
130,1790597278.7601936,0.520006640625,-1.1612970703125,-0.47833330078125064,1.3593456287665693,0.49547782517830885,0.6125646671354897,-0.06828138394204268,0.7908198872431578
131,1790597278.7801936,0.4194158203125,-1.3481085937500001,-0.5358137695312506,1.5101002637210215,0.5088032469909916,0.5969014203693849,-0.07958183249840708,0.7883560856943831
132,1790597278.804322,0.4481560546875,-1.4870197265625,-0.5214436523437507,1.638284163113551,0.5240379145789771,0.5757088532150927,-0.09308323310082094,0.7840413942331248
133,1790597278.824322,0.45294609375000006,-1.721731640625,-0.2436213867187506,1.7969060593807917,0.5361233368579739,0.5559642498048889,-0.10374340557428824,0.7792863232374817
134,1790597278.8652813,0.45294609375000006,-2.0235041015625,-0.09034013671875062,2.0755457964559603,0.559944187580421,0.5100881660331866,-0.12332627447328957,0.7674221786654714
135,1790597278.8852813,0.5679070312500001,-2.2007355468750003,-0.2627815429687506,2.2879706035584095,0.5713621948417107,0.48471116562215466,-0.13198373163606372,0.7608017988870066
136,1790597278.879303,0.6780779296875,-2.30611640625,-0.3921125976562506,2.4355112085854653,0.5713621948417107,0.48471116562215466,-0.13198373163606372,0.7608017988870066
137,1790597278.899303,0.77866875,-2.181575390625,-0.17656083984375062,2.3230949049432987,0.5833854523337898,0.4538985207893697,-0.1399267430119125,0.7522911315304736
138,1790597278.925198,0.8409392578125,-1.9564435546875,-0.04722978515625061,2.1300424574675514,0.5997630669786339,0.4119512749903431,-0.14910300466575074,0.7427323175129392
139,1790597278.945198,0.8648894531250001,-1.8893830078125,-0.3442122070312506,2.1062487886778225,0.6130736093834831,0.3786444356326926,-0.15571432558788068,0.7372094752181231
140,1790597278.9700181,0.91278984375,-2.1480451171875,-0.5118635742187506,2.3894115264931246,0.630423460891567,0.3359948566577574,-0.1642819000193586,0.733017616716637
141,1790597278.9900181,0.9942205078125,-2.2007355468750003,-0.5453938476562507,2.475715212720446,0.6451673795203876,0.300259784496616,-0.17173595958615256,0.7320451663648458
142,1790597278.9990306,1.1379216796875,-2.0953546875,-0.3825325195312506,2.4148929881114753,0.65225593044455,0.2836683059249454,-0.17521830510940323,0.7325346142209431
143,1790597279.0190306,1.2337224609375002,-2.0187140625,-0.4112727539062506,2.401337721950531,0.669184353168663,0.2462011092236806,-0.1829776749108867,0.7361409608387015
144,1790597279.0444114,1.33431328125,-2.009133984375,-0.5501838867187506,2.4738054913221568,0.6923332448938544,0.19811846023014112,-0.19317780137996937,0.7455829324865307
145,1790597279.0644114,1.3391033203125,-2.1719953125,-0.2819416992187506,2.5671487026957145,0.7118483938387418,0.15964122128715302,-0.20125798929781058,0.7567814966032453
146,1790597279.0889943,1.2433025390625,-2.104934765625,-0.03285966796875061,2.4449194933484106,0.73699850774241,0.11155581479618398,-0.21028035269667922,0.7744864924319982
147,1790597279.1089942,1.0133806640625,-1.9277033203125,-0.20530107421875063,2.1874937697088335,0.7577757887622336,0.07225397765056243,-0.2168769006002952,0.7915051315907836
148,1790597279.1195123,0.9511101562500001,-1.9660236328125,-0.37774248046875064,2.216427042708567,0.7686133187626789,0.05161373837275866,-0.22028561717530717,0.8012216702651627
149,1790597279.1395123,0.979850390625,-1.7648419921875,-0.44480302734375066,2.0670326021934136,0.7890260657647584,0.012657370803876723,-0.22702881994401133,0.8211360585049532
150,1790597279.1642156,0.9079998046875001,-1.57803046875,-0.5693440429687506,1.907562959611002,0.8139549038959305,-0.03443600910386574,-0.23598739501590243,0.8481736112999664
151,1790597279.1842155,0.79782890625,-1.6307208984375001,-0.48791337890625064,1.879851344538869,0.8336688609346524,-0.07165726545598905,-0.24373827991819658,0.8715198692411964
152,1790597279.2093961,1.0038005859375,-1.57803046875,-0.16219072265625062,1.8772590676695557,0.8581687120752189,-0.11755041174814805,-0.25326083757289736,0.9024481644588374
153,1790597279.229396,1.2385125000000001,-1.4199591796875,0.015040722656249391,1.8842567521367861,0.8780725878688224,-0.15303090373808656,-0.25991045864331314,0.9284305970710593
154,1790597279.238973,1.2001921875000001,-1.2139875,0.03420087890624939,1.7074532606224526,0.8879253731386791,-0.1693638287304567,-0.26258158112066465,0.9412994536753595
155,1790597279.258973,1.08523125,-1.1756671875,-0.06638994140625061,1.60135187452997,0.9088434007977398,-0.20194124161990307,-0.2673714329096256,0.9686403230181653
156,1790597279.2845974,0.9846404296875001,-1.223567578125,-0.09034013671875062,1.573148351019771,0.9356019887557527,-0.24203038257111598,-0.2728889967394304,1.0041903166196602
157,1790597279.3045974,0.9702703125000001,-1.338528515625,0.06294111328124939,1.6544015988269585,0.9562867109309557,-0.2724697252681171,-0.27659059381195217,1.0320980482861486
158,1790597279.329186,1.0133806640625,-1.2954181640625,0.015040722656249391,1.6447719639563516,0.981560711340897,-0.30913669761436335,-0.28031501171648615,1.0665849397275287
159,1790597279.349186,1.0612810546875,-1.3097882812500001,-0.01369951171875061,1.6858382174336226,1.0021465653059058,-0.3383952074680319,-0.282887977040896,1.0949130843797819
160,1790597279.3592563,1.0996013671875,-1.491809765625,-0.04243974609375061,1.8537585267729015,1.0125891469267478,-0.353033507977023,-0.2840315788878281,1.1093436690376495
161,1790597279.3792562,1.0373308593750001,-1.7073615234375001,0.05336103515624939,1.998495955362293,1.033422944159803,-0.3825435678066462,-0.28594574190219274,1.1384496168465907
162,1790597279.419898,1.008590625,-1.9372833984375002,0.1826920898437494,2.1917341112440893,1.0756449358005362,-0.4446249956035595,-0.2885325110791744,1.19914737400307
163,1790597279.439898,1.0325408203125002,-2.2151056640625,0.1300016601562494,2.4473933235621854,1.0963675959543964,-0.4768215093279123,-0.289145486232015,1.2300348651257489
164,1790597279.4648292,1.1522917968750002,-2.42107734375,-0.028069628906250612,2.681451061203972,1.1224101297297795,-0.5196051024781169,-0.2896043838827295,1.2703010119674039
165,1790597279.4848292,1.171451953125,-2.6749494140625005,-0.12387041015625061,2.922840728603933,1.1436535229221017,-0.5564222441884207,-0.2901452050559976,1.3045050150677073
166,1790597279.493697,1.0469109375,-2.8090705078125002,-0.3346321289062506,3.0164346985498356,1.1531351088534323,-0.5739451790897536,-0.2906539705004377,1.3204595330559947
167,1790597279.513697,1.0325408203125002,-3.0246222656250006,-0.42564287109375065,3.224228938682713,1.1744310450850866,-0.6162882135226201,-0.2927697153903373,1.3582391350702168
168,1790597279.5249162,1.1187615234375001,-3.0821027343750003,-0.48791337890625064,3.314972711332895,1.1863955570100038,-0.6416166541685093,-0.294547250132478,1.3805667065231126
169,1790597279.5449162,1.0469109375,-2.9479816406250006,-0.6172444335937507,3.188668837512241,1.2077732844031988,-0.6890406814322714,-0.29889839406116475,1.4222635540430197
170,1790597279.5693877,0.960690234375,-2.8569708984375004,-0.6603547851562507,3.085656637285009,1.2336916690300672,-0.7490177991042258,-0.30576862036728836,1.4753024255421145
171,1790597279.5893877,0.8265691406250001,-2.8426007812500003,-0.6028743164062507,3.0211013202438224,1.2543776526304842,-0.7992323155973836,-0.3124361011514735,1.5198196955615009
172,1790597279.6141129,0.7882488281250001,-2.7515900390625005,-0.6220344726562507,2.9290802043100745,1.2791094403722136,-0.8623726426675785,-0.321713894797055,1.5758513144888608
173,1790597279.6341128,0.83614921875,-2.6509992187500004,-0.7801057617187507,2.887127876159305,1.2985505492167504,-0.9138890934858652,-0.3301961152260591,1.6218681446325782
174,1790597279.6446748,1.0325408203125002,-2.4354474609375,-0.8184260742187507,2.7690009244418183,1.3087576074650247,-0.9410431598985116,-0.3352699100124428,1.64645516685062
175,1790597279.6646748,1.0325408203125002,-2.2486359375,-0.7609456054687507,2.5887337328335485,1.3282840056396166,-0.9917751273435592,-0.34580549567973007,1.6933805667060378
176,1790597279.689252,0.8217791015625,-2.1384650390625,-0.6843049804687507,2.3909468671118113,1.3520979453174142,-1.0528528428259647,-0.35947423503991005,1.750968214456167
177,1790597279.7092519,0.8696794921875001,-2.0618244140625,-0.5358137695312506,2.300990814665493,1.3711072091151895,-1.1014006658868254,-0.37075906480387116,1.7973538020762154
178,1790597279.7343247,0.9942205078125,-2.1240949218750003,-0.5980842773437507,2.4203219740554984,1.3948683876265182,-1.1610044690487125,-0.38491638044024096,1.8551953578753106
179,1790597279.7543247,0.979850390625,-1.9564435546875,-0.6411946289062507,2.2801115592936347,1.4139401544777552,-1.2075381151512865,-0.39637430516229477,1.9011805936787258
180,1790597279.7798705,1.056491015625,-1.7648419921875,-0.6699348632812506,2.163250619906153,1.4385478567075791,-1.2651894013666987,-0.41132620545257614,1.959416598036418
181,1790597279.7998705,1.08523125,-1.875012890625,-0.6124543945312506,2.2513330698426484,1.4581361214091875,-1.3090143723405983,-0.4231998266247974,2.004688920707584
182,1790597279.8090959,1.2001921875000001,-1.913333203125,-0.3442122070312506,2.284685378030405,1.4673975500437884,-1.3288183694172078,-0.4285171387657973,2.0254976590929807
183,1790597279.8290958,1.3199431640625001,-1.760051953125,-0.3154719726562506,2.2225110572472024,1.4882441828168484,-1.370822120088555,-0.4393051041423206,2.070510325291271
184,1790597279.8546836,1.4636443359375,-1.7025714843750002,-0.5645540039062507,2.315108123793659,1.5162564698286998,-1.4231455283387355,-0.45272567126443025,2.128224003846813
185,1790597279.8746836,1.3534734375000002,-1.7025714843750002,-0.6747249023437506,2.2772557386617214,1.5390929053153117,-1.4630157884533013,-0.4635009248856037,2.1734891938598113
186,1790597279.8842533,1.286412890625,-1.65467109375,-0.48791337890625064,2.151941918122723,1.550275426892311,-1.4816410052539846,-0.4687177841542858,2.1950649942219655
187,1790597279.9042532,1.3391033203125,-1.57803046875,-0.48791337890625064,2.126367166810808,1.574078873950393,-1.5195767961110132,-0.4794490060312724,2.2398011719972653
188,1790597279.9303427,1.4396941406250001,-1.3816388671875,-0.8375862304687507,2.1640692852457306,1.6059094726282965,-1.5674312767100902,-0.4939414191279334,2.29777374147596
189,1790597279.9503427,1.5402849609375,-1.1469269531250001,-0.7896858398437506,2.076420699748623,1.6311203909010692,-1.6024063055221751,-0.5058256431019257,2.3418196512135516
190,1790597279.97387,1.458854296875,-0.92658515625,-0.5118635742187506,1.8024483986803843,1.6616213028582856,-1.6410371768888694,-0.5200055080727461,2.3925706046990234
191,1790597279.99387,1.3965837890625001,-0.6343927734375,-0.40648271484375065,1.5868612631004133,1.6879432432614865,-1.6712918252853328,-0.531628851934175,2.434131876860113
192,1790597280.0051315,1.363053515625,-0.5290119140625,-0.47833330078125064,1.5383664187423063,1.7028720732124099,-1.6867547053834302,-0.5379392554591401,2.456479875029268
193,1790597280.0251315,1.3007830078125,-0.5625421875000001,-0.4208528320312506,1.4783799418146013,1.7294039603361677,-1.7117343580026765,-0.5488140386559884,2.494407628961063
194,1790597280.0493245,1.4157439453125,-0.188919140625,-0.14782060546875062,1.4359221050546715,1.761613273806091,-1.738782085759874,-0.5610273967976475,2.5379905847277717
195,1790597280.0693245,1.382213671875,0.19907402343750003,-0.14782060546875062,1.4042777620281939,1.7884430632383916,-1.7577727647472188,-0.5700529469922012,2.571624787037778
196,1790597280.0945272,1.2816228515625,0.25655449218750004,-0.15261064453125062,1.315928322490638,1.8222161328581903,-1.7772527899056376,-0.5802882528287334,2.610715145405001
197,1790597280.1145272,1.286412890625,0.27571464843750004,0.1587418945312494,1.3251700576184753,1.8488490939910356,-1.7895942267210665,-0.5871830654565146,2.63925641441368
198,1790597280.1239207,1.3678435546875,0.49605644531250004,0.43656416015624944,1.5190971835169533,1.8613515098322906,-1.7939774820704812,-0.5895162289521227,2.6515116506492715
199,1790597280.1439207,1.401373828125,0.558326953125,0.3359733398437494,1.545462933177411,1.8881318201039636,-1.8003285893741718,-0.5925799114349452,2.675327223209032
200,1790597280.1696484,1.286412890625,0.33798515625000003,0.1347916992187494,1.3368847718445234,1.9226005272962252,-1.8055435760173142,-0.5950214555523862,2.703780857433678
201,1790597280.1896484,1.2816228515625,0.15596367187500002,0.2641227539062494,1.3178173734334162,1.9492282762054185,-1.8082485316590466,-0.5960363701848044,2.724795951918037
202,1790597280.2143471,1.44927421875,0.3427751953125,0.2401725585937494,1.508500398924844,1.9822380774759387,-1.8101640496374383,-0.5961675640466427,2.7497958918466336
203,1790597280.234347,1.4157439453125,0.270924609375,0.1731120117187494,1.4517915936026464,2.009256039654539,-1.810561939810233,-0.5956379376940572,2.769481706673302
204,1790597280.2595978,1.41095390625,0.07932304687500001,-0.08076005859375061,1.4154876397876928,2.0436036928839565,-1.810325638309258,-0.5948946705424089,2.7941894422763336
205,1790597280.2795978,1.3774236328125,-0.131438671875,-0.19572099609375063,1.3974543631212357,2.070910769201445,-1.81024472198621,-0.5948089880612473,2.8141526432928075
206,1790597280.2899148,1.343893359375,-0.2990900390625,-0.16698076171875062,1.386862209313818,2.084989988657751,-1.8105423772382379,-0.5950520702202532,2.824771480819634
207,1790597280.3099148,1.3151531250000001,-0.35178046875,-0.14782060546875062,1.3693897077867878,2.1121775930759976,-1.8120091436084271,-0.5959248105282575,2.8460143536208666
208,1790597280.3346608,1.3582634765625001,-0.4427912109375,-0.26757158203125064,1.4534573539522422,2.1457326076080845,-1.815026428739714,-0.5976136198641777,2.873261456781021
209,1790597280.3546607,1.3582634765625001,-0.6822931640625001,-0.36816240234375064,1.5639524251042896,2.172859041260224,-1.8187868703206838,-0.5997273993378213,2.8963727395405643
210,1790597280.379643,1.37263359375,-0.9313751953125,-0.44959306640625063,1.7186380254419524,2.2067771885672958,-1.825802976385158,-0.6035038950074892,2.9270529581555387
211,1790597280.399643,1.4301140625000002,-1.00322578125,-0.5310237304687506,1.8258352615298774,2.234062044800035,-1.8334792193208713,-0.6075446616980446,2.953267645110307
212,1790597280.4096997,1.4923845703125,-1.1038166015625,-0.5358137695312506,1.9320246352495354,2.2479282183992226,-1.838349382015063,-0.6100763998583575,2.96730566997989
213,1790597280.4296997,1.4923845703125,-1.1996173828125,-0.5885041992187506,2.003155202012775,2.275844858671836,-1.8500370916936495,-0.6160425456523542,2.996934346868339
214,1790597280.4542751,1.4253240234375,-1.1469269531250001,-0.5980842773437507,1.9247583771472345,2.310380437228755,-1.8665694775831572,-0.6244610105229971,3.0351097069196356
215,1790597280.474275,1.3917937500000002,-1.0702863281250001,-0.4016926757812506,1.8010995731737487,2.3384959573652426,-1.8813315057511373,-0.6317841137234578,3.0671033147741795
216,1790597280.4999573,1.4061638671875,-0.897844921875,-0.15740068359375062,1.675767674922813,2.3745732374864463,-1.9012351329034036,-0.6408541508073349,3.108695406980246
217,1790597280.5199573,1.5019646484375,-0.65834296875,-0.061599902343750616,1.6410691081204674,2.4028162819581653,-1.916744342815193,-0.6471864367886733,3.141064348993909
218,1790597280.5442858,1.52591484375,-0.46674140625,0.043780957031249394,1.5963021089015033,2.437543263346112,-1.934833129181835,-0.6537662864256256,3.180032508596467
219,1790597280.5642858,1.60255546875,-0.1745490234375,0.1443717773437494,1.6184852801607157,2.4665021066412014,-1.9484349492803565,-0.6580818533483415,3.211402048848605
220,1790597280.5898736,1.6312957031250002,0.1415935546875,0.1587418945312494,1.6451058916806849,2.504200374118623,-1.963289933810171,-0.6621932556579729,3.2502348816316493
221,1790597280.6098735,1.5833953125,0.49605644531250004,0.3072331054687494,1.687484783243694,2.534068326636099,-1.972202792926103,-0.6642258213631436,3.2790672579639693
222,1790597280.6196754,1.4828044921875,0.7642986328125001,0.3216032226562494,1.698908530496381,2.548764793311615,-1.9749891713628294,-0.6646102642186872,3.292186355893309
223,1790597280.6396754,1.343893359375,0.8696794921875001,0.1491618164062494,1.6076818802167743,2.5784938327618887,-1.977370796031915,-0.6645708805017786,3.3166670266702822
224,1790597280.6491601,1.267252734375,0.7068181640625001,-0.01369951171875061,1.4511061596075352,2.592335156970396,-1.977209382551389,-0.6644586426674464,3.327320813556973
225,1790597280.6691601,1.2816228515625,0.5679070312500001,-0.01848955078125061,1.4019334482344286,2.6209669058004774,-1.975007987810543,-0.6643057572059199,3.348346787934862
226,1790597280.6942484,1.2768328125000001,0.500846484375,0.03420087890624939,1.3719762870055072,2.6563096780128967,-1.9706497499346731,-0.6641131796395492,3.3734978668725315
227,1790597280.7142484,1.401373828125,0.4289958984375,-0.09992021484375062,1.4689690726371119,2.684275450533127,-1.966301820557456,-0.6640812668792349,3.3930342575462333
228,1790597280.7399986,1.4780144531250001,0.17512382812500002,-0.2532014648437506,1.5097370832772734,2.72044156566566,-1.9603768077201196,-0.6647283125886687,3.418441643498589
229,1790597280.7599986,1.44927421875,0.002682421875000011,-0.4304329101562506,1.511845047174517,2.7487089816892647,-1.9561984677076372,-0.6661809359161234,3.43888216582933
230,1790597280.769855,1.4684343750000002,0.10806328125000002,-0.6603547851562507,1.6137055582462732,2.762707075207476,-1.9543662937822193,-0.6675957880069763,3.449316182932227
231,1790597280.789855,1.5786052734375,-0.0787482421875,-0.5741340820312506,1.6816140577201928,2.7914209133076495,-1.9511622699697175,-0.6718877928810898,3.471382739662585
232,1790597280.8141568,1.765416796875,-0.4044708984375,-0.45438310546875066,1.8672860468890806,2.8271722381290636,-1.9487338014947857,-0.6781952964303091,3.500059307102697
233,1790597280.8341568,1.8276873046875002,-0.7780939453125,-0.3346321289062506,2.014410517532154,2.8575712612423416,-1.9488088436809397,-0.683791149838176,3.5257821485287777
234,1790597280.859334,1.7606267578125,-1.0702863281250001,-0.26757158203125064,2.0777184496479206,2.896875029948985,-1.952379424934966,-0.6909160388364908,3.561044134909427
235,1790597280.879334,1.6169255859375,-1.2187775390625,-0.4304329101562506,2.070057856758634,2.928479743898858,-1.9582239180418344,-0.6967738576626573,3.5911179780590796
236,1790597280.9048436,1.4636443359375,-1.53971015625,-0.4927034179687506,2.1807610518943643,2.968638081528362,-1.9698378699909853,-0.7048908264340665,3.631796300777608
237,1790597280.9248435,1.2816228515625,-1.6259308593750001,-0.5693440429687506,2.14717510519732,2.9995181071158776,-1.9823260417130317,-0.7118931679039928,3.6651762976803797
238,1790597280.9344988,1.0517009765625,-1.5828205078125002,-0.5741340820312506,1.985201664366672,3.0138793226251828,-1.9897741318231992,-0.7155946059667249,3.681676969413404
239,1790597280.9544988,1.018170703125,-1.6594611328125002,-0.5262336914062506,2.0167807838207037,3.0422699307144088,-2.007751407806726,-0.7237622809837944,3.7162217218909057
240,1790597280.97909,0.999010546875,-1.8606427734375002,-0.5070735351562506,2.171897136875625,3.0756620999381,-2.033032220417596,-0.7342043116812306,3.759251698615438
241,1790597280.99909,0.8026189453125,-2.066614453125,-0.6124543945312506,2.3000419245353627,3.1014486595845843,-2.0563998107378034,-0.74310221263153,3.7947285631596053
242,1790597281.025043,0.5343767578125,-2.2869562500000002,-0.5885041992187506,2.4211700892755066,3.132493820284476,-2.0906485342204166,-0.7552542903480243,3.841059472443444
243,1790597281.045043,0.4289958984375,-2.5791486328125,-0.6124543945312506,2.6853576179711016,3.154274335131105,-2.1203815659427927,-0.7650156807039995,3.876946421886662
244,1790597281.0543022,0.4002556640625,-2.6557892578125,-0.4735432617187506,2.727208169400645,3.163421213488026,-2.135717390729126,-0.7696111197476918,3.8936902576666492
245,1790597281.0743022,0.29487480468750005,-2.5887287109375006,-0.4927034179687506,2.6516455546225846,3.18125762490732,-2.1717408150445285,-0.7794977386084047,3.92994592434258
246,1790597281.098982,0.20386406250000003,-2.6366291015625003,-0.6316145507812506,2.718880379116353,3.2008893401608836,-2.2191977643564655,-0.7919488847350062,3.9746338600320574
247,1790597281.118982,0.290084765625,-2.8234406250000004,-0.5980842773437507,2.90063285111265,3.2151529613961416,-2.2600771100607386,-0.8023700173880195,4.011103932011502
248,1790597281.158516,0.42420585937500005,-2.8905011718750004,-0.45438310546875066,2.956587837740367,3.2412364601137855,-2.345704253704284,-0.8230001110452587,4.084760876599488
249,1790597281.178516,0.520006640625,-2.7468000000000004,-0.5549739257812506,2.8501426639014324,3.253868963533897,-2.390980793512445,-0.8333853081233933,4.122982350021703
250,1790597281.1743088,0.7690886718750001,-2.8282306640625006,-0.6555647460937506,3.0033566572538177,3.253868963533897,-2.390980793512445,-0.8333853081233933,4.122982350021703
251,1790597281.1943088,1.1475017578125,-2.8186505859375006,-0.45917314453125063,3.0777250342496987,3.2675144251137356,-2.439271564638719,-0.8441041535883422,4.1640374765948565
252,1790597281.2347374,1.29599296875,-2.7036896484375004,-0.36816240234375064,3.0207745769284164,3.2983693507333993,-2.5389902264136306,-0.8650300788202614,4.251351406428924
253,1790597281.2547374,1.171451953125,-2.5408283203125004,-0.3442122070312506,2.8189697187539533,3.315044813383174,-2.5887880550871682,-0.8748978573799691,4.296136865807321
254,1790597281.280025,1.1906121093750002,-2.4354474609375,-0.1382405273437506,2.714419270005572,3.3374461785169793,-2.6517449034531655,-0.8864180142882842,4.353852882625022
255,1790597281.300025,1.3103630859375002,-2.1719953125,-0.04722978515625061,2.5370939492095137,3.3562572883043083,-2.70097973780922,-0.8944408161508026,4.399974875263297
256,1790597281.2943883,1.2912029296875,-1.8414826171875,-0.01848955078125061,2.2491342997974577,3.3562572883043083,-2.70097973780922,-0.8944408161508026,4.399974875263297
257,1790597281.3143883,1.02775078125,-1.7025714843750002,-0.12387041015625061,1.9925775282982479,3.3766437358813572,-2.7469851611942273,-0.9005346223076408,4.445066141337253
258,1790597281.3396387,0.8409392578125,-1.798372265625,-0.17656083984375062,1.9931119816171305,3.4020602327981933,-2.802985654941585,-0.9076431083817299,4.5005064627870555
259,1790597281.3596387,0.8696794921875001,-1.8510626953125,-0.21009111328125063,2.0559459615925806,3.421737944378151,-2.846162419582431,-0.9130089101850681,4.543403608388524
260,1790597281.3997908,0.91278984375,-1.721731640625,-0.3154719726562506,1.9740992139996485,3.460685002981284,-2.9306011778213796,-0.9237481452396014,4.627966571739821
261,1790597281.4197907,0.7499285156250001,-1.7121515625000001,-0.35858232421875064,1.9032700898088082,3.479668870994282,-2.9715025186009045,-0.9293061098191032,4.669211123473135
262,1790597281.4147394,0.7307683593750001,-1.6642511718750002,-0.23404130859375064,1.8326291747866548,3.479668870994282,-2.9715025186009045,-0.9293061098191032,4.669211123473135
263,1790597281.4347394,0.7499285156250001,-1.4965998046875,-0.1334504882812506,1.6792893695729403,3.497493645543213,-3.010099918638164,-0.9346285708086488,4.708151854621137
264,1790597281.4593167,0.7451384765625001,-1.290628125,-0.22446123046875063,1.5070949373806697,3.5188681907901627,-3.055554138783313,-0.9408478320554962,4.754370524293852
265,1790597281.4793167,0.7690886718750001,-1.2523078125,-0.17177080078125062,1.4796207116879716,3.5359241375554378,-3.0908088728000487,-0.9457439946067123,4.79064616706988
266,1790597281.505019,0.7690886718750001,-1.2379376953125,0.043780957031249394,1.4580479741355041,3.5575202305368796,-3.1341196123538952,-0.9513390208772863,4.835669743465145
267,1790597281.525019,0.7451384765625001,-1.242727734375,0.02462080078124939,1.44921004511762,3.574075664874286,-3.1664872122713823,-0.9549370826768246,4.8695546978749595
268,1790597281.533791,0.8505193359375001,-1.2523078125,-0.19572099609375063,1.5264221913887492,3.581297596473108,-3.1801958832199673,-0.9563910665340305,4.884057964674394
269,1790597281.553791,0.979850390625,-1.2475177734375,-0.21009111328125063,1.6001705093302334,3.5980389115240845,-3.210512376251694,-0.9598175363087174,4.916759443974502
270,1790597281.5788653,1.018170703125,-1.2954181640625,-0.04722978515625061,1.6483356615359084,3.619636815563214,-3.2476015047016,-0.9639528851561154,4.957609441527388
271,1790597281.5988653,1.056491015625,-1.3481085937500001,-0.06638994140625061,1.7140529953764185,3.63739187976291,-3.276712697500414,-0.9669270228282585,4.990231823913707
272,1790597281.6241815,1.0517009765625,-1.36726875,-0.21488115234375063,1.7382959151023905,3.6604981459330954,-3.3131903635122777,-0.9706610744148854,5.0317650961302345
273,1790597281.6441815,1.0517009765625,-1.3624787109375,-0.2819416992187506,1.7441084552340158,3.679169221964738,-3.341779920407452,-0.9739137427521657,5.064808701087592
274,1790597281.6692493,0.999010546875,-1.3289484375,-0.02327958984375061,1.6627290704154032,3.7029165778138187,-3.377298855121993,-0.9779529217024687,5.106283448470435
275,1790597281.6892493,0.9846404296875001,-1.281048046875,-0.008909472656250611,1.6157599614052978,3.72199655857274,-3.4053013673133465,-0.9807404148962824,5.139181602713062
276,1790597281.6996303,0.9942205078125,-1.2523078125,-0.2388313476562506,1.6167218956972103,3.7319551866960854,-3.4196282620185703,-0.9821631196877154,5.156160525001008
277,1790597281.7196302,0.9702703125000001,-1.3097882812500001,-0.39690263671875065,1.6776476161736034,3.751210251503795,-3.4469332431926483,-0.9854465528320453,5.188837253422227
278,1790597281.744841,0.9175798828125,-1.376848828125,-0.33942216796875063,1.6890449801470635,3.775410904782357,-3.4812694373948716,-0.9903568816626153,5.230083283155789
279,1790597281.764841,0.9175798828125,-1.357688671875,-0.2915217773437506,1.6644086991317855,3.7944824328326683,-3.508524547679033,-0.9946143903554435,5.2628033613506995
280,1790597281.7893317,0.9223699218750001,-1.3481085937500001,-0.3106819335937506,1.662734590120699,3.817712667000346,-3.541863057797031,-1.0001519482371815,5.302832059147721
281,1790597281.8093317,0.9702703125000001,-1.3145783203125,-0.3202620117187506,1.6649649833268636,3.8366767374245323,-3.568998789763026,-1.004942222282351,5.335517746100213
282,1790597281.8194268,0.9415300781250001,-1.3337384765625,-0.21009111328125063,1.6460484463578473,3.8462606278451794,-3.5826463158433977,-1.0073990041289254,5.3520022603936015
283,1790597281.8394268,0.9223699218750001,-1.3433185546875002,-0.19572099609375063,1.6412122716027133,3.865195559233746,-3.6096440646019787,-1.012144894299604,5.384580231670182
284,1790597281.8791106,1.0133806640625,-1.3097882812500001,-0.3633723632812506,1.6954424751055943,3.902891879281772,-3.663073899083291,-1.0218131633417151,5.449291472502391
285,1790597281.8991106,1.0373308593750001,-1.376848828125,-0.35858232421875064,1.7607808752263818,3.9221165112049254,-3.689992432371979,-1.027037843341898,5.4821390724866825
286,1790597281.9106593,1.018170703125,-1.3528986328125001,-0.10471025390625062,1.696458230738706,3.9333327829512807,-3.7055690479647416,-1.0300035187231835,5.501204958848173
287,1790597281.9306593,1.0517009765625,-1.319368359375,0.01025068359374939,1.6872797303163856,3.952948146067147,-3.7325065096248915,-1.0345107367174349,5.534222289922184
288,1790597281.9392803,1.08523125,-1.3624787109375,-0.19093095703125063,1.7522927078794068,3.9615167393450044,-3.744110187811314,-1.0362789678740165,5.548499803896652
289,1790597281.9592803,1.1379216796875,-1.338528515625,-0.33942216796875063,1.7893383537924554,3.9817481514010002,-3.7710433625904916,-1.0405613289326243,5.581922093955908
290,1790597281.9848545,1.08523125,-1.338528515625,-0.22446123046875063,1.7377480534016934,4.008001924269658,-3.805451931666061,-1.0462974132436618,5.624969520462366
291,1790597282.0048544,1.056491015625,-1.3289484375,-0.15740068359375062,1.705007973830567,4.028666217096937,-3.832325606517565,-1.0506831620807042,5.658692971899807
292,1790597282.0299466,1.0469109375,-1.36726875,-0.32984208984375063,1.7533516903394437,4.054661368197551,-3.866058168533395,-1.0562771429872986,5.701088139647977
293,1790597282.0499465,0.9942205078125,-1.434329296875,-0.43522294921875065,1.7986644949949795,4.075334848946001,-3.8931144653118395,-1.0612146769298985,5.735056317211319
294,1790597282.059993,1.018170703125,-1.443909375,-0.2436213867187506,1.7835070069898,4.085678235827919,-3.90683556486169,-1.0638343847178953,5.752206044266338
295,1790597282.079993,1.0612810546875,-1.3720587890625,-0.09992021484375062,1.7374829055322207,4.106299796677722,-3.934277438308825,-1.068782590605217,5.786409353628739
296,1790597282.119956,1.056491015625,-1.3049982421875002,-0.1286604492187506,1.6839676925054055,4.147671502732205,-3.9889092670652473,-1.0778718768416162,5.854603643146298
297,1790597282.139956,1.0133806640625,-1.338528515625,-0.2627815429687506,1.6993095941475929,4.16837554181932,-4.016114551445643,-1.0823255580922657,5.888629667560244
298,1790597282.1496754,1.018170703125,-1.3481085937500001,-0.20051103515625063,1.7012563112194738,4.178408740981174,-4.029310770666015,-1.0845029751252233,5.905132648498973
299,1790597282.1696754,1.0421208984375,-1.2666779296875001,-0.06638994140625061,1.6416140133531754,4.199048069199618,-4.056314223723203,-1.0887118083856324,5.9389378823781716
300,1790597282.179789,1.0133806640625,-1.1900373046875001,-0.12387041015625061,1.5679518600250204,4.209478697638949,-4.069784697320313,-1.0906652232044944,5.955871810031374
301,1790597282.199789,0.979850390625,-1.242727734375,-0.32984208984375063,1.6165626539127023,4.2300012180002975,-4.096076145169249,-1.094629255052997,5.989070319951709
302,1790597282.2250519,0.9654802734375001,-1.357688671875,-0.3202620117187506,1.696478247513004,4.255721503622975,-4.1292315624189495,-1.1001170830556286,6.030918371931977
303,1790597282.2450519,0.9846404296875001,-1.434329296875,-0.22446123046875063,1.7541950152798471,4.275954497080351,-4.155730684204949,-1.1046270620892282,6.064164025407302
304,1790597282.2696173,1.008590625,-1.415169140625,-0.33942216796875063,1.7706400406417444,4.300750756975213,-4.188646583741269,-1.1103745329674746,6.105255840714049
305,1790597282.2896173,0.9511101562500001,-1.4486994140625,-0.43522294921875065,1.786829465045167,4.320850010287756,-4.215721105009896,-1.115513910034255,6.138926659450288
306,1790597282.314265,0.9367400390625,-1.4870197265625,-0.3346321289062506,1.7890467376972452,4.3453943959651395,-4.249509352636702,-1.1223206929790022,6.180646077273872
307,1790597282.334265,1.0421208984375,-1.4199591796875,-0.14782060546875062,1.7675267948011786,4.365291401762439,-4.277174196788848,-1.1277391356096753,6.214642684013544
308,1790597282.3443253,1.1139714843750002,-1.3337384765625,-0.08076005859375061,1.7396301270465413,4.375425459045674,-4.291080406078881,-1.1302283338693482,6.231784261813002
309,1790597282.3643253,1.0421208984375,-1.3289484375,-0.1382405273437506,1.6944705249410956,4.3957841963905455,-4.318573243704297,-1.1347630993043734,6.265834410038171
310,1790597282.3896627,1.008590625,-1.319368359375,-0.21967119140625063,1.6751845715895344,4.421604345957938,-4.353211333932021,-1.1403264725935232,6.308833360785964
311,1790597282.4096627,0.9894304687500001,-1.3097882812500001,-0.20051103515625063,1.6536996914222684,4.441925217170891,-4.380395241012118,-1.144689450365306,6.342623750483542
