imu_index,t_imu,ax,ay,az,mag,vx,vy,vz,velocity
0,1790566145.4706714,0.029766671316964054,0.030646474410076542,0.014516751036352553,0.0451220253946018,0.0,0.0,0.0,0.0
1,1790566145.4906714,0.0058164760044640525,0.08333690409757655,-0.04296371771364745,0.09394015125310988,9.132713981484064e-05,0.00021004912231568308,-2.4161569402302684e-05,0.00023031513560409035
2,1790566145.5003462,0.029766671316964054,0.00669627909757654,-0.03817367865114745,0.048868441931433436,0.00015469838344002798,0.0003617457751455183,-9.297032624811405e-05,0.0004042710442726149
3,1790566145.5203462,0.04413678850446406,-0.06994434590242346,0.004936672911352552,0.08285311317409463,0.00037690579553668056,0.000533426455387758,-0.0002637326029123854,0.0007043838781911663
4,1790566145.53044,0.0010264369419640525,-0.017253916214923462,0.00014663384885255204,0.01728504263902917,0.0005064216432751329,0.0005410631797714183,-0.00033314001894686003,0.000812523548893051
5,1790566145.55044,-0.008553641183035948,0.01627635722257654,-0.03338363958864745,0.03811235986015242,0.0007132587604497689,0.0005524584559841054,-0.0004998900149622782,0.0010314254369588086
6,1790566145.5758824,0.04892682756696406,-0.007673838089923461,-0.04296371771364745,0.06556373453804915,0.0010139512179163936,0.0005811953145422153,-0.00082588130231692,0.0014310712740729075
7,1790566145.5958824,0.08724714006696406,-0.03641407246492346,-0.014223483338647449,0.09560520697969292,0.001419127555275885,0.000534264800275904,-0.0011294816819365757,0.0018907910420740408
8,1790566145.6208117,0.039346749441964056,-0.031624033402423465,0.019306790098852552,0.05404626096417258,0.002085102248849217,0.00035733152557672554,-0.001441640715655047,0.0025600127266014613
9,1790566145.6408117,-0.018133719308035947,-0.04120411152742346,0.004936672911352552,0.04528776128426607,0.0025710687226408323,0.00012743361355507246,-0.0016181456201572004,0.0030405639198082314
10,1790566145.650544,-0.003763602120535948,-0.06994434590242346,-0.03817367865114745,0.07977221299676118,0.002756091337007198,-4.8786273094663816e-05,-0.001715412036390356,0.0032466995569287744
11,1790566145.670544,0.05371686662946405,-0.08910450215242346,-0.02859360052614745,0.10790138115597857,0.003154212881430599,-0.0005951747071651591,-0.0019854647950519532,0.0037743028873982215
12,1790566145.6959534,0.07287702287946406,-0.04120411152742346,-0.014223483338647449,0.08491847118750466,0.003825396743087039,-0.001433551625183291,-0.002358692525338147,0.00471721961892518
13,1790566145.7159534,0.020186593191964055,0.00669627909757654,0.009726711973852553,0.023386911388055855,0.004414041905105491,-0.0020462222920751764,-0.0026151425239504937,0.00552356425048056
14,1790566145.7410371,-0.008553641183035948,-0.007673838089923461,0.03846694634885255,0.04014671256683403,0.005063458835752439,-0.0027012060774861822,-0.0027978681047860325,0.006384606141821649
15,1790566145.761037,0.06329694475446405,-0.007673838089923461,0.014516751036352553,0.06539210248135073,0.005585701842023462,-0.0031681285131569077,-0.0028422309027383275,0.007022491000232241
16,1790566145.77064,0.12077741350446405,0.00669627909757654,0.004936672911352552,0.12106359694811078,0.00593141099628847,-0.0033593923636118313,-0.002846325663931919,0.007387064589181737
17,1790566145.7906399,0.06329694475446405,0.040226552535076544,0.028886868223852554,0.08036871219503999,0.006819537425344918,-0.003627606029585194,-0.0028028394302553783,0.008217148232407465
18,1790566145.8159773,0.0058164760044640525,0.04501659159757654,0.03846694634885255,0.059498158573009684,0.00790724701139466,-0.0037544416905994546,-0.002628018503051053,0.009139303527058272
19,1790566145.8359773,0.06808698381696406,-0.012463877152423461,0.004936672911352552,0.06939420968925225,0.008747892967830562,-0.00379071213404548,-0.002445618300736465,0.009842569722014478
20,1790566145.8600743,0.14951764787946406,-0.022043955277423463,-0.01901352240114745,0.15232523436968473,0.010002087857574964,-0.003890222548268937,-0.0022842589386366996,0.010972394081714814
21,1790566145.8800743,0.15430768694196406,-0.012463877152423461,-0.023803561463647448,0.15662956305054143,0.011342637769526329,-0.004012187087328392,-0.0022346483229942304,0.012237104638020826
22,1790566145.9064593,0.08245710100446406,-0.017253916214923462,-0.009433444276147448,0.08476945795345849,0.013314414671979694,-0.004207761987201065,-0.0022447886921671,0.014142771131247357
23,1790566145.9264593,0.05371686662946405,-0.060364267777423465,-0.009433444276147448,0.08135315885510097,0.014789097556758186,-0.004450198682034809,-0.0022796224701087655,0.015611481462664589
24,1790566145.935456,0.05850690569196405,-0.09868458027742347,-0.014223483338647449,0.11560281950049658,0.015428682527712744,-0.004650215969950916,-0.002308904170122375,0.016278814194373728
25,1790566145.955456,0.09203717912946406,-0.10826465840242347,-0.023803561463647448,0.1440787567251194,0.016863041997095343,-0.005338587131821713,-0.00242127464143413,0.017852878447161
26,1790566145.9807143,0.04413678850446406,-0.0028837990274234605,-0.03817367865114745,0.05842603989728749,0.0186607608522619,-0.006288095644793197,-0.0026593099618203173,0.019870482427369853
27,1790566146.0007143,0.0010264369419640525,0.02585643534757654,-0.01901352240114745,0.03211110175279213,0.019938451985608553,-0.006892699035701021,-0.002905299252900639,0.02129534999308714
28,1790566146.0263004,0.029766671316964054,-0.012463877152423461,0.019306790098852552,0.03760525360749512,0.021386918732120598,-0.007524451929711227,-0.0031722280648357713,0.02289280892752564
29,1790566146.0463004,0.07766706194196406,-0.04120411152742346,0.024096829161352553,0.09116253886927812,0.022510462197754485,-0.008024704290474884,-0.003284476044882392,0.024122698236215323
30,1790566146.055841,0.06329694475446405,0.03543651347257654,-0.01901352240114745,0.07499175779004456,0.023066895613239543,-0.008231670621847917,-0.003326352374426352,0.02471652674988004
31,1790566146.075841,0.010606515066964053,-0.012463877152423461,0.004936672911352552,0.01709435974145043,0.02416923978830733,-0.008565997711388955,-0.003422085584169341,0.02586965671364038
32,1790566146.1004672,0.039346749441964056,-0.04599415058992346,0.019306790098852552,0.06353251706062342,0.025415233899625772,-0.009023880244917036,-0.0034775046456321404,0.02719296908040172
33,1790566146.1204672,0.11119733537946405,-0.06515430683992346,0.009726711973852553,0.1292460445085504,0.026501183829498322,-0.009506688008546408,-0.0034722112922356075,0.02836804738635763
34,1790566146.1455379,0.11119733537946405,-0.04599415058992346,-0.009433444276147448,0.12070335187927775,0.028076436940231046,-0.010230114242478789,-0.003466019769768064,0.030082467347565773
35,1790566146.1655378,0.08245710100446406,-0.007673838089923461,-0.06212387396364745,0.10352505500284412,0.029435070076915187,-0.01080115890602189,-0.0035691572809772166,0.031556730943530835
36,1790566146.1766057,0.07766706194196406,-0.031624033402423465,-0.08128403021364745,0.11678760879094849,0.03020706793776836,-0.01110239041236756,-0.0037367130731452577,0.032398966817733535
37,1790566146.1966057,0.024976632254464053,-0.10826465840242347,0.009726711973852553,0.11153330150045081,0.03154680388654047,-0.011774907757741437,-0.004101410703441394,0.033921539733883954
38,1790566146.2209635,-0.05166399274553595,-0.060364267777423465,0.07199721978635255,0.10722225807955936,0.032884954932057696,-0.012779159796682898,-0.0043296522418805015,0.035545366428386176
39,1790566146.2409635,0.010606515066964053,0.040226552535076544,0.043256985411352554,0.060015335353565895,0.03375730164508486,-0.013510261798609344,-0.0043160672232220735,0.036615721002044785
40,1790566146.2656474,0.06808698381696406,0.07854686503507655,0.00014663384885255204,0.10394935725446158,0.034818138509925656,-0.014057353422752899,-0.0042214626364660375,0.0377853503535382
41,1790566146.2856474,0.04413678850446406,0.00669627909757654,0.00014663384885255204,0.04464210741806507,0.035717078623423375,-0.014306274061905853,-0.004155867997577496,0.03869948864958626
42,1790566146.2961211,0.0010264369419640525,-0.02683399433992346,0.024096829161352553,0.036080105330532,0.03615270436801353,-0.0144328958415435,-0.00410762564384793,0.03914331493274203
43,1790566146.316121,0.015396554129464054,0.0019062400350765398,-0.023803561463647448,0.028412975354342725,0.03688440612065816,-0.014675808161577186,-0.004028883230264382,0.03990076014504192
44,1790566146.3412023,0.06329694475446405,-0.05078418965242346,-0.05733383490114745,0.09936149031881024,0.03781239306758072,-0.015026684269232137,-0.0040975742247511705,0.04089460140595284
45,1790566146.3612022,0.04892682756696406,-0.11305469746492347,-0.01901352240114745,0.12464635216785024,0.038609717197202055,-0.015510265843088808,-0.0042586538393820615,0.04182600555987735
46,1790566146.386014,0.020186593191964055,-0.06515430683992346,0.004936672911352552,0.06838825179753047,0.03957910745673978,-0.016351828411381917,-0.004454707657641666,0.043054993436098477
47,1790566146.406014,0.05850690569196405,0.00669627909757654,0.009726711973852553,0.05968674135202309,0.04036133380357536,-0.01701611932028016,-0.004567040588843776,0.0440391126484832
48,1790566146.4154305,0.10161725725446406,-0.007673838089923461,0.00014663384885255204,0.10190670372667306,0.04078747138181358,-0.017282662284861607,-0.004605023807629549,0.044536664464726976
49,1790566146.4354305,0.04892682756696406,-0.022043955277423463,0.03367690728635255,0.06335538260017112,0.04178260394233555,-0.017808435500606557,-0.004622860583186624,0.04565410394644625
50,1790566146.4604266,0.034556710379464055,-0.031624033402423465,0.06720718072385255,0.08192100378862757,0.04299627276363166,-0.018467593186131923,-0.0044526814555831285,0.04700593411259874
51,1790566146.4804265,0.08724714006696406,-0.017253916214923462,0.08157729791135256,0.12068395340364688,0.04400440304940778,-0.018989207809323234,-0.004113764931263669,0.048103020309228875
52,1790566146.5055034,0.07766706194196406,0.02106639628507654,0.09594741509885256,0.12522728148166554,0.045389000726934456,-0.019537957514281574,-0.0034186763433613748,0.0495336301795072
53,1790566146.5255034,0.024976632254464053,0.030646474410076542,0.052837063536352556,0.06599086175893422,0.046481605659905834,-0.019832393940016704,-0.0027242888561961184,0.05060914209791543
54,1790566146.5661829,0.024976632254464053,-0.0028837990274234605,0.024096829161352553,0.034825359025237826,0.04852299218084569,-0.020256735952206187,-0.0012890551134753696,0.05259731727669569
55,1790566146.5861828,0.04413678850446406,-0.04599415058992346,0.00014663384885255204,0.06374589782458144,0.049479759628697335,-0.02050738574695009,-0.000652904374520736,0.05356515441226831
56,1790566146.5959249,-0.013343680245535948,0.030646474410076542,-0.02859360052614745,0.04398697747415117,0.049898395127810365,-0.020622377667783708,-0.00041029969140977767,0.053993524082435705
57,1790566146.6159248,-0.04687395368303595,0.05938670878507654,-0.03817367865114745,0.08474183415506156,0.050538594419720057,-0.020687990766954482,-8.710145369353377e-05,0.05460906586417487
58,1790566146.626192,0.020186593191964055,0.02106639628507654,-0.0046434052136474484,0.02954408247205969,0.05079740060748123,-0.02065466916750251,2.0957910932439407e-05,0.05483604385921676
59,1790566146.646192,0.11119733537946405,-0.03641407246492346,0.004936672911352552,0.11711192427932941,0.05142299394862088,-0.020622518512829417,0.00020031680894462724,0.055404446602017765
60,1790566146.6712773,0.07287702287946406,-0.017253916214923462,-0.014223483338647449,0.07623034544595943,0.05243626887627106,-0.020689212437966786,0.00037406324154729426,0.05637149748123239
61,1790566146.6912773,0.04892682756696406,0.01148631816007654,-0.01901352240114745,0.05373345321809193,0.053305660249630016,-0.020743061599107167,0.00044195391229468026,0.057201078157792906
62,1790566146.7011402,0.08245710100446406,-0.02683399433992346,-0.03817367865114745,0.09474421618260664,0.053767273185565706,-0.020776986692417412,0.0004281095194502125,0.05764361299908939
63,1790566146.7211401,0.06329694475446405,-0.03641407246492346,0.004936672911352552,0.07319056379181714,0.0547815536621274,-0.020930332989539054,0.0003543914561956538,0.058644889410704455
64,1790566146.7462003,0.039346749441964056,-0.022043955277423463,0.052837063536352556,0.06946839525328263,0.05605474192202243,-0.021203528410122626,0.0003844639079244697,0.05993222439956582
65,1790566146.7662003,0.07287702287946406,0.04980663066007654,0.028886868223852554,0.09287740348042373,0.05708676564957541,-0.021347211050724204,0.0005274498316780666,0.06094981899315732
66,1790566146.7910936,0.10640729631696406,0.04501659159757654,0.009726711973852553,0.11594660475568691,0.05851333438163835,-0.02132218773382168,0.0007508154272434388,0.062281696460674094
67,1790566146.8110936,0.10161725725446406,0.01627635722257654,0.024096829161352553,0.10569599780497017,0.059799595346548426,-0.0212131596130267,0.0009540902882737365,0.06345786029056497
68,1790566146.8211615,0.09203717912946406,0.05459666972257654,-0.0046434052136474484,0.10711302394612567,0.06049619837248258,-0.021112991902637858,0.0010557583236003635,0.0640832510898243
69,1790566146.8411615,0.12556745256696406,0.040226552535076544,-0.02859360052614745,0.13491832590149844,0.06199883772680718,-0.02080162136444462,0.001177572041510209,0.06540603952830071
70,1790566146.8807418,0.17346784319196407,-0.017253916214923462,-0.06212387396364745,0.18506260011864792,0.0654142209859969,-0.020209649481005926,0.0011131857980163703,0.06847400544711012
71,1790566146.9007418,0.15430768694196406,-0.022043955277423463,-0.11481430365114745,0.19359525442672948,0.06737281038429588,-0.020014340934808805,0.0008201245262281761,0.07028756665564381
72,1790566146.9109683,0.07287702287946406,-0.031624033402423465,-0.07170395208864745,0.10701680567809231,0.06839831220223687,-0.019970617360117304,0.0005496954268337654,0.07125627575814754
73,1790566146.9309683,0.029766671316964054,-0.055574228714923464,0.043256985411352554,0.07645728484211796,0.07025701866575008,-0.020028730824237822,5.7477699370355796e-05,0.07305615671464832
74,1790566146.9404616,0.14472760881696406,-0.017253916214923462,0.043256985411352554,0.15203599957084418,0.07113118703472572,-0.020104031471439077,-7.951824326410726e-05,0.07391768512017105
75,1790566146.9604616,0.26447858537946406,-0.012463877152423461,-0.05254379583864745,0.2699354012335667,0.0733103911555316,-0.02028345089303681,-0.0003387705461088689,0.0760654099902853
76,1790566146.9855435,0.13993756975446406,-0.007673838089923461,-0.06212387396364745,0.15329966384851276,0.07639414410416717,-0.02051259038981867,-0.0008308344700611767,0.07910449989618405
77,1790566147.0055435,0.08724714006696406,0.0019062400350765398,0.043256985411352554,0.09740053381688286,0.07882502592724333,-0.020676547873202535,-0.0011926457042751798,0.08150047084624325
78,1790566147.0306132,0.10640729631696406,0.02585643534757654,0.11031753228635256,0.15543817384452263,0.08177915721245752,-0.0207990384696361,-0.0012893873045720897,0.08439249418794563
79,1790566147.0506132,0.18783796037946407,-0.0028837990274234605,0.009726711973852553,0.1881117343021694,0.08422374596467182,-0.02084764145240805,-0.0011749224032980875,0.08677352119802162
80,1790566147.0606718,0.12077741350446405,0.030646474410076542,-0.05254379583864745,0.13523032384686964,0.0855016085880508,-0.020847474761447597,-0.001158290624226443,0.08801411200622095
81,1790566147.0806718,0.06329694475446405,0.05459666972257654,0.024096829161352553,0.08699400402141053,0.08793741946203938,-0.020719328444887365,-0.0011728518722430399,0.09035295177449382
82,1790566147.1055918,0.15909772600446406,-0.04599415058992346,0.10073745416135256,0.19384422348677477,0.09093284326289464,-0.020567530524191312,-0.0009549585452688194,0.09323474267439624
83,1790566147.1255918,0.20699811662946407,-0.06515430683992346,0.052837063536352556,0.2233496345890914,0.0935254127943982,-0.020630699136188143,-0.0005759539306582571,0.09577557260669725
84,1790566147.1506643,0.13993756975446406,0.11207713847257654,-0.04296371771364745,0.1843629285858862,0.09694040994883418,-0.020609774974435485,-0.00015352586764137303,0.09910716157643165
85,1790566147.1706643,0.07287702287946406,0.23182811503507655,0.09115737603635256,0.2595476884703919,0.09957510559815104,-0.020079730355025593,0.0002051838888758393,0.1015797190705001
86,1790566147.1806347,0.09682721819196406,0.14560741191007653,0.15821792291135256,0.2358175984025103,0.10081844261611436,-0.01957288788523258,0.0005436631861769003,0.10270224866752739
87,1790566147.2006347,0.08724714006696406,0.11207713847257654,0.06720718072385255,0.1571310076303023,0.10321449419783049,-0.018322174352837565,0.0014589215211744278,0.10483826752448129
88,1790566147.2251341,0.11119733537946405,0.07375682597257655,0.10552749322385256,0.17012045320640373,0.10607395888931812,-0.016678436894282972,0.002729304870439022,0.10741184346600299
89,1790566147.245134,0.12077741350446405,0.19350780253507655,0.26838882134885256,0.35222863693886214,0.10840608441349003,-0.015136961727985617,0.004171689453691446,0.1095372527550206
90,1790566147.2713673,0.034556710379464055,0.37552928691007653,0.29712905572385256,0.48010632917593266,0.11131181721440914,-0.012298778091537954,0.006892471805339998,0.11220109964570905
91,1790566147.2913673,0.020186593191964055,0.45216991191007655,0.24443862603635255,0.5144077853998752,0.11327694360174541,-0.00921799307256049,0.009467980020296257,0.11404507877897894
92,1790566147.3159406,0.05850690569196405,0.40426952128507654,0.22527846978635258,0.4664839684308496,0.11547428952631406,-0.0044221043573634605,0.013023445077487667,0.1162904840055314
93,1790566147.3359406,0.08724714006696406,0.32283885722257655,0.16779800103635256,0.37415659867819967,0.11721305831669092,-1.3616417578293273e-05,0.01607275263275583,0.1183099091477657
94,1790566147.345744,0.07766706194196406,0.26056834941007656,0.09594741509885256,0.2883295747736263,0.11805875240618616,0.0022520864173342964,0.01753713553772704,0.1193754247565424
95,1790566147.3657439,0.13035749162946406,0.20787791972257655,0.019306790098852552,0.24612813182574828,0.11983731479704554,0.006883731166481831,0.020249416474207547,0.12173087792374
96,1790566147.391362,0.21178815569196408,0.16476756816007654,0.028886868223852554,0.26988335547893894,0.12243114239258611,0.012642508236341407,0.023295061803624794,0.12526722455013664
97,1790566147.411362,0.26447858537946406,0.12644725566007656,0.00014663384885255204,0.2931515855146836,0.12486678843459216,0.016900815930682364,0.025359681847569367,0.12853196449328058
98,1790566147.4356987,0.24531842912946406,0.09770702128507655,0.024096829161352553,0.26515740769320717,0.12831652784539666,0.02171439017436294,0.02753940125629223,0.13302279759687058
99,1790566147.4556987,0.2788487025669641,0.14081737284757653,0.05762710259885256,0.3176586444171027,0.13151252263208255,0.025434600164059476,0.029184585404635012,0.13709194914290201
100,1790566147.4659026,0.26447858537946406,0.24619823222257656,0.03367690728635255,0.3629002972693985,0.13331431084213727,0.027344097960743045,0.02996791564372557,0.1393502103932038
101,1790566147.4859025,0.3890196010044641,0.22224803691007655,0.024096829161352553,0.4486770520671707,0.13729640505173824,0.031228062837758728,0.03135963421451271,0.14425297711589186
102,1790566147.5112338,0.5135606166294641,0.14081737284757653,0.10073745416135256,0.5419613216083223,0.14329820812206967,0.036099227687070905,0.03309509564691957,0.15143584795707302
103,1790566147.5312338,0.5039805385044641,0.15039745097257654,0.03367690728635255,0.5270198388435409,0.14885237014560757,0.039805122085835976,0.03446139722364966,0.15788940351030348
104,1790566147.556227,0.4417100306919641,0.19350780253507655,-0.06691391302614745,0.486857774521801,0.15652474952182266,0.04438621115310745,0.03585039569372962,0.16659947126204977
105,1790566147.576227,0.49440046037946406,-0.017253916214923462,-0.04775375677614745,0.49700093977216286,0.16314755030714653,0.04776657921361815,0.036623170100342876,0.17389659527774665
106,1790566147.5860786,0.5231406947544641,-0.14179493183992348,0.028886868223852554,0.5427858144419898,0.16667233758419778,0.04906441298277868,0.03693278842318265,0.17762605551505395
107,1790566147.6060786,0.46566022600446405,-0.12742481465242347,-0.04775375677614745,0.4851360126376607,0.17423787485377373,0.05090011258400416,0.03743876236615831,0.18534108940581226
108,1790566147.6305695,0.537510811941964,0.04501659159757654,-0.16271469427614746,0.563400779380853,0.18395518772032482,0.0526594530001408,0.03757882003547846,0.19499922254909854
109,1790566147.6505694,0.777012765066964,0.040226552535076544,-0.30162582708864744,0.8344729786954022,0.19267211373625692,0.05400854017209199,0.03697952907229986,0.20348698089442152
110,1790566147.6755738,0.796172921316964,0.0019062400350765398,-0.3734764130261475,0.8794200279026726,0.20488572244293507,0.05552121103633719,0.03507663126200393,0.215153745485863
111,1790566147.6955738,0.594991280691964,0.01627635722257654,-0.4213768036511475,0.7292722088213414,0.21527625563963143,0.056576919647244206,0.032590610317872006,0.22495991189516867
112,1790566147.705647,0.4896104213169641,-0.09868458027742347,-0.4213768036511475,0.6534641701745889,0.2205439593177042,0.0569666213773753,0.030889627006191356,0.22986735957778787
113,1790566147.725647,0.5710410853794641,-0.24238575215242347,-0.43574692083864747,0.7580990390827672,0.2310249611463443,0.05711269545382397,0.026733282688869646,0.23947663990041732
114,1790566147.7514884,0.6285215541294641,-0.2902861427774235,-0.45969711615114744,0.8310396063314872,0.24486075020700482,0.05624074627114696,0.020433050967109522,0.25206609868226476
115,1790566147.7714884,0.7339024135044641,-0.22801563496492347,-0.5459178192761475,0.9426718133790567,0.25600634893746904,0.05488967684786296,0.014779981174886884,0.26224144440626845
116,1790566147.7962492,0.7003721400669641,-0.3381865334024235,-0.5938182099011475,0.9785250800909148,0.27039874182923224,0.05241643548248781,0.006714524809004554,0.2755141505166882
117,1790566147.8162491,0.7099522181919641,-0.5776884865274236,-0.6465086395886475,1.1205933966630355,0.28239561974371513,0.0493445695282366,-0.0006834686671656079,0.286675146676134
118,1790566147.8267994,0.7291123744419641,-0.7357597755899236,-0.6081883270886475,1.201182893296196,0.2889135458308172,0.04692789469909421,-0.004993432566997295,0.29274254667578836
119,1790566147.8467994,0.695582101004464,-0.8411406349649235,-0.5028074677136475,1.2017351524423299,0.30155313540495854,0.04066847824995734,-0.01360471206332535,0.3045871086997191
120,1790566147.8713992,0.8105430385044641,-0.8507207130899236,-0.46927719427614745,1.2652773743397019,0.3175465036323349,0.03100285021113696,-0.024401217649592195,0.31998809058012995
121,1790566147.8913991,0.8967637416294642,-0.7980302834024235,-0.4644871552136475,1.2871619396513774,0.33115987254905493,0.02185017652887735,-0.03326291903620876,0.3335426707092494
122,1790566147.9162955,0.9446641322544641,-0.8746709084024236,-0.4213768036511475,1.3546209548906505,0.3490025084868105,0.009042441480160018,-0.04429357198481065,0.35191822515633087
123,1790566147.9362955,0.8488633510044641,-0.9704716896524236,-0.48843735052614745,1.3787513678993615,0.3638762744885134,-0.00247076849851283,-0.05319034663680731,0.36775162923902444
124,1790566147.960917,0.8249131556919641,-0.9944218849649236,-0.5986082489636475,1.4239692536913116,0.38253120910514893,-0.018146749761505553,-0.06450740870396791,0.38835632638603257
125,1790566147.980917,0.9207139369419641,-0.9848418068399235,-0.5938182099011475,1.4731760263421,0.39803000619402545,-0.03193917359589927,-0.07410994819012592,0.40612840464753025
126,1790566147.9907181,0.9015537806919641,-1.0279521584024236,-0.49801742865114745,1.4551653578492294,0.4058255422827893,-0.03916397440898409,-0.07891247208048192,0.41527745654017917
127,1790566148.010718,0.6860020228794641,-1.0423222755899235,-0.22019516302614747,1.267091319284362,0.42172814373806755,-0.05480071917702859,-0.08831971383088896,0.43434792263143823
128,1790566148.0368626,0.6237315150669641,-0.9129912209024236,0.028886868223852554,1.106086987306338,0.44196637520491133,-0.0760094235911312,-0.0991476245187677,0.45928418297840284
129,1790566148.0568626,0.777012765066964,-0.7692900490274235,-0.15313461615114746,1.1040861502950683,0.45722702784110114,-0.09232341351490958,-0.10637464597084441,0.4784304891798542
130,1790566148.0805726,0.7913828822544641,-0.8746709084024236,-0.3926365692761475,1.243181217628326,0.4753938297400256,-0.11168601271725288,-0.11462766369689291,0.5016099680789595
131,1790566148.1005726,0.676421944754464,-1.0758525490274236,-0.3447361786511475,1.3167567685283459,0.49062105895374253,-0.12849470105485514,-0.12165110236088675,0.521554313944087
132,1790566148.1112251,0.638101632254464,-1.1812334084024236,-0.15792465521364746,1.3518233075872628,0.4985651616310853,-0.13790783462052983,-0.12523244430756536,0.5322301723401267
133,1790566148.131225,0.695582101004464,-1.1333330177774235,-0.17708481146364746,1.341505579143591,0.5132433743923458,-0.1564017401239572,-0.1314502844150568,0.5524123848577643
134,1790566148.156309,0.7865928431919641,-1.0471123146524235,-0.2824656708386475,1.3397609322785542,0.531679645831253,-0.18021941994895926,-0.1389434302291848,0.5783317057898852
135,1790566148.1763089,0.7339024135044641,-0.9561015724649236,-0.2824656708386475,1.2379538863059092,0.5464551665128449,-0.1993661497878099,-0.14486914221737457,0.5994557356941331
136,1790566148.200739,0.7195322963169641,-0.9656816505899235,-0.35910629583864745,1.256672235485529,0.5644593175583197,-0.22276696198552604,-0.1521971978973723,0.6256224321253808
137,1790566148.220739,0.714742257254464,-1.0566923927774234,-0.40700668646364746,1.339070479879607,0.5791391685171213,-0.24208430373874928,-0.15844569666376332,0.6473886200873807
138,1790566148.2312524,0.695582101004464,-1.0566923927774234,-0.44532699896364747,1.341174637471731,0.5868105713786823,-0.2523822325518532,-0.16190976726683723,0.6589827089734864
139,1790566148.2512524,0.7530625697544641,-0.9561015724649236,-0.5363377411511475,1.3299968509053741,0.6013878904721698,-0.2720527630689401,-0.16898352774398193,0.6813483201335514
140,1790566148.2763119,0.8201231166294641,-0.9704716896524236,-0.5698680145886474,1.3925396873691114,0.619869884388131,-0.29662334811911834,-0.17859635071000546,0.7100146059819346
141,1790566148.2963119,0.7578526088169641,-1.1572832130899235,-0.45490707708864747,1.456223012033443,0.6347747686012812,-0.31648331429466153,-0.18665471481980012,0.733444393014361
142,1790566148.321402,0.7722227260044641,-1.1477031349649236,-0.3543162567761475,1.427967238553441,0.6535476164824555,-0.34199814225608827,-0.19677040185890027,0.76341719090169
143,1790566148.341402,1.011724679129464,-1.0423222755899235,-0.40700668646364746,1.508534717988516,0.6689431580736258,-0.36257085759195096,-0.20476631202072024,0.7879541979373202
144,1790566148.3513198,1.097945382254464,-1.0087920021524235,-0.39742660833864746,1.5430791538466708,0.6770016795852528,-0.3727680239390633,-0.2087349833926001,0.8005358000268298
145,1790566148.3713198,0.9925645228794641,-0.9944218849649236,-0.2633055145886475,1.4294715846734845,0.6939505470151192,-0.39325179694438,-0.2165287771964556,0.8264980634319474
146,1790566148.3958504,0.9829844447544641,-0.9417314552774235,-0.19145492865114747,1.374689616674612,0.715255261909978,-0.41816936029461876,-0.22549089253173793,0.8586628245090628
147,1790566148.4158504,1.054835030691964,-0.9034111427774235,-0.32078598333864744,1.4253884670418342,0.7330763674576966,-0.4382051907031176,-0.23247008820241344,0.8851367643437738
148,1790566148.441025,1.0260947963169642,-1.0040019630899235,-0.35910629583864745,1.4798134357506445,0.756072561231356,-0.46324335165453745,-0.24122098723417035,0.9189274647007237
149,1790566148.461025,0.9398740931919641,-1.0614824318399236,-0.31120590521364744,1.451536213670903,0.7745504435106665,-0.48324941215306444,-0.24813578527816896,0.9460601206183813
150,1790566148.470893,0.8967637416294642,-0.9656816505899235,-0.28725570990114746,1.3487928311857857,0.7836590993708236,-0.49313997236055845,-0.2514786749862871,0.9594530422794653
151,1790566148.490893,0.9973545619419641,-0.8746709084024236,-0.32557602240114747,1.365930110435567,0.8021922550695901,-0.5129395090167861,-0.2581569011264478,0.9865416056118599
152,1790566148.515997,1.0260947963169642,-0.8890410255899236,-0.30641586615114746,1.3918172147375867,0.8257754619460203,-0.5373848123056252,-0.2664719704753056,1.0206345384602205
153,1790566148.535997,0.9590342494419641,-0.9082011818399235,-0.25851547552614745,1.3458849614230242,0.8447232531386654,-0.5566345688512004,-0.2729501739553901,1.0478078140077067
154,1790566148.5608487,0.834493233816964,-0.7788701271524235,-0.21540512396364747,1.1616440933808085,0.8680788857475182,-0.58011071595176,-0.2806758019028847,1.0811421277595947
155,1790566148.5808487,0.8201231166294641,-0.6686992287149235,-0.20582504583864747,1.0780188005820865,0.886537332403269,-0.5983410308865712,-0.2865923967574676,1.1072920269135413
156,1790566148.5913603,0.9686143275669641,-0.6830693459024235,-0.33036606146364744,1.2304223589672652,0.8961937427859908,-0.6075510302149503,-0.28965832431080724,1.1207958885392804
157,1790566148.6113603,0.9111338588169641,-0.7836601662149235,-0.35910629583864745,1.2542908340993517,0.9146302281517077,-0.6246460282143287,-0.29565091465273574,1.1463597071372407
158,1790566148.636448,0.7099522181919641,-0.8171904396524236,-0.22498520208864745,1.1056449285072858,0.9373378340261256,-0.6458852338785223,-0.30313936594143,1.1779912672097677
159,1790566148.656448,0.7530625697544641,-0.7740800880899236,-0.20103500677614747,1.098507301155521,0.9549195975689677,-0.662664356024307,-0.30885275811698387,1.202657687275501
160,1790566148.6810243,0.9063438197544641,-0.7165996193399236,-0.36868637396364745,1.2128082191309961,0.9763424042704143,-0.6829378021177204,-0.31587051963240714,1.2326486592337504
161,1790566148.7010243,0.9398740931919641,-0.7501298927774235,-0.4836473114636475,1.2961376813354746,0.9939302937873955,-0.6991614248524562,-0.32200333885581184,1.2571436978899055
162,1790566148.7264535,0.8632334681919641,-0.8028203224649235,-0.4309568817761475,1.2551558965800347,1.016377177014632,-0.7196567862922563,-0.3303756743985494,1.2884395764827417
163,1790566148.7464535,0.8680235072544641,-0.8363505959024236,-0.31120590521364744,1.2449081266714124,1.033980270125541,-0.735817117386949,-0.33708599864055333,1.3130761591499651
164,1790566148.7565868,0.9063438197544641,-0.8076103615274235,-0.2728855927136475,1.2442508438270181,1.0429098030178932,-0.7440261960928772,-0.3404198019038921,1.3255645888569678
165,1790566148.7765868,0.8728135463169641,-0.7836601662149235,-0.25851547552614745,1.2011481981141656,1.0605590874789486,-0.7601849870458492,-0.3468098279605645,1.3501643786347328
166,1790566148.8014007,0.9063438197544641,-0.7836601662149235,-0.24893539740114745,1.2237447478123784,1.0824829564072713,-0.7801427568420031,-0.35449308144525493,1.380600382716816
167,1790566148.8214006,0.9207139369419641,-0.8028203224649235,-0.22977524115114745,1.242992874190324,1.100243571930203,-0.7961955332871554,-0.36047493979018325,1.405135376758014
168,1790566148.845883,0.8776035853794641,-0.8555107521524236,-0.23456528021364745,1.247841164091409,1.1220254469300135,-0.8159433687452062,-0.3675516507796559,1.43519995141744
169,1790566148.8658829,0.9063438197544641,-0.8794609474649235,-0.2537254364636475,1.2881332519703395,1.1398262628553983,-0.8322583248980726,-0.3731980124105094,1.4598406027112016
170,1790566148.8758802,0.9973545619419641,-0.8411406349649235,-0.2920457489636475,1.3369833243176146,1.1488170235067092,-0.8404804743069662,-0.376006307403745,1.4722665262775885
171,1790566148.8958802,0.9925645228794641,-0.8363505959024236,-0.27767563177614746,1.327316995983838,1.1670902019153198,-0.8569780294995014,-0.3816362425359511,1.4973834191911402
172,1790566148.92097,0.8488633510044641,-0.8842509865274235,-0.25851547552614745,1.252716666664797,1.1900402372283485,-0.8778073286201297,-0.38864849400113693,1.5289830359722976
173,1790566148.94097,0.7913828822544641,-0.8171904396524236,-0.2633055145886475,1.1676544330398,1.208050793932213,-0.8944727368775335,-0.3941824958826941,1.5539781329857076
174,1790566148.9666054,0.8680235072544641,-0.8363505959024236,-0.2728855927136475,1.2358857856304353,1.2308639331901323,-0.9158090477406661,-0.401242754374417,1.5857893876205367
175,1790566148.9866054,0.8776035853794641,-0.8890410255899236,-0.33036606146364744,1.2921779029297307,1.2486107396793795,-0.9325461529804208,-0.40682959036198657,1.6106462747218495
176,1790566148.9965057,0.8201231166294641,-0.9800517677774235,-0.32557602240114747,1.3187505982240277,1.2573385699448485,-0.9409763803980796,-0.4096673858619594,1.6230108425321748
177,1790566149.0165057,0.7003721400669641,-1.0519023537149235,-0.16750473333864746,1.2747852885971922,1.2746059778240248,-0.9584999582481557,-0.4152798206505753,1.6479684153848424
178,1790566149.0408797,0.6333115931919641,-1.2147636818399234,-0.31599594427614747,1.4059117374812704,1.2949312637363684,-0.9807961485646266,-0.4219775849916464,1.6783542966478964
179,1790566149.0608797,0.42254987444196407,-1.3488847755899234,-0.6800389130261475,1.568595377220965,1.310691201758335,-1.0001923990193373,-0.4281430827635891,1.703409158347188
180,1790566149.086468,-0.10914446149553596,-1.6985576271524234,-0.5554978974011475,1.7904157171589836,1.3284316393972273,-1.0271342827542012,-0.43721922221111104,1.7351933908448018
181,1790566149.106468,-0.16183489118303596,-1.8805791115274235,0.17737807916135256,1.8958458032457361,1.3398113174971455,-1.0504022590537585,-0.44381628146875723,1.7593783458981842
182,1790566149.116352,0.25489850725446406,-1.6602373146524234,0.7617628447863526,1.8443545813269857,1.3446606298939479,-1.0628014037181392,-0.44589135061696955,1.7710104827151818
183,1790566149.136352,0.6812119838169641,-1.1045927834024236,0.9485743682238525,1.6074726486294684,1.3544052677159608,-1.088274294424508,-0.4468948190216614,1.7940093501401568
184,1790566149.1614149,0.38422956194196406,-0.5728984474649236,1.1449659697863526,1.3367094146996332,1.3667876845971396,-1.1185604502027884,-0.44402843483188126,1.821111557940239
185,1790566149.1814148,-0.415706961495536,-0.5249980568399235,1.3174073760363527,1.4778353873001333,1.3751394060445776,-1.1407502562036795,-0.43839062287263586,1.8397026583956584
186,1790566149.2060027,-0.808490164620536,-0.2519658302774235,1.0587452666613526,1.3557598111735543,1.3816093035418175,-1.1653710722642199,-0.428117351511512,1.857476371416012
187,1790566149.2260027,-0.48276750837053595,-0.41003711933992354,0.8384034697863526,1.0507689015785886,1.3841456877780096,-1.1833868385886241,-0.41816872024998564,1.8684562540596845
188,1790566149.2363644,0.08724714006696406,-0.5968486427774236,0.43604018853635257,0.7442925579729619,1.3849552700903023,-1.1921029443038107,-0.412797224526195,1.8733958680816094
189,1790566149.2563643,-0.12351457868303595,-0.3956670021524235,0.28754897759885256,0.5044726377690659,1.3862291186062479,-1.2078918856431748,-0.4028990416109209,1.8822756478277771
190,1790566149.2814312,-0.741429617745536,0.12165721659757654,0.18695815728635257,0.7742555837683509,1.385960096101676,-1.225227654155161,-0.3914620091216007,1.890849199983501
191,1790566149.3014312,-1.014461844308036,0.24619823222257656,0.16300796197385256,1.0565595102847982,1.3831438141744585,-1.2364327437692473,-0.38318062726704644,1.894381200726661
192,1790566149.3263705,-0.444447195870536,0.23182811503507655,-0.04296371771364745,0.5031137703121207,1.377429964630345,-1.2474151326910397,-0.374178478608477,1.8956179347595106
193,1790566149.3463705,0.039346749441964056,0.33241893534757655,-0.20582504583864747,0.39295605958395186,1.3729274435954988,-1.2540549571573,-0.3684153067425291,1.8956037136465682
194,1790566149.371525,-0.10435442243303596,0.5383906150350766,-0.26809555365114746,0.6104338831738421,1.3679912852834377,-1.2595105374080193,-0.3631481620386641,1.894635463102422
195,1790566149.391525,-0.535457938058036,0.9120136619100766,-0.14834457708864746,1.0679373747985417,1.3636956115062653,-1.2610219251264045,-0.360213178153997,1.8919819106446958
196,1790566149.4005697,-0.46839739118303597,1.3335370994100768,-0.31120590521364744,1.4472616995588465,1.3613633998436847,-1.2600796332678237,-0.35939671198985373,1.8895176594039673
197,1790566149.4205697,0.17346784319196407,1.4676581931600767,-0.39742660833864746,1.5303788987002969,1.3565374673154313,-1.2541067474724037,-0.35892506019595527,1.881968340095828
198,1790566149.4462912,0.31716901506696404,1.4676581931600767,-0.4213768036511475,1.5595432558039892,1.3522084130675067,-1.241914819784739,-0.35998903302539403,1.8709388327441558
199,1790566149.4662912,-0.19057512555803596,1.6927900290975768,-0.45969711615114744,1.7644201312871368,1.3495371288667106,-1.229116217161814,-0.36201384757829497,1.8609221271505192
200,1790566149.4914587,-0.6264686802455359,1.9562421775350767,-0.3926365692761475,2.0912938435400954,1.3451376553069505,-1.208538830857527,-0.3657884571390998,1.8449288909850594
201,1790566149.5114586,-0.21931535993303597,2.0999433494100765,-0.5459178192761475,2.180799753126681,1.3408972477625838,-1.1885550563479943,-0.36974594030632396,1.8295848194059392
202,1790566149.5215096,0.4896104213169641,1.7311103415975768,-0.6177684052136475,1.9021301695542467,1.3392896349944583,-1.1771306714763765,-0.3723136689531774,1.8215243100830114
203,1790566149.5415096,0.08724714006696406,1.6879999900350768,-0.6321385224011474,1.8045927909951847,1.3374358519351313,-1.1526791449891434,-0.37853150766617083,1.8057380683893158
204,1790566149.5661557,-0.43965715680803596,1.6496796775350768,-0.5602879364636475,1.7968483591420434,1.3348426788473593,-1.1208976564537496,-0.38724857629804393,1.7855469731599793
205,1790566149.5861557,-0.05166399274553595,2.0712031150350767,-0.5075975067761475,2.1331213610019417,1.3323170172226684,-1.0933945721828828,-0.3948631336905588,1.7681903797973864
206,1790566149.6114638,0.39380964006696406,2.032882802535077,-0.5219676239636475,2.13545047283209,1.330249854102464,-1.0560223409038343,-0.4050075538409648,1.746075306937213
207,1790566149.6314638,0.42254987444196407,1.4437079978475766,-0.5075975067761475,1.5876071328654766,1.3300858369668846,-1.0257037767362607,-0.413366112070171,1.7297595537874437
208,1790566149.6410627,0.20699811662946407,1.2233662009725765,-0.5602879364636475,1.3613947457357518,1.330472151029225,-1.0114150299486069,-0.41754483638862666,1.7226317650226584
209,1790566149.6610627,0.6333115931919641,1.0748749900350765,-0.6800389130261475,1.4208774547806835,1.3324167849345552,-0.9826619924781764,-0.4268059358508127,1.7097141243827882
210,1790566149.700705,0.9877744838169641,0.9407538962850766,-0.7758396942761475,1.5692812225569797,1.3405128783722422,-0.928226034401801,-0.44673762559300584,1.6906072442006168
211,1790566149.720705,0.7003721400669641,0.8066328025350765,-0.7902098114636474,1.3287622657349147,1.3465169766668075,-0.9022609629016565,-0.45763408542685025,1.6842243822521432
212,1790566149.7314675,0.5854112025669641,0.7443622947225765,-0.7949998505261475,1.2364490544426632,1.3503011431155998,-0.8891324789702173,-0.4638977331275272,1.6819842000030434
213,1790566149.7514675,1.0644151088169642,0.5719208884725765,-0.8093699677136474,1.4543564800920996,1.3587532134388332,-0.8664207750564337,-0.4761981181812955,1.680374929067663
214,1790566149.7615795,1.773340890066964,-0.07952442402742346,-0.7710496552136474,1.9353499986321518,1.3645377597925068,-0.8562867030971562,-0.48268295721171545,1.6817172928239743
215,1790566149.7815795,1.888301827566964,-0.09868458027742347,-0.8955906708386475,2.0922488112245365,1.3797549748875229,-0.8395170053775292,-0.4960849766155385,1.6895599714329652
216,1790566149.8062472,1.5865293666294642,0.09291698222257655,-0.6944090302136475,1.7343335601911467,1.4021371153986837,-0.8219466611384442,-0.5130770123966212,1.7043570121265734
217,1790566149.8262472,1.615269601004464,0.29409862284757654,-0.5028074677136475,1.7170920864876678,1.4223646527235059,-0.8092573853625457,-0.5265830421356481,1.7191010503591453
218,1790566149.851222,2.4918467494419643,0.20308788066007655,-0.46927719427614745,2.543770035801817,1.4515278754762684,-0.794857308948297,-0.5427395838260666,1.7416364634230848
219,1790566149.871222,2.5253770228794643,-0.09868458027742347,-0.6369285614636475,2.606328019739693,1.4789046680275721,-0.7848987902115605,-0.5553964041257287,1.7639983825687324
220,1790566149.8958097,1.9122520228794642,-0.2711259865274235,-0.6033982880261475,2.02343929821726,1.5156960496714464,-0.7751743413095238,-0.5709097214528762,1.7955967488452642
221,1790566149.9158096,1.7158604213169641,-0.37171680683992353,-0.7183592255261475,1.8969423678192823,1.5465759174034768,-0.7694150828156994,-0.5836183237238642,1.823323061265597
222,1790566149.9258554,2.214024483816964,-0.3860869240274235,-1.0297117645886475,2.4720990768936018,1.5627208409509128,-0.767527147301813,-0.590361257760215,1.838401687132551
223,1790566149.9458554,2.348145577566964,-0.49146778340242353,-1.1063523895886476,2.6418447807390755,1.596885392428706,-0.7656486126812335,-0.6049761044634615,1.8714317624815138
224,1790566149.9717205,2.032002999441964,-0.8028203224649235,-0.7710496552136474,2.3169104925976116,1.6429383180647799,-0.7660943665316681,-0.6246836574106145,1.917387954283897
225,1790566149.9917204,2.0128428431919643,-0.9082011818399235,-0.6896189911511474,2.3134260418351116,1.6792741535949496,-0.7689538708383318,-0.6398275703580786,1.9546434606340897
226,1790566150.0015638,2.5493272181919644,-0.7692900490274235,-0.9866014130261475,2.8397638622132275,1.6978430145506875,-0.771388533665833,-0.6474003882999189,1.9740411431124165
227,1790566150.0215638,2.434366280691964,-0.8267705177774235,-0.8237400849011475,2.6996733885988737,1.7373879501212937,-0.7779874133740579,-0.6631945540387898,2.0158393589524533
228,1790566150.0466392,1.9841026088169642,-0.8267705177774235,-0.5411277802136475,2.216536019535704,1.7878408934176138,-0.7881296305115839,-0.6825933567380178,2.0696514357083156
229,1790566150.0666392,1.854771554129464,-0.5968486427774236,-0.5650779755261475,2.0287234751975958,1.8278039575817968,-0.7971410106148394,-0.6974041534039528,2.1125041186565316
230,1790566150.0909655,2.0559531947544643,-0.6016386818399235,-0.5890281708386474,2.221681081647114,1.876255578697904,-0.808644213504718,-0.7148222254737112,2.164534886450403
231,1790566150.1109655,2.1757041713169643,-0.7980302834024235,-0.24414535833864745,2.330267780816552,1.91646254185184,-0.818782506956546,-0.7282442691000482,2.207617082624685
232,1790566150.1365194,2.0559531947544643,-0.6255888771524235,0.028886868223852554,2.149218330787661,1.9682392196472753,-0.8325215663405667,-0.7432337458490473,2.2626210874003347
233,1790566150.1565194,1.9936826869419642,-0.09389454121492347,-0.18666488958864746,2.004602360092204,2.00875855655181,-0.8427408201565135,-0.7534422934885758,2.3049942121609566
234,1790566150.1807797,1.7925010463169642,0.23182811503507655,-0.6944090302136475,1.9362355686254673,2.0574255867506044,-0.8530265414938899,-0.765571081809807,2.3551546460503467
235,1790566150.2007797,1.969732491629464,-0.2615459084024235,-0.8045799286511475,2.1437353410277002,2.0971715322452846,-0.8602786638845483,-0.7763186069497622,2.396013020559663
236,1790566150.2109294,1.6200596400669642,-0.4435673927774235,-0.8189500458386475,1.8686959214619123,2.117049131504414,-0.8639437165932887,-0.7821905736875833,2.4166335808745045
237,1790566150.2309294,1.5913194056919642,-0.4483574318399235,-0.6321385224011474,1.7700059178210177,2.1551596217020044,-0.8714202795831893,-0.7942022901211296,2.4565918619740676
238,1790566150.2561126,1.5961094447544641,-0.21364551777742347,-0.7183592255261475,1.763306480393954,2.201969010634448,-0.8806726996690423,-0.8096090139443305,2.505936687786968
239,1790566150.2761126,1.5098887416294642,-0.26633594746492345,-0.9387010224011475,1.7977370381867326,2.2382268005472308,-0.8876385408962997,-0.8224949500555052,2.544417287482384
240,1790566150.286361,1.5817393275669642,-0.5920586037149235,-0.8141600067761475,1.8749104531253202,2.256395507998016,-0.8913323606549146,-0.8294548320191515,2.563940206795823
241,1790566150.306361,2.0463731166294643,-0.7309697365274236,-0.4405369599011475,2.2172127776155595,2.291975746715247,-0.8994441735683669,-0.8428818601954692,2.6024224244237466
