imu_index,t_imu,ax,ay,az,mag,vx,vy,vz,velocity
0,1790596728.3794825,0.08468789062499976,-0.46338837890625006,-0.052019824218749525,0.4739270942198007,0.0,0.0,0.0,0.0
1,1790596728.3994825,0.12300820312499977,-0.5448190429687501,-0.12387041015624953,0.5721037372100478,0.00041952080108527927,-0.002103129310215649,-0.00033016031257569354,0.0021698286637500818
2,1790596728.4095364,0.16132851562499978,-0.60708955078125,-0.11908037109374953,0.6393471259037385,0.0008131792452733656,-0.0038703611683090153,-0.0006544292403356616,0.004008644869367203
3,1790596728.4295363,0.14695839843749978,-0.6741500976562501,-0.14303056640624953,0.7046508837486398,0.0019412419248146127,-0.008780411791153611,-0.0015958980481503454,0.009132959104965784
4,1790596728.4550242,0.12300820312499977,-0.65019990234375,-0.10950029296874952,0.6707318728106674,0.003679267028699551,-0.016630776692179904,-0.003098467774720664,0.017312430268584835
5,1790596728.4750242,0.027207421874999763,-0.5017086914062501,-0.004119433593749521,0.5024627593869911,0.00506382262601334,-0.02359469414966847,-0.004271084954318275,0.024507020591886076
6,1790596728.499258,-0.11170371093750024,-0.3196872070312501,0.02462080078125048,0.3395347010362269,0.006336254317131778,-0.03226001601218954,-0.005441546259469498,0.033323672930396536
7,1790596728.519258,-0.21708457031250025,-0.20951630859375006,0.06294111328125049,0.3081953568365325,0.006735681118838685,-0.03913252966337482,-0.006131280207657604,0.04017856238063284
8,1790596728.5443683,-0.15960410156250024,-0.20951630859375006,0.09647138671875048,0.28049470807443605,0.006452538121342817,-0.04725593376909712,-0.006567138393493343,0.04814442679351339
9,1790596728.5643682,-0.05422324218750024,-0.16161591796875005,0.2018522460937505,0.26420483376974396,0.005940105677221747,-0.05331228876841107,-0.006414735404931076,0.054024381713243946
10,1790596728.5746639,-0.03985312500000024,-0.051445019531250046,0.12042158203125049,0.13688030912350224,0.005643240186743689,-0.056126855487286485,-0.006099198346439396,0.05673861372262482
11,1790596728.5946639,-0.09733359375000024,0.11620634765624996,0.043780957031250484,0.15777996040837225,0.004947280610215052,-0.06067708251098944,-0.005331884874507595,0.06111147947641779
12,1790596728.6499677,-0.16439414062500024,0.20242705078124998,0.03420087890625048,0.2630054076968516,0.0022258966954464853,-0.07005037784246065,-0.0032049283940931285,0.07015897389487367
13,1790596728.6699677,-0.19313437500000025,0.26948759765624997,0.03420087890625048,0.333307894018635,0.0008530710963314109,-0.07222378837393872,-0.0024485151257536606,0.07227031592362058
14,1790596728.6499677,-0.23145468750000026,0.38923857421874997,0.11084150390625049,0.46622288555343083,0.0008530710963314109,-0.07222378837393872,-0.0024485151257536606,0.07227031592362058
15,1790596728.6699677,-0.23145468750000026,0.49461943359375,0.12042158203125049,0.559214640252948,-0.001374509337746962,-0.07162841666740932,-0.001370183379572777,0.0716547050283037
16,1790596728.6951332,-0.19313437500000025,0.70059111328125,0.11084150390625049,0.7351289912685401,-0.004558366089273328,-0.0687357839490864,0.0002196224110606682,0.06888711730434625
17,1790596728.7151332,-0.26498496093750024,0.90177275390625,0.06773115234375049,0.9423367965905411,-0.00739632183987114,-0.06437819238856997,0.0015614359799706148,0.06482048529823138
18,1790596728.754983,-0.39910605468750027,0.93530302734375,-0.03285966796874952,1.0174267313303804,-0.014187520038302929,-0.05150757721537016,0.003938174877151582,0.05357075187821797
19,1790596728.774983,-0.4374263671875003,0.98799345703125,-0.06159990234374953,1.0822511010926132,-0.01833945574168365,-0.04313200595030277,0.004810407060522446,0.04711523734723248
20,1790596728.7842345,-0.39431601562500024,1.09816435546875,0.0006706054687504793,1.1668121192000729,-0.020549089137521005,-0.03839126729192257,0.005111085787905409,0.043843787092277466
21,1790596728.8042345,-0.3272554687500003,1.16522490234375,0.11084150390625049,1.2153728044748175,-0.025691689404301256,-0.02628498772969122,0.005830856765504433,0.037215082628108354
22,1790596728.8138037,-0.28414511718750024,1.18917509765625,0.2545426757812505,1.2488666199002714,-0.02822192829319308,-0.019671760809163795,0.006385812144694617,0.03498905552692747
23,1790596728.8338037,-0.28893515625000027,1.23707548828125,0.3024430664062505,1.3058756053471252,-0.03357661157994725,-0.004283744280121484,0.008207188877334909,0.03482954578395146
24,1790596728.8597407,-0.27935507812500027,1.22270537109375,0.1970622070312505,1.2695988333390031,-0.04058470758138426,0.01746384635758403,0.011186619699971928,0.045576801987190475
25,1790596728.8797407,-0.16918417968750024,1.00236357421875,0.0006706054687504793,1.016541426253163,-0.04585084385896662,0.03505550613956929,0.013436031941462475,0.05925972787325906
26,1790596728.8898034,-0.10691367187500024,0.79160185546875,-0.07597001953124953,0.8023935908785297,-0.04831135726748217,0.043932751483488755,0.014341198036473619,0.06685614298669675
27,1790596728.9098034,-0.08296347656250025,0.72933134765625,-0.09034013671874952,0.7395731832751785,-0.05275298060409545,0.06121142704645485,0.015620926723113616,0.08230266772935384
28,1790596728.9350138,-0.03985312500000024,0.64790068359375,-0.06159990234374953,0.6520414981749809,-0.05774414225762255,0.08232856989600222,0.016704797071128905,0.1019383619221786
29,1790596728.9550138,0.06552773437499976,0.51856962890625,-0.07597001953124953,0.5281853726333822,-0.06107129425864618,0.09831808595556552,0.017229322996153644,0.11701708669804554
30,1790596728.979359,0.15174843749999978,0.38923857421874997,-0.07597001953124953,0.4246241865592622,-0.06411707777721057,0.11651951796738977,0.017494609038182486,0.13414119082310472
31,1790596728.999359,0.17569863281249978,0.29822783203125,-0.09992021484374952,0.3602692031032657,-0.0657527481059512,0.1302605963015195,0.017416020554007847,0.1469508918116856
32,1790596729.0248668,0.14695839843749978,0.29343779296874994,-0.13345048828124953,0.3542760816597556,-0.0669086851664192,0.14628904571820833,0.01688436351355731,0.16174776282564465
33,1790596729.0448668,0.15174843749999978,0.23116728515624996,-0.21967119140624952,0.3531590779578566,-0.06723100982981776,0.1577582546337992,0.016000353956633673,0.17223149222652995
34,1790596729.0539198,0.13737832031249977,0.14973662109374997,-0.33463212890624955,0.39150034519114524,-0.06715871539270367,0.16242968567855307,0.01528387129197195,0.17642928488349457
35,1790596729.0739198,0.09905800781249977,0.020405566406249957,-0.38732255859374953,0.40030943087535387,-0.06666830454339485,0.17145705417524157,0.012855507329207323,0.1844110851490058
36,1790596729.0990493,0.05594765624999976,-0.07539521484375004,-0.38253251953124956,0.3938853985109491,-0.06585240046566752,0.1809947086023247,0.008811038429856657,0.1928036762806754
37,1790596729.1190493,-0.03985312500000024,-0.022704785156250046,-0.25320146484374956,0.2573222894354037,-0.0652763048199874,0.18729972074662132,0.005121381111105647,0.19841474216196597
38,1790596729.144884,-0.15960410156250024,0.020405566406249957,-0.11908037109374953,0.20017490141313388,-0.06503023362386756,0.1942180429707334,0.00034887420559425245,0.20481626208328224
39,1790596729.164884,-0.17876425781250024,0.14494658203124997,-0.047229785156249524,0.23494004367008492,-0.06537586429622656,0.19901851072999524,-0.003041027091819653,0.2095032674958485
40,1790596729.175162,-0.20271445312500025,0.21200712890624998,-0.09034013671874952,0.3069226490749772,-0.06582090338327595,0.2013905837125374,-0.004627831933333098,0.2119244567261416
41,1790596729.195162,-0.28893515625000027,0.16889677734374997,-0.09513017578124952,0.3479359082625531,-0.06729448014739951,0.20588539253050459,-0.007530642307261808,0.2167349821540321
42,1790596729.219536,-0.32246542968750025,0.03956572265624996,0.01504072265625048,0.32523164527898835,-0.0699386241335956,0.2109226285148197,-0.01068406051018678,0.22247228032787889
43,1790596729.239536,-0.35120566406250026,0.09704619140624997,0.2114323242187505,0.4212683342723295,-0.07279332402625274,0.21464083499549302,-0.012543745714360888,0.22699537798576436
44,1790596729.2943175,-0.3464156250000003,0.22637724609374996,0.2784928710937505,0.49880729950870945,-0.08230592650184,0.22462643278476205,-0.014860579057243242,0.23969175341018742
45,1790596729.3143175,-0.36557578125000023,0.26469755859375,0.2258024414062505,0.504675333166842,-0.08632589956044062,0.22846181296114235,-0.014823105341602897,0.24467669559722996
46,1790596729.2954543,-0.3368355468750003,0.13057646484374996,0.2449625976562505,0.4364803237949789,-0.08632589956044062,0.22846181296114235,-0.014823105341602897,0.24467669559722996
47,1790596729.3154542,-0.31288535156250025,0.03956572265624996,0.2641227539062505,0.41136786306507034,-0.09110048410277566,0.23199206207569215,-0.013432178430576315,0.2495997565849829
48,1790596729.339476,-0.3176753906250003,0.044355761718749956,0.3647135742187505,0.48569648817529354,-0.09711104493788172,0.2357473962643243,-0.010879202600189385,0.2551974665696186
49,1790596729.359476,-0.29372519531250024,0.05393583984374996,0.3838737304687505,0.48635645993963317,-0.10228174645357782,0.2385524383018581,-0.00794961246706873,0.2596767564025174
50,1790596729.384436,-0.32246542968750025,0.05393583984374996,0.2497526367187505,0.4114236353336582,-0.1089202882074004,0.2417299403909402,-0.00365578568465054,0.26516100398354725
51,1790596729.4044359,-0.38473593750000024,-0.07060517578125004,0.15395185546875048,0.42036651419133797,-0.11450256338923982,0.24386911554343443,-0.00012572780497777927,0.2694123203309841
52,1790596729.41501,-0.4565865234375003,-0.14245576171875005,0.15395185546875048,0.5024600195377572,-0.11767845387062498,0.24466149077492724,0.0017048648345450617,0.2714965379847314
53,1790596729.43501,-0.49969687500000026,-0.13287568359375004,0.2449625976562505,0.5721534657989675,-0.12421875653388792,0.24552239561225606,0.005246279618698921,0.27520732125407577
54,1790596729.4599001,-0.48053671875000026,-0.13766572265625004,0.2018522460937505,0.539084147897688,-0.13296717467168293,0.24592805297555573,0.009826605828969336,0.2797453108858762
55,1790596729.4799001,-0.5092769531250003,-0.11371552734375005,0.16353193359375048,0.5468426916840543,-0.14042705907789424,0.2458280452411215,0.013503042139849044,0.28343168294205895
56,1790596729.5045938,-0.5428072265625002,-0.022704785156250046,0.2162223632812505,0.5847284009353351,-0.15020458253471333,0.2454704342304134,0.018064720950887708,0.288346119860713
57,1790596729.5245938,-0.5236470703125002,0.044355761718749956,0.2353825195312505,0.5758286362672446,-0.15853543498777425,0.24525671934359716,0.02188253913045026,0.2928535266114145
58,1790596729.535224,-0.5380171875000003,0.04914580078124996,0.1970622070312505,0.5750750535537672,-0.1631455779858408,0.2452347120585053,0.023952127600957725,0.29551691665853014
59,1790596729.555224,-0.5332271484375003,0.02519560546874996,0.1970622070312505,0.5690338511949463,-0.17212510449245272,0.24531102943430502,0.02785305379352854,0.3009656880182215
60,1790596729.579585,-0.5667574218750002,0.07309599609374996,0.3120231445312505,0.651087891623323,-0.18343181508588385,0.24556963167818965,0.0328220166859704,0.3082676751908927
61,1790596729.599585,-0.5859175781250002,0.11620634765624996,0.3216032226562505,0.6784039772984507,-0.19305101282763512,0.2460340458995068,0.03723995770870189,0.3149416767365067
62,1790596729.624436,-0.5954976562500003,0.044355761718749956,0.2832829101562505,0.6609342625280431,-0.20541238086371438,0.24682380033272353,0.043033413723776226,0.32398782279510063
63,1790596729.644436,-0.6002876953125003,0.015615527343749958,0.2545426757812505,0.6522124926982734,-0.21566223053619304,0.24745401294964936,0.04780334280607418,0.3317059628468659
64,1790596729.669499,-0.5667574218750002,0.0060354492187499565,0.2593327148437505,0.6233007772222806,-0.22877389389354774,0.2481660008473972,0.05385012234241133,0.3417948129800967
65,1790596729.689499,-0.5859175781250002,0.04914580078124996,0.2880729492187505,0.6547524281450852,-0.23939640223836212,0.24873170622797972,0.0587726943156032,0.3501889899538091
66,1790596729.6998093,-0.5619673828125002,0.044355761718749956,0.2353825195312505,0.6108843617606046,-0.24493874749333183,0.2490518972804441,0.06133450852143579,0.3546600618876576
67,1790596729.7198093,-0.5811275390625003,0.02998564453124996,0.2066422851562505,0.6175025421400218,-0.2557917024495044,0.24969134579943944,0.06622150843294516,0.36353878938606493
68,1790596729.745194,-0.6290279296875003,-0.051445019531250046,0.2114323242187505,0.6656022491594032,-0.2698043592947638,0.250340358940739,0.0722897960061709,0.3750873261197316
69,1790596729.765194,-0.6002876953125003,-0.07060517578125004,0.2114323242187505,0.6403390006201692,-0.28103253768073455,0.25059192470030683,0.07698799442858162,0.3843211563867035
70,1790596729.7903697,-0.6002876953125003,-0.08976533203125005,0.2305924804687505,0.6492888602363395,-0.29531329404500767,0.25055828394964974,0.08284956453752425,0.39604727702581655
71,1790596729.8103697,-0.6050777343750002,-0.022704785156250046,0.2258024414062505,0.646236268287689,-0.30676443151233923,0.2503668629935851,0.08749218571615357,0.4055155546803688
72,1790596729.8195605,-0.5763375000000003,0.044355761718749956,0.1970622070312505,0.6107093096915489,-0.3120517132059464,0.25030701642299275,0.08959712138984023,0.4099481898321937
73,1790596729.8395605,-0.5571773437500003,0.04914580078124996,0.1874821289062505,0.5899249535169335,-0.32353173365751675,0.25033657196102205,0.09406738305779307,0.41974975223337047
74,1790596729.8653128,-0.5715474609375003,-0.017914746093750045,0.1922721679687505,0.6032876799729217,-0.33827636310426135,0.25042924010611295,0.09969343460554535,0.43253263811950815
75,1790596729.8853128,-0.5954976562500003,-0.027494824218750043,0.1826920898437505,0.6234980542467958,-0.3497603666403516,0.2504222992485809,0.10396983077772853,0.4425532371876727
76,1790596729.910374,-0.5859175781250002,-0.022704785156250046,0.1874821289062505,0.6156008969162384,-0.36421253815064214,0.2503205521255181,0.10922039016474255,0.45523647194649924
77,1790596729.930374,-0.5715474609375003,-0.003544628906250044,0.2258024414062505,0.6145452034172991,-0.37575222959559834,0.2502121588314939,0.11340198434220389,0.4654630732141159
78,1790596729.940418,-0.5236470703125002,0.0060354492187499565,0.2545426757812505,0.5822668243065334,-0.3815032484763586,0.2501677648441781,0.11554884805342375,0.4706168031972715
79,1790596729.960418,-0.4757466796875003,-0.013124707031250044,0.2401725585937505,0.5330947561829938,-0.39273613643635386,0.2500819926055378,0.11992456143085199,0.4807957740276976
80,1790596729.9848075,-0.4757466796875003,-0.07539521484375004,0.2114323242187505,0.5260446458044783,-0.40612012618117843,0.24983116318215273,0.12528631034752757,0.4929967814771824
81,1790596730.0048075,-0.4661666015625003,-0.07060517578125004,0.1922721679687505,0.5091806927160883,-0.41686190918298155,0.24943732956989673,0.1296291150999607,0.5027887629932082
82,1790596730.0445714,-0.41826621093750027,-0.051445019531250046,0.17311201171875049,0.4555886103140606,-0.43765282356328516,0.24840777352616913,0.1380580017091393,0.521829883924891
83,1790596730.0645714,-0.4374263671875003,-0.07060517578125004,0.1779020507812505,0.47746838348746157,-0.44782495018572227,0.24778453977232126,0.1421880631192108,0.5311890524593088
84,1790596730.059594,-0.4853267578125003,-0.07060517578125004,0.15874189453125048,0.5154863157982617,-0.44782495018572227,0.24778453977232126,0.1421880631192108,0.5311890524593088
85,1790596730.079594,-0.5236470703125002,-0.06102509765625005,0.10605146484375048,0.5377520153252098,-0.4578642800816394,0.24695676513676892,0.1459984427691964,0.5403173957152643
86,1790596730.104848,-0.5236470703125002,-0.06581513671875004,0.15874189453125048,0.5511232852525313,-0.470623086040635,0.2458280756675777,0.15058964198599853,0.5519010528838538
87,1790596730.124848,-0.5236470703125002,-0.11850556640625005,0.2449625976562505,0.5901326103229924,-0.4807827403590619,0.24479180655777782,0.15428580865512215,0.5611409651213807
88,1790596730.1502578,-0.5428072265625002,-0.046654980468750044,0.2258024414062505,0.5897483488370578,-0.4937867784984008,0.2433579614202817,0.15917454358598662,0.5730488769138905
89,1790596730.1702578,-0.5284371093750002,0.0012454101562499565,0.16353193359375048,0.5531636493082078,-0.50409372164672,0.2423305632015003,0.16302924986236628,0.5825917252895744
90,1790596730.1800675,-0.4757466796875003,-0.05623505859375005,0.16832197265625048,0.5077692108897653,-0.5091296388839082,0.24186176894327083,0.16488048582792658,0.5872781956392388
91,1790596730.2000675,-0.47095664062500026,-0.08018525390625005,0.1970622070312505,0.5167817196194374,-0.5192767920448003,0.2408447317217081,0.16863670018641191,0.5967352077799684
92,1790596730.2251823,-0.49969687500000026,-0.03707490234375004,0.1922721679687505,0.5366936759865611,-0.5319359804856616,0.23953829542686841,0.17337935768094176,0.6086007591032957
93,1790596730.2451823,-0.4949068359375003,-0.06581513671875004,0.1874821289062505,0.5333047507178195,-0.5419967848401909,0.23849964456624292,0.17715925431173685,0.6180841339361649
94,1790596730.2702682,-0.4853267578125003,-0.11371552734375005,0.1779020507812505,0.5292659281306847,-0.5545673953776943,0.2370545069937024,0.1818766520071292,0.6299356727852056
95,1790596730.2902682,-0.47095664062500026,-0.08976533203125005,0.1779020507812505,0.5113776606928003,-0.5645205468936547,0.23576995937053757,0.1856071973510588,0.6393128759185215
96,1790596730.3001497,-0.47095664062500026,-0.051445019531250046,0.15874189453125048,0.4996456108710723,-0.5693985756589777,0.23512584289525792,0.18742338303702175,0.6439149202097434
97,1790596730.3201497,-0.4949068359375003,-0.08976533203125005,0.12521162109375047,0.5183324619867767,-0.5792394597507127,0.233805898885641,0.19097385253618598,0.6531879993068864
98,1790596730.344745,-0.5092769531250003,-0.12329560546875006,0.15874189453125048,0.5475069044236429,-0.5913784938421992,0.23203314027926705,0.19520895009248934,0.6645859127028936
99,1790596730.364745,-0.5332271484375003,-0.12329560546875006,0.1922721679687505,0.5800875664363934,-0.6013326203695402,0.23043794183241983,0.1986627252844088,0.6739209477185641
100,1790596730.389848,-0.5523873046875003,-0.09934541015625005,0.14916181640625048,0.5807327202531701,-0.6139964241019245,0.2283168792824457,0.20299032603256212,0.6858026528368281
101,1790596730.409848,-0.5380171875000003,-0.11850556640625005,0.13000166015625048,0.5660446050957979,-0.6242080428040715,0.22655370522718823,0.2063397513391378,0.6953692220943881
102,1790596730.4349353,-0.5475972656250002,-0.12329560546875006,0.1922721679687505,0.5933238223965781,-0.6371384500326884,0.224218823528943,0.21051732927367034,0.7074864177207071
103,1790596730.4549353,-0.5092769531250003,-0.07539521484375004,0.2832829101562505,0.587619486225749,-0.647485811468942,0.22233859812765405,0.21406151973356718,0.7172828329896158
104,1790596730.4640012,-0.47095664062500026,-0.04186494140625004,0.2928629882812505,0.5561668459848702,-0.6521391466631941,0.22153441798990603,0.21581883986141331,0.721762243819841
105,1790596730.4840012,-0.47095664062500026,-0.06102509765625005,0.2880729492187505,0.5554369846925296,-0.6622777805154756,0.21987211366942835,0.21998550586385526,0.7316756301286403
106,1790596730.509739,-0.4949068359375003,-0.07060517578125004,0.2784928710937505,0.5722553157069049,-0.6752324228068722,0.2177997020489726,0.22563689848848886,0.7445048992328824
107,1790596730.529739,-0.5044869140625002,-0.06581513671875004,0.2258024414062505,0.5566196378377567,-0.6852881497186917,0.2162262284652493,0.2301261276545943,0.7545406978092518
108,1790596730.5551775,-0.4757466796875003,-0.051445019531250046,0.2018522460937505,0.5193513478574439,-0.6980299700007178,0.21430136476024864,0.2357955282065381,0.7673137852792092
109,1790596730.5751774,-0.4470064453125003,0.010825488281249957,0.35034345703125047,0.5680426843398764,-0.7079291577021295,0.21295409430060222,0.2404125482503768,0.777374640672357
110,1790596730.5844848,-0.4374263671875003,0.14494658203124997,0.5275749023437505,0.700490268266743,-0.7124623038632956,0.21252989960600693,0.24285171045317402,0.782143494457869
111,1790596730.6044848,-0.33204550781250025,0.26469755859375,0.5084147460937505,0.6624232565584678,-0.7218963244498521,0.212369571524089,0.24886083526622033,0.792569778311621
112,1790596730.6304653,-0.27456503906250024,0.25511748046875,0.4269840820312505,0.5681428480797632,-0.7334950998378642,0.21320541991066258,0.2573185952128689,0.806030068922844
113,1790596730.6504653,-0.22666464843750025,0.33654814453125,0.4126139648437505,0.5786983673925498,-0.7418364512355533,0.21463984400533592,0.26411221612802815,0.8161781948352043
114,1790596730.6745367,-0.22187460937500025,0.40360869140625,0.3168131835937505,0.5590160206673704,-0.7511797435708414,0.21744356299217704,0.27237922517149127,0.8280961010311
115,1790596730.6945367,-0.22666464843750025,0.45629912109375,0.2689127929687505,0.5761074908248272,-0.7584510652090664,0.22071349395505843,0.27909622313697185,0.8377691606283555
116,1790596730.7052195,-0.19313437500000025,0.84429228515625,0.4174040039062505,0.9614345802278865,-0.7620887409559642,0.2232401580289397,0.28269576179358874,0.8429307865920488
117,1790596730.7252195,-0.26977500000000026,1.09337431640625,0.5084147460937505,1.2356097686759389,-0.7685718774843192,0.23016743274164542,0.2898125727057533,0.8530364032402009
118,1790596730.7803657,-0.4757466796875003,1.09816435546875,0.4174040039062505,1.267488050173549,-0.7868499639021793,0.2554671306884796,0.3103215148220325,0.883569897131238
119,1790596730.8003657,-0.7152486328125003,1.05505400390625,0.2976530273437505,1.3089373104108766,-0.7942710605440292,0.266496120269141,0.3177164130105639,0.896008046187388
120,1790596730.795204,-0.7918892578125003,1.01194365234375,0.1779020507812505,1.297215360620516,-0.7942710605440292,0.266496120269141,0.3177164130105639,0.896008046187388
121,1790596730.815204,-0.6673482421875002,0.97841337890625,0.11563154296875049,1.1899651549952317,-0.8037432560082752,0.28008551743919974,0.32410585906886513,0.9107665598498526
122,1790596730.8243933,-0.5619673828125002,0.82034208984375,0.07731123046875048,0.9973692947303595,-0.8082898550323488,0.28663254273219546,0.3267342241816147,0.9177395913617877
123,1790596730.8443933,-0.5236470703125002,0.86345244140625,0.15395185546875048,1.0214976978043313,-0.8183293123090776,0.3012699826112375,0.331943495058346,0.9330664229937616
124,1790596730.8703556,-0.4565865234375003,0.83471220703125,0.09647138671875048,0.9563066717361968,-0.8313155477277409,0.3207275752818914,0.3381790282249752,0.9530565421690697
125,1790596730.8903556,-0.4661666015625003,0.71975126953125,-0.10471025390624952,0.863896653354606,-0.8412029806177996,0.33579997644756554,0.3422496574737089,0.9682555999442125
126,1790596730.9154372,-0.4853267578125003,0.48982939453124996,-0.19572099609374954,0.7167856066548586,-0.8535325678903883,0.35414208071996006,0.34602368009230566,0.9867455826963937
127,1790596730.9354372,-0.43263632812500025,0.37965849609374996,-0.21488115234374952,0.6144010707202816,-0.8632663343454546,0.36787833503019324,0.3479657576107854,1.0008213636151424
128,1790596730.9603386,-0.28414511718750024,0.37007841796874996,-0.18614091796874954,0.5023394513772532,-0.8749063416518729,0.383815763382515,0.3492721273141632,1.017234813502825
129,1790596730.9803386,-0.22187460937500025,0.36049833984374996,-0.11908037109374953,0.4397357503037863,-0.883611912252849,0.39579198486707734,0.3497061441722618,1.0294249336556736
130,1790596730.9896178,-0.20750449218750025,0.25032744140624996,-0.19093095703124954,0.3770630882914167,-0.8873439392259411,0.40094013037709847,0.3496615562985251,1.0345991777403083
131,1790596731.0096178,-0.17876425781250024,0.08267607421874996,-0.11908037109374953,0.23015674636930242,-0.8947605743899797,0.41087125732513635,0.3491148528633828,1.0446496331634094
132,1790596731.0652926,-0.00632285156250024,-0.03707490234375004,-0.06159990234374953,0.07217392052839788,-0.9130825262354895,0.4345605127890076,0.3470668034043915,1.0691201546212525
133,1790596731.0852926,0.05594765624999976,0.07788603515624996,-0.18135087890624954,0.205145109598786,-0.9186025938448642,0.4418551100884955,0.3460770172192327,1.0764924363771395
134,1790596731.079949,-0.0015328125000002397,0.14015654296874996,-0.25320146484374956,0.2894083410168611,-0.9186025938448642,0.4418551100884955,0.3460770172192327,1.0764924363771395
135,1790596731.099949,0.02241738281249976,0.03477568359374996,-0.27715166015624954,0.28022300039243747,-0.922490137007428,0.44766585874896053,0.3440123140617377,1.0815439178283697
136,1790596731.110499,0.05594765624999976,-0.046654980468750044,-0.11908037109374953,0.13959570989909642,-0.9241712130236247,0.450261861614917,0.3427730307068995,1.0836611673334438
137,1790596731.130499,0.07031777343749976,-0.10413544921875005,0.01983076171875048,0.1272086481161728,-0.926690649665152,0.454218796004208,0.34062721304547317,1.0867829466307704
138,1790596731.1555204,0.17569863281249978,-0.21909638671875006,-0.028069628906249523,0.28224305184065784,-0.9289081830245486,0.4578200851846891,0.338329852832146,1.0894662602420992
139,1790596731.1755204,0.25712929687499975,-0.2717868164062501,-0.10471025390624952,0.38851999453926134,-0.9297655641038572,0.4595305259806869,0.3365698253918437,1.0903722097823967
140,1790596731.199658,0.17090859374999978,-0.37237763671875007,-0.04243974609374952,0.4119174477906293,-0.9298702216071247,0.46011903361841355,0.3344979232980882,1.0900720227674683
141,1790596731.219658,0.07989785156249976,-0.47775849609375004,0.01504072265625048,0.4846267332825205,-0.9295677223376573,0.4592583152159603,0.33299758890543296,1.0889911591578023
142,1790596731.2305186,0.07031777343749976,-0.47775849609375004,-0.13345048828124953,0.5010057910578213,-0.929305736599888,0.4580827078961311,0.33220861464197377,1.08803101196301
143,1790596731.2505186,-0.01590292968750024,-0.5352389648437501,-0.028069628906249523,0.5362103661125821,-0.9288140339506913,0.4547230611048641,0.33073137079136217,1.0857494239417615
144,1790596731.274761,-0.02069296875000024,-0.6214596679687501,0.2018522460937505,0.6537466230280732,-0.9283739691549193,0.4491585204174398,0.3295253300691359,1.0826858021721795
145,1790596731.294761,0.041577539062499766,-0.7316305664062501,0.16353193359375048,0.7508359812631084,-0.9280340468912911,0.44322675284443214,0.3292276697595198,1.0798555482849221
146,1790596731.3203835,0.041577539062499766,-0.8418014648437501,0.043780957031250484,0.8439639625992033,-0.9275040857924187,0.4337436273113866,0.32930192129434643,1.0755636284121073
147,1790596731.3403835,-0.06859335937500025,-0.9423922851562501,0.05815107421875048,0.9466730245999204,-0.9271929930252715,0.42477551324054513,0.3295040833051768,1.071771441996247
148,1790596731.3502836,-0.0015328125000002397,-1.02861298828125,0.01983076171875048,1.0288052722869325,-0.9271141685601915,0.4195386549953255,0.32964704590964117,1.0696824479523326
149,1790596731.3702836,0.02241738281249976,-1.15315400390625,-0.047229785156249524,1.154338489518167,-0.9269474879942062,0.40727351588488503,0.32985143621250396,1.0648499106500673
150,1790596731.3953412,-0.059013281250000243,-1.22979462890625,-0.18614091796874954,1.2452011235108975,-0.9268387572919315,0.3897334770662775,0.3296305236379275,1.0581013879957049
151,1790596731.4153411,-0.03027304687500024,-1.2872750976562501,-0.24362138671874953,1.3104751102099461,-0.9268989196734791,0.3740580564605117,0.32883600542677366,1.0522329377851252
152,1790596731.439921,0.07510781249999976,-1.2489547851562501,-0.12387041015624953,1.2573277684738804,-0.9268791156654899,0.353007375538046,0.32732855456807086,1.04444391179073
153,1790596731.459921,0.10384804687499977,-1.22500458984375,-0.10950029296874952,1.2342653588828654,-0.9265969851814382,0.33473725861021164,0.32593590784549464,1.037721167401088
154,1790596731.4692223,-0.03985312500000024,-1.1579440429687502,-0.21488115234374952,1.1783872826247141,-0.926440812633607,0.32585252110361057,0.3251590887161358,1.0345051366704299
155,1790596731.4892223,-0.12607382812500026,-1.1962643554687502,-0.25799150390624953,1.2302449489394236,-0.9264042701036298,0.3060827957839902,0.32303000720280245,1.0277450730091706
156,1790596731.5148058,-0.00632285156250024,-1.0477731445312501,-0.004119433593749521,1.0478003199970494,-0.9266185752498455,0.28028139697426324,0.3202121280691168,1.0196643822603841
157,1790596731.5348058,0.07989785156249976,-0.8561715820312501,0.12042158203125049,0.8682826740072072,-0.9266506164828027,0.26028071098071176,0.31851412860541545,1.0138435104382975
158,1790596731.5898511,-0.07338339843750025,-0.7986911132812501,0.12042158203125049,0.8110449895163577,-0.9266986804295944,0.2066585609399831,0.3155360747273697,1.0005204743402767
159,1790596731.6098511,-0.21708457031250025,-0.8322213867187501,0.08689130859375048,0.864446786499306,-0.9271492258381999,0.18765175096836284,0.3149273138955497,0.9969945233808117
160,1790596731.5898511,-0.16439414062500024,-0.82743134765625,0.16832197265625048,0.860232733064118,-0.9271492258381999,0.18765175096836284,0.3149273138955497,0.9969945233808117
161,1790596731.6098511,-0.03506308593750024,-0.8753317382812501,0.2641227539062505,0.9149840988612629,-0.9282603153430274,0.1692491333524844,0.31546154728905734,0.9949012363040414
162,1790596731.634491,0.008047265624999762,-0.8944918945312501,0.2018522460937505,0.9170195402057888,-0.9294737669794848,0.1467074016313713,0.3168821098899586,0.9929042334307846
163,1790596731.654491,-0.07817343750000025,-0.7747409179687501,0.2449625976562505,0.8162972807477226,-0.9304161634422679,0.12865114059315993,0.3185324327016239,0.9918105987805154
164,1790596731.6951547,-0.04464316406250024,-0.6789401367187501,0.4365641601562505,0.8084188192256032,-0.9324193856476362,0.09301272901958803,0.32346304256649006,0.9913050077536971
165,1790596731.7151546,0.07031777343749976,-0.7507907226562501,0.6137956054687506,0.9723046558464338,-0.9332183462323175,0.07596904459851897,0.32709988473132295,0.9917974148348231
166,1790596731.7248435,0.21401894531249976,-0.7699508789062501,0.6042155273437505,1.0018507215970194,-0.933340722306618,0.0678457842478183,0.32948253650785736,0.9921122397287983
167,1790596731.7448435,0.31460976562499976,-0.8178512695312501,0.4940446289062505,1.0059523343834984,-0.9327625000481821,0.05121107760943923,0.33531050634856424,0.9925228418700425
168,1790596731.754507,0.3768802734374998,-1.06693330078125,0.2784928710937505,1.1653084089940904,-0.9320238523573471,0.043013127259321174,0.33826397978487216,0.9924419935187934
169,1790596731.774507,0.42478066406249976,-1.46450654296875,-0.14303056640624953,1.5315599139067824,-0.9295219475571643,0.02479429753334766,0.34366286563117854,0.9913273795242767
170,1790596731.7986245,0.46310097656249977,-1.7183786132812502,-0.42564287109374954,1.829879620846263,-0.9253515021425537,0.00036288127180094526,0.34816806589216115,0.9886842449980612
171,1790596731.8186245,0.5062113281249998,-1.85249970703125,-0.5501838867187495,1.9976754947883535,-0.9209578608418121,-0.022214710281539325,0.34987996423398743,0.985430293918142
172,1790596731.8443832,0.4966312499999998,-1.94351044921875,-0.5741340820312496,2.0865055496808282,-0.9142105350850535,-0.0542650090435332,0.349581984548149,0.9802719814355692
173,1790596731.8643832,0.43436074218749976,-2.12074189453125,-0.6268245117187495,2.253691284551884,-0.9083610195210629,-0.081513599976005,0.34758389088441954,0.9760014190403337
174,1790596731.8749373,0.3960404296874998,-2.1686422851562503,-0.6555647460937496,2.2999179375003242,-0.9050799186212836,-0.09713120423877841,0.3456725662642535,0.9737010080081562
175,1790596731.8949373,0.31460976562499976,-2.17343232421875,-0.7226252929687496,2.311920129810653,-0.8987289088654979,-0.1288003765036545,0.3405266157607227,0.9696708537743632
176,1790596731.9190092,0.18527871093749976,-2.23570283203125,-0.7034651367187496,2.3510760414027323,-0.8913289609260506,-0.16916000911007867,0.3326873531533957,0.9663142864595593
177,1790596731.9390092,0.32418984374999976,-2.20696259765625,-0.44480302734374955,2.274562088705964,-0.8853387970744795,-0.2043266198236971,0.325428739747293,0.9651310884161671
178,1790596731.9649675,0.4774710937499998,-1.8093893554687501,-0.11429033203124953,1.8748148615386677,-0.8771695442647479,-0.25094276215163286,0.3163323450151788,0.9656421861977235
179,1790596731.9849675,0.3193998046874998,-1.5267770507812501,-0.10950029296874952,1.563667072041535,-0.8706242289537194,-0.2864757270857853,0.31003946785852265,0.967563621619056
180,1790596731.99417,-0.15481406250000024,-1.22979462890625,-0.3106819335937495,1.277844077771606,-0.8679507234826436,-0.3022754225270298,0.3072882832891106,0.9690897680322023
181,1790596732.01417,-0.3272554687500003,-0.9807125976562501,-0.3011018554687495,1.0768266659008663,-0.8637349901565309,-0.334778372909433,0.3012882729070435,0.9741094987627925
182,1790596732.0397642,-0.3080953125000003,-0.8753317382812501,0.06773115234375049,0.9304385431745399,-0.8603688996921913,-0.3736964548204607,0.29431375476372157,0.9831094904160231
183,1790596732.0597641,-0.19313437500000025,-0.7172604492187501,0.3072331054687505,0.8038380557774658,-0.8588849476518587,-0.4019351767462671,0.29024364575028533,0.9917038940668763
184,1790596732.0845885,-0.16439414062500024,-0.39632783203125005,0.1826920898437505,0.46634491913807763,-0.8579849798595905,-0.43380138914254973,0.2868616860838257,1.0033003029150958
185,1790596732.1045885,-0.16918417968750024,-0.08018525390625005,0.05336103515625048,0.19468015223306345,-0.8578690399364219,-0.4563384583857367,0.2848997656997477,1.0125966397233797
186,1790596732.1141365,-0.16439414062500024,0.02519560546874996,0.15395185546875048,0.22663059327690138,-0.858060867037401,-0.4655231133068303,0.2842520974993545,1.0167494654518598
187,1790596732.1341364,-0.02548300781250024,0.14973662109374997,0.1874821289062505,0.24128818463191504,-0.8586872278467355,-0.48161385948032576,0.2836110841934633,1.02456376667733
188,1790596732.174067,0.12300820312499977,0.23116728515624996,0.12521162109375047,0.29025382309192266,-0.8594581264712157,-0.5077799534826027,0.2834597049518497,1.0377177634827286
189,1790596732.194067,0.07510781249999976,0.26469755859375,0.13479169921875048,0.3063899202034965,-0.8594891539104904,-0.5181760690193541,0.2837852615979091,1.0429583495491632
190,1790596732.2055295,-0.15002402343750024,0.46587919921875,0.4461442382812505,0.6622652921787738,-0.8595686733192813,-0.5226125194607687,0.28444327919904394,1.045413855241314
191,1790596732.2255294,-0.20271445312500025,0.6526907226562499,0.7862370117187505,1.0417614734399312,-0.8602157159322568,-0.5275143751755089,0.2872677566018187,1.0491736071483566
192,1790596732.2349732,-0.10691367187500024,0.64790068359375,0.6760661132812505,0.9424814154996694,-0.8606947170971414,-0.5285605993896116,0.289437112331611,1.0506881293994406
193,1790596732.2549732,-0.27935507812500027,0.57126005859375,0.4653043945312505,0.7879628758950851,-0.8621363834403416,-0.5286151983127192,0.29505428609040074,1.0534563129428307
194,1790596732.279976,-0.4278462890625003,0.62395048828125,0.3216032226562505,0.8220676929023842,-0.8649944686483018,-0.5264319526142472,0.30249879995427814,1.0568119773636109
195,1790596732.2999759,-0.4470064453125003,0.78202177734375,0.2258024414062505,0.9286331702754421,-0.8682500313145929,-0.5228385519550468,0.30838162196311314,1.0593948711660077
196,1790596732.3248684,-0.38952597656250026,0.7724416992187499,0.10126142578125048,0.871005477284828,-0.873255963621771,-0.5161348728505475,0.3152158757692116,1.0622298401524926
197,1790596732.3448684,-0.3176753906250003,0.61916044921875,0.2066422851562505,0.7259327446121355,-0.8777354865080098,-0.5094693005998308,0.3203450758295171,1.064236590301871
198,1790596732.354442,-0.31288535156250025,0.68143095703125,0.4030338867187505,0.8512823892613646,-0.8800108294200658,-0.5058234261247708,0.3228697591476658,1.0651390893612278
199,1790596732.3744419,-0.28414511718750024,0.96883330078125,0.4317741210937505,1.0980916646484804,-0.8849467937340076,-0.4968739036860967,0.328605153386567,1.0667688834684719
200,1790596732.3995361,-0.21229453125000025,1.06942412109375,0.35034345703125047,1.1451975622836459,-0.8911453711232474,-0.4834930269224232,0.33619399475185524,1.0681441764407125
201,1790596732.419536,-0.15960410156250024,0.98320341796875,0.2832829101562505,1.0355730961779568,-0.8959024127054035,-0.47134928285369204,0.34228545469493826,1.0686302503830656
202,1790596732.4446115,-0.13565390625000023,0.92093291015625,0.2976530273437505,0.9773007377346253,-0.9015273046039992,-0.4548265808216359,0.34986970801346995,1.0686568729736796
203,1790596732.4646115,-0.08775351562500025,0.80118193359375,0.2832829101562505,0.8543081279071161,-0.9056758315612791,-0.44104178442680386,0.3558828835114942,1.0683722170952639
204,1790596732.4891405,-0.03506308593750024,0.64311064453125,0.10126142578125048,0.6519774516469967,-0.9102265414077799,-0.42401434647218705,0.3628589507016043,1.06769243736278
205,1790596732.5091405,-0.15002402343750024,0.40839873046874997,-0.02327958984374952,0.43570479680645646,-0.9136580735513631,-0.4106360972376733,0.36781073620201865,1.0670884768310671
206,1790596732.5196893,-0.24103476562500026,0.20242705078124998,0.06773115234375049,0.32196580272710007,-0.9155059085675844,-0.4041550219313048,0.3700659173205212,1.0669775693690708
207,1790596732.5396893,-0.19792441406250025,0.13057646484374996,0.07731123046875048,0.24940191099842715,-0.919142228163471,-0.39321092993392703,0.3739178213994418,1.067357394771273
208,1790596732.5646381,-0.14523398437500024,0.07788603515624996,-0.004119433593749521,0.164851795328203,-0.9236400194255963,-0.38121655176682845,0.37813905118266194,1.0683754428359118
209,1790596732.584638,-0.17876425781250024,0.020405566406249957,0.048570996093750485,0.18636573900036738,-0.927190783774172,-0.3728962186029633,0.3810820486118628,1.0695596603922413
210,1790596732.6092215,-0.21708457031250025,-0.07060517578125004,0.07252119140625048,0.23952061439017333,-0.9316304437388697,-0.36429574886465566,0.3843801353069579,1.071631823323915
211,1790596732.6292214,-0.19792441406250025,-0.16161591796875005,0.03420087890625048,0.2578051177553033,-0.9353230906381361,-0.35869664390310685,0.38682092629417947,1.07383564629198
212,1790596732.6397893,-0.12128378906250024,-0.23825654296875007,-0.047229785156249524,0.27148957689510367,-0.9372345946185809,-0.3564988184803205,0.3879068475784717,1.075161297353094
213,1790596732.6597893,-0.14044394531250023,-0.25741669921875004,-0.12387041015624953,0.31832646343635096,-0.9407021133013069,-0.35370681120129294,0.3893970571789049,1.0778028773385804
214,1790596732.6850486,-0.15002402343750024,-0.2717868164062501,-0.09992021484374952,0.3261277824949009,-0.9449748373102833,-0.3517120837138758,0.3905728672660288,1.081307540722971
215,1790596732.7050486,-0.09733359375000024,-0.16161591796875005,0.02462080078125048,0.19026223283742325,-0.9482215019374524,-0.35101969577529823,0.3912512619142045,1.0841662204238602
216,1790596732.729155,0.041577539062499766,-0.046654980468750044,0.05336103515625048,0.0821752945232309,-0.9516486048551595,-0.3506868766265521,0.39208728597440207,1.0873586309877854
217,1790596732.749155,-0.03985312500000024,-0.03228486328125005,-0.028069628906249523,0.05846783762282654,-0.9540628223315929,-0.35057058113589445,0.39271478992690384,1.0896607304755987
218,1790596732.759708,-0.18834433593750025,-0.14724580078125005,-0.008909472656249522,0.23923689813751972,-0.9553262045339365,-0.3506605153043533,0.3929669564601176,1.0908867874038346
219,1790596732.779708,-0.19313437500000025,0.0012454101562499565,0.2832829101562505,0.34285805377691264,-0.9579336456665783,-0.35102439356781756,0.39378473952002774,1.09358191986635
220,1790596732.8050265,-0.18355429687500024,0.18805693359374998,0.5467350585937505,0.6066109251154909,-0.9614546559794078,-0.3510564764443731,0.39624082721398346,1.0975620703674311
221,1790596732.8250265,-0.27935507812500027,0.37965849609374996,0.4269840820312505,0.6359994022312148,-0.9645131731966562,-0.35022644589921625,0.3993505246936982,1.101101751088523
222,1790596732.8647606,-0.3272554687500003,0.38923857421874997,0.3024430664062505,0.5916710385880345,-0.971485832574153,-0.346533412785926,0.40677561304529586,1.1087544942130934
223,1790596732.8847606,-0.3176753906250003,0.44192900390625,0.4221940429687505,0.6888154384308005,-0.9754364343397632,-0.34370662270913765,0.41103934282917254,1.112907822456573
224,1790596732.8797803,-0.38952597656250026,0.61916044921875,0.3934538085937505,0.8305998120579257,-0.9754364343397632,-0.34370662270913765,0.41103934282917254,1.112907822456573
225,1790596732.8997803,-0.5284371093750002,0.6335305664062499,0.2401725585937505,0.859237810525758,-0.9805693683144194,-0.3384323443846906,0.41611027626136254,1.117676384206343
226,1790596732.9244754,-0.5523873046875003,0.5329397460937499,0.08210126953125048,0.7719437322791313,-0.9879584493382646,-0.33073628815011796,0.4220293454193902,1.1240805835496426
227,1790596732.9444754,-0.4853267578125003,0.48503935546875,0.12521162109375047,0.69748346809029,-0.9946016135579596,-0.3239114066345063,0.42641496260251693,1.1295931521443228
228,1790596732.9697711,-0.4661666015625003,0.37965849609374996,0.11563154296875049,0.6122275131009982,-1.0035486326198546,-0.31493369551548195,0.4315867297697236,1.1369081739162326
229,1790596732.9897711,-0.4278462890625003,0.21200712890624998,0.048570996093750485,0.47995688497318484,-1.0109024897018752,-0.308012732320011,0.43530871649956293,1.1429301665531388
230,1790596732.999812,-0.21708457031250025,0.19284697265624998,-0.07117998046874953,0.29896865245368925,-1.0145262907538195,-0.3047544527325768,0.4368799841244288,1.1458634262509635
231,1790596733.0198119,-0.07817343750000025,0.15452666015624997,-0.07597001953124953,0.18910584046292714,-1.0211046251464375,-0.29871680838433623,0.4393195683196504,1.1510378231037133
232,1790596733.044861,0.0032572265624997605,0.14494658203124997,-0.01848955078124952,0.1461573968552866,-1.0282486144873462,-0.29172656035725913,0.4417392708511527,1.1565176966329276
233,1790596733.064861,0.09426796874999976,0.02519560546874996,-0.06638994140624953,0.11802073032782454,-1.032950691510407,-0.28672732125814654,0.4432541154780484,1.1600318524660982
234,1790596733.088935,0.21880898437499977,-0.003544628906250044,-0.08555009765624952,0.2349654341521232,-1.0371962982409941,-0.2815733123999482,0.44452967880369393,1.1630418421871225
235,1790596733.1089349,0.19964882812499976,-0.04186494140625004,-0.028069628906249523,0.2059131660617383,-1.039566690035461,-0.27800187147255817,0.44526000125426113,1.1645773535023225
236,1790596733.1197248,0.12779824218749977,-0.07060517578125004,0.005460644531250479,0.14610715311719935,-1.0403886971364125,-0.2764551312910673,0.4455766090918957,1.1650642022292999
237,1790596733.1397247,0.11821816406249977,-0.003544628906250044,0.0006706054687504793,0.11827319400475263,-1.041314786333975,-0.27412938908464485,0.44608463750107263,1.1655363186156644
238,1790596733.1643257,0.21401894531249976,-0.03707490234375004,0.06773115234375049,0.22752179309746506,-1.0416700502373273,-0.27177267218694673,0.4467420092107419,1.1655536459994966
239,1790596733.1843257,0.2523392578124998,0.0012454101562499565,0.2018522460937505,0.3231423545945541,-1.041216011134535,-0.2701978574827863,0.4476006466064252,1.165111154728891
240,1790596733.2097473,0.12300820312499977,0.16410673828124997,0.2880729492187505,0.35362135633604014,-1.0400098127501631,-0.2681811324536185,0.4494624373867013,1.1642843351356786
241,1790596733.2297473,0.08947792968749976,0.18326689453124997,0.2114323242187505,0.29376296951255154,-1.0388844730468434,-0.26631144508936544,0.451456714128997,1.1636218882676428
242,1790596733.2544715,0.12300820312499977,0.044355761718749956,0.15874189453125048,0.2056634160784615,-1.0373079700564196,-0.26392472747494555,0.4542386839291915,1.1627540017101718
243,1790596733.2744715,0.12300820312499977,0.0012454101562499565,0.07252119140625048,0.1428001830722934,-1.0358549683023588,-0.2622152580517488,0.45649841485238046,1.1619566083441164
244,1790596733.2845206,0.06552773437499976,-0.027494824218750043,0.14437177734375048,0.1609132046307386,-1.035092313320968,-0.26150494900776894,0.4576269858703281,1.161560757622463
245,1790596733.3045206,-0.01590292968750024,-0.11850556640625005,0.14916181640625048,0.19116934878668101,-1.0337276993265516,-0.26052232569760364,0.4599764797044825,1.1610526260351777
246,1790596733.3294394,-0.05422324218750024,-0.13766572265625004,-0.028069628906249523,0.15059852341482774,-1.0324135646491057,-0.25996043967604193,0.46269102098838266,1.160835983061908
247,1790596733.3494394,-0.04943320312500024,-0.29573701171875005,-0.056809863281249526,0.30517434727966225,-1.0316725263416986,-0.2602272158980895,0.4644156035585214,1.1609256041327367
248,1790596733.3745537,-0.04464316406250024,-0.37716767578125004,-0.03764970703124952,0.3816621125960506,-1.0310587723171942,-0.2617794264704158,0.46607843029550733,1.161395610152778
249,1790596733.3945537,-0.06859335937500025,-0.3005270507812501,-0.08555009765624952,0.3199068245764973,-1.030813174017036,-0.26384666606959317,0.46701920583434825,1.1620231501744107
250,1790596733.404231,-0.07338339843750025,-0.4490182617187501,-0.056809863281249526,0.45850832390393864,-1.0308152093614642,-0.2652409260159565,0.4673028120296335,1.162456305766167
251,1790596733.424231,-0.10212363281250024,-0.6549899414062501,-0.11429033203124953,0.6726836847419436,-1.0310820450789866,-0.26934618671379257,0.4675443635311432,1.1637333388071636
252,1790596733.4492621,-0.07817343750000025,-0.7699508789062501,-0.24841142578124953,0.8127999007860094,-1.0317043882854013,-0.27638854133649804,0.4671204198925566,1.1657641516490673
253,1790596733.4692621,-0.05422324218750024,-0.6549899414062501,-0.22446123046874952,0.6945032953991164,-1.0323256504668665,-0.28330879919602253,0.4661231882442829,1.167574815989428
254,1790596733.4944763,-0.07338339843750025,-0.62624970703125,-0.028069628906249523,0.6311590312986879,-1.0332327101108774,-0.29314748441430405,0.4645769983221561,1.1701867663888221
255,1790596733.5144763,-0.06859335937500025,-0.7939010742187501,0.005460644531250479,0.7968775208491766,-1.0340572352822408,-0.3019111738519975,0.4635006084734162,1.1727137488711685
256,1790596733.5250714,-0.03027304687500024,-0.9328122070312501,-0.013699511718749521,0.9334038502036189,-1.03450707426649,-0.3072294887457055,0.46300937244810086,1.1742966083733466
257,1790596733.5450714,0.08947792968749976,-0.9136520507812501,0.03420087890625048,0.9186599315937891,-1.035140041011028,-0.3185325054437925,0.46225192825819394,1.1775630372540704
258,1790596733.5701463,0.25712929687499975,-0.8418014648437501,0.2210124023437505,0.9075195113683623,-1.0351627481491323,-0.3338793250913612,0.46192468969796824,1.181698666256204
259,1790596733.5901463,0.18048867187499976,-0.8705416992187501,0.2497526367187505,0.9234692145934472,-1.0345217165025384,-0.3468524680502012,0.4624089797791905,1.1850585981664816
260,1790596733.614834,0.06552773437499976,-0.9376022460937501,0.09647138671875048,0.9448272774998636,-1.0333936064840576,-0.3638122208346501,0.4635581743457953,1.1895998734673665
261,1790596733.634834,0.09905800781249977,-0.9567624023437501,-0.02327958984374952,0.9621583667742324,-1.0323699121227252,-0.37833224221684625,0.4644592967289862,1.193585086734538
262,1790596733.6448984,0.11821816406249977,-0.9519723632812501,0.06773115234375049,0.9616727217527847,-1.031768035361308,-0.3859837410241137,0.46487829233391254,1.1956757728630274
263,1790596733.6648984,0.18527871093749976,-0.8753317382812501,0.10126142578125048,0.9004375209421186,-1.030296144451954,-0.40164904451638966,0.46583951756934694,1.1999327299322793
264,1790596733.6897287,0.14216835937499978,-0.7699508789062501,-0.09034013671874952,0.7881608583520552,-1.0281330752492008,-0.42124446035380503,0.4668742278916069,1.2051871474876967
265,1790596733.7097287,-0.02069296875000024,-0.7699508789062501,-0.11908037109374953,0.7793796826092021,-1.0264699265385329,-0.43697022589720375,0.46726850729234304,1.2095136817398506
266,1790596733.7346792,-0.03027304687500024,-0.8561715820312501,0.01983076171875048,0.8569361086774996,-1.0248016999809104,-0.4566887306461414,0.46750087557573133,1.215458839141426
267,1790596733.7546792,0.041577539062499766,-0.7507907226562501,0.05336103515625048,0.7538320774908259,-1.0236480999232933,-0.47253434156993673,0.46776898690210195,1.2206358840976785
268,1790596733.7795718,0.01762734374999976,-0.6406198242187501,0.02462080078125048,0.6413350655163437,-1.0223171337252337,-0.49189565440401234,0.4681982189197759,1.2273154561600612
269,1790596733.7995718,-0.03506308593750024,-0.76516083984375,-0.07597001953124953,0.7697220113089088,-1.021434325118348,-0.5072268240369641,0.4684143323444088,1.2328905540631976
270,1790596733.8096282,-0.05422324218750024,-0.8418014648437501,-0.06159990234374953,0.8457921814341671,-1.0211243544869,-0.5149914192364651,0.4684029391912862,1.235844821430471
271,1790596733.8296282,-0.0015328125000002397,-0.8226413085937501,0.0006706054687504793,0.8226430099567444,-1.0206839992304897,-0.5306137260599397,0.4682922857993165,1.2420323737759447
272,1790596733.8543024,0.15174843749999978,-0.8513815429687501,-0.13824052734374953,0.8757788324638928,-1.019944235615624,-0.5500939984857764,0.46792166688232567,1.2497361070536226
273,1790596733.8743024,0.22838906249999977,-0.9902926757812501,-0.24841142578124953,1.046207142029861,-1.018864348497436,-0.5662780009595654,0.4670863409469355,1.2557567379508912
274,1790596733.8993204,0.20922890624999976,-1.05735322265625,-0.07597001953124953,1.0805295074821915,-1.0168950185793415,-0.5873279815888497,0.46558951553469974,1.263251057290097
275,1790596733.9193203,0.2619193359374998,-0.9950827148437501,0.10605146484375048,1.0344265373211643,-1.014850116069111,-0.604710320377083,0.46461752872297046,1.2694348260752433
276,1790596733.9297192,0.3098197265624998,-0.88491181640625,0.1826920898437505,0.9552138951429402,-1.0135004591721835,-0.6138587184436626,0.4644131524270798,1.272668567655688
277,1790596733.9497192,0.3673001953124998,-0.6214596679687501,0.11563154296875049,0.7310897387583576,-1.010278371584867,-0.631074004031235,0.464526524659202,1.2785545271000929
278,1790596733.9748027,0.3289798828124998,-0.51128876953125,0.12042158203125049,0.6197945841672182,-1.0055335723436176,-0.6515573865637365,0.46509146393588413,1.2852761815741813
279,1790596733.9948027,0.2619193359374998,-0.47775849609375004,0.2210124023437505,0.5879637753445857,-1.0014315098259665,-0.666923252764816,0.4659864933090795,1.2902693927615312
280,1790596734.0496726,0.20443886718749976,-0.47775849609375004,0.1874821289062505,0.5524472641491582,-0.9899464358482171,-0.7066882145099116,0.46975473100214366,1.3038679709520788
281,1790596734.0696726,0.21401894531249976,-0.5160788085937501,-0.07597001953124953,0.5638376446281304,-0.9857604034171495,-0.7204990903787198,0.4710894877594615,1.3087275566974113
282,1790596734.0496726,0.23796914062499977,-0.6789401367187501,-0.15261064453124953,0.7354447837613095,-0.9857604034171495,-0.7204990903787198,0.4710894877594615,1.3087275566974113
283,1790596734.0696726,0.26670937499999975,-0.8418014648437501,-0.04243974609374952,0.8840614961497169,-0.9814026936742319,-0.7342822061230476,0.4714698341409675,1.313242327175331
284,1790596734.0951226,0.3289798828124998,-1.13878388671875,-0.06638994140624953,1.1872085445554688,-0.9755522615245568,-0.7529708187545064,0.47167349795197033,1.3195238374246052
285,1790596734.1151226,0.3960404296874998,-1.43097626953125,-0.18614091796874954,1.4963921769545845,-0.970556783724307,-0.7693090003530665,0.4714307445655615,1.3251655577244472
286,1790596734.1701725,0.45352089843749976,-1.6321579101562502,-0.3298420898437495,1.7258089272099815,-0.9553616301365802,-0.8201810742891503,0.4687324323746004,1.3435486340728935
287,1790596734.1901724,0.5205814453124998,-1.82375947265625,-0.3490022460937495,1.9284465828965907,-0.9492080556433911,-0.8410747739791294,0.4668808998125491,1.3514364516809978
288,1790596734.1701725,0.6690726562499998,-1.9578805664062502,-0.36816240234374953,2.10154659385706,-0.9492080556433911,-0.8410747739791294,0.4668808998125491,1.3514364516809978
289,1790596734.1901724,0.6834427734374998,-2.11595185546875,-0.38732255859374953,2.2570700130082795,-0.9412165193293691,-0.867102801261865,0.46349555712105833,1.36109659307693
290,1790596734.2145164,0.6642826171874998,-2.23570283203125,-0.4495930664062495,2.3752415611913245,-0.93048764547561,-0.9019771490116077,0.4584649767060302,1.374612734768565
291,1790596734.2345164,0.6307523437499998,-2.2452829101562504,-0.5453938476562495,2.3951196869566096,-0.9210528616655845,-0.9330522253617982,0.45345952125943434,1.3872816464783932
292,1790596734.2602684,0.5062113281249998,-2.22612275390625,-0.41606279296874954,2.320556112632095,-0.9085308938393674,-0.9756988706508655,0.4461242686655944,1.4058604249150572
293,1790596734.2802684,0.33376992187499976,-2.22612275390625,-0.40169267578124956,2.2865655210345253,-0.8990046645640598,-1.0105300119913507,0.44005533902438415,1.4223322373647596
294,1790596734.2898123,0.26670937499999975,-2.02015107421875,-0.6220344726562496,2.1305095959776383,-0.8947108555947161,-1.027697528245964,0.43686090844582687,1.4309148045953002
295,1790596734.3098123,0.22838906249999977,-1.86207978515625,-0.5789241210937496,1.963327743434943,-0.8863198976219284,-1.0641003625676186,0.42936941973794013,1.4499071146605147
296,1790596734.3344822,0.19964882812499976,-1.6465280273437501,-0.21967119140624952,1.6730719146928588,-0.8767302469198135,-1.108759455256892,0.42003721590942966,1.474596459454105
297,1790596734.3544822,0.13258828124999977,-1.25853486328125,-0.12387041015624953,1.2715476919610453,-0.8696236768056002,-1.1438915639291987,0.41309109535468025,1.495117889114637
298,1790596734.37957,-0.09733359375000024,-1.05735322265625,-0.2819416992187495,1.0986176712998037,-0.8619800757979706,-1.1857081565438414,0.4049213348974417,1.5208138515355507
299,1790596734.39957,-0.29851523437500027,-1.01903291015625,-0.31547197265624954,1.1077282982153625,-0.8573944018826776,-1.217158435782109,0.39848923319741775,1.541231159544074
300,1790596734.409903,-0.25061484375000026,-0.9902926757812501,-0.10471025390624952,1.0268649477350642,-0.8558061424707167,-1.2325271858551299,0.39533890757663004,1.5517152667955734
301,1790596734.429903,0.05115761718749976,-0.9376022460937501,0.12521162109375047,0.947308304478153,-0.8534923188033384,-1.2607037399085763,0.39018673429186357,1.5716452353165202
302,1790596734.4547195,0.24275917968749977,-0.7843209960937501,0.11084150390625049,0.8284788972715234,-0.8505048732251453,-1.2936265404691503,0.38519207380536225,1.5953686405681848
303,1790596734.4747195,0.14216835937499978,-0.6406198242187501,0.048570996093750485,0.6580005647801379,-0.8478810013088821,-1.3183169600048827,0.38200971457642685,1.613317458359585
304,1790596734.4996796,-0.07817343750000025,-0.54960908203125,0.2210124023437505,0.597517959036844,-0.8449777920576447,-1.3467367372747543,0.3791385200871807,1.6344519956272685
305,1790596734.5196795,-0.02548300781250024,-0.3819577148437501,0.5611051757812505,0.679249658008261,-0.8431559356702545,-1.3674904546602444,0.37835615929784616,1.6504834015286192
306,1790596734.5294073,0.16611855468749978,-0.24304658203125007,0.5227848632812505,0.599975856618025,-0.8423001238982506,-1.3765266194980552,0.3788234922947973,1.6576496225741368
307,1790596734.5494072,-0.05422324218750024,-0.06102509765625005,0.4030338867187505,0.4112183560845768,-0.8406366796984167,-1.3927741671121763,0.3810289219069739,1.670830017434145
308,1790596734.5743425,-0.29372519531250024,0.17368681640624997,0.7048063476562505,0.7830667840301032,-0.8395245599412252,-1.4097817949837472,0.38543794372931783,1.685481712946892
309,1790596734.5943425,-0.16439414062500024,0.51856962890625,0.9538883789062506,1.0981087983019682,-0.8394535336901364,-1.4203386209028448,0.39093190129294403,1.6955446867309538
310,1790596734.6196017,-0.05422324218750024,0.94488310546875,0.9203581054687505,1.3201527507434967,-0.8397914440691576,-1.4288991489477902,0.40038042685853126,1.7050826764725808
311,1790596734.6396017,-0.17397421875000024,1.29455595703125,0.6856461914062505,1.4752128166690612,-0.8403611603649747,-1.4313013998272663,0.4091484773347728,1.7094540220499708
312,1790596734.6651635,-0.26498496093750024,1.37598662109375,0.5898454101562505,1.5203531888460782,-0.8418216319026776,-1.4287913596364132,0.4211191844662064,1.7109791865585158
313,1790596734.6851635,-0.18355429687500024,1.29455595703125,0.5706852539062505,1.4266215212215232,-0.8434657325918393,-1.4231162373099853,0.4308211455123098,1.7094739326390904
314,1790596734.6948972,-0.15481406250000024,1.20354521484375,0.5323649414062505,1.3251041124981549,-0.8443928845209302,-1.4189448650398313,0.435639923960541,1.7076844019902588
315,1790596734.7148972,-0.16439414062500024,1.13169462890625,0.4557243164062505,1.2310332323422595,-0.8464909783636754,-1.408156656777337,0.4455381109473829,1.7023384959472607
316,1790596734.739973,-0.12607382812500026,1.01673369140625,0.3311833007812505,1.0767192707920834,-0.8492732554447529,-1.3926188337119068,0.4575668109959282,1.6941132385256374
317,1790596734.759973,-0.01111289062500024,0.91135283203125,0.11563154296875049,0.9187263654204971,-0.8513652544349802,-1.3791929827191984,0.4663917789754584,1.686569705507872
318,1790596734.7847583,-0.01590292968750024,0.75807158203125,-0.02327958984374952,0.7585956537967384,-0.8536191343387041,-1.3619472349739516,0.4758594559544958,1.676307883171722
319,1790596734.8047583,0.012837304687499761,0.55209990234375,-0.25799150390624953,0.6095397564125135,-0.8551696471803069,-1.3481532881813543,0.48193133770938335,1.6676601057047098
320,1790596734.8147914,0.036787499999999765,0.30301787109374995,-0.4495930664062495,0.543421637146528,-0.8557934570607558,-1.3416279694592455,0.48398799281955307,1.663307676521947
321,1790596734.8347914,0.14216835937499978,-0.07060517578125004,-0.5166536132812496,0.5404885654396875,-0.8565819974901138,-1.3302229500697287,0.4860233892833833,1.655126747486993
322,1790596734.8598888,0.24754921874999977,-0.4298581054687501,-0.41127275390624957,0.6443631620806305,-0.8566895191877538,-1.3189999321750367,0.48644778467493666,1.6463016736245668
323,1790596734.8798888,0.3098197265624998,-0.6166696289062501,-0.15261064453124953,0.7067953756264098,-0.8559262975890806,-1.3129676858456665,0.48588942933917323,1.6409090494366296
324,1790596734.9040172,0.3385599609374998,-0.5543991210937501,-0.09034013671874952,0.6558525542542976,-0.8539703155750399,-1.3089010656211797,0.4848772068293337,1.6363352972939895
325,1790596734.9240172,0.30502968749999976,-0.45380830078125006,-0.19093095703124954,0.5791715760180068,-0.8516268211048296,-1.3075481885710767,0.4837421269102997,1.63369426552471
326,1790596734.9344802,0.2619193359374998,-0.32447724609375006,-0.14303056640624953,0.4408457379821398,-0.8501398218695602,-1.3075573341381022,0.482975314019848,1.6326999273410039
327,1790596734.9544802,0.2714994140624998,-0.14724580078125005,0.043780957031250484,0.3119455559589918,-0.846923660437385,-1.3082797774908312,0.48158054396995376,1.6311944958007045
328,1790596734.9792643,0.19485878906249976,-0.003544628906250044,0.02462080078125048,0.1964400567605722,-0.8426691282894085,-1.309321035202363,0.48023854379504877,1.6294299285154328
329,1790596734.9992642,0.36251015624999977,0.04914580078124996,-0.08076005859374953,0.3746346355889901,-0.8389147928920927,-1.3099668564466305,0.4792338257856282,1.6277150409389782
330,1790596735.024479,0.4056205078124998,-0.10413544921875005,-0.008909472656249522,0.4188693911532252,-0.8334389425660211,-1.310762925316507,0.47798757117797924,1.6251744631178764
331,1790596735.044479,0.3864603515624998,-0.008334667968750044,0.05815107421875048,0.3908997537128348,-0.8285589494227957,-1.3114683479152756,0.4772211962047645,1.6230216358260094
332,1790596735.0555644,-0.02548300781250024,-0.3101071289062501,-0.10471025390624952,0.32829872427221035,-0.825959694280554,-1.3120654536692775,0.47682142049162124,1.6220616012741442
333,1790596735.0755644,0.9564749999999999,0.09225615234374997,-0.25799150390624953,0.994944842369707,-0.8205771669037308,-1.3133079105539045,0.47566429955811523,1.6199941606812438
334,1790596735.1147075,0.12300820312499977,-0.9088620117187501,-0.21967119140624952,0.9430888646969255,-0.8084538146258844,-1.3177721758285332,0.47233704379039054,1.6165467394132642
335,1790596735.1347075,0.4774710937499998,-0.62624970703125,-0.06638994140624953,0.7903005537410897,-0.8022878807384064,-1.32201368778757,0.47046291327021067,1.6163914708510767
336,1790596735.1607525,0.10384804687499977,-0.88491181640625,-0.07597001953124953,0.8942174140122409,-0.7943271649842857,-1.3296605646746826,0.4681103228162109,1.6180482491601003
337,1790596735.1807525,-0.6290279296875003,-0.7747409179687501,-0.013699511718749521,0.9980417340589203,-0.789918865626075,-1.337141262897406,0.46644025056968436,1.6215687091721906
338,1790596735.1743243,-0.8254195312500002,-0.7028903320312501,-0.16219072265624954,1.0962107698557462,-0.789918865626075,-1.337141262897406,0.46644025056968436,1.6215687091721906
339,1790596735.1943243,-1.2229927734375003,-0.5783493164062501,0.0006706054687504793,1.3528487370654638,-0.7916609036107038,-1.3463519030501985,0.46476708359188695,1.6295394671940644
340,1790596735.219534,-1.3810640625000004,-0.26699677734375005,0.048570996093750485,1.4074744635347713,-0.7984508987521037,-1.3578186084738373,0.46306753507564796,1.641836396623277
341,1790596735.239534,-1.1942525390625003,-0.23825654296875007,0.07731123046875048,1.2202386380053867,-0.8068926617137789,-1.3663089904835737,0.46211027807607474,1.6527014050055553
342,1790596735.279339,-0.9595406250000003,-0.03707490234375004,0.2258024414062505,0.9864479215621131,-0.8276036819930023,-1.3814943235020836,0.46139577775694757,1.6752135637132337
343,1790596735.299339,-0.7296187500000003,0.21200712890624998,0.2497526367187505,0.799791799536981,-0.8389826760442585,-1.3877172736725052,0.4618039610747306,1.6860943214469786
344,1790596735.3096216,-0.6960884765625003,0.15452666015624997,0.2784928710937505,0.7654906499443269,-0.8450548696292169,-1.390154082012857,0.46238971717719335,1.691286597526353
345,1790596735.3296216,-0.5236470703125002,0.07309599609374996,0.2784928710937505,0.5975847706742888,-0.8569235693870166,-1.393841399716855,0.4641936198209472,1.7007608791414803
346,1790596735.3394337,-0.23145468750000026,0.010825488281249957,0.2497526367187505,0.34068290698275194,-0.8624286854083038,-1.39531730926074,0.4653346154104369,1.7050600972507994
347,1790596735.3594337,-0.12128378906250024,-0.23346650390625007,0.4557243164062505,0.5262138524397741,-0.8724956820166178,-1.3982083577162905,0.46836966187119256,1.7133608688442328
348,1790596735.399009,-0.15002402343750024,-0.3196872070312501,0.5658952148437505,0.6670416119934883,-0.8902331844263583,-1.404712810135745,0.47650678923856193,1.7299687632451053
349,1790596735.419009,-0.26498496093750024,-0.27657685546875005,0.4126139648437505,0.5629938458705479,-0.8984750194897976,-1.408401258194514,0.4814699363363416,1.7385812504242657
350,1790596735.4295642,-0.3559957031250003,-0.37716767578125004,0.2641227539062505,0.5820216709270499,-0.9026638971124122,-1.4105734269952401,0.48423213587173364,1.7432728603136585
351,1790596735.4495642,-0.43263632812500025,-0.5208688476562501,0.1970622070312505,0.7052035609044102,-0.9105933194560826,-1.4154189077006385,0.48937262492509387,1.7527339911522777
352,1790596735.4599733,-0.6002876953125003,-0.5927194335937501,0.2880729492187505,0.891430125234097,-0.9149075868306729,-1.4184318499366166,0.4920254521337421,1.7581506906128244
353,1790596735.4799733,-0.7535689453125003,-0.6118795898437501,0.3599235351562505,1.0352814781334219,-0.9239843543721193,-1.4251594302627735,0.497329996008717,1.7697919690521273
354,1790596735.5048046,-0.7487789062500003,-0.63103974609375,0.3934538085937505,1.0553136553138782,-0.9363612421460542,-1.4345740018885622,0.5043310959678899,1.785812083352568
355,1790596735.5248046,-0.7200386718750003,-0.51128876953125,0.4557243164062505,0.9937587973991668,-0.9470379226447616,-1.4427328904555456,0.5103979500875239,1.7996847189391438
356,1790596735.5493886,-0.7104585937500003,-0.3005270507812501,0.47967451171875053,0.9083807345365299,-0.960830724288001,-1.452754316945779,0.5184614330356134,1.8172762705999723
357,1790596735.5693886,-0.7152486328125003,-0.13766572265625004,0.5132047851562505,0.8910171768500827,-0.9725070670229509,-1.4603414666525243,0.5255266850305116,1.8315418344426606
358,1790596735.579463,-0.7727291015625003,-0.06581513671875004,0.5036247070312505,0.9247052190591386,-0.9786307103213778,-1.4637437372638231,0.5293200477300418,1.8385982455371055
359,1790596735.599463,-0.8397896484375003,-0.008334667968750044,0.5084147460937505,0.9817340140580351,-0.9913828135676968,-1.4695961153761894,0.53723920639445,1.8523440798765027
360,1790596735.624932,-0.8254195312500002,-0.003544628906250044,0.4653043945312505,0.9475432161823263,-1.008367001827443,-1.47595363337792,0.5476711697455955,1.8695418819663974
361,1790596735.644932,-0.8685298828125003,-0.013124707031250044,0.4557243164062505,0.9809184817490676,-1.022244457800104,-1.4802221266332363,0.5560157943498124,1.8828687790826268
362,1790596735.669971,-0.9020601562500002,-0.008334667968750044,0.3168131835937505,0.9561132702157896,-1.0403372753964288,-1.4848047714124661,0.5663465476649734,1.8993933947027732
363,1790596735.689971,-0.9260103515625003,-0.07060517578125004,0.2689127929687505,0.9668476365334203,-1.055363340630202,-1.4880345281191647,0.574239111441621,1.9125347303330802
364,1790596735.6999977,-0.9403804687500003,-0.20951630859375006,0.2689127929687505,1.0002632652434438,-1.0631700006692477,-1.4896214920015898,0.578006854025033,1.919217174541747
365,1790596735.7199976,-0.9451705078125003,-0.34363740234375006,0.2784928710937505,1.0435479061251287,-1.0792343025946793,-1.4931418755492616,0.585216066034794,1.9330538493174552
366,1790596735.744579,-0.9260103515625003,-0.35800751953125004,0.2689127929687505,1.0285808891205774,-1.0994665924406077,-1.4981132198197045,0.5937568165481573,1.9508247395624565
367,1790596735.764579,-0.8493697265625003,-0.36758759765625004,0.2258024414062505,0.9526470053994675,-1.1161218714796872,-1.5026396849929426,0.6004054859251464,1.9657417944480962
368,1790596735.7894561,-0.8206294921875003,-0.33405732421875006,0.2832829101562505,0.9302022718197909,-1.1368469590405124,-1.5087345257490679,0.608384809539999,1.9846493277014823
369,1790596735.809456,-0.8110494140625003,-0.2813668945312501,0.3168131835937505,0.9150623337719088,-1.153457161144783,-1.5138226287067222,0.6147376996512819,2.000006203278695
370,1790596735.8195684,-0.8014693359375002,-0.19993623046875006,0.3168131835937505,0.8847023149065217,-1.1618187387953947,-1.516374386281672,0.6179485532343033,2.0077535893708687
371,1790596735.8395684,-0.7631490234375002,-0.20951630859375006,0.3359733398437505,0.8597508945189449,-1.1782224945621207,-1.5212783797905864,0.6243255680387586,2.022938103456796
372,1790596735.864148,-0.7487789062500003,-0.17598603515625005,0.3455534179687505,0.843236680704089,-1.1981455484860484,-1.527111902331581,0.6322435644679386,2.0414101602595296
373,1790596735.884148,-0.7679390625000003,-0.13766572265625004,0.3216032226562505,0.8438666291131157,-1.2142000430828963,-1.5316170298493432,0.6387206374582387,2.0562335770680553
374,1790596735.9099429,-0.7966792968750003,-0.09455537109375005,0.1779020507812505,0.8217589427223145,-1.2348273377406374,-1.5370052067067825,0.6467877284308541,2.074974198664681
375,1790596735.9299428,-0.8206294921875003,-0.11371552734375005,0.1970622070312505,0.8515852852457052,-1.2508475574626043,-1.5408686490002539,0.6526667281329409,2.0892270492921035
376,1790596735.93949,-0.8541597656250003,-0.14724580078125005,0.2928629882812505,0.9148983336771856,-1.2585471071179297,-1.5426231303071014,0.6554029854723882,2.095991416098718
377,1790596735.95949,-0.8110494140625003,-0.14724580078125005,0.2737028320312505,0.8685595651196085,-1.2747548815217578,-1.5461889297212519,0.6611250647054422,2.110162686983607
378,1790596735.9840698,-0.8014693359375002,-0.14245576171875005,0.2066422851562505,0.8398498523602681,-1.2946588359339737,-1.5504479694676423,0.6679880906417843,2.127495827663947
379,1790596736.0040698,-0.7966792968750003,-0.19035615234375006,0.2162223632812505,0.8471631939521989,-1.3108221330493206,-1.5538928460792978,0.6733690286957551,2.1415563243573716
380,1790596736.0291471,-0.7870992187500003,-0.20472626953125006,0.2353825195312505,0.8466657877190518,-1.331027554443265,-1.558307425860225,0.6799533471953797,2.1592343408117007
381,1790596736.0491471,-0.7823091796875002,-0.21909638671875006,0.2737028320312505,0.8572771544596698,-1.3470789626433533,-1.561935812197734,0.6851804979149287,2.173416096320499
382,1790596736.0894423,-0.7679390625000003,-0.18556611328125006,0.2832829101562505,0.8392939850244868,-1.3792527703493573,-1.569372529343849,0.6958155113547416,2.2021415863239464
383,1790596736.1094422,-0.7344087890625003,-0.18077607421875005,0.2737028320312505,0.8043317093861947,-1.3950799970259273,-1.5730594954253494,0.7011377617101533,2.2163841127263204
384,1790596736.1044757,-0.7248287109375002,-0.18556611328125006,0.2258024414062505,0.7815357862200881,-1.3950799970259273,-1.5730594954253494,0.7011377617101533,2.2163841127263204
385,1790596736.1244757,-0.7056685546875002,-0.16161591796875005,0.2066422851562505,0.7528538025607789,-1.4105214381900062,-1.576711186813075,0.7062686226794318,2.2303372528827565
386,1790596736.1497674,-0.6673482421875002,-0.12808564453125004,0.2593327148437505,0.7273328438025897,-1.4297238471258977,-1.5811859086522522,0.712667669044266,2.2476997938474597
387,1790596736.1697674,-0.6577681640625003,-0.08497529296875005,0.2784928710937505,0.7193316601674901,-1.4446185558272424,-1.5845132159212771,0.7177755712625151,2.2611516256038215
388,1790596736.194759,-0.6769283203125003,0.010825488281249957,0.2928629882812505,0.7376434585507109,-1.4629405322519107,-1.5881862666960476,0.7242718085075375,2.2775206412294513
389,1790596736.2147589,-0.6481880859375003,0.14494658203124997,0.3599235351562505,0.7554483817927171,-1.4773913683970872,-1.5904511292260983,0.7296699247375318,2.290117518586604
390,1790596736.2248058,-0.5667574218750002,0.33654814453125,0.5179948242187505,0.8383300464347191,-1.4844773080317564,-1.59105540000219,0.7326364303739408,2.296058863149725
391,1790596736.2448058,-0.5092769531250003,0.37486845703125,0.5611051757812505,0.8454161066302096,-1.4980811412150334,-1.5910107341045965,0.7392745626471584,2.306965353159282
392,1790596736.2699058,-0.45179648437500025,0.55688994140625,0.4365641601562505,0.8395443621786753,-1.5144022601360976,-1.5892090520480973,0.7482339069405886,2.319235562876809
393,1790596736.2899058,-0.5092769531250003,0.73891142578125,0.4844645507812505,1.0198328348793455,-1.5268980058566486,-1.586045089914913,0.7556835264470719,2.327662806266341
394,1790596736.31497,-0.5475972656250002,0.88261259765625,0.4748844726562505,1.1420958914344694,-1.5421955893194799,-1.5796265712078184,0.7654224913552529,2.336548508046582
395,1790596736.33497,-0.5619673828125002,1.01673369140625,0.4317741210937505,1.2393480666188943,-1.5542356243318054,-1.5724241506918202,0.7733879968807036,2.3422841585384373
396,1790596736.3445165,-0.6865083984375002,1.08858427734375,0.3742936523437505,1.34030043206367,-1.5600144913926166,-1.56799454698574,0.7771969564107367,2.344416179304795
397,1790596736.3645165,-0.7918892578125003,1.04547392578125,0.3886637695312505,1.3679049133158094,-1.5725228161615608,-1.5569054360608117,0.785124204625275,2.3480209881670273
398,1790596736.4046743,-0.8397896484375003,1.05026396484375,0.4221940429687505,1.4094498428076088,-1.5987852200454946,-1.531667546759343,0.8010958715150394,2.354543320686656
399,1790596736.4246743,-0.8829000000000002,0.97841337890625,0.2497526367187505,1.3413357258981489,-1.6124869053208393,-1.5179405877402372,0.8088650701333344,2.3576514478230575
400,1790596736.4347403,-0.8589498046875003,0.82513212890625,0.13958173828125048,1.1992167688902915,-1.6196635929970433,-1.5107065104639201,0.8124827149521264,2.35916775099486
401,1790596736.4547403,-0.7631490234375002,0.58563017578125,0.2449625976562505,0.9926559368732382,-1.6342170629132373,-1.4963731228042292,0.8191691777623755,2.362379324571635
402,1790596736.4644804,-0.8589498046875003,0.58563017578125,0.3359733398437505,1.0925362945202493,-1.6414265052618395,-1.4895841260298395,0.8223614528171019,2.364195465644842
403,1790596736.4844804,-0.8206294921875003,0.32217802734374995,0.2449625976562505,0.915007168825208,-1.6565289278524378,-1.4763731869155894,0.8288045178866537,2.3686879922701025
404,1790596736.5092955,-0.5907076171875003,-0.19993623046875006,-0.013699511718749521,0.6237769327882522,-1.6750832607477446,-1.4622128674581252,0.836030055951607,2.3754824046184506
405,1790596736.5292954,-0.49011679687500026,-0.4202780273437501,0.12042158203125049,0.6567719941241964,-1.689415449242773,-1.453442426305197,0.8411401135705292,2.382044528841042
406,1790596736.5545754,-0.5284371093750002,-0.7172604492187501,-0.15261064453124953,0.9038796044840998,-1.7067451446164486,-1.4461762286464732,0.8465693339875483,2.391878824318255
407,1790596736.5745754,-0.49011679687500026,-1.6513180664062501,-0.6172444335937496,1.829769526968125,-1.7199266351984022,-1.444842809473086,0.849065528085771,2.401380987168539
408,1790596736.600255,-0.13086386718750023,-3.06437958984375,-1.2112092773437495,3.297662131860962,-1.735508686694826,-1.4524698258128557,0.8482682878563979,2.416861205090779
409,1790596736.620255,0.036787499999999765,-3.8020456054687504,-1.5944124023437496,4.122991027757404,-1.745965177648099,-1.4678185672082902,0.8435320833281416,2.431960551366956
410,1790596736.629902,-0.07817343750000025,-3.70624482421875,-1.4794514648437496,3.9913830209849763,-1.75028221256117,-1.4795438240407743,0.8393662785067081,2.440711679072197
411,1790596736.6499019,-0.31288535156250025,-3.4332125976562504,-0.7609456054687496,3.5304226656889357,-1.7584763819190794,-1.5109155267869727,0.8286646056414417,2.462070255597118
412,1790596736.6747506,-0.5859175781250002,-3.0260592773437502,-0.16219072265624954,3.0865255529267537,-1.7688050607051429,-1.5560841020550107,0.815642476775624,2.4930587087682365
413,1790596736.6947505,-0.6721382812500003,-2.4943649414062503,0.1970622070312505,2.5908415319116567,-1.7777584026980975,-1.5952663495068058,0.8067858276112616,2.5211511330871956
414,1790596736.719121,-0.7487789062500003,-1.9866208007812503,0.5611051757812505,2.195944233087487,-1.7896289034393607,-1.6440394075117832,0.7989983683296609,2.5581312667786857
415,1790596736.739121,-1.0026509765625002,-1.4836666992187502,0.9778385742187505,2.0402804053371084,-1.8005365030343685,-1.6832672589541218,0.7958745152231362,2.5901228943445553
416,1790596736.7490804,-1.3714839843750004,-0.9759225585937501,1.1981803710937506,2.06616295616867,-1.8069268262338796,-1.7017087363005028,0.7961776566367923,2.6066637756896744
417,1790596736.7690804,-1.7355269531250004,-0.33884736328125004,1.3370915039062505,2.216908890875825,-1.82249509809131,-1.7351589852826224,0.8004979984624692,2.6406556254680944
418,1790596736.7940662,-1.6157759765625004,0.43234892578125,1.1933903320312504,2.0547111925149872,-1.8453071222100679,-1.770504491836766,0.8098277135407602,2.682473756910219
419,1790596736.8140662,-1.3427437500000003,0.80118193359375,0.9922086914062506,1.85184539208412,-1.8652658811450946,-1.7927027878233692,0.819453917182363,2.7137621147070328
420,1790596736.840085,-1.3810640625000004,0.93051298828125,0.9059879882812505,1.8957865388801065,-1.8926516046686186,-1.8138704650994169,0.8338027656387562,2.7509058894846823
421,1790596736.860085,-1.4337544921875003,0.92093291015625,0.8101872070312505,1.886841985783069,-1.9147668834535414,-1.8249236588308335,0.8457521565662929,2.7770443440585244
422,1790596736.869249,-1.2852632812500002,0.75807158203125,0.7574967773437505,1.6734322792688827,-1.9252490187894744,-1.8280746031499846,0.8514836188601461,2.7880934152605037
423,1790596736.889249,-1.1176119140625003,0.49940947265624996,0.6521159179687505,1.3869828341769286,-1.9482983614221938,-1.8320335871517637,0.8642302660056697,2.8105350953604535
424,1790596736.9443367,-1.0649214843750003,0.14494658203124997,0.6281657226562505,1.2448531859806784,-2.011279315063355,-1.8386402542154145,0.89936258970988,2.8696159212327883
425,1790596736.9643366,-1.0505513671875002,-0.09934541015625005,0.6090055664062505,1.2183658996920577,-2.03388839879582,-1.8406106652778889,0.9120601549713848,2.890744431141806
426,1790596736.959364,-0.9116402343750003,-0.3196872070312501,0.5084147460937505,1.0916837368562011,-2.03388839879582,-1.8406106652778889,0.9120601549713848,2.890744431141806
427,1790596736.979364,-0.8302095703125003,-0.54960908203125,0.4653043945312505,1.0990114891391232,-2.0553380259139162,-1.8438724965379798,0.9241194327305704,2.9117480849495188
428,1790596736.9895313,-0.7918892578125003,-0.64540986328125,0.2976530273437505,1.0640675791257121,-2.065843628207706,-1.8461932410776734,0.9299122008608258,2.9224777297555384
429,1790596737.0095313,-0.7679390625000003,-0.5735592773437501,0.07252119140625048,0.9612283659690065,-2.08574889808314,-1.8519020138324855,0.9401530596256081,2.9434295150751004
430,1790596737.0341175,-0.7391988281250003,-0.5208688476562501,-0.028069628906249523,0.9047138597518323,-2.1093273133382135,-1.8598852806306507,0.9509358488442551,2.9686215589930462
431,1790596737.0541174,-0.7727291015625003,-0.29573701171875005,0.01504072265625048,0.8275245421375412,-2.1278983595328813,-1.8666301710955229,0.9583720016492105,2.988433790080005
432,1790596737.080122,-0.8110494140625003,0.08746611328124997,0.08210126953125048,0.8198732167123748,-2.1515118874776835,-1.8744907866447111,0.9667798572554968,3.0128694634133506
433,1790596737.100122,-0.7823091796875002,0.35091826171874996,0.1874821289062505,0.8776678344853812,-2.169338819646289,-1.878971939212459,0.9726807082910119,3.030292761937976
434,1790596737.1242342,-0.7918892578125003,0.59521025390625,0.2976530273437505,1.0343892727986281,-2.1904541411978156,-1.8818530975243273,0.9796050530742186,3.0494403560917713
435,1790596737.1442342,-0.8541597656250003,0.82513212890625,0.3216032226562505,1.2303904129132353,-2.207810271963787,-1.8817539060051311,0.9854158481708513,3.0637343803895036
436,1790596737.1545954,-0.9212203125000002,0.83471220703125,0.3216032226562505,1.284063847926755,-2.2168326942033243,-1.88042037913743,0.988474467748341,3.0704087300804903
437,1790596737.1745954,-0.9595406250000003,0.80118193359375,0.4174040039062505,1.3178910441380882,-2.2344572448384015,-1.8757785748839808,0.9946013644240199,3.082300490724212
438,1790596737.214459,-0.8589498046875003,0.71975126953125,0.4269840820312505,1.199229779180208,-2.2697536959872644,-1.8633671724561043,1.0075061028254049,3.1046719000669523
439,1790596737.234459,-0.7487789062500003,0.54730986328125,0.4078239257812505,1.0131822596796285,-2.2872175976743256,-1.856173691011685,1.0142615902739487,3.115360602533854
440,1790596737.2301514,-0.7152486328125003,0.37486845703125,0.2401725585937505,0.8424902520021282,-2.2872175976743256,-1.856173691011685,1.0142615902739487,3.115360602533854
441,1790596737.2501514,-0.7200386718750003,0.24553740234374996,0.02462080078125048,0.7611507661274085,-2.3038548288792065,-1.8488700165294376,1.0203658143454508,3.125254198566327
442,1790596737.2749171,-0.7391988281250003,0.09704619140624997,-0.04243974609374952,0.7467489556847965,-2.3240766866246014,-1.8405462489864375,1.0267576845305173,3.1373833496581987
443,1790596737.294917,-0.6625582031250002,-0.08497529296875005,-0.14303056640624953,0.6831265738279009,-2.3400602457499358,-1.834814444177153,1.0308670620851383,3.147238932460071
444,1790596737.3191836,-0.5907076171875003,-0.22867646484375007,-0.18614091796874954,0.660209706016973,-2.3588254393084203,-1.8294739241520692,1.034506084293899,3.159309280637467
445,1790596737.3391836,-0.5859175781250002,-0.21909638671875006,-0.21488115234374952,0.6614200969593043,-2.3737364092832762,-1.8264042594239915,1.0364538838029833,3.169323857362868
446,1790596737.3495486,-0.5571773437500003,-0.14245576171875005,-0.17177080078124954,0.6002045021792214,-2.3811935043199344,-1.8253330930903557,1.0370113415910518,3.1744788435796396
447,1790596737.3695486,-0.5811275390625003,-0.11371552734375005,-0.09034013671874952,0.5990006495140613,-2.39513158045809,-1.8239604954410915,1.0375324799349772,3.1843305141830682
448,1790596737.394937,-0.6290279296875003,-0.08497529296875005,0.005460644531250479,0.6347651182766461,-2.4124752239793255,-1.8228577812672313,1.0379331720553318,3.196897318759774
449,1790596737.414937,-0.6817183593750002,-0.03707490234375004,0.07252119140625048,0.6865666705395206,-2.426054548298885,-1.8223024851383158,1.038318445901839,3.2069662009074866
450,1790596737.4400206,-0.7439888671875002,-0.022704785156250046,0.13958173828125048,0.7573097143372366,-2.44321294200377,-1.8218229723135957,1.0391281896354172,3.219955871890055
451,1790596737.4600205,-0.8062593750000003,-0.027494824218750043,0.1970622070312505,0.8304478662590677,-2.4571671489505857,-1.82157328923158,1.0401819464033626,3.2307550398548317
452,1790596737.484595,-0.8254195312500002,-0.07539521484375004,0.2832829101562505,0.8759286775627909,-2.4747485033601926,-1.8215021512068543,1.0421678276971587,3.2447440612198872
453,1790596737.504595,-0.8733199218750003,-0.10892548828125005,0.34076337890625047,0.9437542732855149,-2.4894589132503415,-1.8217294206458097,1.0444776749432334,3.25684469636839
454,1790596737.514663,-0.9020601562500002,-0.08018525390625005,0.4269840820312505,1.0012280493203605,-2.4970939003539954,-1.8219694631439127,1.046045753149061,3.263320761049277
455,1790596737.534663,-0.8876900390625003,-0.10413544921875005,0.4174040039062505,0.9864400132353428,-2.5126704016732018,-1.8226512620709152,1.049960075784514,3.276886682708862
456,1790596737.5597987,-0.8876900390625003,-0.14724580078125005,0.3168131835937505,0.9539630624910497,-2.5326572345104403,-1.8238535071631738,1.0555257644694427,3.2946819152337428
457,1790596737.5797987,-0.8445796875000002,-0.25262666015625007,0.2449625976562505,0.9149545082733882,-2.548773266266242,-1.825266425795404,1.060132651463108,3.3093388957112895
458,1790596737.6043735,-0.7966792968750003,-0.3196872070312501,0.2305924804687505,0.888859215206445,-2.5686303190456075,-1.827796953341915,1.0658207127075514,3.327863760763466
459,1790596737.6243734,-0.7248287109375002,-0.25741669921875004,0.1874821289062505,0.7917004268630999,-2.5846490150337726,-1.8304131415722904,1.070382632022842,3.343133526901332
460,1790596737.6344233,-0.7487789062500003,-0.19035615234375006,0.13000166015625048,0.7834575590441674,-2.5926015963448585,-1.8318680647561607,1.0725704078781972,3.3507806439543897
461,1790596737.6544232,-0.7679390625000003,-0.19514619140625006,0.10605146484375048,0.7994118794021323,-2.608329026899854,-1.834907423558046,1.076625265378333,3.365915555632335
462,1790596737.6793802,-0.8110494140625003,-0.2717868164062501,0.15395185546875048,0.8691204746326258,-2.627966161101935,-1.8390051748738565,1.0814128018345672,3.3849076538483818
463,1790596737.6993802,-0.8589498046875003,-0.32447724609375006,0.2689127929687505,0.9567624263251212,-2.643847434504761,-1.842690845866207,1.0853082366634104,3.400490079230634
464,1790596737.7251165,-0.8733199218750003,-0.21909638671875006,0.3216032226562505,0.9560959917497064,-2.664561964489406,-1.8477714342827847,1.0907088731030645,3.421081054552911
465,1790596737.7451165,-0.8781099609375003,-0.18077607421875005,0.3455534179687505,0.9608143718624775,-2.6808719686367666,-1.8517271954150278,1.0952769659753587,3.437382689003097
466,1790596737.7543557,-0.8972701171875003,-0.16161591796875005,0.3551334960937505,0.9784340387508614,-2.688506588041357,-1.8535177462796357,1.0975562356370065,3.4450290855232257
467,1790596737.7743556,-0.9212203125000002,-0.17119599609375005,0.3455534179687505,0.9986801779904392,-2.7052819065218476,-1.8573115504663966,1.1028010870694325,3.461838619417707
468,1790596737.799341,-0.8685298828125003,-0.08018525390625005,0.4653043945312505,0.9885757491727172,-2.726449038797274,-1.8618111661895196,1.1098899385407928,3.4830619941914103
469,1790596737.819341,-0.7104585937500003,0.044355761718749956,0.5419450195312505,0.8946637643414458,-2.743219616178315,-1.864926444689568,1.1162240591059196,3.4998800917766983
470,1790596737.844706,-0.6817183593750002,0.08746611328124997,0.4940446289062505,0.846445708733044,-2.763947061429793,-1.868033996409323,1.1250232071911335,3.5206010263655267
471,1790596737.864706,-0.7391988281250003,0.09225615234374997,0.3886637695312505,0.8402295108438455,-2.779970201258645,-1.8698471292539272,1.1322445561764314,3.536458728962682
472,1790596737.8742242,-0.7487789062500003,0.09225615234374997,0.3934538085937505,0.8508742254805628,-2.7875141168786666,-1.8704488645399657,1.1357240711411145,3.543823228157134
473,1790596737.8942242,-0.7056685546875002,-0.013124707031250044,0.3311833007812505,0.7796298773942453,-2.803169674317859,-1.8714049030013002,1.1430256493715585,3.558992015882288
474,1790596737.920213,-0.7344087890625003,-0.10413544921875005,0.16832197265625048,0.7606134022715682,-2.82326858420256,-1.8726894310908435,1.1520640471419301,3.578416238027868
475,1790596737.940213,-0.8493697265625003,-0.046654980468750044,0.11563154296875049,0.8584732222572409,-2.838791486822442,-1.8737558608646194,1.1584022358969317,3.5932706371648506
476,1790596737.9649718,-0.8637398437500002,0.02519560546874996,0.2162223632812505,0.8907488122917373,-2.8583065638771976,-1.874917860465756,1.165687822512802,3.611656336938995
477,1790596737.9849718,-0.8397896484375003,-0.013124707031250044,0.2497526367187505,0.8762392887250632,-2.874261365440544,-1.8756976103239522,1.171389239048664,3.626537283911215
478,1790596737.9944723,-0.8781099609375003,-0.08018525390625005,0.1970622070312505,0.9035155183402748,-2.881927532504391,-1.8760789381875194,1.1740096826336925,3.6336589300366815
479,1790596738.0144722,-0.8781099609375003,-0.008334667968750044,0.1874821289062505,0.89793993053379,-2.8982795239175276,-1.8768940573029864,1.1792754604171476,3.648759530668053
480,1790596738.0393414,-0.8397896484375003,0.04914580078124996,0.2401725585937505,0.8748398832121677,-2.9187668426675053,-1.8776794705334874,1.185638740320556,3.6675085955546267
481,1790596738.0593414,-0.8493697265625003,0.08267607421874996,0.3024430664062505,0.9053927733676123,-2.935305213022734,-1.8780186273257728,1.1908024466369467,3.68252374399644
482,1790596738.084626,-0.7870992187500003,0.07309599609374996,0.3072331054687505,0.8480922036534534,-2.9561805391948717,-1.878087686254802,1.1975074849608462,3.7013836485986764
483,1790596738.104626,-0.7391988281250003,-0.03707490234375004,0.2880729492187505,0.7942137495389772,-2.972505452578884,-1.878080086247892,1.2029085573826919,3.7161757861269957
484,1790596738.1304443,-0.6769283203125003,-0.046654980468750044,0.2928629882812505,0.7390381370055719,-2.9931606219013642,-1.878233879449475,1.2099599610935898,3.7350737772984335
485,1790596738.1504443,-0.6433980468750002,-0.04186494140625004,0.2737028320312505,0.7004476856292986,-3.008741419875692,-1.8784679236994422,1.2154527764522953,3.749465578429662
486,1790596738.1602523,-0.7248287109375002,0.09704619140624997,0.2353825195312505,0.7682444623729195,-3.0162426420705053,-1.878524891839006,1.218116904224778,3.7563791392059147
487,1790596738.1802523,-0.8349996093750003,0.20242705078124998,0.16832197265625048,0.8755189004375002,-3.03158399630861,-1.8781744233480728,1.2233401026864477,3.770225682639467
488,1790596738.2046106,-0.7679390625000003,0.12099638671874996,0.13000166015625048,0.7882074352324735,-3.050394150467635,-1.8772207559855427,1.2292923003682383,3.7868221241107607
489,1790596738.2246106,-0.7391988281250003,-0.027494824218750043,0.2258024414062505,0.773406500751847,-3.065782728442197,-1.8764149258012979,1.2339801291692505,3.800350466860778
490,1790596738.249237,-0.7679390625000003,-0.051445019531250046,0.2737028320312505,0.8168783471300222,-3.084672493284156,-1.8757173230631816,1.23980911697382,3.8171516230554166
491,1790596738.269237,-0.7439888671875002,0.0060354492187499565,0.2401725585937505,0.7818175740207434,-3.0999802295804435,-1.87530387325037,1.244603754249651,3.8308850864923873
492,1790596738.2798615,-0.7391988281250003,-0.051445019531250046,0.2401725585937505,0.7789379663602314,-3.108074100592051,-1.8751533687685609,1.247151467937163,3.8381911827256583
493,1790596738.2998614,-0.7200386718750003,-0.051445019531250046,0.2545426757812505,0.7654372951613763,-3.1232138567367267,-1.8750668833371462,1.2519701049531633,3.8519825746745546
494,1790596738.3244445,-0.6960884765625003,0.044355761718749956,0.2832829101562505,0.7528318590411457,-3.14164257334282,-1.8749895955416196,1.257996140592632,3.8688574969589378
495,1790596738.3444445,-0.7056685546875002,0.11141630859374996,0.2210124023437505,0.7478156088803971,-3.156489241091333,-1.8747024907298784,1.2629197750521517,3.88238330360256
496,1790596738.3700044,-0.6433980468750002,0.09704619140624997,0.2210124023437505,0.6871866500295093,-3.175203280710443,-1.8739909885856205,1.2691156621073874,3.8992836089390503
497,1790596738.3900044,-0.5667574218750002,0.14973662109374997,0.2641227539062505,0.6429586768043433,-3.189465287907343,-1.8731475920593899,1.273964271133277,3.9120781802678612
498,1790596738.4000707,-0.5475972656250002,0.21200712890624998,0.2880729492187505,0.6540610155777801,-3.1964081205798784,-1.872513666964874,1.2764554794666214,3.918248447628046
499,1790596738.4200706,-0.6577681640625003,0.31738798828125,0.2114323242187505,0.7603273771763805,-3.2099412680714607,-1.8706489982148038,1.2814119055334854,3.930021258292787
500,1790596738.4451954,-0.7439888671875002,0.23595732421874996,0.1779020507812505,0.8005275966658406,-3.2270334377862047,-1.8676151952075413,1.2874380454735888,3.9445187345090917
501,1790596738.4651954,-0.6529781250000003,0.15931669921874997,0.3216032226562505,0.7451113173220224,-3.2406938238491754,-1.8649695469652976,1.292264721357226,3.956027803378865
502,1790596738.4900382,-0.41826621093750027,0.35570830078125,0.7095963867187505,0.8972190649451248,-3.2571126456697317,-1.8612166280888376,1.2992821465450322,3.970018163634359
503,1790596738.5100381,-0.36557578125000023,0.78202177734375,0.9347282226562506,1.2723680923013352,-3.2695238716929715,-1.8569418974954017,1.306550682680879,3.980589685543826
504,1790596738.534969,-0.6769283203125003,1.08379423828125,0.6233756835937505,1.421773239538821,-3.284623688322361,-1.8489237929371487,1.3171655567300442,3.9927680961725605
505,1790596738.554969,-0.9212203125000002,0.70538115234375,0.2497526367187505,1.1868385795011733,-3.297317211249076,-1.8407726264056783,1.3257133459055583,4.002281915262336
506,1790596738.5652785,-0.9499605468750003,0.09225615234374997,-0.028069628906249523,0.9548424699034168,-3.3043257229519605,-1.8365844328347851,1.32962998739134,4.007433937779057
507,1790596738.5852785,-0.9212203125000002,-0.2622067382812501,-0.25799150390624953,0.9919470015330952,-3.3186893151992978,-1.8299331540579862,1.3356593193460529,4.018250855346708
508,1790596738.6098478,-0.9116402343750003,-0.39632783203125005,-0.4687532226562495,1.0990419696829214,-3.3370651116505536,-1.8242014000356928,1.340615948999194,4.032488738979753
509,1790596738.6298478,-0.8781099609375003,-0.3101071289062501,-0.25799150390624953,0.9663349062224463,-3.3524643247505925,-1.8212951333267118,1.342955426643554,4.044707936224367
510,1790596738.6545503,-0.8062593750000003,0.06351591796874996,0.5467350585937505,0.9762211203955361,-3.371751948544744,-1.8187008194583592,1.3459465017177958,4.060536400366355
511,1790596738.6745503,-0.8014693359375002,0.63832060546875,0.9059879882812505,1.367706301339581,-3.387437039631291,-1.8158626914740559,1.3501840044891547,4.073706402986324
512,1790596738.6852362,-0.9787007812500003,0.94488310546875,0.5611051757812505,1.4715632234152014,-3.3959871628695684,-1.8133049005936182,1.353284268209405,4.080708490381885
513,1790596738.7052362,-0.9834908203125002,0.31259794921874995,0.2210124023437505,1.05537583518123,-3.412532640509848,-1.807349550535396,1.3593895812103611,4.0938773129966775
514,1790596738.7301137,-0.8206294921875003,-0.5831393554687501,-0.11908037109374953,1.013737838952581,-3.433392277953539,-1.8015577584467795,1.366034895582178,4.110942012152322
515,1790596738.7501137,-0.6242378906250002,-1.3974459960937502,-0.6843049804687495,1.6765445303912268,-3.449813935760705,-1.8005708331878156,1.369370870563178,4.125342179485525
516,1790596738.7602968,-0.5475972656250002,-1.77585908203125,-0.7944758789062496,2.0210715392377154,-3.457815901738962,-1.80256726496282,1.3696852279020155,4.133010667608707
517,1790596738.7802968,-0.40868613281250027,-1.7566989257812502,-0.5118635742187495,1.8748386036153162,-3.472609061633665,-1.81119900353765,1.368250518717232,4.148682321813276
518,1790596738.820138,-0.30330527343750024,-1.4788766601562502,-0.20051103515624952,1.5229165899908415,-3.499785095709189,-1.835482893312862,1.363692557043081,4.180568209935945
519,1790596738.840138,-0.3368355468750003,-1.1962643554687502,0.1970622070312505,1.258308430887941,-3.512341152225086,-1.8498573870676158,1.3617425296590688,4.196767260545283
520,1790596738.8647344,-0.39431601562500024,-0.8992819335937501,0.5323649414062505,1.1169626435584001,-3.5268154089950916,-1.8687494929146757,1.361049667097903,4.217002228206832
521,1790596738.8847344,-0.5332271484375003,-0.6981002929687501,0.7239665039062505,1.138333303409894,-3.5382106906002146,-1.8842029546777626,1.3624552864110486,4.233844597167387
522,1790596738.8942976,-0.5571773437500003,-0.34842744140625004,0.6856461914062505,0.9497152068399812,-3.543624233726675,-1.8912344210123548,1.3640376131184748,4.2420088348657226
523,1790596738.9142976,-0.4757466796875003,0.13057646484374996,0.7191764648437505,0.8721237893727739,-3.554796973645601,-1.9040606448782091,1.368957659519509,4.258646913841423
524,1790596738.924585,-0.4661666015625003,0.35570830078125,0.8053971679687505,0.9962450972672833,-3.5604086673449875,-1.909293328538625,1.3722851094784212,4.266740830493881
525,1790596738.944585,-0.5380171875000003,0.49461943359375,0.6616959960937505,0.9858764980363987,-3.5711881844717976,-1.9166647724116646,1.3799843101786224,4.281512068773601
526,1790596739.0002723,-0.6194478515625003,0.6143704101562499,0.48925458984375053,1.000268311686486,-3.601534349758621,-1.929479086542766,1.4030130587021488,4.319998247775793
527,1790596739.0202723,-0.6529781250000003,0.60479033203125,0.3263932617187505,0.9479896300816747,-3.612706954544768,-1.9315622546694573,1.4112666624161838,4.332927171731277
528,1790596739.01501,-0.6912984375000003,0.68622099609375,0.16353193359375048,0.9876919957531047,-3.612706954544768,-1.9315622546694573,1.4112666624161838,4.332927171731277
529,1790596739.03501,-0.8493697265625003,0.90656279296875,0.1779020507812505,1.2549638120951263,-3.6248041125275443,-1.9290321323623196,1.4183666956160177,4.344206936267611
530,1790596739.0603356,-0.9403804687500003,0.94488310546875,0.4605143554687505,1.4103875285181509,-3.6412242020666867,-1.9227922052025095,1.427221337206632,4.358050515939621
531,1790596739.0803356,-0.8972701171875003,1.03110380859375,0.6281657226562505,1.5042808588872147,-3.6550028012821727,-1.9156396230219104,1.4347981098950262,4.368909046756455
532,1790596739.1052856,-0.8637398437500002,1.03589384765625,0.7143864257812506,1.5262603141777142,-3.672908606959659,-1.9041873144877446,1.4453446002142103,4.3823746961097205
533,1790596739.1252856,-0.8110494140625003,1.0215237304687501,0.6473258789062505,1.4561396490253489,-3.687621111942683,-1.8932980309398493,1.4545731373474633,4.393052459406665
534,1790596739.1348534,-0.7391988281250003,0.87303251953125,0.7479166992187505,1.366740676438192,-3.6947160742149063,-1.8875106336248082,1.4593269289548612,4.398097127927208
535,1790596739.1548533,-0.5619673828125002,0.74370146484375,0.5754752929687506,1.0954775310216727,-3.7092741711440027,-1.8748024706825546,1.4697585657193757,4.408377186936131
536,1790596739.1650856,-0.3464156250000003,0.94488310546875,0.6137956054687506,1.1787929901119873,-3.7163021486798367,-1.8679802337540774,1.4752076300147101,4.413217575152162
537,1790596739.1850855,-0.15002402343750024,0.93530302734375,0.4126139648437505,1.033222746822213,-3.7287232197040288,-1.8538253662447686,1.485800419413682,4.421272240432883
538,1790596739.2094433,-0.12607382812500026,0.69101103515625,0.2401725585937505,0.7423433967829665,-3.7420859882960222,-1.836201137067919,1.4979586854402076,4.42930269713605
539,1790596739.2294433,-0.21708457031250025,0.50419951171875,0.2976530273437505,0.62445190605209,-3.7519269736427905,-1.8221078827296975,1.5072510154141423,4.4349564569814
540,1790596739.2551088,-0.25061484375000026,0.48024931640624996,0.2641227539062505,0.6026674331233846,-3.763561661030069,-1.8048401828504945,1.5184683262891816,4.441575229572352
541,1790596739.2751088,-0.11170371093750024,0.48024931640624996,0.06773115234375049,0.49769934091144963,-3.771811566441077,-1.7919618889570812,1.5263960785180146,4.4460740988796505
542,1790596739.2846665,-0.08775351562500025,0.48982939453124996,0.06294111328125049,0.5015925627364118,-3.775305684975857,-1.7860352980339842,1.5297100301765754,4.447793596521447
543,1790596739.3046665,-0.16918417968750024,0.39402861328125,0.2258024414062505,0.48463241460502865,-3.781905955532067,-1.7741680957717505,1.5360375530606705,4.450830984541638
544,1790596739.3301206,-0.09733359375000024,0.20242705078124998,0.1826920898437505,0.2895288224888186,-3.789554911107987,-1.760191515424026,1.5436624919749105,4.454424147339764
545,1790596739.3501205,0.02241738281249976,0.13536650390624996,-0.028069628906249523,0.14005189573475077,-3.7947757906311512,-1.7503502916943199,1.5489868907595272,4.456838546833342
546,1790596739.3743951,-0.14523398437500024,0.11141630859374996,-0.10950029296874952,0.21329983168848846,-3.8003856195882775,-1.7397480956535891,1.5542294593712211,4.459291816676839
547,1790596739.394395,-0.27935507812500027,0.03956572265624996,-0.10950029296874952,0.30264669210777484,-3.8049511790477895,-1.7320966908921174,1.5575724354443687,4.4613724696770936
548,1790596739.4049509,-0.04943320312500024,-0.3196872070312501,-0.13824052734374953,0.35178686062858694,-3.807259673675097,-1.728885887896498,1.5588760282290517,4.462551636401248
549,1790596739.4249508,0.04636757812499976,-0.5543991210937501,-0.42564287109374954,0.7004856825686239,-3.8109820934765177,-1.7250260307501004,1.5601296349062246,4.464672866098561
550,1790596739.4500322,-0.059013281250000243,-0.7507907226562501,-0.5980842773437496,0.961703737850894,-3.814973833286113,-1.7233667748312436,1.5595401919614358,4.467234491225314
551,1790596739.4700322,-0.02548300781250024,-0.8944918945312501,-0.28673173828124954,0.9396702734507801,-3.8178061491614685,-1.7247100650789124,1.5578134491585227,4.469569480782104
552,1790596739.4953797,0.08947792968749976,-0.94718232421875,-0.11908037109374953,0.9588226061130493,-3.82073565578354,-1.7296582832444904,1.555181810126713,4.47306708989715
553,1790596739.5153797,0.21401894531249976,-0.9759225585937501,-0.38253251953124956,1.0698411460697201,-3.822245165677563,-1.7358615974111768,1.5526644098872218,4.4758843105740365
554,1790596739.5399468,0.2906595703124998,-1.30643525390625,-0.5070735351562495,1.431216136199977,-3.8228913632517156,-1.7465438250505534,1.548396852587359,4.479112246991497
555,1790596739.5599468,0.2714994140624998,-1.4788766601562502,-0.5310237304687495,1.5946078860058772,-3.822495281983994,-1.7581136868583966,1.5438866398628754,4.4817429503995205
556,1790596739.5697606,0.23317910156249977,-1.5555172851562502,-0.4591731445312495,1.638550119613093,-3.821958621415555,-1.7651727343832084,1.5412766735146401,4.4831614147098175
557,1790596739.5897605,0.27628945312499975,-1.3255954101562502,-0.2819416992187495,1.3831233405209329,-3.8202647861026295,-1.7817224730515275,1.535643873804139,4.4863303616725325
558,1790596739.6148329,0.35293007812499977,-1.1723141601562501,-0.22925126953124952,1.245566648048133,-3.817276676750964,-1.8040545980139662,1.5286804413889339,4.490331625990143
559,1790596739.6348329,0.24275917968749977,-1.27290498046875,-0.40648271484374954,1.3581043060425961,-3.814357093565543,-1.8228644410797037,1.52300537311738,4.493517572496073
560,1790596739.660432,0.08468789062499976,-1.43097626953125,-0.7417854492187496,1.6140355558204864,-3.8105519984357605,-1.8485202614320435,1.5146264664193156,4.49793586242461
561,1790596739.680432,0.15653847656249978,-1.3687057617187501,-0.3490022460937495,1.4211482415937804,-3.8076632657620957,-1.8697573373949434,1.507426009097573,4.5018468675733665
562,1790596739.6896257,0.6020121093749998,-1.13878388671875,-0.08076005859374953,1.290646933730703,-3.8060115095762224,-1.8797842939485596,1.5043162365228142,4.503585232042192
563,1790596739.7096257,0.6594925781249998,-1.26332490234375,-0.21967119140624952,1.4419347078899398,-3.801064993918124,-1.9019282873319183,1.498115313246712,4.506636860223753
564,1790596739.735351,0.5349515624999998,-1.7614889648437502,-0.2819416992187495,1.8623929953814402,-3.793352261359919,-1.9319750413870933,1.4903678506523537,4.510348686029184
565,1790596739.755351,0.5205814453124998,-1.8764499023437502,0.11084150390625049,1.9504756128179916,-3.786672190968246,-1.9572876137059256,1.4849914777115434,4.5138742531770655
566,1790596739.780341,0.7888236328124998,-1.61299775390625,0.2353825195312505,1.8109139704279154,-3.7771233558234982,-1.990711377365999,1.4799303030732252,4.518825769493244
567,1790596739.800341,0.7265531249999998,-1.45971650390625,-0.056809863281249526,1.6315266089738116,-3.7683544521141012,-2.018057819376299,1.4767551675613115,4.52259421836992
568,1790596739.8097088,0.6307523437499998,-2.02015107421875,-0.14782060546874953,2.121487641541764,-3.7639095817746715,-2.0313904157484317,1.4753472531307823,4.524401825467132
569,1790596739.8297088,0.6690726562499998,-2.32192353515625,0.1779020507812505,2.422939591101293,-3.7538937503817853,-2.062098152734366,1.4728374362495227,4.5291519288144855
570,1790596739.8548267,0.6115921874999998,-2.2979733398437503,0.07252119140625048,2.3790724658250024,-3.7407891751309625,-2.103582138715476,1.4706299374119636,4.536663298054208
571,1790596739.8748267,0.5876419921874998,-2.3506637695312502,0.2689127929687505,2.437879685011386,-3.730121041277013,-2.138631790600079,1.4696480345326814,4.543942590278687
572,1790596739.8998892,0.6690726562499998,-2.5710055664062503,0.5036247070312505,2.703953713983593,-3.7163955367481902,-2.1852164957473725,1.4700542836178658,4.554978212421167
573,1790596739.9198892,0.6211722656249998,-2.03931123046875,0.8964079101562505,2.3126159256755883,-3.7051501348529343,-2.2237304602530914,1.4724298900837478,4.565212422535251
574,1790596739.9302328,0.4391507812499998,-1.38307587890625,1.1502799804687505,1.8517279305967091,-3.6993840778798566,-2.243316224407188,1.4750619615668157,4.570964671578731
575,1790596739.9502327,0.01762734374999976,-1.57946748046875,0.8293473632812505,1.7840530524868214,-3.6892221978809787,-2.2799499139667336,1.4823572999940688,4.583221050787359
576,1790596739.9747345,-0.12607382812500026,-1.8812399414062502,0.3216032226562505,1.9126910257809988,-3.6788396376844092,-2.3244571001371623,1.4920691637626289,4.600351321326158
577,1790596739.9947345,0.08468789062499976,-1.57946748046875,0.3168131835937505,1.6131522414129489,-3.6716980273679813,-2.360528394781061,1.4997651300700217,4.61549088961505
578,1790596740.0197885,0.15653847656249978,-1.03340302734375,0.02941083984375048,1.045605618322726,-3.6636403998400264,-2.4038466418222026,1.5086103288016548,4.634290105389056
579,1790596740.0397885,0.008047265624999762,-0.9088620117187501,-0.8040559570312495,1.2135076830687688,-3.657926144683719,-2.436152953702962,1.5134501331000005,4.648203545368551
580,1790596740.0493486,-0.07338339843750025,-1.2824850585937502,-0.7801057617187496,1.502903206513727,-3.655651260863577,-2.450850382907674,1.5142807129084632,4.654406494703564
581,1790596740.0693486,-0.14044394531250023,-1.9147702148437502,-0.24841142578124953,1.9359177962626397,-3.651926755712779,-2.4817815364280817,1.5142148929389048,4.6678319770150445
582,1790596740.094421,-0.34162558593750025,-2.42251435546875,-0.38732255859374953,2.4769543007118484,-3.6488645107041413,-2.522896949031239,1.5129493065906918,4.687028572264155
583,1790596740.114421,-0.21708457031250025,-2.26923310546875,-1.3309602539062495,2.6396969134923993,-3.647626258234002,-2.557812354482835,1.509513769844892,4.703850888565086
584,1790596740.1388812,-0.11649375000000024,-2.5039450195312503,-1.7045833007812496,3.0313224315349094,-3.646950972363909,-2.602865675599345,1.5003735315925484,4.725069507884809
585,1790596740.1588812,-0.13565390625000023,-3.2128708007812503,-1.1058284179687496,3.400558373970502,-3.646859868030697,-2.642753067896123,1.4898054283947055,4.743759151706753
586,1790596740.169243,-0.12128378906250024,-3.43800263671875,-0.7848958007812495,3.528545494344444,-3.647019424752652,-2.6654874224406835,1.483682066767297,4.754669952684363
587,1790596740.189243,0.07031777343749976,-2.9398385742187503,-1.1872590820312496,3.1713056553399936,-3.6473576460715407,-2.712352671613721,1.470677711623918,4.777338981591528
588,1790596740.213948,0.23796914062499977,-2.6045358398437504,-1.3836506835937497,2.9588385334671172,-3.6471415495804487,-2.771832344559755,1.4522600887577717,4.8055962579499365
589,1790596740.233948,0.2523392578124998,-2.8871481445312503,-0.9525471679687496,3.0506795335972097,-3.646257387146508,-2.8209990758442522,1.4360822419061812,4.828618945905018
590,1790596740.2585003,0.21880898437499977,-3.34699189453125,0.03899091796875048,3.3543631892484678,-3.644467200585055,-2.8837830705869187,1.4175188061979809,4.858776136052055
591,1790596740.2785003,0.3768802734374998,-3.36136201171875,0.7287565429687505,3.4600403774019766,-3.642334146756051,-2.9373170761724627,1.4058171488329163,4.885770307592466
592,1790596740.3189685,0.6930228515624998,-3.01168916015625,0.9059879882812505,3.220460604494392,-3.635418225428691,-3.0487332069855393,1.390653098363995,4.944184046042865
593,1790596740.3389685,1.004375390625,-2.7242868164062504,0.5754752929687506,2.960013580400518,-3.6299668739186592,-3.1041411142754853,1.3865051410099618,4.9734040725773845
594,1790596740.3345003,0.8271439453124998,-2.3315036132812503,0.13000166015625048,2.4772921984808405,-3.6299668739186592,-3.1041411142754853,1.3865051410099618,4.9734040725773845
595,1790596740.3545003,0.27628945312499975,-1.74232880859375,-0.20530107421874952,1.776005087334831,-3.622037939007167,-3.15673019674796,1.384294775065716,5.000037638952525
596,1790596740.3794026,-0.03506308593750024,-1.27290498046875,-0.5022834960937496,1.3688700521765276,-3.6131958131941873,-3.21801936384204,1.3806338943359182,5.0315984101213305
597,1790596740.3994026,0.3960404296874998,-1.22500458984375,-0.40169267578124956,1.3486442350974603,-3.606618128896543,-3.2636062561253105,1.3767787725097647,5.055130058775833
598,1790596740.4239843,0.8798343749999998,-1.0765133789062502,0.2114323242187505,1.4063048069747663,-3.5973940422989967,-3.315475022344547,1.372400473112072,5.081053195741718
599,1790596740.4439843,0.8463041015624998,-0.7412106445312501,0.3647135742187505,1.1826410457562164,-3.5884257213237696,-3.3540725680657517,1.370236783899251,5.099426516115295
600,1790596740.4550626,0.19006874999999976,-0.8609616210937501,0.1779020507812505,0.8994610510717599,-3.5833420627327905,-3.373576683458123,1.3696688994472643,5.108556828678279
601,1790596740.4750626,-0.06859335937500025,-1.13878388671875,0.2018522460937505,1.1585672698871234,-3.575358863790443,-3.406505793333288,1.3693670991551605,5.124708672417073
602,1790596740.4996417,0.27628945312499975,-1.3255954101562502,0.6377458007812505,1.4967493977782478,-3.566636657087593,-3.4454467959826043,1.370599574450168,5.144953241877981
603,1790596740.5196416,0.5924320312499998,-0.9328122070312501,0.5132047851562505,1.2183979139611105,-3.5593009026009144,-3.4757677666695055,1.3731784344604505,5.160930487416166
604,1790596740.5447924,0.42478066406249976,-0.5783493164062501,-0.10950029296874952,0.7258903901479872,-3.549540871999617,-3.5110286413532057,1.3766965122149315,5.178982120952253
605,1790596740.5647924,0.11342812499999977,-0.3819577148437501,-0.6268245117187495,0.7427426229597464,-3.5421365320196525,-3.5363027309525457,1.3779699751553112,5.191432313807065
606,1790596740.58903,0.16132851562499978,-0.19514619140625006,-0.5549739257812496,0.6100040854545014,-3.5340098598433545,-3.5633866525497946,1.3771334700682973,5.204175892436998
607,1790596740.60903,0.31460976562499976,0.06830595703124996,-0.06638994140624953,0.32871360287109735,-3.5275960030840796,-3.5825732492341817,1.3756147105599859,5.212588654307202
608,1790596740.6194723,0.2714994140624998,0.40839873046874997,0.2353825195312505,0.543972780004337,-3.5242905342138577,-3.590714850208813,1.3750730404387954,5.215810845074914
609,1790596740.6394722,0.33376992187499976,0.64790068359375,0.14437177734375048,0.7429810674863024,-3.518001331075789,-3.602384920806317,1.3747608329277354,5.219528506566078
610,1790596740.6795797,0.3673001953124998,0.7532815429687499,0.3455534179687505,0.9065040987904397,-3.505172082627329,-3.6180625292730952,1.3757023785943006,5.221988589515497
611,1790596740.6995797,0.25712929687499975,0.80118193359375,0.6521159179687505,1.06454832511102,-3.4987976264680882,-3.6223759566535048,1.377597965272595,5.22120374590413
612,1790596740.6942852,0.14216835937499978,0.89698271484375,0.7191764648437505,1.1584492309639631,-3.4987976264680882,-3.6223759566535048,1.377597965272595,5.22120374590413
613,1790596740.7142851,0.10863808593749977,0.82034208984375,0.6377458007812505,1.044740678110838,-3.4933067685576504,-3.620751265323572,1.3827513042256911,5.2177613086390595
614,1790596740.7395165,0.19485878906249976,0.7532815429687499,0.4461442382812505,0.8969100913713937,-3.486844412630686,-3.6160312037704347,1.3903285057850903,5.212176031038658
615,1790596740.7595165,0.09905800781249977,0.60958037109375,0.2641227539062505,0.671685601204609,-3.4820494348689413,-3.610806705144642,1.3964991511328035,5.2069956028311815
616,1790596740.7840285,-0.13565390625000023,0.48024931640624996,0.1970622070312505,0.5365397484153264,-3.477121481409792,-3.6033604674088755,1.4037753467878362,5.200496676166215
617,1790596740.8040285,-0.15002402343750024,0.56167998046875,0.1874821289062505,0.6108528110166728,-3.4741322861888064,-3.596633343170519,1.4093984642697948,5.195360485878863
618,1790596740.814095,0.0032572265624997605,0.59042021484375,0.2353825195312505,0.6356190448074215,-3.472964234811396,-3.592885475400723,1.412123443856539,5.19272560764709
619,1790596740.834095,0.01762734374999976,0.48982939453124996,0.3359733398437505,0.5942403925014655,-3.4709603419261974,-3.5849358289216124,1.4175823311215674,5.1873760475040145
620,1790596740.8595688,-0.00632285156250024,0.38444853515625,0.4221940429687505,0.5710415611441666,-3.468769251803948,-3.5746588913417967,1.424940842237862,5.18083031140637
621,1790596740.8795688,-0.0015328125000002397,0.31259794921874995,0.2784928710937505,0.4186622822991924,-3.467318809465455,-3.566754999733923,1.430902580146802,5.176052854103274
622,1790596740.9045515,0.031997460937499764,0.12578642578124996,-0.08076005859374953,0.15286677036339383,-3.46572169834934,-3.557541519722946,1.4376030393446106,5.1704962096200155
623,1790596740.9245515,0.07510781249999976,-0.20472626953125006,-0.4400129882812495,0.4910859993839289,-3.464474253613123,-3.55139042814388,1.4413813452539863,5.166481976113569
624,1790596740.949868,0.041577539062499766,-0.5783493164062501,-0.47354326171874955,0.7486386606777015,-3.4629105091888204,-3.54625900683718,1.443712016452968,5.162558137655681
625,1790596740.969868,0.21880898437499977,-0.7795309570312501,-0.3394221679687495,0.8779255621759066,-3.4614698772728727,-3.5448500820588995,1.4440576123829918,5.160720705814424
626,1790596740.97956,0.4104105468749998,-0.7364206054687501,-0.22925126953124952,0.8736751511442262,-3.460419091361398,-3.5453716739968626,1.4437865995123853,5.1602984738839766
627,1790596740.9995599,0.4391507812499998,-0.62624970703125,-0.11908037109374953,0.7740944638795945,-3.4573016398879917,-3.5483305657628783,1.4427887376678399,5.159963543925525
628,1790596741.0239825,0.4774710937499998,-0.54960908203125,0.11084150390625049,0.7364337223445527,-3.4523868644365026,-3.5535556058824596,1.4417379024484562,5.159974872534637
629,1790596741.0439825,0.5493216796874998,-0.47296845703125007,0.3311833007812505,0.7969541064814095,-3.4474256262795766,-3.558726488555478,1.4416694792948357,5.160202375547472
630,1790596741.069696,0.5589017578124998,-0.29573701171875005,0.34076337890625047,0.7182974560652733,-3.4398666560036673,-3.565859799840471,1.4428905596763986,5.160423615402853
631,1790596741.089696,0.5253714843749998,-0.06581513671875004,0.2928629882812505,0.6050748372893409,-3.433242769587787,-3.571118188815139,1.4446482937918375,5.160140475429793
632,1790596741.0991619,0.5397416015624998,-0.008334667968750044,0.4365641601562505,0.6942468790569634,-3.429821791655868,-3.5732862942817714,1.4458732878031249,5.15970949064015
633,1790596741.1191618,0.5157914062499998,0.12099638671874996,0.6473258789062505,0.836487712917587,-3.422094717829166,-3.577011028809823,1.449699102936928,5.158232996586866
634,1790596741.144266,0.3864603515624998,0.50419951171875,0.7383366210937505,0.9740173083653972,-3.4121517625832114,-3.5798079126350353,1.4563898830920428,5.155470476478066
635,1790596741.1642659,0.21401894531249976,0.91614287109375,0.5084147460937505,1.069395821599349,-3.404517863762967,-3.5795713977788397,1.4627908777961294,5.152070499191669
636,1790596741.1889582,-0.01590292968750024,1.09337431640625,0.3695036132812505,1.1542327404719464,-3.3961397745468584,-3.5756017238628823,1.471134069410482,5.146156673298107
637,1790596741.2089581,-0.13086386718750023,1.06463408203125,0.2641227539062505,1.1046863398670286,-3.3905918349555675,-3.5696317003980598,1.4778285715692678,5.140268548889305
638,1790596741.2200243,-0.20750449218750025,1.03589384765625,0.17311201171875049,1.070561509905608,-3.3882633958229778,-3.5650805511053614,1.4813399783413586,5.136584108799927
639,1790596741.2400243,-0.21708457031250025,0.94488310546875,0.2066422851562505,0.9912773717192523,-3.3853233117014097,-3.555117875999617,1.4873038608476739,5.12945901742995
640,1790596741.2795668,-0.19313437500000025,0.87782255859375,0.3120231445312505,0.9514366893839484,-3.38159891741317,-3.5329694842241914,1.498864691471748,5.115044474689343
641,1790596741.2995667,-0.11649375000000024,0.74370146484375,0.2784928710937505,0.8026337532460508,-3.3804621770363847,-3.521015220239355,1.5047206675534466,5.1077643836509585
642,1790596741.309127,-0.01590292968750024,0.44192900390625,0.14916181640625048,0.46669411303318137,-3.3800952340969217,-3.5153078941892617,1.5074066786948166,5.104381282534427
643,1790596741.329127,-0.06859335937500025,0.27906767578124997,0.07731123046875048,0.29759173875107664,-3.379569489093031,-3.5040777670660734,1.5125225898667463,5.097820663196431
644,1790596741.3396482,0.02241738281249976,0.10183623046874996,-0.13824052734374953,0.17315773239599921,-3.379370838966722,-3.498755645657026,1.5147620925003653,5.094697491721333
645,1790596741.3596482,0.08947792968749976,-0.11850556640625005,-0.15261064453124953,0.21293162751144015,-3.3788820197066984,-3.4901812307732687,1.5179443772009085,5.089436497198396
646,1790596741.3847587,0.20922890624999976,-0.37716767578125004,-0.09992021484374952,0.4427372134790822,-3.3777978030043903,-3.4819641393653424,1.5208649125702276,5.083957351128622
647,1790596741.4047587,0.23317910156249977,-0.56876923828125,0.05336103515625048,0.6170237757926955,-3.376400168857562,-3.4778200114108304,1.5227722980248002,5.080762305369415
648,1790596741.4299996,0.2619193359374998,-0.6645700195312501,-0.11908037109374953,0.7241789724767849,-3.3739636172378704,-3.47570923722313,1.5246940140295724,5.078275005213942
649,1790596741.4499996,0.08468789062499976,-0.6166696289062501,-0.3106819335937495,0.6956843636991097,-3.3718026663169636,-3.4762094684698743,1.5253436651048398,5.077377156164121
650,1790596741.4585385,0.05115761718749976,-0.7364206054687501,-0.21967119140624952,0.7701868878974144,-3.37093144535064,-3.4772575543909947,1.5252397776466915,5.0774851342114955
651,1790596741.4785385,0.16611855468749978,-0.86575166015625,-0.10471025390624952,0.8877418253906245,-3.368871041506007,-3.481747415976838,1.5245463792551346,5.078986003668359
652,1790596741.504501,0.22838906249999977,-0.9615524414062501,-0.10471025390624952,0.9938354485109997,-3.365829385876129,-3.4902596956342538,1.5233734932926848,5.082458755156106
653,1790596741.524501,0.15174843749999978,-0.9328122070312501,-0.12866044921874953,0.9537922798300338,-3.3632675416599542,-3.4986749754003807,1.5222554463411178,5.086212420278123
654,1790596741.564394,0.12300820312499977,-0.7507907226562501,-0.22446123046874952,0.7932216406820232,-3.3581019987431446,-3.5179799513723515,1.5193033243152885,5.0952246823369824
655,1790596741.584394,0.17090859374999978,-0.8418014648437501,-0.25799150390624953,0.8968829743720718,-3.355459877139386,-3.5285954686946073,1.5173216272691443,5.100231552524166
656,1790596741.5799258,0.24275917968749977,-1.0429831054687502,-0.28673173828124954,1.108585074477179,-3.355459877139386,-3.5285954686946073,1.5173216272691443,5.100231552524166
657,1790596741.5999258,0.2906595703124998,-1.1723141601562501,-0.28673173828124954,1.2413776885601289,-3.3522233910105927,-3.5419912207247397,1.5143351352873664,5.106497270428674
658,1790596741.624704,0.33376992187499976,-1.09567353515625,-0.27715166015624954,1.178437906347892,-3.3476547254079922,-3.560312641124895,1.5101422477917894,5.114992460567837
659,1790596741.6447039,0.41520058593749976,-0.98550263671875,-0.11429033203124953,1.075485589646958,-3.3433967626463574,-3.5760045148011304,1.5066783942592734,5.12212748631659
660,1790596741.669686,0.4056205078124998,-0.8609616210937501,0.11084150390625049,0.9581590412570596,-3.337337946905846,-3.5961249422767683,1.5029942027694878,5.131172453336713
661,1790596741.689686,0.18527871093749976,-0.8897018554687501,-0.06159990234374953,0.9108743822942644,-3.3323286749312615,-3.6124425534018787,1.5005610336724822,5.138661208444671
662,1790596741.7295978,-0.01111289062500024,-1.18189423828125,-0.30589189453124954,1.2208879301395261,-3.323310348353569,-3.6463223918108345,1.4953337255177526,5.155199473072385
663,1790596741.7495978,0.04636757812499976,-1.6369479492187502,-0.17177080078124954,1.6465885183474596,-3.3194162061619896,-3.664981407598196,1.4923907158913297,5.165059797974264
664,1790596741.744121,0.07031777343749976,-1.7950192382812502,-0.14782060546874953,1.802467638117854,-3.3194162061619896,-3.664981407598196,1.4923907158913297,5.165059797974264
665,1790596741.764121,-0.059013281250000243,-1.8381295898437502,-0.20051103515624952,1.8499750354106066,-3.316436958025103,-3.6882880185405056,1.4893344158192277,5.178835738504152
666,1790596741.7894118,-0.07338339843750025,-1.94351044921875,-0.23883134765624953,1.959504631791414,-3.313485823090458,-3.7205123233754143,1.4852159838093477,5.198775506479631
667,1790596741.8094118,0.14216835937499978,-1.8285495117187502,-0.03285966796874952,1.8343622643832584,-3.3113989445741647,-3.747831020778241,1.4820401098685994,5.216132975461218
668,1790596741.8344798,0.23317910156249977,-1.7519088867187502,-0.13824052734374953,1.7727570854942036,-3.3084699069715198,-3.78366779924451,1.4783348702254167,5.239044677123906
669,1790596741.8544798,0.17090859374999978,-1.8764499023437502,-0.2819416992187495,1.905194243425543,-3.305877438722284,-3.8134131712156414,1.475191876023481,5.258054461998242
670,1790596741.8639953,0.31460976562499976,-2.1015817382812503,-0.22925126953124952,2.137330403069574,-3.304482521127063,-3.8282814807514876,1.4735559970921634,5.267514699064955
