imu_index,t_imu,ax,ay,az,mag,vx,vy,vz,velocity
0,1790597823.7682664,-0.01120869140624988,-0.10030341796874999,-0.03171005859374948,0.10579195732792415,0.0,0.0,0.0,0.0
1,1790597823.7882664,0.01753154296875012,-0.09072333984375,-0.03171005859374948,0.09769138757991266,-4.80679961509253e-06,-0.00041442659940052544,-0.0001355603712077114,0.00043606091988986556
2,1790597823.828289,0.02711162109375012,-0.10988349609374999,-0.022129980468749477,0.11532197859759205,0.00012102221518791114,-0.0017215114632271038,-0.0005277549178011726,0.001804653248647683
3,1790597823.848289,0.02232158203125012,-0.13862373046874998,0.030560449218750525,0.14369666916773785,0.000248619016335256,-0.002649468637540783,-0.0006816975792723364,0.0027470360511251918
4,1790597823.8292904,0.03669169921875012,-0.13383369140624998,0.06888076171875053,0.15492674747098342,0.000248619016335256,-0.002649468637540783,-0.0006816975792723364,0.0027470360511251918
5,1790597823.8492904,0.03669169921875012,-0.061983105468749994,0.020980371093750522,0.07502241082730478,0.0005261245596821202,-0.003961025492776918,-0.0005313421584825927,0.004030986789374318
6,1790597823.8730695,0.04627177734375012,-0.00929267578124999,-0.02692001953124948,0.0543334027398236,0.0009545359200561011,-0.00541362035822066,-0.0003899837007431213,0.005510944700544892
7,1790597823.8930695,0.03190166015625012,-0.03803291015624999,-0.02692001953124948,0.056470396025183965,0.001378072051285225,-0.006523085031762274,-0.00036968493533307245,0.006677303936585987
8,1790597823.917723,0.02711162109375012,-0.07635322265625,0.016190332031250525,0.08262554967809957,0.001930957346434069,-0.007897051854991559,-0.0003682557315868138,0.008138036406776506
9,1790597823.937723,0.01753154296875012,-0.10988349609374999,0.030560449218750525,0.11539358201001532,0.0023791687453157536,-0.009123837073586475,-0.00029714410709647974,0.009433617624454603
10,1790597823.9484935,0.04627177734375012,-0.09551337890624999,0.006610253906250523,0.10633709787907308,0.0026358769662620284,-0.009851314976708256,-0.0002345666226615261,0.010200552713066776
11,1790597823.9684935,0.05585185546875012,-0.09551337890624999,0.011400292968750524,0.11123040047201294,0.0031942441609015305,-0.011286087926471665,-0.00010878007813182553,0.011729910892624094
12,1790597823.9936652,0.06543193359375012,-0.10030341796874999,0.030560449218750525,0.12359633751241383,0.004020555219113946,-0.013190687964773521,0.00010500337261392016,0.013790218959908711
13,1790597824.0136652,0.08459208984375012,-0.07635322265625,0.044930566406250524,0.12249241638450303,0.0048036480213676635,-0.01474196230712091,0.00036262046175090544,0.015509093480182637
14,1790597824.0382648,0.10375224609375013,-0.08114326171875,-0.007759863281249477,0.1319430671539787,0.005969846395580466,-0.016654367376282852,0.0007005331807240431,0.01770586810716478
15,1790597824.0582647,0.09417216796875012,-0.07156318359375,-0.03650009765624948,0.12378183871199766,0.007072656082475271,-0.018205030364221945,0.0008676642508208751,0.01954989605791729
16,1790597824.0684156,0.07980205078125012,-0.07156318359375,-0.04608017578124948,0.1166749294192923,0.007680873429292606,-0.018982972891761776,0.000876897078958504,0.02049678084317783
17,1790597824.0884156,0.05585185546875012,-0.061983105468749994,-0.04129013671874948,0.09309248365526275,0.008902951010759585,-0.02048613208723376,0.0007613041851171144,0.022350027486735907
18,1790597824.1134074,0.04627177734375012,-0.08114326171875,0.006610253906250523,0.09364294825352439,0.010392399853281139,-0.022350986642398957,0.0005735238205952451,0.024655577628033064
19,1790597824.1334074,0.03669169921875012,-0.05719306640624999,-0.01733994140624948,0.07012846215682414,0.01153000350971484,-0.023827009399555,0.00042969663047632244,0.02647360944515805
20,1790597824.1585062,0.07022197265625012,-0.07635322265625,-0.012549902343749478,0.10449133984482961,0.012944740751925497,-0.025652871818073016,0.00022001121801001338,0.028734727257885985
21,1790597824.1785061,0.07501201171875012,-0.08593330078125,0.025770410156250523,0.1169420716631789,0.014120824964143042,-0.027132999169292887,9.78173015186063e-05,0.030587692129568883
22,1790597824.188431,0.07501201171875012,-0.06677314453125,0.016190332031250525,0.10172306318611941,0.014728579770498301,-0.02787099856054685,7.750908635265652e-05,0.03152347744898084
23,1790597824.208431,0.07980205078125012,-0.05719306640624999,-0.012549902343749478,0.0989793625089624,0.016001801933575574,-0.02932104024296673,4.818451627872917e-05,0.03340334396132619
24,1790597824.2335663,0.08459208984375012,-0.10988349609374999,-0.03650009765624948,0.14339616977741773,0.017671828912828237,-0.0311850114946535,-7.560787288900485e-05,0.03584416543311318
25,1790597824.2535663,0.08938212890625012,-0.09072333984375,-0.022129980468749477,0.1292657162428047,0.019062295334308775,-0.032746598991171036,-0.0002472785984423153,0.03789158212065342
26,1790597824.278951,0.08459208984375012,-0.08593330078125,-0.04129013671874948,0.12745677399631178,0.020893619808909664,-0.0347676442413942,-0.0005532278156364055,0.04056647009330991
27,1790597824.298951,0.06543193359375012,-0.10509345703124999,-0.022129980468749477,0.1257605211508896,0.022345084536339467,-0.03640766807307482,-0.0008532505722060521,0.04272644537045316
28,1790597824.3079157,0.07022197265625012,-0.11946357421875,-0.0029698242187494775,0.13860552249006602,0.022989305537822337,-0.03718350548337206,-0.0009844363195692122,0.043727455494352696
29,1790597824.3279157,0.06543193359375012,-0.10988349609374999,0.011400292968750524,0.12839660169714553,0.024414428034233354,-0.0389987529209435,-0.001220559290582499,0.04602669649898183
30,1790597824.353593,0.06543193359375012,-0.08593330078125,-0.0029698242187494775,0.1080494792808738,0.026221672018529516,-0.041356824152778,-0.0014620030165303768,0.04899081995916663
31,1790597824.373593,0.08938212890625012,-0.09072333984375,-0.01733994140624948,0.12853234195403987,0.02765039516601532,-0.043182991312566685,-0.0016523176450662707,0.05130346231140946
32,1790597824.3988082,0.10854228515625013,-0.10988349609374999,0.001820214843750523,0.15446398791564103,0.0295557809892647,-0.04551936879032819,-0.0018856172531146252,0.05430573337485213
33,1790597824.4188082,0.08938212890625012,-0.10030341796874999,0.030560449218750525,0.1377820078256922,0.031137273188550314,-0.04740982810558996,-0.0019943362549551796,0.056755607297586295
34,1790597824.4283772,0.07501201171875012,-0.061983105468749994,-0.04608017578124948,0.10766656800360519,0.0318984149740461,-0.04829510803352934,-0.002049688125534011,0.05791483021850858
35,1790597824.4483771,0.07022197265625012,-0.07635322265625,-0.012549902343749478,0.10449133984482961,0.0334684961862379,-0.05007538430315476,-0.002235970270176522,0.06027175053975098
36,1790597824.4885018,0.06064189453125012,-0.11467353515624999,0.05451064453125053,0.14070845534218374,0.036539769882113514,-0.053686154656931356,-0.0024273625876670827,0.06498653763678881
37,1790597824.5085018,0.06543193359375012,-0.05719306640624999,0.05930068359375053,0.10520910537331243,0.038030115391301675,-0.05547376280215719,-0.002337734712524667,0.06729853668313943
38,1790597824.5335875,0.07501201171875012,-0.033242871093749994,-0.0029698242187494775,0.08210182846039335,0.039883271408710216,-0.05754975682649752,-0.0021361962283231338,0.07005150379096613
39,1790597824.5535874,0.07022197265625012,-0.04761298828124999,-0.05566025390624948,0.10147012349314329,0.041356962667405045,-0.05907789309516875,-0.0020875633446407606,0.07214536530058746
40,1790597824.5631554,0.06543193359375012,-0.11946357421875,-0.06045029296874948,0.14902054025852732,0.04205356854797222,-0.0598191873017272,-0.002151108018990528,0.0731537084690003
41,1790597824.5831554,0.07980205078125012,-0.15299384765625,-0.022129980468749477,0.17396902242958165,0.043509119816705306,-0.061544973912934495,-0.0023878818586370075,0.07540907969826321
42,1790597824.5937164,0.09896220703125012,-0.05719306640624999,0.04014052734375052,0.12114382857116625,0.04430402761023891,-0.06248606388229542,-0.002479890325669957,0.07663879499325696
43,1790597824.6137164,0.14207255859375012,0.014657519531250012,0.07846083984375053,0.16295876218592914,0.045945139416878326,-0.06406473602821372,-0.002450094118327927,0.07887489587688694
44,1790597824.6387303,0.17560283203125013,0.029027636718750013,0.10720107421875053,0.20777639092188802,0.04828576660861408,-0.06566105568356413,-0.0020701080151051448,0.08153020812959981
45,1790597824.6587303,0.17081279296875013,-0.00929267578124999,0.049720605468750526,0.1781446116870776,0.050396128567633855,-0.06671634537471449,-0.0015764792455706248,0.08362610717697784
46,1790597824.683321,0.13728251953125012,-0.07635322265625,-0.0029698242187494775,0.15711500448631005,0.053169904392861914,-0.06797719321236607,-0.0009743616481608038,0.08630693431468199
47,1790597824.703321,0.08938212890625012,-0.14341376953124998,0.001820214843750523,0.16899700423691957,0.05542745870547728,-0.06917848860449224,-0.0005598320853422306,0.08864637542569369
48,1790597824.728912,0.08459208984375012,-0.18173408203125,-0.022129980468749477,0.2016750710212381,0.05821674440903905,-0.07110911432831124,-0.00014796091636549345,0.09190058412533073
49,1790597824.748912,0.01753154296875012,-0.17694404296875,-0.09877060546874948,0.20340152862172728,0.06022282962039833,-0.07292963003891284,-5.570893966217113e-05,0.0945807763162588
50,1790597824.7588236,-0.06389912109374989,-0.18173408203125,-0.08440048828124948,0.2103183697883001,0.061033406374163664,-0.07396313427610857,-0.00015301168233479673,0.09589392753534709
51,1790597824.7788236,-0.09742939453124988,-0.20089423828125,0.011400292968750524,0.22356419340561434,0.06218169179098611,-0.07630971298337857,-0.0004294027395149277,0.09843738860975289
52,1790597824.8337462,-0.1261696289062499,-0.19610419921875,0.04014052734375052,0.23661549853084937,0.06394098562714104,-0.08342243834641297,-0.0008622514212770402,0.10511182778424522
53,1790597824.8537462,-0.1357497070312499,-0.13862373046874998,-0.01733994140624948,0.19479526476820472,0.06409265472856664,-0.08612610540320295,-0.0009620286305717689,0.10736153836996246
54,1790597824.8347466,-0.1453297851562499,-0.08114326171875,-0.04608017578124948,0.17270888215708582,0.06409265472856664,-0.08612610540320295,-0.0009620286305717689,0.10736153836996246
55,1790597824.8547466,-0.1261696289062499,-0.05719306640624999,-0.007759863281249477,0.1387445046891379,0.06343661091087116,-0.08856721179384625,-0.0011957382181615017,0.10894854014019485
56,1790597824.8783166,-0.10221943359374988,-0.04282294921874999,0.016190332031250525,0.11200332332257297,0.06237569729210249,-0.09118934149278143,-0.0014149487817365339,0.11049083986746616
57,1790597824.8983166,-0.054319042968749884,-0.00929267578124999,0.030560449218750525,0.06301470708230068,0.061375702365922546,-0.09315873452127814,-0.001502929016367292,0.11156964396351064
58,1790597824.9236987,-0.04473896484374988,-0.01408271484374999,0.06409072265625053,0.07941988770617274,0.06010839794031207,-0.09532769188139438,-0.0014176536210676362,0.11270491597163942
59,1790597824.9436986,-0.03036884765624988,-0.023662792968749992,0.030560449218750525,0.049154203640200164,0.05914694115532679,-0.09683700014683054,-0.0012185625891244678,0.1134779720485547
60,1790597824.9537516,-0.02557880859374988,-0.05719306640624999,-0.01733994140624948,0.06500766002555068,0.05869397644664933,-0.0975428141282946,-0.0011235331965196934,0.11384571044194215
61,1790597824.9737515,-0.02557880859374988,-0.10030341796874999,0.025770410156250523,0.10667316975186793,0.05785125437320772,-0.09897262497372188,-0.0009501881034899711,0.11464401852767807
62,1790597824.9977186,-0.020788769531249883,-0.12904365234375,0.04014052734375052,0.13673221670210872,0.05690951098948963,-0.10084128736476723,-0.0006551421582138017,0.1157932938027668
63,1790597825.0177186,0.00795146484375012,-0.11946357421875,0.020980371093750522,0.12155224115380046,0.05622226974703131,-0.10253950342071712,-0.00035418270310862046,0.11694194637794597
64,1790597825.0582414,0.03190166015625012,-0.10988349609374999,0.020980371093750522,0.11632830526463252,0.05515981034722572,-0.10616124131026791,0.00029166361016836457,0.11963652829190731
65,1790597825.0782413,0.04627177734375012,-0.06677314453125,0.030560449218750525,0.08679672381831366,0.05483135127988778,-0.10794560435469722,0.0006399178684884138,0.1210749357941506
66,1790597825.0737617,0.05585185546875012,-0.06677314453125,0.016190332031250525,0.08854495717529876,0.05483135127988778,-0.10794560435469722,0.0006399178684884138,0.1210749357941506
67,1790597825.0937617,0.05106181640625012,-0.11946357421875,0.001820214843750523,0.12993139667494455,0.054884617466267646,-0.10968443282217974,0.0009781545539207085,0.12265379253929798
68,1790597825.11803,0.03190166015625012,-0.09072333984375,0.006610253906250523,0.09639572485247742,0.055090560853269036,-0.11186044088470468,0.0013423589518568968,0.12469775482182459
69,1790597825.13803,-0.01120869140624988,-0.05240302734374999,0.030560449218750525,0.061689975638528,0.055265863428190974,-0.11359942185835425,0.0016532397960014654,0.12634032415994062
70,1790597825.163727,-0.03036884765624988,-0.08114326171875,0.006610253906250523,0.08689183671111558,0.05537718411468784,-0.11575598374418175,0.0020643981373522956,0.1283368303828827
71,1790597825.183727,-0.020788769531249883,-0.12425361328125,-0.06045029296874948,0.1397332146344508,0.05537409256072014,-0.11749076387249209,0.002255642166959018,0.12990557202772426
72,1790597825.2084813,-0.02557880859374988,-0.13383369140624998,-0.04129013671874948,0.14237488470496495,0.05528475534507113,-0.11979501096339938,0.0022679536313750677,0.13195602464063327
73,1790597825.2284813,-0.03515888671874988,-0.11946357421875,-0.022129980468749477,0.12648094289642178,0.05513229663551726,-0.1217573961418557,0.0021812784335660446,0.1336756957085176
74,1790597825.2380288,-0.0064186523437498805,-0.08114326171875,-0.04608017578124948,0.09353507695136802,0.05504066174869054,-0.12269731575807935,0.0020972658247283074,0.1344935101181881
75,1790597825.2580287,0.02711162109375012,-0.09072333984375,0.011400292968750524,0.09537154224667321,0.054908538442812224,-0.12462871217789613,0.001895655353422861,0.13620153083671865
76,1790597825.2840538,0.01753154296875012,-0.08593330078125,0.07367080078125053,0.11453939963949793,0.054849539416437325,-0.12710977646686342,0.001838709375583623,0.1384512480977299
77,1790597825.3040538,0.03190166015625012,-0.05240302734374999,0.08804091796875052,0.10730795139361735,0.054885150041809494,-0.12893795167647076,0.0020440786979503225,0.1401483261953537
78,1790597825.3293388,0.05585185546875012,-0.061983105468749994,0.030560449218750525,0.08885536663198329,0.05508983131974007,-0.13111945296560168,0.0024896841152034863,0.14224415273686838
79,1790597825.3493388,0.05585185546875012,-0.12904365234375,-0.01733994140624948,0.1416769830900169,0.055395001028903594,-0.13287269159824563,0.0028091107923726294,0.14398489300964373
80,1790597825.3588815,0.04627177734375012,-0.18173408203125,-0.03650009765624948,0.1910513310061106,0.055591857437906844,-0.1338061688204808,0.0029001257004395674,0.14492396681325667
81,1790597825.3788815,0.05585185546875012,-0.15778388671875,-0.022129980468749477,0.16883400339660465,0.056095735363567475,-0.1359784014334494,0.0029743204570390628,0.14712478976894705
82,1790597825.403925,0.07022197265625012,-0.10509345703124999,0.006610253906250523,0.12656798809817366,0.056868837074581104,-0.13878416796656987,0.0030241394836114407,0.15001418375608574
83,1790597825.423925,0.05585185546875012,-0.07156318359375,0.049720605468750526,0.10350293528955624,0.05758274341527018,-0.14095375903130736,0.003142453771238926,0.15229448295978773
84,1790597825.4490247,0.06543193359375012,-0.061983105468749994,0.03535048828125052,0.09681374034242217,0.0585726107749593,-0.1435195482830389,0.0034288091891809757,0.1550495669288316
85,1790597825.4690247,0.08459208984375012,-0.08593330078125,-0.01733994140624948,0.12182375554573105,0.059468080610233835,-0.14547922358126172,0.003649772597630393,0.15720679993335665
86,1790597825.4788032,0.09417216796875012,-0.07635322265625,-0.05087021484374948,0.13147619780088943,0.05997132936767802,-0.14641265733619105,0.003691577561847598,0.15826198001815392
87,1790597825.4988031,0.07022197265625012,-0.05240302734374999,0.016190332031250525,0.08910291560777955,0.06109282151077893,-0.14822857205002274,0.003712235983563875,0.16036777453133888
88,1790597825.5240574,0.05585185546875012,0.0002874023437500109,0.044930566406250524,0.0716817142442606,0.06253531895794552,-0.15027631592769752,0.0038501759863099816,0.16281419195235622
89,1790597825.5440574,0.05585185546875012,0.01944755859375001,0.13115126953125053,0.14386901262682739,0.06367389641551056,-0.15162515925377157,0.004207153269207946,0.16450609150452564
90,1790597825.5677388,0.10854228515625013,0.05297783203125001,0.24611220703125053,0.2741519593281529,0.06511181099611657,-0.15285408174406206,0.00523649643244927,0.16622677020233975
91,1790597825.5877388,0.16123271484375012,0.09129814453125001,0.21258193359375052,0.2819971950590871,0.06654869765269542,-0.15351986500371292,0.006663463548002736,0.16745590421506096
92,1790597825.613642,0.17081279296875013,0.13440849609375002,0.25569228515625053,0.33559082042331556,0.06877562779948347,-0.15381432813685775,0.009144130610773078,0.16873810963748798
93,1790597825.633642,0.20434306640625013,0.22062919921875002,0.31317275390625054,0.43417796596032027,0.07079986927997468,-0.1534750248145199,0.011625460156101598,0.16941769699686074
94,1790597825.658386,0.26661357421875015,0.33080009765625,0.39460341796875054,0.5798477041773141,0.07380260957281665,-0.1520948619392191,0.015548374801643242,0.16976873730766834
95,1790597825.678386,0.22350322265625014,0.36912041015625,0.19821181640625055,0.4748594443566567,0.07660076768081067,-0.15009676384534199,0.019132771160207583,0.1695959287789738
96,1790597825.6887817,0.19476298828125013,0.23499931640625002,0.36107314453125056,0.47279077403998965,0.07816316594857302,-0.14874294173577113,0.021152495400266407,0.1693557536340985
97,1790597825.7087817,0.13728251953125012,0.26373955078125,0.7490663085937506,0.8059189633489285,0.08121619187868344,-0.14578095635881833,0.026120517006090714,0.16890955706777605
98,1790597825.7191463,0.11812236328125013,0.44576103515625004,0.41376357421875054,0.6195612064364543,0.08275956499772857,-0.1439246992462272,0.029212810102035736,0.16857298990582034
99,1790597825.7391462,0.20913310546875014,0.7283733398437501,0.27006240234375056,0.8044862206140141,0.08578189988224591,-0.1391188525441276,0.035310550385527315,0.16721071870287277
100,1790597825.7784977,0.3719944335937501,0.95829521484375,0.5143543945312505,1.1494651019455846,0.09255168639503891,-0.12610340243816393,0.047823743903030236,0.16356953641173463
101,1790597825.7984977,0.5109055664062502,1.30796806640625,0.8496571289062506,1.6412562862711628,0.09680060899179563,-0.11708128615958995,0.055275507053991,0.16165941713999252
102,1790597825.8240342,0.5635959960937501,1.5762102539062501,0.6915858398437505,1.811179225036688,0.10346990978894278,-0.10176565397785328,0.06631478502807966,0.1595616535217423
103,1790597825.8440342,0.6258665039062502,1.74386162109375,0.40897353515625057,1.897372284685785,0.10969393659922347,-0.08658974805205871,0.07531460430389136,0.15875400409377144
104,1790597825.8538508,0.6977170898437501,1.91151298828125,0.24132216796875053,2.049128456339691,0.11326513603987151,-0.07756697650556882,0.07954817903210937,0.15866171458064668
105,1790597825.8738508,0.5109055664062502,1.94025322265625,0.22695205078125053,2.019186543924724,0.12126249513836568,-0.05616414248551566,0.0875820853479039,0.15977992771998298
106,1790597825.8839397,0.36720439453125014,1.9306731445312502,-0.08919052734374948,1.9673059773571329,0.12535603767198933,-0.04405803512977417,0.09113109983553913,0.1611214572847224
107,1790597825.9039397,0.17081279296875013,1.5714202148437502,-0.04608017578124948,1.581348122476956,0.1330607437647325,-0.01840592610963784,0.09690833706239327,0.1656356406072548
108,1790597825.9296103,0.20434306640625013,1.15947685546875,-0.13709091796874948,1.1853002096285667,0.14218885022517255,0.014838254113376286,0.10285863679178288,0.17611854552020803
109,1790597825.9496102,0.3815745117187501,1.00619560546875,-0.5538243164062495,1.2102685974199596,0.14911269917074327,0.04010229891786751,0.10576277590317752,0.18715917343060778
110,1790597825.9734116,0.48216533203125017,0.6469426757812501,-0.6927354492187495,1.0634381203267598,0.15765843104202446,0.06860934550194567,0.10647524594921727,0.20223847598512118
111,1790597825.9934115,0.6498166992187502,0.033817675781250014,-0.7693760742187495,1.007643251036324,0.16546015058329097,0.08999150672518429,0.10479095907817443,0.2155381122173938
112,1790597826.003499,0.6785569335937501,-0.40686591796875,-0.8508067382812495,1.1618310949692667,0.16980989062249952,0.0988762058530511,0.10284310538362954,0.22178504765215468
113,1790597826.023499,0.7887278320312502,-0.80922919921875,-0.6352549804687495,1.2963380655135013,0.17934123280715464,0.11202504034551103,0.09733138655110352,0.2327794798885068
114,1790597826.048913,0.8509983398437502,-1.00083076171875,-0.5969346679687495,1.4429800365363041,0.1927613924621843,0.12277697527025055,0.08902958910172788,0.24527007117888328
115,1790597826.068913,1.0905002929687502,-1.15411201171875,-0.7693760742187495,1.7643993221883432,0.2046506812378209,0.12673677286428647,0.08142686778297419,0.2541150245933992
116,1790597826.0934846,1.0952903320312501,-1.6474860351562501,-0.8699668945312495,2.1611833668285376,0.22109476035809963,0.1257089823323629,0.07046627007391024,0.2639150176003122
117,1790597826.1134846,0.9515891601562502,-1.97320869140625,-0.6927354492187495,2.297598065844491,0.23554196819778994,0.11956686508045027,0.06053909234912716,0.27100043488915554
118,1790597826.1233873,1.06655009765625,-2.02589912109375,-0.7645860351562496,2.4137912430065156,0.24312118358745943,0.11401170580565378,0.055278724552705036,0.27415746635438537
119,1790597826.1433873,1.1623508789062502,-2.05463935546875,-0.7885362304687495,2.488853517886707,0.25947576462779626,0.09835436661527694,0.0439185743493007,0.28094500357605023
120,1790597826.1677492,1.0617600585937501,-1.81992744140625,-0.6352549804687495,2.200686075799739,0.2804727226773703,0.07506370681629171,0.029555043030438932,0.2918441515870934
121,1790597826.1877491,0.7695676757812502,-1.70496650390625,-0.3718028320312495,1.907192316720082,0.2978716352017795,0.05352387542088172,0.018021417167628968,0.30317831019811065
122,1790597826.213496,0.7599875976562501,-1.74807685546875,-0.2281016601562495,1.9197354527597985,0.31986382762560417,0.02328624186259104,0.004242428362830711,0.3207383910320045
123,1790597826.233496,0.8605784179687501,-1.65706611328125,-0.3239024414062495,1.895092638581965,0.3368155697434825,-0.0017866219871492915,-0.005683499183839376,0.3368682564486069
124,1790597826.2439516,0.8078879882812502,-1.36008369140625,-0.3622227539062495,1.6228727530788742,0.34565667228755853,-0.015294054784062523,-0.010632261087692618,0.34615818376066654
125,1790597826.2639515,0.7168772460937501,-1.30739326171875,-0.12751083984374947,1.4964789143293031,0.3623187442773164,-0.041257272861650277,-0.019413152219957194,0.3651765401799345
126,1790597826.288906,0.7168772460937501,-1.38882392578125,-0.10356064453124948,1.5663555438932535,0.38267343615781635,-0.07383929331078959,-0.029158370805949175,0.39082145612226105
127,1790597826.308906,0.7360374023437501,-1.5229450195312502,-0.3143223632812495,1.720439228285232,0.3987191882988487,-0.10040304126013493,-0.03642400442455292,0.41277653749976756
128,1790597826.3334827,0.7504075195312502,-1.66664619140625,-0.4867637695312495,1.891496745972954,0.41821901357166597,-0.13402833412985066,-0.04548962754352024,0.44152015115567306
129,1790597826.3534827,0.7647776367187502,-2.11211982421875,-0.5538243164062495,2.31358085203993,0.4339800605284177,-0.16295551055673252,-0.053321312318561964,0.46662228162018593
130,1790597826.3641984,0.6929270507812502,-2.3899420898437502,-0.6592051757812495,2.5742032853463424,0.4423294624452799,-0.17974770022443026,-0.057862894336785924,0.480949793246792
131,1790597826.3841984,0.6689768554687502,-2.4857428710937506,-0.8747569335937495,2.7187584201647264,0.45761824448677757,-0.2137012291257515,-0.06736883868404,0.5095304048264964
132,1790597826.4093795,0.7647776367187502,-2.5336432617187503,-0.9657676757812496,2.817257569847291,0.4766879945598133,-0.25951766312067887,-0.08101803734567335,0.5487666024863573
133,1790597826.4293795,0.8318381835937502,-2.4857428710937506,-0.7023155273437495,2.713691118168404,0.491957096265474,-0.29797787098690265,-0.09273487119403505,0.5825910679878454
134,1790597826.4537659,0.9803293945312501,-2.27977119140625,-0.5729844726562495,2.5469027489978964,0.5110967672084253,-0.34655495631044975,-0.10721096886878474,0.6267491005498329
135,1790597826.4737659,1.2150413085937501,-2.07379951171875,-0.3478526367187495,2.4285739134863333,0.5277322575635816,-0.3869488309557844,-0.11868364162033893,0.6650688236862916
136,1790597826.498951,1.3156321289062503,-1.91093818359375,-0.007759863281249477,2.3200501838548915,0.5503185024004279,-0.43771185031021964,-0.13163533521548815,0.7153810030071667
137,1790597826.518951,1.2006711914062502,-1.90135810546875,0.21737197265625052,2.2592088282407823,0.569338701118575,-0.4776953994378765,-0.14006332891937448,0.7562785117557389
138,1790597826.5443466,1.10487041015625,-1.94925849609375,0.14552138671875053,2.2453337796027246,0.5942587955525458,-0.528184422077601,-0.14846859918983615,0.8088048125242603
139,1790597826.5643466,1.0090696289062502,-1.69538642578125,0.030560449218750525,1.9731929935413748,0.6141113588995893,-0.5674490299763328,-0.15383101354692638,0.8501735960846208
140,1790597826.5738962,1.02343974609375,-1.47983466796875,-0.03650009765624948,1.7996310220530027,0.6236244298024618,-0.5856590911386262,-0.15601165254076926,0.8696226976156206
141,1790597826.5938962,1.0905002929687502,-1.4127741210937501,-0.1849913085937495,1.794252878067185,0.6437302608370052,-0.6224150824248132,-0.16022580675083153,0.9096491041583676
142,1790597826.6791673,1.0378098632812502,-1.25470283203125,-0.3334825195312495,1.6620887761681076,0.7302055707637809,-0.7726791587436076,-0.17881382472937637,1.0780573462694534
143,1790597826.6991673,0.8749485351562502,-1.09663154296875,-0.2760020507812495,1.429794674854241,0.7503147614090044,-0.8061633905185234,-0.18343383063016946,1.116476432183067
144,1790597826.6791673,0.8174680664062501,-1.03436103515625,-0.15146103515624948,1.3270633880165954,0.7503147614090044,-0.8061633905185234,-0.18343383063016946,1.116476432183067
145,1790597826.6991673,0.7551975585937502,-0.92419013671875,-0.07003037109374947,1.195556361778779,0.7693604769470862,-0.836010584877944,-0.18764903660082458,1.151538710792402
146,1790597826.7540846,0.7456174804687502,-0.8188092773437501,-0.12272080078124949,1.1142057506534206,0.8199945244533137,-0.9128526740187308,-0.19828118446424442,1.2429828851231648
147,1790597826.7740846,0.7504075195312502,-0.9385602539062501,-0.08919052734374948,1.2049737531371645,0.8379126266394084,-0.9392756458599061,-0.20189029497685643,1.2747925321373428
148,1790597826.7540846,0.7168772460937501,-0.95293037109375,-0.15625107421874948,1.202665238673815,0.8379126266394084,-0.9392756458599061,-0.20189029497685643,1.2747925321373428
149,1790597826.7740846,0.6498166992187502,-0.9577204101562501,-0.17062119140624948,1.169872521931469,0.8547792807238085,-0.9636438647007681,-0.20530112299661277,1.3043794186638389
150,1790597826.7992814,0.7456174804687502,-1.03915107421875,-0.2185215820312495,1.2975099475703409,0.8754782186600136,-0.9935125347140158,-0.20968904424362683,1.3407083065520944
151,1790597826.8192813,0.9515891601562502,-1.00562080078125,-0.2376817382812495,1.4047376030430725,0.8919893606514013,-1.0167317364284818,-0.21333382837872605,1.369269792884841
152,1790597826.8589022,1.0473899414062502,-1.13974189453125,-0.2472618164062495,1.567538095665043,0.9257323863175058,-1.0622053775313844,-0.2209122813862897,1.4262057885175583
153,1790597826.8789022,1.0186497070312501,-1.25470283203125,-0.2424717773437495,1.6342334549109951,0.9433094388473102,-1.0853082492625514,-0.2248985400565212,1.4554401556420404
154,1790597826.8589022,1.02822978515625,-1.23554267578125,-0.3239024414062495,1.639736255105707,0.9433094388473102,-1.0853082492625514,-0.2248985400565212,1.4554401556420404
155,1790597826.8789022,1.0617600585937501,-1.25949287109375,-0.3334825195312495,1.6807341566095133,0.9617536099396317,-1.10891768383394,-0.22948681488700515,1.4857094715853856
156,1790597826.8892279,1.0713401367187503,-1.18285224609375,-0.2568418945312495,1.6164395699870693,0.9714996025646918,-1.1211698950167566,-0.23195750199735005,1.501545102222404
157,1790597826.9092278,1.0090696289062502,-1.13495185546875,-0.2137315429687495,1.5336291607402224,0.9906658280065943,-1.144818401385965,-0.2367310529555977,1.5323411977641839
158,1790597826.9331574,0.8893186523437502,-1.23554267578125,-0.09877060546874948,1.5255192563805475,1.0135651227379285,-1.173123513639427,-0.2421466500370422,1.569129706687318
159,1790597826.9531574,0.8222581054687501,-1.1684821289062501,-0.11314072265624948,1.4332688863941472,1.0324005260582692,-1.1968379709042032,-0.24631184715269763,1.5996691848164282
160,1790597826.9786105,0.8078879882812502,-1.04394111328125,-0.13230087890624947,1.3266497548966671,1.0558877819243646,-1.2267147358855846,-0.25128612344299756,1.637947730268278
161,1790597826.9986105,0.8126780273437502,-0.96730048828125,-0.13230087890624947,1.270283170523738,1.0740056418158899,-1.2496861277282518,-0.2550053183608127,1.6674025455423456
162,1790597827.0090544,0.8941086914062502,-1.00562080078125,-0.17062119140624948,1.3563978538647898,1.0833844834108517,-1.261427755040183,-0.2568934244371728,1.6825326598910855
163,1790597827.0290544,0.8701584960937502,-1.0104108398437501,-0.16583115234374948,1.3437283373828006,1.1012971864309893,-1.2835641024681022,-0.26047144607093525,1.7112094179859583
164,1790597827.0538645,0.8174680664062501,-1.0535211914062501,-0.17541123046874948,1.344964698462595,1.1233251247161782,-1.3107457873935986,-0.26487918535336136,1.7464463455320185
165,1790597827.0738645,0.8174680664062501,-0.97688056640625,-0.2041514648437495,1.2900494181286304,1.140871176323795,-1.332416408972713,-0.26846873310691216,1.7745410641972224
166,1790597827.0989811,0.9180588867187501,-0.92898017578125,-0.2376817382812495,1.327527361371595,1.162870185565548,-1.3591390981695777,-0.2731327355769838,1.8094550693217646
167,1790597827.1189811,0.9036887695312502,-1.0487311523437501,-0.2185215820312495,1.4015142182249152,1.1804926214853422,-1.3801926565524234,-0.27697382495353295,1.8371742155527768
168,1790597827.128879,0.7983079101562501,-1.14932197265625,-0.2041514648437495,1.414183275550359,1.1891692016094024,-1.390680829042631,-0.2789033994219457,1.8509196807350017
169,1790597827.148879,0.7887278320312502,-1.16369208984375,-0.2807920898437495,1.433567253638437,1.2064520066015467,-1.4121640578208796,-0.28294490875563916,1.8787739597473583
170,1790597827.2039967,0.8509983398437502,-1.14453193359375,-0.2999522460937495,1.457437090021162,1.2537153202859008,-1.4720303166230269,-0.2948128393986116,1.9559115439229708
171,1790597827.2239966,0.8653684570312502,-1.09663154296875,-0.2089415039062495,1.4124871183530396,1.2708673435080957,-1.4938566742473782,-0.29923661811139984,1.9839995266147394
172,1790597827.218289,0.8749485351562502,-1.11100166015625,-0.16104111328124948,1.4233038565987501,1.2708673435080957,-1.4938566742473782,-0.29923661811139984,1.9839995266147394
173,1790597827.2382889,0.8462083007812502,-1.1253717773437502,-0.14667099609374948,1.4156420828189782,1.2880603151268304,-1.5157955042377107,-0.3033660933423055,2.0121546592301645
174,1790597827.2783303,0.9180588867187501,-1.09663154296875,-0.16104111328124948,1.4392244789066633,1.3226169657181444,-1.5598031127890704,-0.31131757479349453,2.068627569440001
175,1790597827.2983303,0.9372190429687501,-1.1301618164062501,-0.17541123046874948,1.4786528887945594,1.3400712404720438,-1.581827155842282,-0.3151981312474452,2.096978288500443
176,1790597827.2936718,0.9228489257812502,-1.07268134765625,-0.17541123046874948,1.4258557126160405,1.3400712404720438,-1.581827155842282,-0.3151981312474452,2.096978288500443
177,1790597827.3136718,0.9036887695312502,-1.02957099609375,-0.2281016601562495,1.3887765102925735,1.3577933423102568,-1.6037015248122224,-0.31905440025525034,2.125383977409575
178,1790597827.3384516,0.8701584960937502,-1.13495185546875,-0.2760020507812495,1.456526228597189,1.3797539065451667,-1.6307610820697664,-0.3240524695551094,2.160581531080179
179,1790597827.3584516,0.8462083007812502,-1.10621162109375,-0.16104111328124948,1.4020366896486045,1.397394325970095,-1.6526868196632056,-0.3281369196526352,2.1890085573567357
180,1790597827.3985877,0.8270481445312502,-1.0535211914062501,-0.07961044921874948,1.341735204032241,1.4325219523901773,-1.6965886758528086,-0.3358285278635242,2.24573219223458
181,1790597827.4185877,0.7647776367187502,-1.10142158203125,-0.15146103515624948,1.3494275749961318,1.4497882917526408,-1.7184160890513978,-0.33943298040456954,2.273775427389449
182,1790597827.42864,0.7599875976562501,-1.10621162109375,-0.2568418945312495,1.3664746825391907,1.4583143452767595,-1.7294055449737546,-0.3412806971437916,2.2877929938849153
183,1790597827.4486399,0.7839377929687502,-1.14453193359375,-0.2328916992187495,1.4066806154296574,1.475049235163287,-1.7513666927716984,-0.3451400995336342,2.3156375422358226
184,1790597827.4584525,0.8270481445312502,-1.11579169921875,-0.16583115234374948,1.3987493415568442,1.4832138765944871,-1.7621887464217432,-0.34704304569464495,2.3293070766438024
185,1790597827.4784524,0.8893186523437502,-1.03436103515625,-0.1849913085937495,1.3765944212843668,1.499933387388992,-1.7841628116149317,-0.35086606826177813,2.3571474503754306
186,1790597827.503932,0.8988987304687501,-1.0870514648437501,-0.2041514648437495,1.4252640581503213,1.5214558705337484,-1.8120120825485693,-0.35574958992222855,2.39264989582961
187,1790597827.523932,0.8318381835937502,-1.11100166015625,-0.18020126953124949,1.3995541969124194,1.5384117949667633,-1.8338902195518085,-0.35958440884168436,2.42057124153425
188,1790597827.5338783,0.8414182617187501,-1.10621162109375,-0.2281016601562495,1.4084456713564433,1.5468276144824586,-1.8447925360856487,-0.36151004813064674,2.43446599586485
189,1790597827.5538783,0.8509983398437502,-1.15411201171875,-0.1945713867187495,1.4470766166792886,1.563750292299837,-1.8668169165238961,-0.36543529950450926,2.4624912862001285
190,1790597827.5794432,0.8222581054687501,-1.14932197265625,-0.12272080078124949,1.4184885560990272,1.585345194009393,-1.895163149810804,-0.3703084890131245,2.4984177244017203
191,1790597827.5994432,0.7983079101562501,-1.10621162109375,-0.10835068359374948,1.3684807418068166,1.602136075370851,-1.9173959373707485,-0.3738956371800082,2.526468905835338
192,1790597827.6383605,0.8030979492187501,-1.14932197265625,-0.17062119140624948,1.4124513810488148,1.6345821539536702,-1.9607521243823374,-0.38064299594208395,2.580948818100319
193,1790597827.6583605,0.7983079101562501,-1.15411201171875,-0.12751083984374947,1.4090880275160946,1.6511574627590546,-1.9831462636653208,-0.3840375969144645,2.6089605105785862
194,1790597827.6533852,0.8462083007812502,-1.0535211914062501,-0.11793076171874949,1.356422888929813,1.6511574627590546,-1.9831462636653208,-0.3840375969144645,2.6089605105785862
195,1790597827.6733851,0.8941086914062502,-1.06789130859375,-0.2472618164062495,1.414553146711281,1.6678403525390035,-2.005322874662218,-0.38735092220533596,2.636864048473924
196,1790597827.7135854,0.8653684570312502,-1.16369208984375,-0.3239024414062495,1.4859187857815412,1.7016481168486668,-2.0499401337412353,-0.3947338469763891,2.6932648728720365
197,1790597827.7335854,0.8222581054687501,-1.19722236328125,-0.2855821289062495,1.4802050302239973,1.7184762733691092,-2.0723493696084136,-0.3987701842168503,2.7215455667082464
198,1790597827.757842,0.8366282226562501,-1.13974189453125,-0.16583115234374948,1.4235372633627457,1.7388425388822077,-2.0997028264882287,-0.40375252362236025,2.75596470131974
199,1790597827.777842,0.8797385742187501,-1.0918415039062501,-0.13230087890624947,1.4083896304574481,1.7556905077595193,-2.1222204978947303,-0.4076915262836918,2.784327814989636
200,1790597827.7730997,0.8845286132812502,-1.06310126953125,-0.17062119140624948,1.3934442105621219,1.7556905077595193,-2.1222204978947303,-0.4076915262836918,2.784327814989636
201,1790597827.7930996,0.8366282226562501,-1.13974189453125,-0.2089415039062495,1.4292007980508703,1.7726943365839773,-2.144541326496692,-0.41149302447781877,2.812619636780452
202,1790597827.8487668,0.8270481445312502,-1.1684821289062501,-0.2137315429687495,1.4474254009812282,1.8198688685241473,-2.20698612806578,-0.4222514998888258,2.8915405577747832
203,1790597827.8687668,0.8509983398437502,-1.11100166015625,-0.1993614257812495,1.4136010191621593,1.836792387521158,-2.2294751319766966,-0.4261566288170961,2.9199272441694393
204,1790597827.8629806,0.8988987304687501,-1.07747138671875,-0.2712120117187495,1.429167405217628,1.836792387521158,-2.2294751319766966,-0.4261566288170961,2.9199272441694393
205,1790597827.8829806,0.8605784179687501,-1.11579169921875,-0.2328916992187495,1.4282243777096295,1.85388995983909,-2.251803629267477,-0.43033421987367737,2.948341077414323
206,1790597827.9085639,0.8222581054687501,-1.10621162109375,-0.15146103515624948,1.3866336891272053,1.8757089116564916,-2.280344636558849,-0.4356139473114043,2.984629808509342
207,1790597827.9285638,0.8462083007812502,-1.07747138671875,-0.14188095703124948,1.3773682454147185,1.8927102193999756,-2.3025855487709608,-0.4395623186874167,3.0128835384129653
208,1790597827.9381514,0.8557883789062501,-1.11579169921875,-0.17062119140624948,1.4165014848115554,1.9008615919872751,-2.3132251565590565,-0.4413958717807575,3.0264031014481803
209,1790597827.9581513,0.8749485351562502,-1.13974189453125,-0.2424717773437495,1.4571681742784488,1.9179111834242817,-2.3354739205640707,-0.44526664882139283,3.0546823287686515
210,1790597827.9829125,0.8749485351562502,-1.11100166015625,-0.2424717773437495,1.4348004010489572,1.9391030714421125,-2.3630672852359567,-0.45024065261176455,3.089809761375761
211,1790597828.0029125,0.8749485351562502,-1.10621162109375,-0.17062119140624948,1.4206866933887352,1.9562773609944584,-2.3853375292751746,-0.4542752303283812,3.118208175635158
212,1790597828.028749,0.8941086914062502,-1.1301618164062501,-0.16583115234374948,1.4505847284452322,1.9785635697929285,-2.4141248906338406,-0.4593573576366427,3.154951975752485
213,1790597828.048749,0.9180588867187501,-1.0870514648437501,-0.2664219726562495,1.4475820094959253,1.9959457885821683,-2.43639233211583,-0.4633496954352323,3.1834729663076504
214,1790597828.0593016,0.8988987304687501,-1.09663154296875,-0.2712120117187495,1.4436674215250835,2.0051795302620103,-2.448107280921001,-0.465565719878414,3.1985505540800974
215,1790597828.0793016,0.8318381835937502,-1.11100166015625,-0.2137315429687495,1.4042651548102645,2.022650904985103,-2.470291147218126,-0.4698630812525592,3.227108047553638
216,1790597828.1023464,0.8366282226562501,-1.11100166015625,-0.2281016601562495,1.4093622100726757,2.0426461875360022,-2.4958585842772556,-0.4748355903287997,3.259935943850543
217,1790597828.1223464,0.8126780273437502,-1.05831123046875,-0.1897813476562495,1.3477704539653002,2.0598705054283077,-2.517973445441226,-0.4791305946322959,3.2882857080541723
218,1790597828.1489942,0.8174680664062501,-1.07268134765625,-0.15146103515624948,1.357143971129889,2.082635597410509,-2.547278222797394,-0.4846768301288572,3.3257944923887037
219,1790597828.1689942,0.7983079101562501,-1.1253717773437502,-0.15625107421874948,1.3885861712023433,2.099582263028537,-2.569270299477484,-0.4886766220851675,3.353833685795067
220,1790597828.1787696,0.8030979492187501,-1.1253717773437502,-0.2041514648437495,1.397535607374296,2.107796917082707,-2.5800571594813397,-0.49060258619262587,3.3675204063870465
221,1790597828.1987696,0.8701584960937502,-1.12058173828125,-0.1993614257812495,1.432698230117947,2.124592555789587,-2.6021850572387493,-0.49455721743884645,3.3955629049620057
222,1790597828.2233446,0.8893186523437502,-1.14453193359375,-0.2185215820312495,1.4658078640244063,2.14537749954579,-2.6294711676236178,-0.49945779617996094,3.43019260787003
223,1790597828.2433445,0.8893186523437502,-1.11579169921875,-0.1945713867187495,1.4400475012934908,2.162423633149029,-2.651737073146556,-0.5034674564443885,3.4585061737692318
224,1790597828.283096,0.8988987304687501,-1.0870514648437501,-0.18020126953124949,1.422031051840271,2.1965534090015684,-2.695921499622744,-0.5113588773678196,3.514872332274308
225,1790597828.303096,0.9036887695312502,-1.13495185546875,-0.2041514648437495,1.4650757410477837,2.213853094190017,-2.7181502405206004,-0.5153102201416296,3.543307900208409
226,1790597828.31359,0.9132688476562502,-1.10142158203125,-0.2999522460937495,1.4619031566421499,2.222998705697444,-2.729824288043342,-0.517469254484379,3.558291488686736
227,1790597828.33359,0.8653684570312502,-1.11100166015625,-0.2520518554687495,1.430635311020887,2.2404823004113803,-2.752054558453956,-0.5217948366196404,3.5868976961556607
228,1790597828.3575168,0.8318381835937502,-1.15411201171875,-0.1897813476562495,1.4352512878225443,2.2613067901621515,-2.7787249940573924,-0.5269863376880048,3.621123526192185
229,1790597828.3775167,0.7839377929687502,-1.05831123046875,-0.13230087890624947,1.3236633432789326,2.2785262853995327,-2.8009930133048555,-0.5311580304565767,3.6495715840571914
230,1790597828.3881254,0.7743577148437502,-1.02478095703125,-0.09877060546874948,1.2882396954513484,2.2875298811992475,-2.8126903869922324,-0.5332227696938842,3.6644708611991956
231,1790597828.4081254,0.7456174804687502,-1.04394111328125,-0.06045029296874948,1.284294636405319,2.3042377520045574,-2.834538051050821,-0.5367702647006765,3.6921863303041516
232,1790597828.418176,0.7168772460937501,-1.07268134765625,-0.13230087890624947,1.2969432455338799,2.3124769022719724,-2.8454657295520422,-0.5384308645750501,3.7059590442318098
233,1790597828.438176,0.6737668945312502,-1.0870514648437501,-0.2089415039062495,1.29587779803492,2.3284989821484827,-2.8671889540276205,-0.5417515503132929,3.7331186359706514
234,1790597828.4628892,0.7025071289062501,-1.07268134765625,-0.2281016601562495,1.302379325365605,2.347878136094736,-2.894008245027772,-0.5460493750649756,3.7664287308071116
235,1790597828.4828892,0.7599875976562501,-1.0870514648437501,-0.2185215820312495,1.3442521034477504,2.3634025765096665,-2.9156965275504483,-0.5496757342380014,3.7932969027262233
236,1790597828.5082047,0.7887278320312502,-1.04394111328125,-0.1945713867187495,1.3227859485000846,2.383045979590792,-2.943077223474475,-0.5543616979372441,3.8272612370098185
237,1790597828.5282047,0.7695676757812502,-1.0535211914062501,-0.13709091796874948,1.3118442087911637,2.398574439112853,-2.9646102109996573,-0.5580059284552019,3.8540165618897024
238,1790597828.539256,0.7551975585937502,-1.08226142578125,-0.11793076171874949,1.324960682737261,2.407131744799747,-2.9764942028576877,-0.5599289475237805,3.868762257201027
239,1790597828.559256,0.7599875976562501,-1.03915107421875,-0.16583115234374948,1.2980431713656353,2.4225679061911345,-2.9979570222998686,-0.5633126988696859,3.895369400245918
240,1790597828.5832329,0.7456174804687502,-1.01520087890625,-0.2137315429687495,1.2775990858529886,2.4410050573170174,-3.0235222186050352,-0.5674433450513547,3.9271088915496906
241,1790597828.6032329,0.7264573242187502,-1.0487311523437501,-0.2041514648437495,1.2919965535577738,2.4562854386673982,-3.044744296988684,-0.5709988712877037,3.9534599658105103
242,1790597828.6279926,0.7312473632812502,-1.0918415039062501,-0.2041514648437495,1.3298565323206453,2.4750717819653527,-3.0710511098257185,-0.5754985317544473,3.9860423737203856
243,1790597828.6479926,0.7168772460937501,-1.0104108398437501,-0.13709091796874948,1.2464497466926718,2.490142614037595,-3.0922666645001557,-0.5790998482851588,4.012266192179776
244,1790597828.6884775,0.7456174804687502,-1.01999091796875,-0.09398056640624948,1.2669487940644404,2.5205143121550946,-3.1349354091490516,-0.5859979279668236,4.064997661610227
245,1790597828.7084775,0.7120872070312502,-1.0104108398437501,-0.07961044921874948,1.2386832037757394,2.5354542222713454,-3.155898006905913,-0.5891548812969866,4.090883011940377
246,1790597828.7029517,0.6977170898437501,-1.03436103515625,-0.15146103515624948,1.2568422071525698,2.5354542222713454,-3.155898006905913,-0.5891548812969866,4.090883011940377
247,1790597828.7229517,0.6785569335937501,-1.01999091796875,-0.18020126953124949,1.238262283366315,2.550110215161003,-3.1767320904304746,-0.5922278889222241,4.116481842089983
248,1790597828.7485237,0.6737668945312502,-1.04394111328125,-0.1897813476562495,1.256897703110083,2.5686321764265374,-3.2033332815975886,-0.5962772669307272,4.149067600054606
249,1790597828.7685237,0.6593967773437501,-1.02957099609375,-0.15146103515624948,1.2319744279567666,2.5829450861265433,-3.224127682972201,-0.5994811054130683,4.174443942586872
250,1790597828.793698,0.6785569335937501,-0.99604072265625,-0.15625107421874948,1.2152987416731125,2.600784803581782,-3.2502003793390313,-0.6034899157113487,4.206195927291405
251,1790597828.813698,0.7120872070312502,-0.98646064453125,-0.14667099609374948,1.2254326479744648,2.614917734416222,-3.270780736025374,-0.6066514042522706,4.231291446733539
252,1790597828.823529,0.7312473632812502,-0.9816706054687501,-0.13230087890624947,1.2312202916239356,2.621886898292143,-3.2808306803941134,-0.6081780161864097,4.243585908194122
253,1790597828.843529,0.7599875976562501,-1.00562080078125,-0.17062119140624948,1.271992898766392,2.6361750409503513,-3.3011902873171586,-0.6112722631307744,4.268598123421758
254,1790597828.8685834,0.7216672851562501,-0.92419013671875,-0.17062119140624948,1.1849230651100948,2.6541734286463186,-3.3264957862480036,-0.6152082878965123,4.29984790925847
255,1790597828.8885834,0.7695676757812502,-0.94814033203125,-0.15625107421874948,1.2311047457573208,2.668622570199042,-3.346474601873427,-0.6183692728678163,4.3246756226087895
