imu_index,t_imu,ax,ay,az,mag,vx,vy,vz,velocity
0,1791617945.135239,0.10528693704044113,-0.030477797564338233,0.009674000459558739,0.11003554671387851,0.0,0.0,0.0,0.0
1,1791617945.1552389,0.06696662454044112,0.0030524758731617667,-0.014276194852941262,0.06853944959492884,0.00039262081266514367,-7.999709814004531e-05,5.431053816402133e-06,0.0004007245120955574
2,1791617945.1952627,0.04780646829044113,0.02221263212316177,0.004883961397058738,0.052940650875974604,0.0014049982093915212,-0.00014023279519339074,-1.3524119636312465e-05,0.0014120439465728641
3,1791617945.2152627,-0.009674000459558874,-0.0017375631893382334,-0.009486155790441262,0.013659888813932961,0.0018922009475422607,-0.00013510514251406958,-2.8478554496450967e-05,0.0018972318923842135
4,1791617945.2244093,-0.047994312959558874,-0.006527602251838234,-0.047806468290441266,0.06805528692190821,0.0020420329978281418,-0.00013878176411485436,-7.359470438152487e-05,0.002048066239842555
5,1791617945.2444093,-0.03362419577205888,-0.04484791475183824,-0.043016429227941265,0.07065645888684467,0.002198082300312369,-0.00022267831295389102,-0.00029368152596138416,0.002228766535260594
6,1791617945.2550168,-0.03841423483455888,-0.04005787568933824,0.02883415670955874,0.06254354831490218,0.0022111212215864913,-0.00032804816049932363,-0.0004041835726600825,0.002271571485242187
7,1791617945.2750168,0.004696116727941126,0.03179271024816177,0.06715446920955874,0.07444832215747774,0.0021814408022761676,-0.000509315932946477,-0.0004372958799019051,0.0022823922493663555
8,1791617945.314581,0.07175666360294113,0.03658274931066177,0.05278435202205874,0.09629903497408994,0.002358392948562636,-0.0006112223855854783,-0.0001370778131441599,0.002440164017300303
9,1791617945.334581,0.09570685891544113,-0.0017375631893382334,0.03362419577205874,0.10145643651644203,0.002685621091790292,-0.0006027419940455974,0.00012153309418891161,0.0027551095900232485
10,1791617945.3445778,0.09570685891544113,-0.016107680376838233,0.009674000459558739,0.09753382231551307,0.0029681656038712846,-0.0006125187163715614,0.0002638722151114472,0.003042172706441545
11,1791617945.3645778,0.08612678079044113,-0.020897719439338235,-0.019066233915441263,0.09065350695261777,0.0037213903942847648,-0.0006846523441198363,0.0004918354064589961,0.003815677838344111
12,1791617945.3745792,0.05738654641544113,-0.030477797564338233,-0.004696116727941262,0.06514725908422249,0.004149207013929437,-0.000753850634407397,0.0005709093268032409,0.004255601847314736
13,1791617945.3945792,0.038226390165441125,-0.06400807100183824,0.004883961397058738,0.0747137412889012,0.005019810510783754,-0.001013199569852082,0.0007055975311099624,0.005169423450292303
14,1791617945.4350767,0.05738654641544113,-0.025687758501838236,0.004883961397058738,0.06306290292452689,0.006808653904506853,-0.0017320117943302785,0.0009670840147234731,0.007091747622313507
15,1791617945.4550767,0.04780646829044113,-0.011317641314338234,0.01446403952205874,0.05121284853062409,0.0077173606804446385,-0.00208926152052959,0.0011058723057215613,0.008071283858829428
16,1791617945.4650788,0.08133674172794113,0.03658274931066177,-0.004696116727941262,0.08930854726378082,0.008200522028396735,-0.002222172354717943,0.0011721974933064584,0.008576751044282837
17,1791617945.4850788,0.08612678079044113,-0.006527602251838234,-0.047806468290441266,0.09872127618141831,0.009272915153974588,-0.0024029896223283537,0.0012061723208158966,0.009654851953568824
18,1791617945.494143,0.09091681985294113,-0.04484791475183824,-0.07654670266544127,0.1270299227690538,0.009806388693734824,-0.0025075714722450544,0.001134723273612369,0.010185321340473504
19,1791617945.514143,0.09091681985294113,-0.08316822725183824,-0.06217658547794126,0.13801720884759733,0.011079673301955384,-0.0028957396996809413,0.0007926352109547117,0.011479230787122298
20,1791617945.5546486,0.06696662454044112,-0.04005787568933824,9.392233455873811e-05,0.07803314057814037,0.013751259982798594,-0.003938319551820269,1.5131075691736991e-05,0.014304116224227885
21,1791617945.5746486,0.07175666360294113,-0.05921803193933824,0.04320427389705874,0.10257876661944328,0.015080594045633363,-0.004524797946985486,-0.0002462356371889057,0.015746705852947733
22,1791617945.584647,0.06217658547794113,-0.05921803193933824,0.04320427389705874,0.0961213419144587,0.015745899809833833,-0.0048628218048396505,-0.0002925024182234017,0.016482292146167525
23,1791617945.604647,0.08133674172794113,0.017422593060661767,-0.03343635110294126,0.08965044271477068,0.017092378185467348,-0.005500251381310466,-0.0003565172046912719,0.01795909969374547
24,1791617945.6141415,0.07175666360294113,-0.03526783662683824,-0.047806468290441266,0.0931573801808959,0.01774472346834353,-0.005770173418425561,-0.0004402006117217277,0.018664508802142286
25,1791617945.6341414,0.04780646829044113,-0.04484791475183824,-0.047806468290441266,0.08113108084081014,0.01909209252718767,-0.006373642463735461,-0.00073345505898128,0.020141233121280643
26,1791617945.6751423,0.06217658547794113,-0.025687758501838236,0.01446403952205874,0.06881131562352343,0.021778138471331483,-0.007642111555189002,-0.0013469920044964245,0.023119333289665145
27,1791617945.6951423,0.06217658547794113,0.017422593060661767,0.03362419577205874,0.07280151833561489,0.023078370454714028,-0.008180448574395417,-0.001529247614628517,0.024533029164581215
28,1791617945.7047212,0.04780646829044113,-0.03526783662683824,0.03841423483455874,0.07074554508000437,0.023686716123152818,-0.008412428916264902,-0.0015516909687236537,0.02518406690414509
29,1791617945.7247212,0.04780646829044113,-0.06400807100183824,0.03362419577205874,0.08667801396605168,0.024909781259065098,-0.00897304379591745,-0.00148346419275656,0.026518170814539874
30,1791617945.7347233,0.038226390165441125,-0.020897719439338235,-0.019066233915441263,0.047555155961937,0.02549423390728245,-0.009275049191358319,-0.0014435407871869212,0.027167375839885953
31,1791617945.7547233,0.014276194852941126,0.012632553998161768,-0.05738654641544126,0.06046988398771086,0.026566344060322,-0.009800745957818234,-0.0014903646190147848,0.028355712735861665
32,1791617945.794736,-9.392233455887426e-05,-0.006527602251838234,-0.02864631204044126,0.029380769324193378,0.028432067302484723,-0.01067639215661034,-0.0018281701430734256,0.03042548284985428
33,1791617945.814736,0.014276194852941126,-0.030477797564338233,0.02404411764705874,0.04136212612133866,0.02924602265676169,-0.011103932311111906,-0.0019785954364965465,0.03134552589941502
34,1791617945.8258216,0.03343635110294113,-0.05442799287683824,0.009674000459558739,0.06460636399436087,0.029669183160207245,-0.011375958936997391,-0.0020214332327246304,0.0318395832800076
35,1791617945.8458216,0.043016429227941126,-0.025687758501838236,-0.014276194852941262,0.05209686996212322,0.030432778402880504,-0.011913284990658883,-0.0020940282326425115,0.03274851622328242
36,1791617945.8548212,0.07175666360294113,-0.03526783662683824,-0.02864631204044126,0.08493203321056984,0.030802308704558714,-0.012159946084857662,-0.0021507659293554695,0.03318542307098789
37,1791617945.8748212,0.09091681985294113,-0.030477797564338233,0.004883961397058738,0.09601363109201158,0.03174435181367046,-0.012724500825536007,-0.002293585452866992,0.034276483593839564
38,1791617945.9143968,0.08612678079044113,0.0030524758731617667,0.004883961397058738,0.08631913494242684,0.03385432924494511,-0.01375546432865313,-0.002504809856861476,0.036627892103437025
39,1791617945.9343967,0.08133674172794113,-0.020897719439338235,0.03362419577205874,0.09045975223269644,0.035011880811044276,-0.01422509022042352,-0.0025377806922458924,0.0378764480983618
40,1791617945.9453986,0.08612678079044113,-0.006527602251838234,0.02883415670955874,0.09105954400080364,0.035691306815150904,-0.014467306611158214,-0.0025016604389143564,0.03859314249586484
41,1791617945.9653986,0.12923713235294113,-0.06400807100183824,0.02404411764705874,0.14621008558103504,0.0370641991708783,-0.014947381978749594,-0.0023665302081188684,0.04003472934119978
42,1791617945.974397,0.10049689797794113,-0.05442799287683824,0.01925407858455874,0.11589975174231491,0.03774428009084208,-0.015210908292258954,-0.0022856310015688364,0.040758146666976684
43,1791617945.994397,0.08612678079044113,-0.030477797564338233,-0.009486155790441262,0.09185154144258006,0.03930904067837067,-0.01583612714698157,-0.002118142392053515,0.04243194703595607
44,1791617946.0349112,0.11007697610294113,-0.06400807100183824,-0.023856272977941264,0.1295495873468607,0.042599512106378454,-0.017199765934392753,-0.0019310642636988064,0.045981293904042285
45,1791617946.0549111,0.11486701516544114,-0.05921803193933824,-0.014276194852941262,0.13001929171959567,0.044317626847453565,-0.017956794902598477,-0.0019097639466588475,0.04785546709516146
46,1791617946.0649111,0.07175666360294113,-0.0017375631893382334,0.009674000459558739,0.07242668142441805,0.045187793238003114,-0.01832424886683358,-0.001904162954420156,0.04879898145259958
47,1791617946.084911,0.02385627297794113,0.03658274931066177,9.392233455873811e-05,0.04367411280071637,0.046810495370033275,-0.018896652876697704,-0.0018799893973963297,0.05051574335654813
48,1791617946.0952868,0.028646312040441126,-0.011317641314338234,-0.019066233915441263,0.03622459763967932,0.04756691366031832,-0.01912940465661345,-0.001884093481349794,0.05130394922353548
49,1791617946.1152868,0.07654670266544113,-0.030477797564338233,-0.009486155790441262,0.08293540248292496,0.04896404605434784,-0.019573446670294852,-0.0019336463043109146,0.05276681351566862
50,1791617946.1548188,0.06217658547794113,-0.011317641314338234,9.392233455873811e-05,0.06319830383816218,0.05172268132096008,-0.020443404921773597,-0.0020447474588167485,0.055653836884760485
51,1791617946.1748188,0.08133674172794113,-0.016107680376838233,0.009674000459558739,0.0834787949537589,0.05312425128486211,-0.02085865235371272,-0.0020778725894240145,0.05711030561193048
52,1791617946.1844673,0.05738654641544113,-0.05921803193933824,0.02883415670955874,0.08735788235420691,0.053799371039406484,-0.021083439339521427,-0.0020635898972529497,0.05781991129259066
53,1791617946.2044673,0.05259650735294113,-0.08316822725183824,0.01925407858455874,0.10026996635125478,0.0551538517853506,-0.021693074985811005,-0.0019662926663990775,0.05929926792086371
54,1791617946.2449996,0.10528693704044113,-0.020897719439338235,-0.019066233915441263,0.10902098451601615,0.057967070300739554,-0.023059602337609474,-0.0017981148402374662,0.062411214666903
55,1791617946.2649996,0.10528693704044113,-0.011317641314338234,0.02404411764705874,0.10858889312311565,0.05946284434920275,-0.023681071042593614,-0.0017201112707443192,0.06402797643691092
56,1791617946.2749987,0.07175666360294113,-0.030477797564338233,0.03841423483455874,0.0869112671275886,0.06023125760499281,-0.023976513613163136,-0.0016401236629697588,0.06484880572031403
57,1791617946.2949986,0.08133674172794113,-0.020897719439338235,9.392233455873811e-05,0.08397850352374721,0.061767324619548765,-0.024555877088276213,-0.0014463695798748637,0.06648522749598464
58,1791617946.3045778,0.11007697610294113,-0.030477797564338233,-0.047806468290441266,0.12381960758597654,0.0625302004863823,-0.024828655158253055,-0.0014017678042131515,0.06729378160581809
59,1791617946.3245778,0.11965705422794114,-0.06879811006433824,-0.043016429227941265,0.14457317786662824,0.06422866187874593,-0.025461662710160354,-0.001458848133609874,0.06910676893457816
60,1791617946.3646245,0.08133674172794113,-0.06400807100183824,-0.019066233915441263,0.1052436220585955,0.06772310468521553,-0.026937916335655027,-0.0017424634529714146,0.07290477641140088
61,1791617946.3846245,0.06696662454044112,-0.04005787568933824,-0.014276194852941262,0.07932825440258996,0.06942896472389956,-0.027720690782453008,-0.0019128729064357385,0.07478286516873393
62,1791617946.3946555,0.10049689797794113,0.0030524758731617667,-0.03343635110294126,0.10595722574333524,0.07028218911285421,-0.02808224108831581,-0.0020214166854053356,0.07571185175686386
63,1791617946.4146554,0.08612678079044113,0.02700267118566177,-0.047806468290441266,0.10213924334402832,0.0720081240295749,-0.02864989478830282,-0.0023272350664830053,0.07753323429790693
64,1791617946.4241884,0.08612678079044113,-0.04484791475183824,-0.03343635110294126,0.10269930575223968,0.07283054236172241,-0.02889263840483787,-0.0025092234854766837,0.07839240178228642
65,1791617946.4441884,0.09091681985294113,-0.05442799287683824,0.009674000459558739,0.10640423311910503,0.07456271856832182,-0.0294744345863544,-0.002869405253718654,0.08022826672061485
66,1791617946.48417,0.11486701516544114,-0.05921803193933824,0.01925407858455874,0.13065958067408043,0.07812313421068812,-0.030803815436500112,-0.0033946889124713375,0.08404536309136636
67,1791617946.50417,0.11965705422794114,-0.020897719439338235,0.004883961397058738,0.12156635382868773,0.07998879142798561,-0.03148923523356179,-0.003581829948976885,0.08603841116319944
68,1791617946.5142837,0.10049689797794113,-0.030477797564338233,0.01925407858455874,0.10676723368946979,0.08095770620403296,-0.031822821322444475,-0.0036439600104174338,0.08706388800930191
69,1791617946.5342836,0.09091681985294113,-0.020897719439338235,0.01925407858455874,0.09525388365876643,0.08287345986782686,-0.0324606040495442,-0.0036906312569990954,0.08908042391457695
70,1791617946.5442684,0.04780646829044113,0.03179271024816177,0.01925407858455874,0.06055538272910912,0.08379029642099028,-0.03272308934001645,-0.0036815992492872946,0.09002870943929202
71,1791617946.5642684,0.038226390165441125,0.012632553998161768,-0.014276194852941262,0.04271589944126371,0.08548034963139856,-0.03310335842749371,-0.0036587545528988207,0.09173935359028652
72,1791617946.6048663,0.06217658547794113,-0.006527602251838234,-0.014276194852941262,0.06412758464446536,0.08870210087892491,-0.03374089105385959,-0.0037062755785502587,0.09497498043225673
73,1791617946.6248662,0.04780646829044113,-0.011317641314338234,-0.009486155790441262,0.050035333185714785,0.09021615241862728,-0.03403461950333001,-0.003761818039539502,0.09649591057096692
74,1791617946.6348667,0.028646312040441126,0.012632553998161768,0.004883961397058738,0.03168668005586504,0.09091699727089084,-0.03415847381634047,-0.0037888765181517355,0.09719597374113081
75,1791617946.6548667,0.05738654641544113,-0.016107680376838233,9.392233455873811e-05,0.059604378178275526,0.09223742587489892,-0.03437422879360663,-0.003827406919995552,0.09850877819216884
76,1791617946.6648653,0.09570685891544113,-0.04484791475183824,-0.009486155790441262,0.10611845010519531,0.09291333127313109,-0.03451162165465528,-0.0038508231589509403,0.09919056404974308
77,1791617946.6848652,0.10528693704044113,-0.04005787568933824,-0.014276194852941262,0.11355079152335062,0.0943640252515821,-0.03487258149960417,-0.003926279952491763,0.10067811021464944
78,1791617946.7245495,0.07175666360294113,-0.006527602251838234,0.02404411764705874,0.07595885699514877,0.09733768155097847,-0.03562002405244378,-0.004024471701073605,0.10372852421436018
79,1791617946.7445495,0.07175666360294113,-0.006527602251838234,0.02883415670955874,0.0776082273714279,0.09882680811146753,-0.035959796756229345,-0.003987217808829559,0.10524135541746502
80,1791617946.7545483,0.12923713235294113,-0.03526783662683824,0.004883961397058738,0.13405189203467788,0.09961033868753195,-0.03613552575355633,-0.003946101242228694,0.1060356897933176
81,1791617946.7745483,0.14839728860294113,-0.04005787568933824,-0.004696116727941262,0.1537805000049406,0.10135895070720831,-0.03654728912651116,-0.003875912978760503,0.10781634353094158
82,1791617946.78455,0.08612678079044113,-0.020897719439338235,-0.004696116727941262,0.08875015808105609,0.10227815708353342,-0.036768042048770724,-0.0038531233323590396,0.10875457182076752
83,1791617946.80455,0.06217658547794113,-0.05442799287683824,9.392233455873811e-05,0.08263378855953418,0.10406300200831309,-0.03725624785612159,-0.0038212906832457605,0.11059719098505531
84,1791617946.8451924,0.07175666360294113,-0.05442799287683824,-0.004696116727941262,0.09018580094643092,0.10755423239145052,-0.03843134305552983,-0.00378033424854012,0.11427673412115281
85,1791617946.8651924,0.08612678079044113,-0.016107680376838233,9.392233455873811e-05,0.08762013785570077,0.10925137252006387,-0.03902866640979342,-0.0037701062368179525,0.11607460058204636
86,1791617946.8750896,0.05259650735294113,-0.0017375631893382334,0.03841423483455874,0.0651541644830901,0.11006821850550125,-0.03929316657175762,-0.0037372196874166145,0.11693131520342474
87,1791617946.8950896,0.05259650735294113,0.02700267118566177,0.01446403952205874,0.060866618734612125,0.11162906364370774,-0.039709587733208825,-0.0036014147594881822,0.11853636318101808
88,1791617946.9046123,0.09570685891544113,-0.0017375631893382334,-0.009486155790441262,0.09619152312432536,0.11236667810821979,-0.03986007490501248,-0.00354289737721699,0.11927970507313881
89,1791617946.9246123,0.08612678079044113,-0.03526783662683824,-0.014276194852941262,0.09415653142050848,0.11395622553168266,-0.040184234258974,-0.003474075013056426,0.1208836763901734
90,1791617946.9656222,0.10049689797794113,0.007842514935661767,-0.03343635110294126,0.10620320672552193,0.11730068998246856,-0.040833572136387476,-0.0035008744794119214,0.12425412913018768
91,1791617946.9856222,0.09091681985294113,-0.011317641314338234,-0.03343635110294126,0.09752920953320256,0.11897420326235476,-0.04110795720603033,-0.003612292717030977,0.1259276532229456
92,1791617947.024204,0.043016429227941126,-0.07358814912683824,0.004883961397058738,0.08537846305927632,0.12210586779753586,-0.04180356133993823,-0.003877608853332857,0.12912171212352605
93,1791617947.044204,0.06696662454044112,-0.07837818818933824,0.02404411764705874,0.10585739832250429,0.12365072029529824,-0.04233800862091247,-0.003951120714985555,0.1307578638493109
94,1791617947.0272212,0.07654670266544113,-0.03526783662683824,0.02883415670955874,0.08907652093812486,0.12365072029529824,-0.04233800862091247,-0.003951120714985555,0.1307578638493109
95,1791617947.0472212,0.06217658547794113,0.05095286649816177,9.392233455873811e-05,0.0803873821409812,0.12515794027638602,-0.04284551780250146,-0.003893421222337246,0.13234578625255292
96,1791617947.0852113,0.07175666360294113,-0.0017375631893382334,9.392233455873811e-05,0.07177775922016184,0.1279730785166915,-0.043524705184654046,-0.0037997255287886902,0.13522554011925583
97,1791617947.1052113,0.10049689797794113,-0.08316822725183824,9.392233455873811e-05,0.13044764984010654,0.1294911897787121,-0.04395598968067899,-0.003757516376890607,0.13679991296940577
98,1791617947.1148064,0.08612678079044113,-0.08795826631433824,-0.009486155790441262,0.1234684823508788,0.13024456845647675,-0.04425501403050602,-0.0037470627122983117,0.137608845494118
99,1791617947.1348064,0.08133674172794113,-0.05442799287683824,0.009674000459558739,0.09834458931944602,0.13183054385101317,-0.044998382335203854,-0.0037282599195528916,0.13934865132776433
100,1791617947.1458135,0.08612678079044113,-0.011317641314338234,0.02404411764705874,0.0901334065020862,0.1327107108483678,-0.045400405742483885,-0.0036916286275149803,0.14031021964698345
101,1791617947.1658134,0.12444709329044114,0.03658274931066177,0.02404411764705874,0.1319223111114723,0.13438595436839956,-0.04598341732042696,-0.0035629207660191047,0.14208009643984282
102,1791617947.2044177,0.09091681985294113,0.03658274931066177,0.02404411764705874,0.1009073103036865,0.13775804457992194,-0.046728116775808404,-0.0032125212145432814,0.14550297603984338
103,1791617947.2244177,0.07175666360294113,0.02221263212316177,0.01446403952205874,0.07649593607872415,0.1394870067430118,-0.046967863731051294,-0.0030004551624173525,0.1472127983728497
104,1791617947.2353683,0.06217658547794113,-0.04963795381433824,0.03362419577205874,0.0863738431580292,0.1404016631782175,-0.047101966045408124,-0.0028622652318085456,0.14811959624171828
105,1791617947.2553682,0.08612678079044113,-0.025687758501838236,0.009674000459558739,0.09039507503766454,0.14204405790802685,-0.04742313893309993,-0.002582787835210859,0.14977362680475056
106,1791617947.265368,0.09091681985294113,-0.011317641314338234,-0.019066233915441263,0.09358139992974293,0.1428748384342045,-0.04758738751767424,-0.002471056773973045,0.1506117028319431
107,1791617947.285368,0.10049689797794113,-0.08316822725183824,-0.014276194852941262,0.13122648462441286,0.14457431930496542,-0.04800834543648719,-0.0023311230366229703,0.15235474777195182
108,1791617947.3249023,0.10528693704044113,-0.08795826631433824,-0.004696116727941262,0.13727362906510598,0.1480399696104706,-0.0492230462617911,-0.0021522592043517396,0.156023629957908
109,1791617947.3449023,0.10049689797794113,-0.04005787568933824,9.392233455873811e-05,0.10818626867276694,0.14983889413717552,-0.049937398459228635,-0.002082250038319425,0.15795497373096407
110,1791617947.3549047,0.07654670266544113,-0.006527602251838234,-0.038226390165441264,0.08580946442665983,0.15073643357415037,-0.050276017932281813,-0.0020810951910827167,0.15891343978083075
111,1791617947.3749046,0.08133674172794113,-0.025687758501838236,-0.023856272977941264,0.08857001892381311,0.1524987118609775,-0.050899856817706604,-0.0021722563246472635,0.16078361620781031
112,1791617947.3854365,0.06217658547794113,-0.030477797564338233,0.004883961397058738,0.06941669111241518,0.15340087880648848,-0.0512234557787652,-0.0022280467100005037,0.1617424997725212
113,1791617947.4054365,0.06696662454044112,-0.020897719439338235,0.009674000459558739,0.07081546275353462,0.15505081881669247,-0.05182285359118758,-0.0022962633812378262,0.16349812658124396
114,1791617947.4449582,0.09091681985294113,-0.025687758501838236,0.01925407858455874,0.09641809275836812,0.15829016609153926,-0.05296773155134399,-0.002325098621315509,0.16693340992917255
115,1791617947.4649582,0.11007697610294113,-0.07358814912683824,0.004883961397058738,0.13249909221881187,0.15998503935494712,-0.053609106617976944,-0.0023012948752351983,0.16874372606969537
116,1791617947.4749584,0.10049689797794113,-0.06400807100183824,-0.009486155790441262,0.11952676189140905,0.16086331168600682,-0.05398489704731293,-0.0022946297667494247,0.16969572617353923
117,1791617947.4949584,0.10049689797794113,-0.020897719439338235,-0.023856272977941264,0.10538246031172385,0.16265782945863794,-0.05475108411051433,-0.0023333129479178416,0.1716411810865472
118,1791617947.5049942,0.11965705422794114,-0.020897719439338235,-0.014276194852941262,0.1223042723855258,0.16358893284086734,-0.055109336808700254,-0.0023785136980986063,0.17263845249225507
119,1791617947.5249941,0.12923713235294113,-0.030477797564338233,0.01925407858455874,0.1341709807123909,0.1655395088767883,-0.055793259297625304,-0.0024476143281340636,0.1747060605649375
120,1791617947.5649912,0.11965705422794114,-0.04484791475183824,0.01925407858455874,0.1292279599244566,0.16960187940106083,-0.05718180512650185,-0.0024495608986200472,0.17899876167865872
121,1791617947.5849912,0.11486701516544114,-0.030477797564338233,-0.009486155790441262,0.11921960605987166,0.17168029614086597,-0.057884967777082144,-0.0024357363800353964,0.18119251195698544
122,1791617947.595039,0.08133674172794113,-0.04963795381433824,-0.004696116727941262,0.09540254465219797,0.17271568964785824,-0.05824561017726287,-0.0024405203574263097,0.18228882767485222
123,1791617947.6150389,0.06696662454044112,-0.04005787568933824,0.009674000459558739,0.07863045524460882,0.17468996013108845,-0.058990336293844016,-0.0024411477044886127,0.18439740005970046
124,1791617947.654272,0.10049689797794113,-0.030477797564338233,-0.014276194852941262,0.10598269852688522,0.17847464407464497,-0.06043965279459458,-0.0024557356647233334,0.18844675864858315
125,1791617947.674272,0.11007697610294113,-0.025687758501838236,-0.023856272977941264,0.11552455741189527,0.180430430796258,-0.06115189856520992,-0.002519255362428833,0.1905283225744511
126,1791617947.6842535,0.09570685891544113,-0.011317641314338234,0.004883961397058738,0.09649738300756207,0.18141414509293194,-0.061481742498495,-0.0025604037891395403,0.1915663132390819
127,1791617947.7042534,0.13881721047794113,-0.020897719439338235,-0.019066233915441263,0.14167022932980883,0.18344136090732677,-0.06209184490258012,-0.002651759833417966,0.19368314827354577
128,1791617947.7149832,0.14839728860294113,-0.03526783662683824,-0.004696116727941262,0.15260284754015702,0.18459693610365058,-0.06241526001018289,-0.0027125420738030406,0.1948821474263257
129,1791617947.7349832,0.14360724954044113,-0.07358814912683824,0.004883961397058738,0.16143763777822157,0.1868658040561441,-0.06309095383573589,-0.0028085620172360855,0.19724904360238826
130,1791617947.775221,0.13881721047794113,-0.05442799287683824,-0.038226390165441264,0.15392816908726845,0.1915981361935917,-0.0646327989042828,-0.003073389133564186,0.20222930106150763
131,1791617947.795221,0.15318732766544113,-0.04484791475183824,-0.043016429227941265,0.16531214715921472,0.19403549052188124,-0.06543312183806795,-0.003307139211703319,0.20479795454376026
132,1791617947.804791,0.15318732766544113,-0.07837818818933824,0.009674000459558739,0.1723458268308638,0.19524671005099697,-0.0658470739832018,-0.00342614138055706,0.20607972579234207
133,1791617947.824791,0.09091681985294113,-0.08316822725183824,0.03841423483455874,0.12906771708800843,0.19776448173828523,-0.06682473982634443,-0.00356540508399965,0.20877990373473257
134,1791617947.8347914,0.06696662454044112,-0.08795826631433824,0.02404411764705874,0.11313401349192055,0.19895300384625297,-0.06736861849039928,-0.003577749026852791,0.2100800532769622
135,1791617947.8547914,0.10528693704044113,-0.030477797564338233,-0.004696116727941262,0.10971002127450821,0.20123177518590496,-0.06847082205968193,-0.0035697107554201425,0.21259168293439087
136,1791617947.894298,0.14360724954044113,0.0030524758731617667,-0.038226390165441264,0.1486392163414733,0.20579538617344556,-0.07040272193515704,-0.003683393625359761,0.21753586282439952
137,1791617947.914298,0.13402717141544113,-0.025687758501838236,-0.047806468290441266,0.14459807061256996,0.20817558948587025,-0.07126798415733558,-0.0038613612829606,0.22007069712843952
138,1791617947.9258616,0.13881721047794113,-0.07837818818933824,-0.02864631204044126,0.1619690387149305,0.20958197104949897,-0.07178347085455178,-0.004015128503962404,0.2215707348316168
139,1791617947.9458616,0.12923713235294113,-0.06879811006433824,0.009674000459558739,0.14672764774277533,0.21205162532867042,-0.07276207100241275,-0.004269645778770507,0.22422854558723593
140,1791617947.955848,0.14360724954044113,-0.0017375631893382334,0.01925407858455874,0.14490265970142796,0.21330415699770158,-0.07323024066734825,-0.004356002065180419,0.22556663382399827
141,1791617947.975848,0.11965705422794114,-0.0017375631893382334,0.03841423483455874,0.12568406100325535,0.21583125454860602,-0.07403242485640626,-0.004416505142989188,0.22821795697933733
142,1791617948.0144205,0.11965705422794114,-0.020897719439338235,-0.019066233915441263,0.12295546584024666,0.22066633549001677,-0.07541295596093213,-0.004459717322155666,0.2332394362537169
143,1791617948.0344205,0.14360724954044113,-0.05921803193933824,-0.06217658547794126,0.1673192912040771,0.2231921847468861,-0.0761415675078166,-0.004600626231097822,0.23586745302468884
144,1791617948.0444212,0.16276740579044113,-0.11669850068933825,-0.043016429227941265,0.2048467271752519,0.2244955446704053,-0.07658319627441056,-0.004739417129585861,0.23724606973181883
145,1791617948.0644212,0.15797736672794113,-0.15022877412683824,-0.023856272977941264,0.21930493549928382,0.22719221477145718,-0.07773430201261486,-0.0050756537397853825,0.2401763652465299
146,1791617948.0744348,0.15797736672794113,-0.12627857881433824,-0.009486155790441262,0.20246756534651164,0.22857714493658896,-0.07843184893911291,-0.005243789280796618,0.2417158733749019
147,1791617948.0944347,0.13881721047794113,-0.09753834443933825,0.009674000459558739,0.16993390728673174,0.2313735224268156,-0.07995179443845846,-0.00552895002106828,0.24486029813437934
148,1791617948.135002,0.15318732766544113,-0.03526783662683824,9.392233455873811e-05,0.15719474062137545,0.2370832080426312,-0.08297640920262342,-0.005990878077964514,0.25125569175660833
149,1791617948.1550019,0.18671760110294114,-0.04484791475183824,-0.023856272977941264,0.19350431462792567,0.23998575311730896,-0.08436407105773781,-0.006220096115098205,0.2544585384309162
150,1791617948.1653016,0.16755744485294113,-0.030477797564338233,-0.004696116727941262,0.17037149697746287,0.24152997332361975,-0.08502968921598714,-0.0063424893560681764,0.25613864064819986
151,1791617948.1853015,0.11965705422794114,0.02221263212316177,0.01925407858455874,0.12321497958644366,0.24450958373065054,-0.08614071283425762,-0.006522666728094831,0.2593216229414274
152,1791617948.1962914,0.12923713235294113,-0.011317641314338234,0.03841423483455874,0.13529958914075188,0.24610642373183073,-0.08665066005367399,-0.006559289728489027,0.26099757273114826
153,1791617948.2162914,0.11486701516544114,-0.07358814912683824,0.02404411764705874,0.13851991358052845,0.2489426879082458,-0.08756684208204381,-0.00652225341091478,0.2639752895343806
154,1791617948.2548478,0.11486701516544114,-0.05442799287683824,-0.014276194852941262,0.12790874606960223,0.25425464828152655,-0.08943832752370524,-0.006433317851467032,0.2696034647061835
155,1791617948.2748477,0.11965705422794114,-0.08795826631433824,-0.02864631204044126,0.15124509391398724,0.2569485455269174,-0.09047706864969944,-0.006458488721273231,0.27248920543097405
156,1791617948.2848465,0.12923713235294113,-0.11190846162683825,-0.047806468290441266,0.17751393909465848,0.25827996358164657,-0.09106836303499241,-0.006526517760837661,0.27394266145982515
157,1791617948.3048465,0.11007697610294113,-0.08795826631433824,-0.038226390165441264,0.14599607592696479,0.26090261494703526,-0.09237348313962343,-0.006771230080845755,0.27685534928975997
158,1791617948.314491,0.11007697610294113,-0.06879811006433824,-0.019066233915441263,0.13120076940365324,0.2621368644982129,-0.09302182928840308,-0.006912977641609731,0.2782383613253008
159,1791617948.334491,0.11965705422794114,-0.06879811006433824,0.004883961397058738,0.13811170715714582,0.264657026847935,-0.09437103688663633,-0.007184103707344282,0.2810708910739875
160,1791617948.3743286,0.13881721047794113,-0.025687758501838236,-0.009486155790441262,0.14149228252242696,0.2696961871770102,-0.09693768644185743,-0.007656897658983874,0.28669073321660915
161,1791617948.3943286,0.11007697610294113,-0.07837818818933824,0.009674000459558739,0.13547570755195318,0.27221989977172195,-0.09818905707028341,-0.007858372266997718,0.28949355567052687
162,1791617948.40486,0.12923713235294113,-0.07358814912683824,-0.014276194852941262,0.1494030180759564,0.27353850212372016,-0.09886918471809555,-0.007952184557877247,0.2909667765744947
163,1791617948.42486,0.18671760110294114,-0.04484791475183824,-0.019066233915441263,0.19297232779583584,0.27614094131889727,-0.10014471081882416,-0.008153631349878692,0.293852453251053
164,1791617948.434857,0.17713752297794114,-0.07837818818933824,0.02404411764705874,0.19518955408532893,0.2775194416686607,-0.10077903223534462,-0.008235487448531715,0.2953663438780606
165,1791617948.4548569,0.13402717141544113,-0.07358814912683824,0.04799431295955874,0.16025589675889587,0.2803303654244206,-0.10208566226312081,-0.008266628417189604,0.2984542399834136
166,1791617948.4948618,0.14839728860294113,-0.07837818818933824,0.01446403952205874,0.16844614595722754,0.28595691256729533,-0.10476316698849264,-0.008132176357916968,0.3046519477941916
167,1791617948.5148618,0.21066779641544114,-0.08795826631433824,-0.06217658547794126,0.2366083363731243,0.2888864929378264,-0.10615046852266723,-0.008146610134983991,0.3078793514125136
168,1791617948.5245366,0.15797736672794113,-0.12627857881433824,0.01925407858455874,0.2031596598929123,0.29035856673191396,-0.10687634978513676,-0.008183689959065547,0.30951191285530893
169,1791617948.5445366,0.16755744485294113,-0.08316822725183824,-0.009486155790441262,0.18730306591601842,0.2934335124360721,-0.10846599677010213,-0.008234192636876515,0.3129471210992098
170,1791617948.5545392,0.14839728860294113,-0.11190846162683825,-0.038226390165441264,0.18975382987826803,0.2949777350671462,-0.10928811966982695,-0.00829145566418975,0.3146815938744132
171,1791617948.5745392,0.10528693704044113,-0.12148853975183824,0.004883961397058738,0.1608373634492923,0.2979827512149432,-0.11103545732577515,-0.008438790882442428,0.31810973892153693
172,1791617948.6151617,0.13881721047794113,-0.15022877412683824,-0.019066233915441263,0.2054322851361195,0.3039144901501271,-0.11487999738570552,-0.008736367686305405,0.32501962285822333
173,1791617948.6351616,0.13402717141544113,-0.15980885225183822,9.392233455873811e-05,0.20857171610043107,0.30680611299071475,-0.11695394408298851,-0.0088893582019404,0.32846192579092093
174,1791617948.6441672,0.12923713235294113,-0.06400807100183824,-0.019066233915441263,0.14547436477918133,0.3080906543437695,-0.11789888787094421,-0.008960727397008632,0.33000044498555003
175,1791617948.6641672,0.11486701516544114,-0.04484791475183824,-0.014276194852941262,0.12413531475806948,0.31088166938537026,-0.11984596448764362,-0.009145466314207295,0.33330782636762746
176,1791617948.6741989,0.11965705422794114,-0.13106861787683824,9.392233455873811e-05,0.17747338403281213,0.3122480627591928,-0.12080845169429887,-0.00923489974257597,0.33493106465494954
177,1791617948.6941988,0.15318732766544113,-0.11190846162683825,0.009674000459558739,0.18995643559999828,0.31497285521259305,-0.12280397318673673,-0.009371804120250174,0.3381960172203247
178,1791617948.7347121,0.16755744485294113,-0.13585865693933824,-0.023856272977941264,0.21703039821970851,0.3206390278663872,-0.12699273319875923,-0.00965062103199889,0.3450067752417282
179,1791617948.754712,0.15797736672794113,-0.17417896943933822,-0.05738654641544126,0.24205036150094036,0.32350494136061514,-0.12921545624800446,-0.009889480937956009,0.34849660407432553
180,1791617948.7647173,0.15318732766544113,-0.21249928193933823,-0.014276194852941262,0.26234731163382013,0.3249570891771537,-0.13045076956444768,-0.010044824841163251,0.3503075956820447
181,1791617948.7847173,0.15797736672794113,-0.20770924287683823,0.01925407858455874,0.2616690610616856,0.3278911928801944,-0.1331800134539708,-0.010301304212720734,0.3540560227145977
182,1791617948.7957478,0.18192756204044114,-0.08795826631433824,0.02404411764705874,0.20350040303750802,0.3295478804257492,-0.13470406710615965,-0.010385720345316698,0.3561668911832426
183,1791617948.8157477,0.19150764016544114,-0.09274830537683824,-0.004696116727941262,0.2128367400246813,0.332661300991179,-0.13732398113008037,-0.01048679957001831,0.36004359449347273
184,1791617948.854835,0.15797736672794113,-0.10711842256433825,-0.03343635110294126,0.19377614514187677,0.33885788326944544,-0.14226213155353476,-0.010766500683057886,0.36766710032985356
185,1791617948.874835,0.13881721047794113,-0.14064869600183824,-0.014276194852941262,0.19813147996058997,0.34199811402804736,-0.14478149959433315,-0.010959718023703062,0.3715434134023698
186,1791617948.8858678,0.15318732766544113,-0.20770924287683823,0.01446403952205874,0.2584931244212199,0.34371217593677156,-0.1462510721695775,-0.011050161289765836,0.37369712610946176
187,1791617948.9058678,0.17234748391544114,-0.12148853975183824,-0.004696116727941262,0.21091508721601607,0.34684159984262586,-0.14900926773056594,-0.011174869446439207,0.37766087295103346
188,1791617948.914378,0.16276740579044113,-0.05442799287683824,-0.03343635110294126,0.17485315087647246,0.34818734022313963,-0.15011913249455383,-0.011244312279757258,0.3793370696243995
189,1791617948.934378,0.13402717141544113,-0.15501881318933822,-0.03343635110294126,0.20763454600652115,0.3513208115132573,-0.15265039206204972,-0.011483341730718208,0.3832235926144626
190,1791617948.9743772,0.12444709329044114,-0.14064869600183824,9.392233455873811e-05,0.18780080813687197,0.3574230256429272,-0.15784044220137822,-0.011989709933523912,0.3909073772626468
191,1791617948.9943771,0.12923713235294113,-0.13585865693933824,0.04799431295955874,0.19355429501985352,0.36039703899881625,-0.16046101358746517,-0.012132787983830263,0.39469097677156434
192,1791617949.004926,0.12923713235294113,-0.08316822725183824,0.009674000459558739,0.1539895343454112,0.3619348607115559,-0.161809168901874,-0.012151308558712721,0.3966443051887895
193,1791617949.024926,0.14360724954044113,-0.14064869600183824,-0.038226390165441264,0.2046126944074306,0.36482240591693094,-0.16431751580405102,-0.012223983964284894,0.40030620735006295
194,1791617949.0649502,0.15318732766544113,-0.18854908662683822,-0.03343635110294126,0.24522460113164285,0.37062514138224,-0.1695724908590511,-0.012562725991700724,0.4077691101163634
195,1791617949.0849502,0.14839728860294113,-0.17417896943933822,-0.023856272977941264,0.23006344868329817,0.37354218201116046,-0.17234858983365514,-0.012792542734370157,0.41158407076673786
196,1791617949.0949879,0.15318732766544113,-0.14543873506433824,-0.014276194852941262,0.21171346852260756,0.3750136347103177,-0.17377349243608003,-0.012919289840279537,0.4135206898597132
197,1791617949.1149879,0.16755744485294113,-0.10232838350183825,0.004883961397058738,0.19639360599233788,0.37798683328369614,-0.17655838645325492,-0.01314803962372411,0.4173964313560438
198,1791617949.1245465,0.15318732766544113,-0.08316822725183824,-0.004696116727941262,0.17437134195106455,0.3794246201177047,-0.17782271613681333,-0.01324083322788026,0.41923654467413357
199,1791617949.1445465,0.16755744485294113,-0.11190846162683825,-0.019066233915441263,0.20239200178132105,0.3824628219818754,-0.18036392477163993,-0.013441508936667006,0.4230716602655678
200,1791617949.1845453,0.17713752297794114,-0.16938893037683822,-0.004696116727941262,0.2451374416389557,0.3886616643226981,-0.18552771692432612,-0.013853932333996902,0.4308948299786823
201,1791617949.2045453,0.17234748391544114,-0.15022877412683824,0.004883961397058738,0.22868360865301166,0.391820477844817,-0.18820182009529246,-0.014028935735037208,0.43490231430009585
202,1791617949.2144704,0.14839728860294113,-0.12627857881433824,-0.014276194852941262,0.19537616147205059,0.3933916806438252,-0.18953563354683017,-0.014109746805598547,0.4368979923720064
203,1791617949.2344704,0.13881721047794113,-0.16459889131433822,-0.014276194852941262,0.21579347229762413,0.39651369394626995,-0.1922565354157279,-0.014290990392800379,0.44089671954255044
204,1791617949.2444701,0.16755744485294113,-0.16459889131433822,0.01446403952205874,0.23532424606668012,0.39807029325903104,-0.19365978335465278,-0.014367876200847712,0.4429113973819424
205,1791617949.26447,0.16276740579044113,-0.11669850068933825,-0.009486155790441262,0.20050375458472125,0.4012120619864943,-0.1964673074131063,-0.01449111837239981,0.44696813541604224
206,1791617949.305263,0.16755744485294113,-0.08795826631433824,-0.023856272977941264,0.19073876296932543,0.407669570926786,-0.2019608579917508,-0.014806793715881348,0.4551943632785215
207,1791617949.325263,0.17713752297794114,-0.09274830537683824,-0.009486155790441262,0.20017476701301887,0.4108777045739513,-0.2045212908520978,-0.014988361336421055,0.45921029768867194
208,1791617949.3346932,0.19629767922794114,-0.12627857881433824,0.01446403952205874,0.23385522610568357,0.41242758555914916,-0.20570237737332145,-0.015057609809464528,0.4611254850909454
209,1791617949.3546932,0.18671760110294114,-0.12148853975183824,-0.023856272977941264,0.22403582216482495,0.41579611392055427,-0.20820319944935908,-0.015196533956347562,0.4652589765460421
210,1791617949.3641636,0.19629767922794114,-0.15022877412683824,-0.06217658547794126,0.25488701659288965,0.41742397981855794,-0.20940276461639307,-0.015313558062096621,0.46725453643284576
211,1791617949.3841636,0.14839728860294113,-0.15501881318933822,0.02404411764705874,0.21594144414808647,0.42086312753502964,-0.21201391875544914,-0.015580821195337912,0.4715065597144221
212,1791617949.4251027,0.12923713235294113,-0.16938893037683822,0.03362419577205874,0.21569754902255775,0.42769940328307027,-0.21755317193849785,-0.01586876918914214,0.48011246601684304
213,1791617949.4451027,0.14839728860294113,-0.15022877412683824,-0.009486155790441262,0.21137745147493311,0.43095462229162906,-0.2203327763820928,-0.015952132747977823,0.48427563366534465
214,1791617949.455105,0.15797736672794113,-0.13106861787683824,-0.05259650735294127,0.21190144779157846,0.4325682557714941,-0.22172541306505614,-0.016034143761742878,0.4863481761724153
215,1791617949.475105,0.17234748391544114,-0.17896900850183822,-0.019066233915441263,0.24919286204029323,0.4358062656216247,-0.22455738710437453,-0.016281023262409204,0.49052848334901117
216,1791617949.4845214,0.14360724954044113,-0.17896900850183822,-0.009486155790441262,0.22965830112665664,0.43732523600550527,-0.22594351369558152,-0.01639998761082241,0.4925167946598486
217,1791617949.5045214,0.17713752297794114,-0.13106861787683824,-0.03343635110294126,0.2228781600201878,0.440548656723149,-0.2289110414714951,-0.016679146011149924,0.49675102190110976
218,1791617949.544937,0.14360724954044113,-0.13585865693933824,-0.023856272977941264,0.1991224210035861,0.44705763242708585,-0.23481735004564994,-0.017332309002117758,0.5052723261065438
219,1791617949.5649369,0.16276740579044113,-0.13585865693933824,-0.004696116727941262,0.21206804701659648,0.45025506463526355,-0.23770929639669525,-0.01764987751610772,0.5094574084253275
220,1791617949.5743074,0.17234748391544114,-0.16459889131433822,0.009674000459558739,0.23851632338014964,0.45176395632505895,-0.23907217160776315,-0.017772850570526376,0.5114313733915077
221,1791617949.5943074,0.15318732766544113,-0.15022877412683824,0.004883961397058738,0.21461336168062736,0.45498967392405454,-0.24201692690287724,-0.0179741101042195,0.5156654583342467
222,1791617949.6058865,0.17234748391544114,-0.11190846162683825,-0.02864631204044126,0.20747956571476406,0.45685978375940817,-0.2436937162966828,-0.018093787723458564,0.5181070106969822
223,1791617949.6258864,0.21066779641544114,-0.12148853975183824,-0.03343635110294126,0.2454758141093556,0.46017994358620756,-0.24650562182243782,-0.0183626186106338,0.5223674835126241
224,1791617949.6673043,0.20108771829044114,-0.11669850068933825,-0.019066233915441263,0.23327737092592932,0.46730333903090215,-0.25219519536451623,-0.01899892156653547,0.531352788884248
225,1791617949.6873043,0.15797736672794113,-0.14064869600183824,0.004883961397058738,0.21157210866331097,0.47076573940022776,-0.2549165057207155,-0.01928136600306797,0.5357000815352252
226,1791617949.695374,0.16276740579044113,-0.17417896943933822,0.004883961397058738,0.2384436932729151,0.4721473458953358,-0.2560403631656661,-0.01937232266407872,0.5374523892322158
227,1791617949.715374,0.17713752297794114,-0.13106861787683824,-0.004696116727941262,0.22040584872282248,0.4755677362640444,-0.2588657857329617,-0.019563652913053144,0.5418107633793867
228,1791617949.7259922,0.21545783547794115,-0.13585865693933824,-0.043016429227941265,0.25832163424251336,0.4774239201917083,-0.2603533981974921,-0.019687991983379328,0.5441554084565715
229,1791617949.7459922,0.17234748391544114,-0.14064869600183824,-0.02864631204044126,0.2242907088858544,0.48097741826209134,-0.2631498585870525,-0.019994555535729958,0.5486227366811586
230,1791617949.7844362,0.13402717141544113,-0.11190846162683825,0.004883961397058738,0.17467295022480592,0.48766675507894963,-0.2684471195493272,-0.02056395561541691,0.5570508022381045
231,1791617949.8044362,0.14360724954044113,-0.12627857881433824,0.01925407858455874,0.1921979217631656,0.49104123598209126,-0.27114685246960063,-0.020779537724724403,0.5613144397100831
232,1791617949.814378,0.16755744485294113,-0.15022877412683824,0.02404411764705874,0.22632344442130733,0.4926990629571419,-0.2724937380316448,-0.02083834241174481,0.5634176429787884
233,1791617949.834378,0.18671760110294114,-0.15980885225183822,-0.043016429227941265,0.2495049999563323,0.4960652720787966,-0.27526189760138303,-0.02096735377840316,0.5677054662042577
234,1791617949.8447568,0.15318732766544113,-0.19333912568933823,-0.06217658547794126,0.2543861290662144,0.49781469670308554,-0.27675783051871583,-0.021106144414682667,0.569964769384095
235,1791617949.8647568,0.15318732766544113,-0.22207936006433823,-0.03343635110294126,0.271852145658158,0.5011397227090824,-0.2798312161846914,-0.021476895361031402,0.574375999030851
236,1791617949.9046364,0.19629767922794114,-0.18854908662683822,0.01925407858455874,0.27286307276769967,0.5078205506845671,-0.2862684212546325,-0.022147693523227457,0.5833711006157192
237,1791617949.9246364,0.20587775735294114,-0.16938893037683822,0.057574391084558744,0.27275093256603833,0.5112717375122927,-0.28954939968200477,-0.022318400867580968,0.5879929892884218
238,1791617949.9346418,0.13881721047794113,-0.13585865693933824,0.009674000459558739,0.19447719371465988,0.5129979589710277,-0.29117364117199984,-0.022340527370084007,0.590294921530733
239,1791617949.9546418,0.12444709329044114,-0.12148853975183824,-0.03343635110294126,0.17710034978664752,0.5163258231979672,-0.29431935881534194,-0.022413765300903086,0.5947424800276977
240,1791617949.9643242,0.19150764016544114,-0.16459889131433822,-0.05259650735294127,0.25794255920528786,0.5179246900907447,-0.2958215827467028,-0.022506378387607794,0.5968776511920048
241,1791617949.9843242,0.21545783547794115,-0.19812916475183823,-0.038226390165441264,0.29519231307603716,0.5213423615269807,-0.29900321643597577,-0.02280521879889986,0.6014323398072752
242,1791617950.0248623,0.19150764016544114,-0.15022877412683824,9.392233455873811e-05,0.24340063606899962,0.5284678838839733,-0.30554388876060967,-0.02343601815316836,0.6108883852248593
243,1791617950.0448623,0.13402717141544113,-0.15022877412683824,0.02883415670955874,0.20337988063333112,0.5319443337349457,-0.30873746094217175,-0.023657157123260435,0.6155024411526643
244,1791617950.0551085,0.15797736672794113,-0.19333912568933823,-0.009486155790441262,0.24985366331573497,0.5336826105042659,-0.3103921787059892,-0.023738587514268415,0.6178381292002552
245,1791617950.0751085,0.20587775735294114,-0.18375904756433822,-0.038226390165441264,0.2785934231806447,0.5371124331182902,-0.31370322998211453,-0.02394526049319445,0.6224731783872685
246,1791617950.0851014,0.18671760110294114,-0.14064869600183824,9.392233455873811e-05,0.2337638275483602,0.5388633007516015,-0.31535255181769395,-0.02406161255171258,0.6248198540646984
247,1791617950.1051013,0.14839728860294113,-0.15501881318933822,0.02404411764705874,0.21594144414808647,0.5423445780500681,-0.3186019066841137,-0.024223345603661742,0.6294692897634431
248,1791617950.1444333,0.16755744485294113,-0.13585865693933824,-0.019066233915441263,0.21655621271791195,0.5490959414783342,-0.32489161148816165,-0.02447901562367671,0.6384826813385441
249,1791617950.1644332,0.16276740579044113,-0.16459889131433822,-0.047806468290441266,0.23637149113220998,0.5525094930308838,-0.3280608246924485,-0.024689829915651603,0.6430398372483601
250,1791617950.1744337,0.13881721047794113,-0.21728932100183823,-0.047806468290441266,0.26224096811276815,0.5541865206503803,-0.3296942340737491,-0.024851143315451775,0.6453205149196294
251,1791617950.1944337,0.13402717141544113,-0.22207936006433823,0.01925407858455874,0.26010237289642396,0.5574465978486655,-0.33312995001327567,-0.02516819156299947,0.649888998918624
252,1791617950.2044418,0.16276740579044113,-0.17896900850183822,0.01446403952205874,0.24234756617547626,0.5590560299660452,-0.33489234275775087,-0.025277737232161143,0.6521774987522558
253,1791617950.2244418,0.18192756204044114,-0.13106861787683824,0.009674000459558739,0.22443307845996038,0.5623068904255171,-0.33835103970238767,-0.025427607005984763,0.6567473093098684
254,1791617950.2654111,0.19150764016544114,-0.09753834443933825,-0.004696116727941262,0.21496734261283856,0.5691147439565958,-0.3450757639630158,-0.025673264692747656,0.6660540452421444
255,1791617950.2854111,0.20108771829044114,-0.11669850068933825,-0.014276194852941262,0.23293479828027938,0.5725285125433756,-0.3481875010657226,-0.025803657248861404,0.6705887430466898
256,1791617950.2944393,0.19629767922794114,-0.15022877412683824,-0.02864631204044126,0.24884146487160574,0.5741074466510926,-0.34956221096668266,-0.025882752165912237,0.6726537121698167
257,1791617950.3144393,0.21545783547794115,-0.20291920381433823,-0.03343635110294126,0.29785276852929143,0.57769819303672,-0.35268049443594235,-0.026124810837707627,0.6773486835705655
258,1791617950.3247993,0.20587775735294114,-0.21249928193933823,-0.014276194852941262,0.296218509781023,0.5796065783974853,-0.3543762565323713,-0.02626846205565836,0.6798649490996774
259,1791617950.3447993,0.19150764016544114,-0.17896900850183822,0.01925407858455874,0.2628227573632228,0.5833341725574571,-0.35774607627878746,-0.02649671606563243,0.6848087966202128
260,1791617950.3843713,0.17234748391544114,-0.18375904756433822,0.009674000459558739,0.2521202670525071,0.5906831693866026,-0.36449001891477645,-0.026794740666240876,0.6946060312237916
261,1791617950.4043713,0.17713752297794114,-0.15501881318933822,-0.02864631204044126,0.23712685567626013,0.594364498018359,-0.36789535781849775,-0.026951229363071764,0.699530213481303
262,1791617950.4165602,0.18192756204044114,-0.17896900850183822,-0.023856272977941264,0.2563136078995956,0.5965997797945132,-0.36996474400767465,-0.027080291284146657,0.7025229898270662
263,1791617950.4365602,0.15318732766544113,-0.20770924287683823,-0.038226390165441264,0.26090370606572294,0.600220019132929,-0.37343095225608247,-0.027353419005570805,0.7074340654803899
264,1791617950.4755628,0.16276740579044113,-0.16938893037683822,-0.014276194852941262,0.23535005388025435,0.6071452109117815,-0.3802796766120665,-0.027959740000509926,0.7169516626929501
265,1791617950.4955628,0.18192756204044114,-0.18375904756433822,-0.03343635110294126,0.2607355268597098,0.6106807176934191,-0.3837945332456424,-0.028295584261978073,0.7218239555463067
266,1791617950.5045726,0.16755744485294113,-0.19812916475183823,-0.019066233915441263,0.26018106104523786,0.6122706888424703,-0.3853984931439096,-0.028459663221974702,0.7240285542462656
267,1791617950.5245726,0.14839728860294113,-0.17896900850183822,-0.023856272977941264,0.23371089625696465,0.6157446170992484,-0.3889905307884574,-0.028833635131883095,0.7288939875213023
268,1791617950.5350208,0.13881721047794113,-0.13585865693933824,-0.03343635110294126,0.1970933336399711,0.6175122797340364,-0.3908322779844148,-0.029044592666665276,0.7313787483240036
269,1791617950.5550208,0.14839728860294113,-0.10232838350183825,-0.014276194852941262,0.1808221863441625,0.6208192123744104,-0.39418621029316064,-0.0294594041482936,0.7359803797189431
270,1791617950.595239,0.16276740579044113,-0.15501881318933822,-0.014276194852941262,0.2252284852541086,0.6274102424328076,-0.40069524267297196,-0.030254553843055018,0.745060821570017
271,1791617950.615239,0.13881721047794113,-0.20770924287683823,-0.009486155790441262,0.2500066692170969,0.6306486123654558,-0.4039906676941173,-0.030626302892661397,0.749575948314303
272,1791617950.624207,0.12444709329044114,-0.20291920381433823,-0.009486155790441262,0.2382294470815168,0.6320599755044485,-0.4055228955006986,-0.030780754215350516,0.7515956933352003
273,1791617950.644207,0.13881721047794113,-0.17417896943933822,0.004883961397058738,0.22278326777106688,0.6351302555270292,-0.4089930375691472,-0.03108043586289424,0.7560633172951157
274,1791617950.6541903,0.17234748391544114,-0.18375904756433822,9.392233455873811e-05,0.2519346176989992,0.636665930613593,-0.41073339181712537,-0.031203860821688217,0.7583001432729997
275,1791617950.6741903,0.17234748391544114,-0.15980885225183822,-0.009486155790441262,0.23522863690825066,0.6397979844955594,-0.41421229135627635,-0.03142812235308165,0.7628243638937059
276,1791617950.714475,0.14360724954044113,-0.15022877412683824,-0.004696116727941262,0.20787924429472404,0.646114978495252,-0.42110524167017727,-0.031854929772507486,0.7718866021306691
277,1791617950.734475,0.18192756204044114,-0.11669850068933825,-0.019066233915441263,0.21697856845512728,0.6492690310776387,-0.4244144347142429,-0.03207068460112822,0.7763416876099668
278,1791617950.7456658,0.19629767922794114,-0.13106861787683824,-0.02864631204044126,0.23776537312219928,0.6510865913530264,-0.4261962861616534,-0.03221334641768128,0.7788419117286346
279,1791617950.7656658,0.17713752297794114,-0.20770924287683823,-0.06696662454044126,0.28107892205850377,0.6544077833356262,-0.42941124721739893,-0.03257348198753409,0.783393003450913
280,1791617950.7746522,0.14839728860294113,-0.21249928193933823,-0.047806468290441266,0.2635586433791234,0.6558956368821254,-0.43092233717537864,-0.03278838233262265,0.7854732491776469
281,1791617950.7946522,0.13881721047794113,-0.17417896943933822,-0.009486155790441262,0.22293164528955384,0.6591410759162479,-0.4343609287202696,-0.033280854689807654,0.7900911274325565
282,1791617950.834286,0.14839728860294113,-0.15501881318933822,0.01446403952205874,0.21508555541140187,0.6654615644207472,-0.44113156689652727,-0.03409559595196576,0.7991236842299277
283,1791617950.854286,0.19629767922794114,-0.18375904756433822,-0.023856272977941264,0.2699431202909725,0.668689634218651,-0.4445438423667844,-0.034459148771075025,0.8037116943479949
284,1791617950.864286,0.16755744485294113,-0.19812916475183823,0.02404411764705874,0.2605931366025074,0.6703344549655713,-0.4462804753277331,-0.03461351783582898,0.8060475418917349
285,1791617950.884286,0.19150764016544114,-0.16938893037683822,0.02883415670955874,0.25729204140256035,0.6736692473492167,-0.4497840279783,-0.03479662791001875,0.8107692223822711
286,1791617950.8943136,0.20587775735294114,-0.18854908662683822,-0.014276194852941262,0.2795357200430217,0.675389316880205,-0.4515463516537732,-0.0348637162622837,0.8131791412470932
287,1791617950.9143136,0.22982795266544115,-0.23644947725183824,9.392233455873811e-05,0.32974118932954183,0.6789589282177756,-0.4551715362181109,-0.034998725295709826,0.8181633482148355
288,1791617950.9575174,0.18671760110294114,-0.21728932100183823,0.004883961397058738,0.2865344039762152,0.6868630493062571,-0.46329821569377894,-0.03523049432425986,0.829257060806636
289,1791617950.9775174,0.17713752297794114,-0.16459889131433822,-0.02864631204044126,0.24349765555788885,0.6905189707378366,-0.4670687597297484,-0.03535733504717797,0.8343978765588783
290,1791617950.9844835,0.13881721047794113,-0.16938893037683822,-0.014276194852941262,0.2194689896057425,0.6917664165622534,-0.4683595622784238,-0.035417312758851974,0.8361553926777464
291,1791617951.0044835,0.11486701516544114,-0.20291920381433823,0.009674000459558739,0.2333757072502495,0.6951911876731124,-0.4720680760796563,-0.03557058461026498,0.8410733156874118
292,1791617951.0142314,0.12444709329044114,-0.20770924287683823,9.392233455873811e-05,0.2421367742130758,0.6967849970555279,-0.47390468479834524,-0.03562694223386852,0.8434241290172023
293,1791617951.0342314,0.11486701516544114,-0.15501881318933822,-0.009486155790441262,0.19317155786328677,0.6999234902007567,-0.47765172835518216,-0.0357393153935772,0.8481281532883477
294,1791617951.0757718,0.11965705422794114,-0.15022877412683824,-0.023856272977941264,0.1935345368727739,0.706195065965096,-0.4852180215658883,-0.03604158591073445,0.857582063455575
295,1791617951.0957718,0.11965705422794114,-0.19333912568933823,-0.019066233915441263,0.22816956287932993,0.7091206159861766,-0.48882980219661637,-0.03622967077370037,0.8620436256806081
296,1791617951.1047869,0.10049689797794113,-0.20291920381433823,-0.023856272977941264,0.22769486498432873,0.7103903683017061,-0.4904815475453838,-0.03633075512075443,0.8640292516032038
297,1791617951.1247869,0.16755744485294113,-0.20291920381433823,-0.009486155790441262,0.26332809905889626,0.7131868553440981,-0.4942050449702643,-0.03657138617380125,0.8684535585719813
298,1791617951.1643095,0.21545783547794115,-0.21728932100183823,-0.009486155790441262,0.3061481913093069,0.7190194875135748,-0.5017050377461234,-0.03703181525435301,0.8775353688969781
299,1791617951.1843095,0.18671760110294114,-0.19333912568933823,0.02404411764705874,0.2698547751613456,0.722131555997958,-0.5055469720764221,-0.03720802394241628,0.8822902936048713
300,1791617951.1949906,0.16276740579044113,-0.15501881318933822,0.04320427389705874,0.22889008303846006,0.7238242453376705,-0.5075700807055763,-0.03723414199834249,0.8848363161039822
301,1791617951.2149906,0.16276740579044113,-0.12627857881433824,-0.004696116727941262,0.20606203281400873,0.7270066095281655,-0.5112119798933132,-0.03721794897735179,0.8895287934688572
302,1791617951.224214,0.20108771829044114,-0.15501881318933822,-0.023856272977941264,0.25502200816848103,0.7285057885183633,-0.5128341853384846,-0.03723135274333887,0.8916870298393088
303,1791617951.244214,0.20108771829044114,-0.16938893037683822,-0.009486155790441262,0.2630947877346598,0.7318722240663298,-0.5163107224856702,-0.037306071143286094,0.8964404372057402
304,1791617951.254989,0.16276740579044113,-0.16459889131433822,-0.004696116727941262,0.23153418089340913,0.7337078576270233,-0.5181726388679673,-0.03735174794987487,0.8990134910500176
305,1791617951.274989,0.11007697610294113,-0.15980885225183822,-0.009486155790441262,0.1942827760705973,0.7370132883337411,-0.521596882174638,-0.03744508776254263,0.9036891220283455
306,1791617951.3154607,0.14360724954044113,-0.17896900850183822,-0.02864631204044126,0.23124350654282144,0.7434688328535669,-0.5285150825348122,-0.037721383868204415,0.9129605690786194
307,1791617951.3354607,0.14360724954044113,-0.16459889131433822,-0.004696116727941262,0.21849002415396981,0.7466112749561601,-0.5319363910426573,-0.0378874543284305,0.9175075908147239
308,1791617951.3444734,0.10528693704044113,-0.09753834443933825,0.02404411764705874,0.14552383770623425,0.7479831968562428,-0.5334240816237446,-0.03793798764217768,0.9194886647162966
309,1791617951.3644733,0.09570685891544113,-0.10711842256433825,0.004883961397058738,0.1437289545466057,0.7508724414670278,-0.5365371865352485,-0.03798991279486083,0.9236475568981798
310,1791617951.3754652,0.12444709329044114,-0.18375904756433822,-0.019066233915441263,0.22275095480358956,0.7524036509610535,-0.5382312763857504,-0.038025861422123636,0.9258780303021837
311,1791617951.3954651,0.14360724954044113,-0.20770924287683823,-0.02864631204044126,0.25413929820190784,0.7551739073445068,-0.5414385649807,-0.03815302847583391,0.9299994642816776
312,1791617951.4350662,0.12444709329044114,-0.18854908662683822,-0.023856272977941264,0.2271716506447333,0.7606325245931929,-0.5480135046409226,-0.038522993669246226,0.938277496148704
313,1791617951.4550662,0.12444709329044114,-0.19333912568933823,-0.014276194852941262,0.23037123581349436,0.763349144715236,-0.5514088313112453,-0.03873901124480801,0.9424724542275711
314,1791617951.4640799,0.12444709329044114,-0.19333912568933823,-0.014276194852941262,0.23037123581349436,0.7645580876407541,-0.5529709188840062,-0.03884106548885467,0.94436991421615
315,1791617951.4840798,0.11965705422794114,-0.13106861787683824,-0.009486155790441262,0.17772670134319607,0.7672043413362656,-0.5564036678549269,-0.03906918594132798,0.9485325214549826
316,1791617951.4950752,0.14360724954044113,-0.13106861787683824,0.004883961397058738,0.19448876006505653,0.7686580494176354,-0.5582239792268926,-0.03917958285941947,0.9507808620452288
317,1791617951.5150752,0.14360724954044113,-0.15980885225183822,9.392233455873811e-05,0.2148532527099027,0.7713364507175926,-0.5614746808043165,-0.03934280086011052,0.9548620808103339
318,1791617951.554591,0.12923713235294113,-0.17896900850183822,-0.023856272977941264,0.22203887980113013,0.7766432356368519,-0.567938004153012,-0.039687336485336566,0.9629659270706755
319,1791617951.574591,0.11007697610294113,-0.20770924287683823,-0.043016429227941265,0.2389779977905065,0.7792852276515663,-0.5712985942271502,-0.03993586741665935,0.9670896666329304
320,1791617951.5845895,0.11007697610294113,-0.17896900850183822,9.392233455873811e-05,0.21011153108171726,0.7805730053199027,-0.5730166076214355,-0.040073665196971364,0.9691481557978852
321,1791617951.6045895,0.14360724954044113,-0.15980885225183822,0.009674000459558739,0.21507091310428736,0.7831430665474705,-0.5764458145568375,-0.04029330306873212,0.9732555625701095
322,1791617951.6152873,0.15318732766544113,-0.14064869600183824,-0.009486155790441262,0.20817876980128702,0.7845496968571442,-0.5782460018814507,-0.040393012623802356,0.9754579750042265
323,1791617951.6352873,0.12923713235294113,-0.15501881318933822,-0.014276194852941262,0.20232863999177603,0.7872086151051326,-0.5815501877417963,-0.040587104976397545,0.9795638507257323
324,1791617951.675443,0.13881721047794113,-0.19333912568933823,-0.009486155790441262,0.23820206254118637,0.7925536616502462,-0.5882383070090357,-0.040989910676377035,0.9878490700533796
325,1791617951.695443,0.17234748391544114,-0.15980885225183822,-0.014276194852941262,0.23547045294370214,0.7952832456420561,-0.5915994587033547,-0.04119608286127666,0.9920496346353737
326,1791617951.704816,0.17234748391544114,-0.13106861787683824,0.01446403952205874,0.21700655806547312,0.7966129219033932,-0.593142893710223,-0.04127808173961338,0.9940394960636628
327,1791617951.724816,0.18671760110294114,-0.20291920381433823,0.03841423483455874,0.27841573101426326,0.7995631291162144,-0.5964431754848579,-0.04134748430558669,0.9983763185707951
328,1791617951.734441,0.16276740579044113,-0.22686939912683823,-0.02864631204044126,0.2806840997303572,0.8010222275332818,-0.5981034446952939,-0.04136882300750821,1.0005377149691976
329,1791617951.754441,0.12923713235294113,-0.17896900850183822,-0.07654670266544127,0.23364832563469,0.8040373515928825,-0.6016446352545092,-0.04156430164331759,1.0050770721980105
330,1791617951.7944877,0.13402717141544113,-0.20291920381433823,-0.004696116727941262,0.24323145246162434,0.8099597654514813,-0.6088186940793675,-0.04214101651213302,1.014135537876176
331,1791617951.8144877,0.15797736672794113,-0.18375904756433822,0.004883961397058738,0.24238005082715672,0.8129118606412344,-0.6124441280886729,-0.042385552555710936,1.0186805378856227
332,1791617951.8251085,0.13402717141544113,-0.13585865693933824,0.02883415670955874,0.19300846078899295,0.8144769943630505,-0.6143351930094797,-0.042469074069444085,1.021070088666287
333,1791617951.8451085,0.15797736672794113,-0.16459889131433822,0.01925407858455874,0.22895493653193874,0.8174201949582208,-0.6178127671583833,-0.04253062851719182,1.025513161666637
334,1791617951.8850942,0.14360724954044113,-0.19333912568933823,-0.02864631204044126,0.242535916590526,0.8233262760191329,-0.6247959579589822,-0.04266340025195411,1.0344352621534487
335,1791617951.9050941,0.11007697610294113,-0.15501881318933822,-0.023856272977941264,0.19161653078739438,0.8262177844437453,-0.6282874122280034,-0.04279860222910978,1.0388515871134134
336,1791617951.9142127,0.10528693704044113,-0.17417896943933822,0.01925407858455874,0.20443671893387474,0.8274856424543411,-0.6298656227226964,-0.042854145676573155,1.0408168277644212
337,1791617951.9342127,0.13881721047794113,-0.15501881318933822,-0.004696116727941262,0.20814202814383836,0.8302155018905967,-0.6333017214076546,-0.04293585997536412,1.0450704942678164
338,1791617951.9441392,0.15797736672794113,-0.15980885225183822,-0.07175666360294126,0.2358913657338266,0.8315881336603829,-0.6349857262411314,-0.043027251999251004,1.04718529448677
339,1791617951.9641392,0.14839728860294113,-0.16459889131433822,-0.02864631204044126,0.22346176737896856,0.8343984313728561,-0.6383563235829215,-0.04333437210192523,1.0514739207138017
340,1791617952.00519,0.16276740579044113,-0.16938893037683822,0.01446403952205874,0.23536152311126635,0.8402594460188441,-0.6452651357711194,-0.04391385518719996,1.0603449715743545
341,1791617952.0251899,0.18192756204044114,-0.18854908662683822,-0.014276194852941262,0.26239703816406285,0.8432036626817577,-0.6486631329305828,-0.044153550074863344,1.0647562222252864
342,1791617952.0343437,0.19150764016544114,-0.23165943818933823,-0.047806468290441266,0.3043463979651162,0.8446054544299941,-0.6502735745248049,-0.044289422782260605,1.0668531521950664
343,1791617952.0543437,0.16755744485294113,-0.24123951631433824,-0.07175666360294126,0.30235909169173,0.8477473775115698,-0.6539737405859798,-0.044721102185420386,1.0716143179495323
344,1791617952.0643282,0.16276740579044113,-0.20770924287683823,-0.06696662454044126,0.27225151380030915,0.8493279849185602,-0.6558800635537498,-0.045008162744029794,1.0740402312980115
345,1791617952.0843282,0.15797736672794113,-0.23644947725183824,-0.038226390165441264,0.28692587996910024,0.852500304827864,-0.6597920800998439,-0.04565471250809609,1.0789655747373392
346,1791617952.12492,0.17234748391544114,-0.22686939912683823,-0.043016429227941265,0.28813849561569926,0.8589786652335842,-0.6679514120552346,-0.047017441493557674,1.089134553669863
347,1791617952.1449199,0.20108771829044114,-0.24602955537683824,-0.03343635110294126,0.31950712377231855,0.8622519824200785,-0.672077922769073,-0.047702837255165914,1.0942772848520343
348,1791617952.1549258,0.19629767922794114,-0.18854908662683822,-0.023856272977941264,0.273226387266107,0.8639421878300115,-0.6741588630925333,-0.04803729911717191,1.0969019366858628
349,1791617952.1749258,0.14360724954044113,-0.15501881318933822,0.02883415670955874,0.21327279047349867,0.8673236823028095,-0.6782097056816634,-0.04859807876249639,1.1020801005478318
350,1791617952.18696,0.12444709329044114,-0.19812916475183823,0.009674000459558739,0.23417051744101425,0.8692950939634443,-0.6806002598684667,-0.048850135168081434,1.1051140257131287
351,1791617952.20696,0.13881721047794113,-0.24123951631433824,0.009674000459558739,0.27849651423553656,0.8724748887602636,-0.6846363092746607,-0.04917717863456001,1.1101160760897568
352,1791617952.2448978,0.12923713235294113,-0.20291920381433823,0.004883961397058738,0.2406289524026245,0.8783645732142973,-0.6924076626249747,-0.04966306853699932,1.1195620193255156
353,1791617952.2648978,0.11007697610294113,-0.18375904756433822,0.02404411764705874,0.2155514969169683,0.8813627147365143,-0.6964700269729661,-0.049837403980680206,1.124435191656227
354,1791617952.2748916,0.10049689797794113,-0.16938893037683822,0.02883415670955874,0.1990568884277795,0.8827939673704691,-0.6984601581263155,-0.049871816531109045,1.1267914533753098
355,1791617952.2948916,0.15318732766544113,-0.14064869600183824,0.009674000459558739,0.20818741395480245,0.8856091320292468,-0.702310535606265,-0.04987259197299302,1.131384505191431
356,1791617952.3048954,0.15318732766544113,-0.17417896943933822,0.004883961397058738,0.23200974943126226,0.8870359018440559,-0.7041837808736939,-0.04986199903546597,1.1336638423067398
357,1791617952.3248954,0.16755744485294113,-0.16459889131433822,-0.019066233915441263,0.2356518907695715,0.8899416023229866,-0.70787524980009,-0.04986527129705115,1.1382310706118828
358,1791617952.3645973,0.16276740579044113,-0.23165943818933823,-0.023856272977941264,0.28412751617952814,0.8958280798086297,-0.7152839076238293,-0.04999860070037047,1.1474488560067617
359,1791617952.3845973,0.15318732766544113,-0.25560963350183824,9.392233455873811e-05,0.29799773643037664,0.8988225438357809,-0.7191871257219361,-0.050091334545436614,1.152224469844373
360,1791617952.3941696,0.16755744485294113,-0.26518971162683824,-0.004696116727941262,0.3137246148944875,0.9002710260637856,-0.721148932070525,-0.05013236469901952,1.154580857535199
361,1791617952.4141695,0.17713752297794114,-0.2603996725643382,-0.043016429227941265,0.3178617698023744,0.9033605174770148,-0.7254214090026133,-0.05027680144501589,1.1596655560717575
362,1791617952.4245522,0.16276740579044113,-0.19812916475183823,-0.02864631204044126,0.258009700411689,0.9049884797691271,-0.7276637515123228,-0.050396339756811535,1.1623418063722508
363,1791617952.4445522,0.15318732766544113,-0.21249928193933823,-0.02864631204044126,0.2635202333323419,0.9081279473342696,-0.7319511818884217,-0.050678004067937446,1.1674832596203344
364,1791617952.4855626,0.15318732766544113,-0.23165943818933823,0.004883961397058738,0.27777023911572496,0.9145422003062326,-0.7407900616422203,-0.05124201657881515,1.178042060298321
365,1791617952.5055625,0.18671760110294114,-0.30351002412683825,0.04320427389705874,0.35895460240827537,0.917710949841978,-0.745256785344956,-0.051403683727630066,1.183318808378931
366,1791617952.514291,0.15318732766544113,-0.24123951631433824,0.05278435202205874,0.2906011861765945,0.9191089494341654,-0.7472703827751328,-0.05140081827695977,1.1856712571460986
367,1791617952.534291,0.10528693704044113,-0.16938893037683822,0.03362419577205874,0.20225858544666256,0.9222194603719274,-0.75180808773467,-0.051265624712564815,1.1909375710544696
368,1791617952.5443559,0.11007697610294113,-0.13106861787683824,-0.019066233915441263,0.17221917586561153,0.9237125707209294,-0.7539759231016178,-0.051196805570713766,1.19345955894008
369,1791617952.5643559,0.14839728860294113,-0.22686939912683823,-0.10528693704044127,0.2908209391296216,0.9266222146281602,-0.7581744044570411,-0.051267096415317945,1.1983678364304686
370,1791617952.6051538,0.19150764016544114,-0.2891399069393382,-0.10528693704044127,0.36243951376468747,0.9327073451201557,-0.7670331211648859,-0.05203329838912199,1.208714302366894
371,1791617952.6251538,0.10528693704044113,-0.2603996725643382,0.01446403952205874,0.2812517324786961,0.9356881326552482,-0.7715487437651128,-0.05248879917411192,1.213900663001767
372,1791617952.6354227,0.05259650735294113,-0.18375904756433822,0.03362419577205874,0.19407309625189792,0.9371106341687047,-0.7738615735203522,-0.05265055719753793,1.2164744784896553
373,1791617952.6554227,0.09570685891544113,-0.17417896943933822,0.009674000459558739,0.19897663813448455,0.9396880091996875,-0.7782273191905833,-0.052853396840756454,1.2212472298948485
374,1791617952.6664183,0.17234748391544114,-0.18854908662683822,-0.02864631204044126,0.2570506262846222,0.9411135110100824,-0.7805666274157534,-0.052963832695187216,1.223839886592479
375,1791617952.6864183,0.19150764016544114,-0.21249928193933823,-0.004696116727941262,0.2860999380964507,0.9438632155967627,-0.784784928472071,-0.05318458760706497,1.2286552625014504
376,1791617952.7250104,0.14839728860294113,-0.21728932100183823,0.004883961397058738,0.26317343590315584,0.9493570104544732,-0.7929476250446847,-0.05354611856916463,1.2381081762822197
377,1791617952.7450104,0.13402717141544113,-0.18854908662683822,0.04320427389705874,0.23533093725307572,0.9522006866752433,-0.7971520845349158,-0.053633242207121186,1.2429859686467963
378,1791617952.7550051,0.16755744485294113,-0.19812916475183823,-0.009486155790441262,0.2596548678584478,0.9536346847581841,-0.7992278988498438,-0.05364497503144304,1.2454164482693737
379,1791617952.775005,0.22503791360294115,-0.2603996725643382,-0.014276194852941262,0.3444616985527687,0.9566626533227972,-0.8034464277319115,-0.05370057479225251,1.2504452591900224
380,1791617952.7850082,0.20108771829044114,-0.2508195944393382,9.392233455873811e-05,0.3214758905787102,0.9582696318016197,-0.8056233911200408,-0.05373485200558151,1.2530750854889054
381,1791617952.8050082,0.14360724954044113,-0.21728932100183823,0.02404411764705874,0.26156416179483766,0.961517690710732,-0.8100252448846817,-0.053756898187539884,1.258390627350241
382,1791617952.8445783,0.16755744485294113,-0.17417896943933822,-0.009486155790441262,0.24187558345619933,0.9679035118440826,-0.8185897596481211,-0.0537507694325238,1.2687850677145696
383,1791617952.8645782,0.17713752297794114,-0.24602955537683824,-0.03343635110294126,0.30500202251913755,0.971164010971568,-0.8228995327734979,-0.053812520114262005,1.2740561073070027
384,1791617952.8755643,0.12444709329044114,-0.25560963350183824,-0.02864631204044126,0.2857340983517756,0.9729348608728772,-0.8253251347294596,-0.053892505507229176,1.2769762032503864
385,1791617952.8955643,0.12923713235294113,-0.2603996725643382,-0.03343635110294126,0.2926229919632176,0.9760556174870872,-0.8298525483893462,-0.054109399600709485,1.282290001373145
386,1791617952.90457,0.13402717141544113,-0.2508195944393382,-0.004696116727941262,0.2844218788079788,0.9774278929352458,-0.8319306936958797,-0.05421817095712968,1.2846842316550313
387,1791617952.92457,0.12923713235294113,-0.24602955537683824,0.01446403952205874,0.27828400409838866,0.980413197335255,-0.836598827022944,-0.05440884391956893,1.2899875802433012
388,1791617952.9649324,0.14360724954044113,-0.18375904756433822,-0.014276194852941262,0.2336541020864012,0.9863601422388956,-0.8459075977033264,-0.05473535603398113,1.3005621681603359
389,1791617952.9849324,0.14360724954044113,-0.20291920381433823,-0.004696116727941262,0.24863889259232538,0.989295722260813,-0.8504083208022057,-0.05490133618784999,1.3057237437101243
390,1791617952.9950085,0.12923713235294113,-0.20770924287683823,-0.004696116727941262,0.24467819573391383,0.9907590220707878,-0.8526459894234315,-0.05497951200456594,1.3082933042077325
391,1791617953.0150084,0.11486701516544114,-0.21249928193933823,0.02404411764705874,0.2427519219103685,0.99359401076386,-0.8570516248187169,-0.05508238577827096,1.3133166469108821
392,1791617953.0250556,0.14360724954044113,-0.22207936006433823,9.392233455873811e-05,0.26446605284716873,0.9949993394258458,-0.8592603311659625,-0.05510812455332124,1.3158225213018258
393,1791617953.0450556,0.14360724954044113,-0.2603996725643382,-0.038226390165441264,0.2998204270847229,0.9978079944675604,-0.8637212078379428,-0.05520887353039423,1.3208645420363532
394,1791617953.0841444,0.16276740579044113,-0.26518971162683824,-0.038226390165441264,0.3134965206275124,1.0033721203077866,-0.872672785775322,-0.05560037816340415,1.3309413228597713
395,1791617953.1041443,0.17713752297794114,-0.2508195944393382,-0.019066233915441263,0.3076551515531522,1.0063018577953553,-0.8773399082175312,-0.055856585355463235,1.3362218010798588
396,1791617953.1161032,0.14839728860294113,-0.21249928193933823,-0.004696116727941262,0.2592291526849583,1.0080828763777903,-0.8801275348707014,-0.05600811569399862,1.3394000419244765
397,1791617953.1361032,0.12444709329044114,-0.17896900850183822,9.392233455873811e-05,0.21798393026545723,1.0110239343840282,-0.8846774637148767,-0.056230425643444736,1.3446135026357535
398,1791617953.1450882,0.17713752297794114,-0.20291920381433823,-0.019066233915441263,0.27003226955148135,1.0123502518354999,-0.8866722669457457,-0.056328102986745836,1.3469274652141419
399,1791617953.1650882,0.18671760110294114,-0.2699797506893382,0.004883961397058738,0.3282931333775384,1.0154054684296643,-0.8911558452972825,-0.056534184987906855,1.3521845731987283
400,1791617953.2044723,0.15318732766544113,-0.23165943818933823,-0.009486155790441262,0.27788925817879245,1.021523386800712,-0.900142326308214,-0.056892724606952605,1.3627189803864783
401,1791617953.2244723,0.10049689797794113,-0.19333912568933823,-0.023856272977941264,0.2192002869202148,1.0245446851364401,-0.9046587982609118,-0.057097500240502884,1.3679764170649722
402,1791617953.2342274,0.13402717141544113,-0.21249928193933823,-0.038226390165441264,0.2541269061068484,1.0259688821753623,-0.9068282243168668,-0.05722782076577534,1.370483345057299
403,1791617953.2542274,0.14839728860294113,-0.23644947725183824,-0.038226390165441264,0.28176473779103856,1.0288744244122525,-0.911282241275505,-0.057569605542164504,1.3756206468194754
404,1791617953.2951193,0.15318732766544113,-0.19812916475183823,-0.014276194852941262,0.25084922368231366,1.0348489133050984,-0.9203557131581479,-0.058324615358042224,1.3861344353518708
405,1791617953.3151193,0.13402717141544113,-0.15980885225183822,0.04320427389705874,0.21299943947965208,1.0377635089280444,-0.9246647341643704,-0.05859510351385789,1.3911834376622347
406,1791617953.3246331,0.11965705422794114,-0.17896900850183822,0.03841423483455874,0.21868555066250744,1.039123007875501,-0.9266487716246407,-0.05864623448523116,1.3935185511032786
407,1791617953.344633,0.15318732766544113,-0.20770924287683823,-0.009486155790441262,0.25826241322621674,1.0419615164748441,-0.9307739974860859,-0.05869420660123372,1.3983808658943149
408,1791617953.3546348,0.17234748391544114,-0.23165943818933823,-0.02864631204044126,0.2901557542212482,1.0434122755867874,-0.9328570922700079,-0.05874320224980788,1.400850561356997
409,1791617953.3746347,0.15797736672794113,-0.2603996725643382,-0.009486155790441262,0.3047208969230523,1.0463736413421811,-0.9371358504512521,-0.0588836796009349,1.4059120481808358
410,1791617953.4146347,0.13402717141544113,-0.2795598288143382,-0.047806468290441266,0.31369163038680375,1.0522839759053488,-0.9460296163186669,-0.05929436880617797,1.4162589533949417
411,1791617953.4346347,0.16276740579044113,-0.2699797506893382,-0.08612678079044127,0.32680287106962824,1.0552410595359358,-0.950633775395451,-0.05966981140043455,1.4215480136265874
412,1791617953.4444935,0.14360724954044113,-0.2603996725643382,-0.019066233915441263,0.29798414868563633,1.056706619222451,-0.9529550941209756,-0.059904903501762564,1.4241983316881168
413,1791617953.4644935,0.13402717141544113,-0.23644947725183824,0.04320427389705874,0.2752058270699654,1.05965019069284,-0.9577031051876695,-0.060274074716512416,1.4295757162194693
414,1791617953.4749975,0.14839728860294113,-0.20291920381433823,0.06236443014705874,0.2590121245982839,1.061186756185095,-0.9601688506793171,-0.06035571331936937,1.4323701914825564
415,1791617953.4949975,0.14360724954044113,-0.12148853975183824,0.02404411764705874,0.18963287427297543,1.0641115838050639,-0.9646460943603995,-0.06035822685465179,1.4375391005819396
416,1791617953.5346816,0.15797736672794113,-0.11190846162683825,-0.038226390165441264,0.19733628426384356,1.0699421297311928,-0.9728919578250687,-0.06040467687658656,1.4473920158557532
417,1791617953.5546815,0.18671760110294114,-0.16938893037683822,-0.047806468290441266,0.25659604577282824,1.0729568796643116,-0.9768462929632193,-0.06055362445065716,1.4522850571182888
418,1791617953.5646803,0.15318732766544113,-0.25560963350183824,-0.019066233915441263,0.2986070383831259,1.074492893710196,-0.978845395675606,-0.06066706812329565,1.4547693220657771
419,1791617953.5846803,0.11965705422794114,-0.2987199850643382,-0.014276194852941262,0.3221106174015784,1.0775136950902848,-0.9830757690999691,-0.06090995895501716,1.4598574430397364
420,1791617953.5948586,0.11007697610294113,-0.29392994600183825,-0.019066233915441263,0.3144443911096672,1.0789958044549368,-0.9853581551023791,-0.06104048127132829,1.4624939590343462
421,1791617953.6148586,0.11965705422794114,-0.21249928193933823,-0.009486155790441262,0.24405684297499902,1.0818158447782404,-0.9899298709604261,-0.06130130999709885,1.4676663524249454
422,1791617953.654479,0.11486701516544114,-0.20291920381433823,-0.009486155790441262,0.2333679960948869,1.0872613173816983,-0.998862468143344,-0.06179688808639734,1.4777287497768872
423,1791617953.674479,0.15318732766544113,-0.18375904756433822,-0.02864631204044126,0.24094471588426727,1.0899998955493873,-1.0032752077389175,-0.062066725162160497,1.482738410217257
424,1791617953.684829,0.16755744485294113,-0.21249928193933823,-0.014276194852941262,0.2709893944232134,1.0914535053456986,-1.0055238565444564,-0.062218738292554115,1.485335030155206
425,1791617953.704829,0.14839728860294113,-0.22207936006433823,0.01446403952205874,0.2674887023232687,1.094315008915017,-1.009869157131887,-0.06246813995715613,1.490390325308323
426,1791617953.714952,0.12444709329044114,-0.19333912568933823,0.03841423483455874,0.23311531478794376,1.0957532599448243,-1.0120540259418631,-0.06253529310215172,1.4929297441568425
427,1791617953.734952,0.16276740579044113,-0.18375904756433822,0.02404411764705874,0.2466550942975402,1.0985993938665677,-1.016288810400933,-0.06255437862994348,1.4978907251985747
428,1791617953.7754872,0.21066779641544114,-0.20770924287683823,-0.009486155790441262,0.2959966843981325,1.104637861389916,-1.0247743961752631,-0.06254299993255634,1.508077914006112
429,1791617953.7954872,0.18192756204044114,-0.21249928193933823,-0.019066233915441263,0.280387417567963,1.1077592150531868,-1.0289634617273649,-0.06258105638643453,1.513212699102032
430,1791617953.8055675,0.17713752297794114,-0.20770924287683823,-0.014276194852941262,0.27335808267309225,1.1093679113067394,-1.0310758074947184,-0.06262256805292653,1.5158285092540997
431,1791617953.8255675,0.15318732766544113,-0.19812916475183823,-0.014276194852941262,0.25084922368231366,1.1125763836786828,-1.035246929745193,-0.0627354039407053,1.521018785542765
432,1791617953.8359232,0.13881721047794113,-0.21249928193933823,-0.023856272977941264,0.2549417276751874,1.1142152841553055,-1.0374016425109216,-0.06281468172256209,1.5236874848765913
433,1791617953.8559232,0.12444709329044114,-0.2603996725643382,-0.014276194852941262,0.28896172452339336,1.117300606954159,-1.0416481768623915,-0.06300202314879742,1.528842969562838
434,1791617953.8948405,0.11965705422794114,-0.25560963350183824,-0.03343635110294126,0.28420430141103015,1.1231161812582002,-1.0501780160904348,-0.06345114669547115,1.538924907232518
435,1791617953.9148405,0.10528693704044113,-0.21249928193933823,-0.009486155790441262,0.2373420971673013,1.1259939751367607,-1.054606211100699,-0.06371171801294352,1.544058248755084
436,1791617953.9256139,0.11486701516544114,-0.20291920381433823,-0.02864631204044126,0.23492817124214999,1.1274895187545104,-1.0569694131434744,-0.06386183729357603,1.5467693071316904
437,1791617953.9456139,0.14360724954044113,-0.19333912568933823,-0.019066233915441263,0.241591765005777,1.1302371318804485,-1.0612928290300079,-0.06417028767124808,1.551739755581351
438,1791617953.9546134,0.14360724954044113,-0.17417896943933822,9.392233455873811e-05,0.22574623881014136,1.1314819074425375,-1.0631945244381666,-0.06430107034879257,1.5539525511781571
439,1791617953.9746134,0.14360724954044113,-0.16459889131433822,0.009674000459558739,0.21865366090548632,1.1342640774008794,-1.067294943847103,-0.0645334635506391,1.5587937844248354
440,1791617954.0150287,0.13881721047794113,-0.18854908662683822,0.01446403952205874,0.23458513258940267,1.1398989452686805,-1.0754084779910258,-0.06485946810830369,1.5684641374806492
441,1791617954.0350287,0.15318732766544113,-0.23165943818933823,-0.009486155790441262,0.27788925817879245,1.1427071602961956,-1.0794516064425637,-0.06498912940653502,1.5732828772298533
442,1791617954.048032,0.17713752297794114,-0.2699797506893382,-0.009486155790441262,0.3230429615093299,1.1445812500217722,-1.0821752367836106,-0.06507928856843233,1.5765166649324198
443,1791617954.068032,0.14839728860294113,-0.2508195944393382,-0.009486155790441262,0.29158568444129634,1.1475196509137586,-1.08651718471839,-0.06522561697083222,1.5816369125152703
444,1791617954.0750308,0.14360724954044113,-0.21249928193933823,-0.019066233915441263,0.25718185826574785,1.1485469489375095,-1.0880518897746543,-0.06528412949515469,1.5834389872425774
445,1791617954.0950308,0.14360724954044113,-0.21249928193933823,-0.019066233915441263,0.25718185826574785,1.1514730703508018,-1.0924171753994023,-0.06548345467524316,1.5885696710207315
446,1791617954.134585,0.16276740579044113,-0.23644947725183824,-0.004696116727941262,0.28709517096729464,1.1573009100963445,-1.1010872790207906,-0.06588902301475448,1.598774516898826
447,1791617954.154585,0.14839728860294113,-0.23165943818933823,-0.014276194852941262,0.27548441027830156,1.1602724067269288,-1.105515769710274,-0.06609179086577646,1.6039841955922898
448,1791617954.1645725,0.12444709329044114,-0.20291920381433823,-0.019066233915441263,0.23880285505161578,1.1617381064885282,-1.1077210744422683,-0.06620283615780766,1.6065690842121985
449,1791617954.1845725,0.15318732766544113,-0.20770924287683823,0.01446403952205874,0.2584931244212199,1.164649340293553,-1.1120906882881836,-0.06639875077131509,1.611695560249356
450,1791617954.194571,0.13881721047794113,-0.20291920381433823,0.01925407858455874,0.24661131511685006,1.1661054095330632,-1.1142554354998386,-0.06645671762417375,1.6142439397441104
451,1791617954.214571,0.13881721047794113,-0.20291920381433823,-0.05259650735294127,0.2514215857623405,1.1689975326225426,-1.1185447893046327,-0.06660528896830181,1.6193004481802287
452,1791617954.255092,0.11965705422794114,-0.22207936006433823,-0.06696662454044126,0.2610011141651217,1.1747636948236144,-1.1272232573084107,-0.0672245101337626,1.6294849325033165
453,1791617954.275092,0.08612678079044113,-0.23165943818933823,0.009674000459558739,0.24734086592477206,1.1774914835871269,-1.1315447956328513,-0.06757023463184178,1.6344557366451398
454,1791617954.2850897,0.11007697610294113,-0.16938893037683822,0.04799431295955874,0.20763671274280204,1.1787976661521606,-1.1336817767650544,-0.0676738941020044,1.6368805896087475
455,1791617954.3050897,0.13402717141544113,-0.12627857881433824,0.04320427389705874,0.18914589984444585,1.1813848089573502,-1.1377589252275668,-0.06771335527255384,1.6415695346991703
456,1791617954.3163097,0.15797736672794113,-0.15980885225183822,9.392233455873811e-05,0.22471254187906198,1.1828642081424374,-1.1399438536798538,-0.06769573695157045,1.6441479365459568
457,1791617954.3363097,0.15318732766544113,-0.22686939912683823,-0.03343635110294126,0.275779026019984,1.1855724708467268,-1.1438343713946852,-0.06771905609520074,1.6487950216360774
458,1791617954.3749473,0.15797736672794113,-0.29392994600183825,-0.02864631204044126,0.3349212933637637,1.1909214124062475,-1.1517321793904196,-0.06793725304886215,1.6581303609556526
459,1791617954.3949473,0.13881721047794113,-0.2795598288143382,-0.019066233915441263,0.31270982889461185,1.193720058258333,-1.156067330813007,-0.06810482520083486,1.6631588974229203
460,1791617954.4049866,0.15797736672794113,-0.21728932100183823,-0.038226390165441264,0.27135355963173735,1.1951376332269383,-1.158291120584357,-0.06821946199624883,1.6657269216095747
461,1791617954.4249866,0.15318732766544113,-0.23644947725183824,-0.023856272977941264,0.28274340736849174,1.19800481417659,-1.1627373570973576,-0.06850670480799326,1.6708880468133354
462,1791617954.4342906,0.14360724954044113,-0.22686939912683823,0.02404411764705874,0.26957538087549604,1.1993456659250976,-1.164818803959934,-0.06862015595952775,1.6733026021123247
463,1791617954.4542906,0.14839728860294113,-0.18375904756433822,0.01446403952205874,0.23663970771143417,1.2022336232757749,-1.1692378829272225,-0.06876968720862106,1.6784552963024375
464,1791617954.4942765,0.15318732766544113,-0.13106861787683824,-0.004696116727941262,0.20166158152148445,1.2080458590630165,-1.1776918252425543,-0.06899450750178594,1.6885180114253608
465,1791617954.5142765,0.14360724954044113,-0.19812916475183823,0.004883961397058738,0.24474897573791712,1.2109621197091567,-1.1817798108900697,-0.06908980797283555,1.6934598248448607
466,1791617954.524338,0.11965705422794114,-0.24602955537683824,0.004883961397058738,0.27362786010266044,1.2124078169367105,-1.1838630596606985,-0.06912318881501277,1.6959488417491806
467,1791617954.544338,0.12444709329044114,-0.22686939912683823,-0.009486155790441262,0.2589339499569203,1.2152166327928229,-1.1880922788743924,-0.06918649260066735,1.7009119608303234
468,1791617954.5553453,0.13881721047794113,-0.19812916475183823,-0.014276194852941262,0.24234106872261088,1.2167479653281188,-1.1904216112568677,-0.06923572377794465,1.7036351748906131
469,1791617954.5753453,0.13402717141544113,-0.20770924287683823,-0.047806468290441266,0.2517774228649153,1.2195222626338855,-1.194627851821823,-0.06940488163716205,1.7085629315313977
470,1791617954.614836,0.12923713235294113,-0.24123951631433824,-0.05259650735294127,0.278684648296449,1.2249582589766221,-1.2030171198942625,-0.06998616258528845,1.7183337830430787
471,1791617954.634836,0.11486701516544114,-0.23644947725183824,-0.02864631204044126,0.26443032666319416,1.227664506319315,-1.2073450706315287,-0.07035825692330615,1.7233086038118028
472,1791617954.6448355,0.09570685891544113,-0.16459889131433822,-0.014276194852941262,0.190935611149017,1.2289725293204752,-1.2094851336333199,-0.0705485797906902,1.725747625933427
473,1791617954.6648355,0.11965705422794114,-0.19812916475183823,0.02883415670955874,0.23324747618124594,1.2315193200206143,-1.2136675057884805,-0.07085030717204649,1.730505248826839
474,1791617954.7048447,0.12923713235294113,-0.21249928193933823,0.01446403952205874,0.24913327686770723,1.236596726069561,-1.2220113617656174,-0.07123343829685992,1.7399877683310903
475,1791617954.7248447,0.11965705422794114,-0.22207936006433823,-0.004696116727941262,0.25230756291759643,1.2391274630594884,-1.2262085437592907,-0.07138157931212426,1.7447405515897247
476,1791617954.739411,0.13881721047794113,-0.20770924287683823,0.004883961397058738,0.24987436959455114,1.2409765536585222,-1.2292764440714725,-0.07147308427275967,1.7482138840698662
477,1791617954.759411,0.15318732766544113,-0.19812916475183823,0.004883961397058738,0.25049027198968876,1.243572571896456,-1.233465645038943,-0.07156522478434538,1.7530065089619422
478,1791617954.764409,0.11965705422794114,-0.20770924287683823,0.009674000459558739,0.23990524481109068,1.2442262772556099,-1.2345076170072975,-0.07157933968930778,1.7542040039096785
479,1791617954.784409,0.09570685891544113,-0.19333912568933823,-0.014276194852941262,0.21620275230731226,1.2467728222493046,-1.2386533301616935,-0.07163425311026939,1.7589303592919237
480,1791617954.8250234,0.11965705422794114,-0.20291920381433823,-0.03343635110294126,0.23793277092118384,1.2518244598591581,-1.2470163298912516,-0.07187437594965795,1.7684117538727433
481,1791617954.8450234,0.13402717141544113,-0.21728932100183823,-0.019066233915441263,0.2560106501198383,1.2543194533200588,-1.2511471487197068,-0.07205363813680314,1.7730984759723112
482,1791617954.855021,0.12444709329044114,-0.22207936006433823,0.004883961397058738,0.2546177022006791,1.2555733820231163,-1.253231775785516,-0.07214044056031914,1.7754601219536645
483,1791617954.875021,0.11965705422794114,-0.18854908662683822,0.01925407858455874,0.22414122386670365,1.258071725043913,-1.2573924290058187,-0.07225183284530508,1.7801686754983712
484,1791617954.885022,0.15318732766544113,-0.16938893037683822,-0.014276194852941262,0.22882914331650966,1.2593382746952027,-1.2594293541191606,-0.07229544531600252,1.7825043673278154
485,1791617954.905022,0.16755744485294113,-0.17417896943933822,-0.009486155790441262,0.24187558345619933,1.26197232048283,-1.263407147965526,-0.07240522293817259,1.7871805380274062
486,1791617954.9455686,0.12923713235294113,-0.23165943818933823,0.004883961397058738,0.2653152554225622,1.267413951145831,-1.271495973852653,-0.07260839079433266,1.7967504316115626
487,1791617954.9655685,0.11965705422794114,-0.23165943818933823,0.004883961397058738,0.2607829730017591,1.2700688028762719,-1.2755823510346906,-0.07267892104838808,1.8015180609351418
488,1791617954.974553,0.13402717141544113,-0.20291920381433823,0.004883961397058738,0.24323515172194363,1.2712534863583989,-1.277435548838372,-0.07269927059065322,1.8036663194612215
489,1791617954.994553,0.14360724954044113,-0.16459889131433822,-0.009486155790441262,0.21864543053574292,1.2739115150471487,-1.2814933202094838,-0.0727446778945295,1.808415733749634
490,1791617955.0045798,0.12444709329044114,-0.20291920381433823,-0.004696116727941262,0.23808682411550444,1.275245771168373,-1.283498852442351,-0.07277469262753349,1.8107780750248448
491,1791617955.0245798,0.10049689797794113,-0.26518971162683824,-0.014276194852941262,0.2839524949624382,1.277845381522285,-1.2876013400859168,-0.07285404022503153,1.815520239833749
492,1791617955.0646713,0.12444709329044114,-0.2699797506893382,-0.06217658547794126,0.30371380046420793,1.2829512100926674,-1.2962007134114548,-0.07321912296371835,1.8252290642256879
493,1791617955.0846713,0.12444709329044114,-0.2508195944393382,-0.03343635110294126,0.2819849952714382,1.2854895728125442,-1.3006282994203366,-0.07351734807296689,1.8301699963474694
494,1791617955.094679,0.07175666360294113,-0.18854908662683822,0.04320427389705874,0.20631622845092112,1.2867164942066704,-1.3028412894426802,-0.07363686176659481,1.8326093826429577
495,1791617955.114679,0.09570685891544113,-0.13585865693933824,0.02883415670955874,0.16866767948238437,1.2890518158674686,-1.3070870260194933,-0.07373181777548342,1.8372717432465397
496,1791617955.12442,0.14360724954044113,-0.16459889131433822,9.392233455873811e-05,0.2184395705083783,1.2901934393605836,-1.3090642029545227,-0.07374999443891761,1.839480160291432
497,1791617955.14442,0.16755744485294113,-0.14543873506433824,-0.014276194852941262,0.22233248238222036,1.2926525810542666,-1.3129798866360125,-0.07380299027822271,1.8439939694562402
498,1791617955.185427,0.12923713235294113,-0.19812916475183823,0.004883961397058738,0.23660358277718585,1.2978511755952191,-1.3208607965986074,-0.07392423755533548,1.8532554359513256
499,1791617955.205427,0.11486701516544114,-0.24602955537683824,-0.009486155790441262,0.2716890878258141,1.3003724740660436,-1.3247941641578123,-0.07398140542047589,1.8578270632766734
500,1791617955.2161603,0.13402717141544113,-0.2795598288143382,-0.043016429227941265,0.3129974340914772,1.3017229714139804,-1.3270115432426173,-0.07404974830884678,1.8603563356063264
501,1791617955.2361603,0.17713752297794114,-0.2699797506893382,-0.047806468290441266,0.32642338494575235,1.304328695940868,-1.3313478357130368,-0.07429422703982383,1.8652828308018163
502,1791617955.245155,0.17713752297794114,-0.19812916475183823,0.01925407858455874,0.2664649836548173,1.305563810581098,-1.333321305689466,-0.07440694816360784,1.8675596273317545
503,1791617955.265155,0.14839728860294113,-0.18854908662683822,0.05278435202205874,0.2456800788645839,1.3083864485562828,-1.337631132121262,-0.07451193076603779,1.8726142614570183
504,1791617955.3051615,0.14839728860294113,-0.18854908662683822,0.01446403952205874,0.24037828889443244,1.3140762315213435,-1.3460904916646572,-0.0744886524622982,1.8826323362103878
505,1791617955.3251615,0.17713752297794114,-0.18854908662683822,-0.038226390165441264,0.2615142768945055,1.3169823019351592,-1.3502507876944387,-0.0745144042670775,1.8876366095525803
506,1791617955.334316,0.18192756204044114,-0.20291920381433823,-0.019066233915441263,0.27319839381362004,1.3183594952833826,-1.3521382092436482,-0.07456376014796601,1.8899495363707144
507,1791617955.354316,0.15797736672794113,-0.14543873506433824,-0.009486155790441262,0.21494013400733167,1.321426795611078,-1.356165681129466,-0.07469824239667239,1.8949759782776832
508,1791617955.36529,0.12923713235294113,-0.21249928193933823,-0.009486155790441262,0.24889388975068574,1.3230937518265964,-1.358338662766073,-0.0747765789687929,1.8976966395211796
509,1791617955.38529,0.12923713235294113,-0.2508195944393382,-0.02864631204044126,0.2836076806559442,1.3260637854777586,-1.3623998593918119,-0.0749551307148772,1.902681479293609
510,1791617955.4248238,0.11486701516544114,-0.2603996725643382,-0.02864631204044126,0.2860472545544714,1.3317777857601165,-1.3707392279549682,-0.07542500650618003,1.9126544469153748
511,1791617955.4448237,0.12444709329044114,-0.19333912568933823,-0.014276194852941262,0.23037123581349436,1.3345938383846947,-1.3750058540091867,-0.07569144186770389,1.9176837607869388
512,1791617955.4548259,0.16755744485294113,-0.15980885225183822,-0.019066233915441263,0.2323314181496222,1.3360099677483863,-1.3770844767418844,-0.07582971335758558,1.9201652104531024
513,1791617955.4748259,0.17713752297794114,-0.20291920381433823,0.004883961397058738,0.26940259538900796,1.3389339131593747,-1.3811614688737401,-0.07608599785091372,1.9251337891114768
514,1791617955.487823,0.16276740579044113,-0.24123951631433824,0.009674000459558739,0.291175752603505,1.3408803750903044,-1.3838464752488377,-0.07621337322910783,1.9284189704573813
515,1791617955.507823,0.16755744485294113,-0.22686939912683823,0.01446403952205874,0.2824082683370207,1.3439217908240526,-1.3880605665957262,-0.07634377036642907,1.9335631067186658
516,1791617955.545968,0.16755744485294113,-0.17896900850183822,-0.004696116727941262,0.2452090064457256,1.3498111565539195,-1.3960533666129074,-0.07652722102512335,1.9434020624529784
517,1791617955.565968,0.17234748391544114,-0.19333912568933823,-0.043016429227941265,0.2625530154422597,1.3529457074053644,-1.4001739527559836,-0.07668054761783308,1.9485453783645603
518,1791617955.5749197,0.14839728860294113,-0.26518971162683824,-0.038226390165441264,0.30628188866224326,1.354353574951133,-1.4020494583134064,-0.07679342450067721,1.9508750650890927
519,1791617955.5949197,0.12444709329044114,-0.27476978975183824,-0.038226390165441264,0.3040506097573062,1.3574365033187912,-1.4064211439914656,-0.07712246652098033,1.956170281353566
520,1791617955.6110766,0.08133674172794113,-0.18375904756433822,-0.014276194852941262,0.20146181488349016,1.3598028182635968,-1.409978677560481,-0.07741203058328074,1.9603816460607486
521,1791617955.6310766,0.11965705422794114,-0.18854908662683822,0.01446403952205874,0.22378064512736368,1.3625940985550684,-1.4142803058416116,-0.07771642240827349,1.9654239499966626
522,1791617955.664388,0.14360724954044113,-0.21249928193933823,0.01925407858455874,0.2571958523916069,1.3672035372596432,-1.4213722293918787,-0.0780631206553521,1.9737371602085652
523,1791617955.684388,0.14839728860294113,-0.19812916475183823,-0.038226390165441264,0.2504759032223383,1.3699939053269232,-1.4256074340898968,-0.07826851162955369,1.9787283332175742
524,1791617955.6943042,0.15318732766544113,-0.20291920381433823,-0.07175666360294126,0.26418095958140103,1.3713941828875684,-1.4276906019663789,-0.0784368692148944,1.981205391233634
525,1791617955.7143042,0.17234748391544114,-0.20291920381433823,-0.06217658547794126,0.2733967561444794,1.3742830455869033,-1.4318706305738567,-0.07892639213560579,1.9862368356928466
526,1791617955.724988,0.15797736672794113,-0.18375904756433822,-0.02864631204044126,0.24401812873957837,1.3758594488199276,-1.4340784567491056,-0.07922144019283887,1.98893093887274
527,1791617955.744988,0.12444709329044114,-0.23644947725183824,0.01925407858455874,0.2678920563645882,1.37879145218913,-1.4382218539044518,-0.07970500792370219,1.9939661125421078
528,1791617955.7849398,0.10049689797794113,-0.22207936006433823,0.04320427389705874,0.247559039327484,1.3844438754408575,-1.4466310772326882,-0.08033893401083922,2.003966232794132
529,1791617955.8049397,0.14360724954044113,-0.21728932100183823,0.02404411764705874,0.26156416179483766,1.3872152070625399,-1.4508683577805401,-0.0805078048818026,2.0089466217302174
530,1791617955.8152938,0.22982795266544115,-0.19812916475183823,0.004883961397058738,0.30347966460798864,1.388724716086205,-1.4530555557859128,-0.08055965184588018,2.011570690474125
531,1791617955.8352938,0.19150764016544114,-0.22686939912683823,0.02404411764705874,0.2978640966872884,1.3918351353981313,-1.4572841462838027,-0.0806013857073604,2.01677433306674
532,1791617955.8443613,0.14839728860294113,-0.17417896943933822,-0.05738654641544126,0.2359094834235074,1.393264957121235,-1.4591864598552475,-0.08064014373550837,2.019137241038511
533,1791617955.8643613,0.13402717141544113,-0.17896900850183822,-0.038226390165441264,0.2268357237889033,1.3963692497309952,-1.4632826741339757,-0.08085622727466123,2.024248254415469
534,1791617955.9052918,0.11486701516544114,-0.17896900850183822,0.004883961397058738,0.21271622001172522,1.4025333691527249,-1.471507030689965,-0.08133446922619472,2.0344650620841827
535,1791617955.9252918,0.14839728860294113,-0.23165943818933823,-0.009486155790441262,0.2752777465008477,1.4054884564275782,-1.4755388581254245,-0.08154000442437671,2.0394267565447857
536,1791617955.9347768,0.15797736672794113,-0.20770924287683823,-0.009486155790441262,0.26113208367882396,1.4068976383939482,-1.4774766969017274,-0.08163635480344594,2.041803822415783
537,1791617955.9547768,0.13881721047794113,-0.18854908662683822,-0.014276194852941262,0.23457362539759471,1.4098685077042858,-1.4815442736853661,-0.08184468715030171,2.0468026765472387
538,1791617955.9647295,0.14360724954044113,-0.19333912568933823,-0.004696116727941262,0.24088402428390868,1.4113359849378622,-1.4835498968672756,-0.08194697247006928,2.0492693491028553
539,1791617955.9847295,0.14360724954044113,-0.21728932100183823,-0.02864631204044126,0.2620272931118603,1.4142733501954525,-1.4875915701824345,-0.08217169586032497,2.054227342908148
540,1791617956.0245101,0.12923713235294113,-0.21728932100183823,-0.019066233915441263,0.2535358094549365,1.4200535323337538,-1.495721323111652,-0.0826939833008137,2.064115453645604
541,1791617956.0445101,0.14360724954044113,-0.24123951631433824,-0.009486155790441262,0.28090840767735475,1.422932921170049,-1.4998833119220332,-0.08296000793206615,2.0691231018109635
542,1791617956.0544744,0.14839728860294113,-0.24123951631433824,0.01925407858455874,0.28388198082728117,1.4243705049626525,-1.50200639609663,-0.08306536432872137,2.0716549915644284
543,1791617956.0744743,0.17713752297794114,-0.23644947725183824,0.05278435202205874,0.3001203844423381,1.4273114705796401,-1.5063451259990785,-0.08313705549225779,2.0768258094181413
544,1791617956.1171415,0.18192756204044114,-0.21249928193933823,0.004883961397058738,0.27978104963281714,1.4337935084271465,-1.5156494385957267,-0.0830825163713856,2.0880277177398696
545,1791617956.1371415,0.15318732766544113,-0.16459889131433822,-0.014276194852941262,0.22530637389711747,1.4368788354873918,-1.5199222267927595,-0.08307487454430032,2.0932476676568434
546,1791617956.1451418,0.12444709329044114,-0.15980885225183822,9.392233455873811e-05,0.20254865368077504,1.4380944851455693,-1.5215696977941309,-0.0830807859603523,2.0952786235837975
547,1791617956.1651418,0.12923713235294113,-0.21249928193933823,0.004883961397058738,0.248760998314595,1.4410581434712968,-1.525628868413771,-0.08308588030202291,2.1002607648832528
548,1791617956.175141,0.11965705422794114,-0.20770924287683823,-0.019066233915441263,0.24046717339108084,1.4425042652794542,-1.5276690260861485,-0.08309868117582153,2.1027355039152167
549,1791617956.195141,0.10528693704044113,-0.23165943818933823,-0.02864631204044126,0.256070391898548,1.4453002638701615,-1.5317965946101102,-0.08319201296857524,2.1076561795093745
550,1791617956.2349772,0.08612678079044113,-0.21728932100183823,-0.014276194852941262,0.23417147804599034,1.4506058870571488,-1.5401260580085323,-0.08347826742749123,2.117360228032645
551,1791617956.2549772,0.12444709329044114,-0.19812916475183823,-0.023856272977941264,0.2351836871768509,1.4531859088063155,-1.5443037625235407,-0.08365762443905127,2.122173884163215
552,1791617956.2649705,0.12923713235294113,-0.18375904756433822,-0.004696116727941262,0.22470353235516077,1.454471822023536,-1.5463643263335385,-0.08375520025835834,2.1245577997286307
553,1791617956.2849705,0.10049689797794113,-0.14064869600183824,-0.019066233915441263,0.1739114816966509,1.4570039355334,-1.5503562360032643,-0.08395683345334037,2.12920494000872
554,1791617956.294969,0.10528693704044113,-0.17896900850183822,0.009674000459558739,0.20786734087003758,1.45823424548157,-1.5522922336760911,-0.08404955846325232,2.131460208801511
555,1791617956.314969,0.11965705422794114,-0.21249928193933823,0.01925407858455874,0.24463130419752738,1.460663487296993,-1.5561711024727378,-0.08416382145567852,2.1359517485504798
556,1791617956.3547416,0.14839728860294113,-0.21249928193933823,-0.02864631204044126,0.26076485822088313,1.4655693052173473,-1.5639954280920934,-0.08438498045061953,2.1450165296365156
557,1791617956.3747416,0.11007697610294113,-0.21249928193933823,-0.038226390165441264,0.24235127892747416,1.4680539124174716,-1.5679772806876981,-0.08457981950653003,2.149625266967429
558,1791617956.384642,0.11965705422794114,-0.20291920381433823,-0.02864631204044126,0.2373070270697261,1.4692699301278758,-1.5699611614178832,-0.08471145550649972,2.1519080386095943
559,1791617956.4046419,0.13402717141544113,-0.25560963350183824,0.009674000459558739,0.28877872792409703,1.471738495414863,-1.5740555005824652,-0.08496594777862593,2.1565908582950635
560,1791617956.415503,0.11007697610294113,-0.20291920381433823,0.004883961397058738,0.23090473581877954,1.4730768283745244,-1.5763189577677064,-0.08507156260301062,2.159160477981091
561,1791617956.435503,0.10049689797794113,-0.19812916475183823,0.02883415670955874,0.22402276898030063,1.4754874597955367,-1.5804633135032988,-0.08518629475703038,2.1638355376872207
562,1791617956.4745393,0.12444709329044114,-0.20291920381433823,0.10547478170955875,0.2603616943441638,1.480145374668432,-1.5885131363586702,-0.08498342132126621,2.1728843725416866
563,1791617956.4945393,0.11007697610294113,-0.22207936006433823,0.11026482077205875,0.27128308744639373,1.4825256449540642,-1.5926562667977617,-0.08457146247426757,2.177518910223671
564,1791617956.505561,0.15797736672794113,-0.23644947725183824,0.01446403952205874,0.28473568819215067,1.4838622171636662,-1.5949760677730838,-0.0842753831978381,2.1801142347381486
565,1791617956.525561,0.17234748391544114,-0.22686939912683823,-0.06217658547794126,0.29161499833487925,1.4864192182096396,-1.5992490808771493,-0.08389028253634921,2.18496619984232
566,1791617956.534258,0.14839728860294113,-0.22686939912683823,-0.05738654641544126,0.2771005146771994,1.4875735307521962,-1.6011244023334932,-0.08382593009374205,2.187121658184204
567,1791617956.5542579,0.12923713235294113,-0.21728932100183823,-0.038226390165441264,0.255691498304758,1.4902463644371429,-1.6054564081620561,-0.08384355698169535,2.1921118236244417
568,1791617956.5942597,0.13402717141544113,-0.21728932100183823,-0.038226390165441264,0.25814567322375265,1.4955802281862107,-1.6141249660830224,-0.08410289317901114,2.2020973915145343
569,1791617956.6142597,0.09570685891544113,-0.16459889131433822,-0.07654670266544127,0.20521207458217694,1.4981916129076362,-1.6183817593064733,-0.08438526528257978,2.207002152432007
570,1791617956.6248164,0.09570685891544113,-0.16459889131433822,-0.06217658547794126,0.20029609493713355,1.4995147892608296,-1.620552255635696,-0.08462178886271711,2.209501089297812
571,1791617956.6448164,0.08133674172794113,-0.21728932100183823,-0.009486155790441262,0.23220745407509685,1.5019111321272496,-1.6246203472843865,-0.085110168740638,2.2141300915802704
572,1791617956.6548169,0.10049689797794113,-0.17417896943933822,-0.03343635110294126,0.20385271514801512,1.5030660080114002,-1.6266429836152203,-0.08534993347056286,2.216406874138271
573,1791617956.6748168,0.11486701516544114,-0.16459889131433822,-0.05259650735294127,0.2074936596155531,1.5053522489635502,-1.6305894677322168,-0.08588656324107162,2.2208745816646682
574,1791617956.7148187,0.08133674172794113,-0.20770924287683823,-0.004696116727941262,0.22311622227823244,1.50982768268688,-1.6384157872390592,-0.08697076325553327,2.229697252306481
575,1791617956.7348187,0.10528693704044113,-0.24602955537683824,0.06715446920955874,0.2759086877303796,1.5120095865774617,-1.6424224219802825,-0.08733783885138985,2.234133456224349
576,1791617956.7442436,0.15318732766544113,-0.16459889131433822,0.07673454733455874,0.2375864961100024,1.51306627685849,-1.6443175790116151,-0.08738316380001282,2.236243653122068
577,1791617956.7642436,0.19629767922794114,-0.07837818818933824,0.02883415670955874,0.21332446612442368,1.5154964838030451,-1.6481003886540568,-0.08730656469183617,2.2406666239624617
578,1791617956.7742584,0.19150764016544114,-0.14064869600183824,0.009674000459558739,0.23780415936994276,1.516822132143163,-1.6498749720698926,-0.08724503816646786,2.2428661352623407
579,1791617956.7942584,0.16276740579044113,-0.24123951631433824,0.01446403952205874,0.29137422854230205,1.519603820033424,-1.6534601428197568,-0.08710439043180034,2.2473792266963315
580,1791617956.8362741,0.13402717141544113,-0.24602955537683824,9.392233455873811e-05,0.28016750992567585,1.5255062589049524,-1.6613975594337722,-0.086807364773969,2.2571988647502192
581,1791617956.8562741,0.11007697610294113,-0.2508195944393382,-0.023856272977941264,0.27494823400611185,1.5282605970028045,-1.6653543857884439,-0.08672282889397881,2.2619696133386826
582,1791617956.866257,0.13402717141544113,-0.2891399069393382,-0.06696662454044126,0.3256527249461512,1.529611944896862,-1.667437424304208,-0.08675496299641026,2.264417516613471
583,1791617956.886257,0.11965705422794114,-0.30351002412683825,-0.023856272977941264,0.32711659562361006,1.532293712639398,-1.6718736531019673,-0.08694591912337295,2.269503277499937
584,1791617956.8952494,0.07175666360294113,-0.26518971162683824,0.01925407858455874,0.2754002931485216,1.5334477230263392,-1.6739526352509133,-0.08702200237451316,2.2718169321526354
585,1791617956.9152493,0.06696662454044112,-0.19333912568933823,0.009674000459558739,0.20483684387714451,1.5358374372115793,-1.678570694628922,-0.08712244389131507,2.2768369574120255
586,1791617956.954894,0.10049689797794113,-0.17896900850183822,-0.004696116727941262,0.20530851424050148,1.5403618000417345,-1.6874586765360817,-0.08727687700700083,2.2864488870964976
587,1791617956.974894,0.09091681985294113,-0.18854908662683822,-0.03343635110294126,0.21197786623859166,1.5425890046310835,-1.6918211934720386,-0.08740029785438257,2.2911740658350044
588,1791617956.9848938,0.08612678079044113,-0.16459889131433822,-0.047806468290441266,0.19182303251079885,1.5436683234218045,-1.6939400733813987,-0.08751368106762196,2.293469753303337
589,1791617957.0048938,0.08612678079044113,-0.23165943818933823,-0.02864631204044126,0.248806207448775,1.5457615892091165,-1.698136642037501,-0.0878211161869256,2.297990316374943
590,1791617957.0165148,0.12444709329044114,-0.2603996725643382,-0.014276194852941262,0.28896172452339336,1.5469789692227969,-1.7006381638704124,-0.08801036638899765,2.3006651038823707
591,1791617957.0365148,0.14839728860294113,-0.20291920381433823,0.004883961397058738,0.2514394790407376,1.549169101370072,-1.7049925371441306,-0.08830130274354075,2.3053679915412943
592,1791617957.0757344,0.11965705422794114,-0.17896900850183822,0.01925407858455874,0.21614447985729326,1.5536081652164166,-1.7133738736659816,-0.0887152443905354,2.3145666455247222
593,1791617957.0957344,0.13402717141544113,-0.18375904756433822,0.004883961397058738,0.22749620506352344,1.5559128306295626,-1.7175509069278077,-0.08885846290962382,2.3192114351298145
594,1791617957.1047294,0.16276740579044113,-0.26518971162683824,9.392233455873811e-05,0.31115722771917204,1.5569941080405278,-1.7194506199695199,-0.08890985572746543,2.3213457410372897
595,1791617957.1247294,0.18192756204044114,-0.24123951631433824,-0.014276194852941262,0.30248628365767855,1.5595546834852367,-1.7238005787407245,-0.08902825770029146,2.3262900242052242
596,1791617957.135487,0.15797736672794113,-0.20770924287683823,0.01446403952205874,0.26136026173475463,1.5609996280462064,-1.7261516124379503,-0.08908223976531605,2.3290029783845565
597,1791617957.155487,0.14839728860294113,-0.20291920381433823,0.03362419577205874,0.2536307258252976,1.5637425837206098,-1.73048280885485,-0.08909541340480774,2.334052187200011
598,1791617957.1954515,0.14839728860294113,-0.20770924287683823,9.392233455873811e-05,0.2552741539258898,1.569291059212516,-1.7390700936956798,-0.08901672428081461,2.344133783834175
599,1791617957.2154515,0.15797736672794113,-0.20770924287683823,-0.043016429227941265,0.26448136259155625,1.572110818957051,-1.7433460610114933,-0.08904763537469938,2.349195052968553
600,1791617957.2250304,0.12444709329044114,-0.20291920381433823,-0.038226390165441264,0.24109031338932976,1.5734616581820828,-1.7453818347171661,-0.08911858597705243,2.3516125235880847
601,1791617957.2450304,0.10049689797794113,-0.17896900850183822,-0.009486155790441262,0.20547389045569822,1.5761964411057408,-1.749567603645254,-0.08931607248900525,2.3565566790307124
602,1791617957.255026,0.09091681985294113,-0.23165943818933823,0.01925407858455874,0.2496050539883204,1.577501723592251,-1.7516536308700323,-0.08939264544578811,2.35898138516108
603,1791617957.275026,0.14360724954044113,-0.26518971162683824,-0.004696116727941262,0.30161345922491356,1.5800734422806824,-1.7559466727047854,-0.08950103843902908,2.363893237070024
604,1791617957.31504,0.13881721047794113,-0.23644947725183824,0.01925407858455874,0.2748623160050954,1.5852944720453246,-1.764752855717095,-0.08964168212607974,2.3739306721202915
605,1791617957.33504,0.11486701516544114,-0.21249928193933823,0.06236443014705874,0.2494788531024612,1.5878931556163969,-1.7691675902951245,-0.08957900703368948,2.378945782212196
606,1791617957.344553,0.11007697610294113,-0.19812916475183823,0.06715446920955874,0.23639337835067653,1.5891042902318406,-1.7712454317980062,-0.08946126003785816,2.3812950556254275
607,1791617957.364553,0.13402717141544113,-0.20770924287683823,0.03841423483455874,0.25016407754115705,1.5916347982993742,-1.7755673853317528,-0.08909248793936411,2.386184892756333
608,1791617957.3745544,0.13881721047794113,-0.22686939912683823,0.03362419577205874,0.26808679327107365,1.5929150804391508,-1.777730458640419,-0.08888170087702804,2.388640616296042
609,1791617957.3945544,0.12444709329044114,-0.24602955537683824,0.06715446920955874,0.283773402351563,1.5954861448521467,-1.7821165050639545,-0.08837224627112929,2.393600829283683
610,1791617957.4351175,0.12444709329044114,-0.22686939912683823,0.03841423483455874,0.2615959799510249,1.600675683471805,-1.7911164269804043,-0.08717281572753946,2.4037179115817326
611,1791617957.4551175,0.14360724954044113,-0.28434986787683825,0.009674000459558739,0.3187028016303551,1.6032526984262376,-1.7956551192825871,-0.08659800252133562,2.4087954949429515
612,1791617957.465118,0.16276740579044113,-0.33704029756433823,-0.047806468290441266,0.3773259187763448,1.6045777737357954,-1.798050219892603,-0.08638229594708732,2.4114552299961636
613,1791617957.485118,0.15318732766544113,-0.27476978975183824,-0.03343635110294126,0.3163586323978339,1.607304226001595,-1.8030394110420704,-0.08613747636859412,2.4169811040901155
614,1791617957.4971337,0.11486701516544114,-0.3178801413143382,0.01925407858455874,0.3385453218657462,1.6089381180089342,-1.8061213434423518,-0.08602523453662855,2.420362889278634
615,1791617957.5171337,0.06217658547794113,-0.28434986787683825,0.03362419577205874,0.29300403015076226,1.6115153138798495,-1.8113850061416177,-0.08578711743549149,2.425996017486803
616,1791617957.554642,0.05738654641544113,-0.33225025850183826,9.392233455873811e-05,0.33716977741997406,1.6159599725495715,-1.8215103913255817,-0.085312681392558,2.4364944063543166
617,1791617957.574642,0.08133674172794113,-0.32267018037683826,0.02404411764705874,0.3336312791882151,1.6181825241478607,-1.8270819317586353,-0.08506144420195688,2.4421258190572677
618,1791617957.584665,0.04780646829044113,-0.2987199850643382,0.05278435202205874,0.3070916405661867,1.619226374395465,-1.829922432584731,-0.08489666690364833,2.444937137201292
619,1791617957.604665,0.17234748391544114,-0.2891399069393382,0.03362419577205874,0.33828409294288453,1.6213270559743487,-1.835621931250045,-0.08448757912994655,2.4505810429259083
620,1791617957.6441982,0.19629767922794114,-0.43284107881433825,0.01925407858455874,0.4756625883140025,1.6259495646075277,-1.8473386638686158,-0.08364346291477492,2.4623907802295855
621,1791617957.6641982,0.13881721047794113,-0.48074146943933826,0.11984489889705874,0.5145341370164058,1.6284400010382036,-1.8537474490487496,-0.08307182899552748,2.468825099234191
622,1791617957.6751957,0.22982795266544115,-0.2699797506893382,0.23480583639705874,0.42525725674559367,1.6299080842211837,-1.857362093398799,-0.08251212853987547,2.472489142617318
623,1791617957.6951957,0.34957892922794115,-0.19333912568933823,0.11505485983455875,0.41571993704178006,1.6330465561710983,-1.863644586986067,-0.08112215323308367,2.479232341869137
624,1791617957.705331,0.28730842141544116,-0.43284107881433825,-0.06217658547794126,0.523224097597854,1.6348826036929434,-1.8668267997997188,-0.08048321808904205,2.4828131175548123
625,1791617957.725331,0.20587775735294114,-0.5190617819393383,-0.009486155790441262,0.5584807710157962,1.6387019588370577,-1.8735921333452903,-0.079519035203765,2.490384482161239
626,1791617957.7644708,0.07175666360294113,-0.10232838350183825,0.42640739889705875,0.44434602133436546,1.645870220830955,-1.8866699446666289,-0.07669130957824102,2.504854051814465
627,1791617957.7844708,0.10528693704044113,0.06532298368566176,0.48388786764705877,0.4994996494142639,1.6492492536194132,-1.8924056779054594,-0.07409767176798811,2.5113169483946964
628,1791617957.7944057,0.3256287339154411,-0.21728932100183823,0.057574391084558744,0.3956810987165937,1.6509970781691266,-1.8949407308381072,-0.07259909726656921,2.5143313931214744
629,1791617957.8144057,0.29209846047794114,-0.6579729147518383,-0.12444709329044126,0.7305730259112042,1.654914436223215,-1.9005914471000172,-0.0701351391848081,2.521092734858877
630,1791617957.8269117,0.32083869485294114,-0.6819231100643384,0.009674000459558739,0.7536910391132762,1.657571439737389,-1.9048515921631974,-0.06893318253491794,2.5260155283873735
631,1791617957.8469117,0.38310920266544113,-0.48553150850183824,0.19648552389705876,0.6489376457072916,1.6622391458984955,-1.9123937807226339,-0.06699006938302696,2.534714307392435
632,1791617957.885237,0.28730842141544116,-0.49032154756433827,0.20127556295955876,0.6028873868864796,1.6717690799718516,-1.9274836930292762,-0.06268175002916236,2.552241024164925
633,1791617957.905237,0.27293830422794113,-0.5334318991268382,0.21564568014705876,0.6368264820867432,1.6768366486157957,-1.9357127644289256,-0.06014532460658117,2.5617147601921175
634,1791617957.9152715,0.28730842141544116,-0.26518971162683824,0.20127556295955876,0.4397539816916336,1.6794194480969453,-1.9398232466900343,-0.05874984551560252,2.566479194420524
635,1791617957.9352715,0.2537781479779411,-0.15980885225183822,0.20127556295955876,0.3611842603074654,1.6846067094162263,-1.9474244895967727,-0.055781877956751026,2.5755530524529675
636,1791617957.9446409,0.2537781479779411,-0.15501881318933822,0.25875603170955874,0.3941939431039281,1.687028931699696,-1.9506725253343569,-0.05427677141563215,2.579561180782778
637,1791617957.9646409,0.33041877297794114,-0.011317641314338234,0.23959587545955874,0.4083023855898966,1.6923001562087985,-1.9568153326689124,-0.05079834798267167,2.587583145916328
638,1791617958.004647,0.45016974954044114,0.007842514935661767,0.32102653952205873,0.5529668593318477,1.7036047528355753,-1.9672701504621692,-0.04320198546286094,2.602746128674739
639,1791617958.024647,0.37831916360294116,0.12280345243566176,0.35934685202205874,0.5360375337021748,1.70965119414502,-1.9715167907791264,-0.03895347252109148,2.609847320244418
640,1791617958.0361087,0.31125861672794114,0.20902415556066178,0.23001579733455876,0.4398639461455006,1.7131893438062105,-1.9733001830112926,-0.03637728520777011,2.613475587581151
641,1791617958.0561087,0.49807014016544116,0.05095286649816177,0.17732536764705875,0.5311443731604113,1.7196511004613106,-1.9755553356823914,-0.0319452867812723,2.6193585651850912
642,1791617958.0651093,0.47890998391544115,-0.15980885225183822,0.09589470358455875,0.5138963281903348,1.7227823741112624,-1.9764914663336606,-0.030065509484491677,2.622098693775424
643,1791617958.0851092,0.4932801011029411,-0.23165943818933823,-0.043016429227941265,0.5466642174405145,1.73015492550163,-1.9788468072636656,-0.026435718026852528,2.628682103268242
644,1791617958.1246314,0.45016974954044114,-0.28434986787683825,-0.05259650735294127,0.5350458329420078,1.7453350938561316,-1.9843325945893389,-0.02062219187751041,2.642762893373767
645,1791617958.1446314,0.4549597886029412,-0.22207936006433823,0.04320427389705874,0.5081085127167139,1.7532223526604858,-1.987451882766527,-0.018135662263995784,2.6502985692986245
646,1791617958.1543186,0.6369812729779412,-0.21728932100183823,-0.05738654641544126,0.6754650300759691,1.757262920252818,-1.9890553301358302,-0.017122247654049166,2.6541679013585306
647,1791617958.1743186,0.7088318589154412,-0.2699797506893382,-0.17713752297794128,0.77891551020798,1.7663724060373895,-1.9926001132884572,-0.01569559815710177,2.6628505478319653
648,1791617958.1848133,0.6369812729779412,-0.48553150850183824,-0.17713752297794128,0.820282689028258,1.771494763312638,-1.9947758424855566,-0.015338127032338545,2.667875487414831
