imu_index,t_imu,ax,ay,az,mag,vx,vy,vz,velocity
0,1791286415.025639,-0.023168148118622355,-0.11315245336415818,0.021848443478955107,0.11754826783933275,0.0,0.0,0.0,0.0
1,1791286415.045639,-0.018378109056122357,-0.09878233617665817,0.021848443478955107,0.10282538264188533,-9.185868701000647e-05,-0.0004621711215893774,9.340200679735315e-05,0.0004803791199502308
2,1791286415.0706553,-0.03274822624362236,-0.08441221898915817,0.045798638791455105,0.10146617343690087,-0.00028544671143325727,-0.0012972625836234273,0.0003196274865938914,0.0013662107326923322
3,1791286415.0906553,-0.013588069993622356,-0.09878233617665817,0.026638482541455104,0.10320946826130488,-0.00048650500621013715,-0.0021395456247423534,0.0005820159625225458,0.0022700407886319398
4,1791286415.1007147,-0.004007991868622354,-0.07483214086415817,0.007478326291455104,0.0753116104545217,-0.0005857374447380151,-0.0026306248001055337,0.000719932574688853,0.002789548010914424
5,1791286415.1207147,-0.027958187181122356,-0.10357237523915817,-0.006891790896044896,0.10750066941601093,-0.0008013862430396408,-0.003728139063382389,0.0009538869405795225,0.003930793950572717
6,1791286415.1463287,-0.023168148118622355,-0.10357237523915817,0.026638482541455104,0.10942398618236689,-0.0011343572186354152,-0.005320825608240551,0.0012465033835221014,0.005581372782560824
7,1791286415.1663287,-0.018378109056122357,-0.07962217992665817,0.05058867785395511,0.09610754786052499,-0.0014176688170789457,-0.006652680539130242,0.0015565530508340956,0.006977879379202624
8,1791286415.1911204,0.015152164381377646,-0.07483214086415817,0.026638482541455104,0.08086436881510242,-0.0017221780526056963,-0.008343177246901857,0.0020268311186544194,0.00875685721030345
9,1791286415.2111204,0.07742267219387765,-0.10357237523915817,-0.002101751833544896,0.12932874561786886,-0.0017921216355853914,-0.00976997802461684,0.0023861115998500856,0.010215561615749198
10,1791286415.2206798,0.15885333625637765,-0.11315245336415818,-0.026051947146044897,0.19676525123153754,-0.0016511387955327843,-0.010505032755785786,0.002511893208621786,0.010926645414479505
11,1791286415.2406797,0.13490314094387765,-0.05088194555165817,0.03142852160395511,0.147565516940293,-0.000959787115179377,-0.012058271574351473,0.0027436422783153527,0.012403655816679071
12,1791286415.2657845,0.12053302375637766,-0.036511828364158165,0.05058867785395511,0.13572228171291734,0.00025880267905240895,-0.013880054945244783,0.0031453343931574134,0.0142343258552865
13,1791286415.2857845,0.10616290656887765,-0.10836241430165817,0.026638482541455104,0.15402137616755626,0.0014240286387036144,-0.015331008103890488,0.003533185555711064,0.015797185420716224
14,1791286415.3114188,0.10137286750637765,-0.15626280492665817,-0.006891790896044896,0.18639211155992422,0.0030924961438374234,-0.01742052203035245,0.003993697658475164,0.018138019219224418
15,1791286415.3314188,0.11095294563137766,-0.12273253148915818,-0.0308419862085449,0.16830050072208558,0.004517468175253531,-0.01922472512574077,0.004242496519579102,0.020198919565000445
16,1791286415.341495,0.09658282844387765,-0.08441221898915817,-0.016471869021044895,0.1293251249136824,0.0052845409657269705,-0.020153905268649457,0.004313286675170563,0.021276999617858408
17,1791286415.361495,0.04868243781887765,-0.11315245336415818,-0.002101751833544896,0.12319851790945656,0.006796588809611601,-0.022017898035964312,0.004404858339718885,0.023460269187757628
18,1791286415.3856754,0.029522281568877647,-0.13231260961415817,0.045798638791455105,0.14309335095346287,0.00849229942988301,-0.024378623173771867,0.004578209310786425,0.02621824589763643
19,1791286415.4056754,0.07742267219387765,-0.09399229711415817,0.041008599728955104,0.12849329686083424,0.009844882196875356,-0.026377782641345413,0.0048302940497632245,0.02856642895343404
20,1791286415.4313228,0.10137286750637765,-0.05088194555165817,-0.002101751833544896,0.11344535252868367,0.011663141614049074,-0.02883557127425249,0.005179909818996239,0.031533323782227465
21,1791286415.4513228,0.05826251594387765,-0.09399229711415817,0.012268365353955105,0.11126358554965281,0.013107799605730294,-0.030681989629570125,0.005426897132402594,0.033803108002352554
22,1791286415.460875,0.015152164381377646,-0.15626280492665817,-0.002101751833544896,0.15700977565029806,0.013746883882181678,-0.031610868469267424,0.005534450266158417,0.03491208904663387
23,1791286415.480875,0.07263263313137765,-0.17063292211415818,0.002688287228955104,0.1854678419377306,0.015015929980010572,-0.03375432380472571,0.005726740822225163,0.03738486443901855
24,1791286415.50587,0.07742267219387765,-0.12752257055165817,0.026638482541455104,0.15154499306098726,0.016645326273278534,-0.03659023157616906,0.005985986485600381,0.04064165311287628
25,1791286415.52587,0.05826251594387765,-0.05088194555165817,0.021848443478955107,0.08037939804256809,0.017957059998899565,-0.03878663246559423,0.0062350383278259505,0.04319414965912196
26,1791286415.5501766,0.05826251594387765,-0.06525206273915816,0.017058404416455106,0.08912542632190304,0.019524542642896246,-0.04126728889473109,0.006563242843520894,0.04612237043733223
27,1791286415.5701766,0.07742267219387765,-0.09399229711415817,-0.002101751833544896,0.12179178727322558,0.020824367121734907,-0.043241125568679276,0.00681522394076603,0.04847573087463327
28,1791286415.5809307,0.07263263313137765,-0.07962217992665817,0.007478326291455104,0.10803294079118597,0.02153948028390568,-0.04428329787588825,0.0069347284322284234,0.04972977116470744
29,1791286415.6009307,0.024732242506377646,-0.08920225805165817,0.002688287228955104,0.09260644442550557,0.022815970975873914,-0.04618398953540116,0.007138889806621464,0.05200474179004304
30,1791286415.6257825,0.04389239875637765,-0.13710264867665817,-0.021261908083544896,0.14551889113822003,0.02429211202599101,-0.04861331105615474,0.007319906461635135,0.054835588344913755
31,1791286415.6457825,0.08221271125637765,-0.17063292211415818,-0.0356320252710449,0.1927282159577504,0.02549103036972931,-0.05073670217702638,0.0073583908919843555,0.05725514381808829
32,1791286415.670131,0.06784259406887765,-0.12752257055165817,0.007478326291455104,0.14463937546262642,0.02700570720065364,-0.05347848592474447,0.0073468025272103495,0.06035919304947965
33,1791286415.690131,0.04868243781887765,-0.09399229711415817,0.021848443478955107,0.10808277453525225,0.02823803341697804,-0.05572505588480468,0.00738270170887508,0.06290606226068518
34,1791286415.716118,0.039102359693877646,-0.09878233617665817,0.002688287228955104,0.10627403898588338,0.029770177831292367,-0.058582015708754064,0.007470173708819549,0.06613561482172384
35,1791286415.736118,0.034312320631377645,-0.15147276586415817,0.012268365353955105,0.15579424551024557,0.030882580948142262,-0.06082633222301041,0.007549830126868541,0.06863363922062683
36,1791286415.745175,0.015152164381377646,-0.10357237523915817,0.017058404416455106,0.10605571252580696,0.03134436047059104,-0.061863444607869245,0.007600411564901402,0.06976618785641897
37,1791286415.7651749,0.039102359693877646,-0.07004210180165817,0.007478326291455104,0.08056560011906261,0.03229252058926193,-0.06407056700141166,0.007732159983701424,0.07216391577446335
38,1791286415.7902074,0.08700275031887765,-0.09399229711415817,-0.006891790896044896,0.1282635071312178,0.03353800679572568,-0.06672665185683375,0.007873426087924176,0.07509483874551728
39,1791286415.8102074,0.07742267219387765,-0.11794249242665818,0.017058404416455106,0.14211154369258078,0.03463047424195276,-0.06884834332646676,0.007984612058160308,0.07747979191209094
40,1791286415.8357842,0.04389239875637765,-0.08441221898915817,0.05058867785395511,0.10775518414569994,0.03605071829193646,-0.0715428259568333,0.008235237864797471,0.08053477123543654
41,1791286415.8557842,0.05826251594387765,-0.04609190648915817,0.05058867785395511,0.08987880136565655,0.037147934815702485,-0.07352950605617802,0.008553585564759908,0.08282343356774621
42,1791286415.8661397,0.05826251594387765,-0.07483214086415817,0.03142852160395511,0.09991057021473794,0.03772132897243608,-0.074497776792838,0.008757392449890494,0.08396135616486705
43,1791286415.8861396,0.05826251594387765,-0.13231260961415817,0.012268365353955105,0.14509190265303348,0.03883742456596833,-0.07639804800734883,0.009157515760622594,0.08619087759824996
44,1791286415.9108973,0.05826251594387765,-0.15147276586415817,0.045798638791455105,0.16862987540112473,0.04022814657671949,-0.07892445226211806,0.009686345589722341,0.08911340097177815
45,1791286415.9308972,0.08700275031887765,-0.09399229711415817,0.08411895129145511,0.15323194329583942,0.04140099260860709,-0.08102742146659936,0.010244346240681755,0.09156654328084486
46,1791286415.9553306,0.08221271125637765,-0.09399229711415817,0.08411895129145511,0.15056387274274963,0.042928986538873226,-0.08355566783942511,0.011132081417976022,0.09459582839662405
47,1791286415.9753306,0.05826251594387765,-0.13710264867665817,0.09848906847895511,0.17858262414949017,0.044202829944514466,-0.08566138530682921,0.012023651777953845,0.09714078087943402
48,1791286415.9853277,0.024732242506377646,-0.12752257055165817,0.11285918566645511,0.17207813809078798,0.044806286701449614,-0.08675447113146147,0.012560926460728053,0.09844652590530506
49,1791286416.0053277,-0.013588069993622356,-0.07004210180165817,0.08890899035395511,0.11399710626461142,0.04584917302096054,-0.08890959556032148,0.013777206788260665,0.10097957355966804
50,1791286416.0304096,-0.008798030931122355,-0.08920225805165817,0.041008599728955104,0.0985705505793148,0.0469187582223991,-0.09150647743776155,0.015318131278238181,0.10396850692424532
51,1791286416.0504096,-0.018378109056122357,-0.09399229711415817,0.03142852160395511,0.1007971169205012,0.04760293716568165,-0.09354138277348194,0.016471194162642123,0.10624184747602215
52,1791286416.0756528,0.005572086256377646,-0.08920225805165817,0.045798638791455105,0.10042711935485008,0.048312707106433955,-0.09607134406602505,0.017854456774989813,0.10900735041883469
53,1791286416.0956528,-0.018378109056122357,-0.05088194555165817,0.045798638791455105,0.07088189183952985,0.048771489713576754,-0.09798526211117974,0.01892340502991603,0.11107594275001391
54,1791286416.1047003,-0.056698421556122355,-0.03172178930165817,0.0649587950414551,0.09187289032512434,0.048896956392396815,-0.09877725270546332,0.019409592352680412,0.11191331588232094
55,1791286416.1247003,-0.03274822624362236,-0.041301867426658166,0.06016875597895511,0.07999106056983973,0.048998534497069875,-0.1003749135352161,0.02051081420786197,0.11356352032907438
56,1791286416.1503196,0.010362125318877646,-0.08441221898915817,0.03142852160395511,0.09066723954112639,0.04906612109889602,-0.10235603123306106,0.021885845671936188,0.11559944467968135
57,1791286416.1703196,0.04868243781887765,-0.10836241430165817,0.026638482541455104,0.12174564196464902,0.049199535788306006,-0.10395978816404738,0.02288536530299936,0.11726880157121986
58,1791286416.1955922,0.034312320631377645,-0.17063292211415818,0.05537871691645511,0.18264646655120295,0.049500146801098245,-0.10621118288250744,0.024114395339636628,0.11963521206245262
59,1791286416.2155921,-0.023168148118622355,-0.13710264867665817,0.12722930285395512,0.1884706737561709,0.04971907337313209,-0.10818721889580206,0.02521503187109379,0.12170562198087383
60,1791286416.2255728,-0.03753826530612236,-0.07004210180165817,0.14159942004145512,0.1623742995152346,0.04976649564087493,-0.10918047074429135,0.02588313102239548,0.12274777289971811
61,1791286416.2455728,-0.051908382493622354,-0.041301867426658166,0.1847097716039551,0.19626009312139517,0.04971309964212271,-0.11103928186344572,0.027510560531865815,0.12473149295007585
62,1791286416.2709637,0.005572086256377646,-0.03172178930165817,0.23740020129145512,0.23957498958566337,0.04956724044775532,-0.1131842086214767,0.030070570673823904,0.12716845374354832
63,1791286416.2909636,-0.004007991868622354,0.016178601323341833,0.24219024035395512,0.24276310193747552,0.04947192925664044,-0.1146436194883351,0.03250396317300817,0.1290237919754046
64,1791286416.3159301,-0.08543865593112236,0.08323914819834184,0.2278201231664551,0.25715856633540524,0.049203309221981004,-0.11600600750016976,0.03596606615127207,0.13104166256927988
65,1791286416.33593,-0.10938885124362235,0.06886903101084184,0.2182400450414551,0.25364853925948005,0.048728161537157984,-0.11670551229049902,0.038992544488136965,0.1323443570819645
66,1791286416.360611,-0.11896892936862236,0.08802918726084184,0.2038699278539551,0.2519239795019471,0.04780705657294674,-0.11714882028205867,0.04294848290728753,0.133618609990093
67,1791286416.380611,-0.12375896843112236,0.13592957788584184,0.1847097716039551,0.2605970685509412,0.046808514978575085,-0.11711822962820871,0.046256172201175026,0.1343404267242369
68,1791286416.3906684,-0.15728924186862236,0.22694032007334183,0.2038699278539551,0.3432269831551326,0.046169699247468755,-0.11683143797660181,0.047963126591794705,0.13446816552903068
69,1791286416.4106684,-0.16686931999362237,0.33711121851084186,0.2230300841039551,0.43730053969371663,0.044603679440058525,-0.1155006010495293,0.0514887201582012,0.13409312199335052
70,1791286416.4359596,-0.14291912468112236,0.39938172632334185,0.2565603575414551,0.4957366806908988,0.042332781215060664,-0.11267310523722783,0.05618800684315035,0.1328321690036247
71,1791286416.4559596,-0.14291912468112236,0.5239227419483419,0.29488067004145513,0.61796077973799,0.04037759504878054,-0.10938759256667184,0.060173886177357895,0.13121315546522433
72,1791286416.4809315,-0.12854900749362236,0.5814032106983419,0.30446074816645513,0.6687681869766335,0.03779410570885282,-0.10383048527398529,0.06552664219933321,0.12846363273892986
73,1791286416.5009315,-0.07585857780612236,0.5670330935108419,0.24698027941645512,0.6231214258745023,0.03572875107973794,-0.09832476031042585,0.06999776035028484,0.12587290652827748
74,1791286416.511086,-0.08543865593112236,0.5047625856983419,0.2709304747289551,0.579213565090675,0.034714572348446084,-0.09513241127133577,0.07232177696845843,0.12444161937032769
75,1791286416.531086,-0.03274822624362236,0.5718231325733418,0.3475710997289551,0.6699700072651673,0.03283941969782808,-0.08817310976006668,0.07714024689122397,0.12166980916106448
76,1791286416.555668,0.034312320631377645,0.6772039919483419,0.30446074816645513,0.7432892634983759,0.03088325212232571,-0.07859965062195558,0.0833764318270244,0.11867312131966136
77,1791286416.575668,0.024732242506377646,0.6628338747608419,0.2757205137914551,0.7183190315418977,0.029619015310939464,-0.06996899233190976,0.08855938722244186,0.11668637890151065
78,1791286416.6011,0.10616290656887765,0.6676239138233419,0.2613503966039551,0.7247732630588644,0.02850222606175504,-0.05810279492674914,0.09518581728433372,0.11510278659034201
79,1791286416.6211,0.19238360969387766,0.7011541872608419,0.14638945910395512,0.7416593027320608,0.028203525468759386,-0.04811764705592257,0.10022687651551912,0.11470036435479362
80,1791286416.6312559,0.2546541175063777,0.7634246950733419,0.007478326291455104,0.8048117233085628,0.028415104100140035,-0.04269222859507212,0.10251993316103693,0.11463150186043611
81,1791286416.6512558,0.2642341956313777,0.7825848513233419,0.05058867785395511,0.8275372946210638,0.029547597207743238,-0.03129161085624557,0.10644538011800694,0.11481656831309987
82,1791286416.6758168,0.2929744300063777,0.6915741091358418,0.08411895129145511,0.7557676647164585,0.03175615640750965,-0.016675681459192054,0.11079106126857008,0.11645252714699972
83,1791286416.6958168,0.33608478156887767,0.6005633669483419,0.002688287228955104,0.6882125870766637,0.03422841091539823,-0.0046209798950767374,0.11392915949194748,0.11904953150485584
84,1791286416.7511122,0.13490314094387765,0.4424920778858419,-0.1074826112085449,0.4749216863236095,0.041991618664738266,0.028034005171628636,0.12086927852807683,0.1309907782095576
85,1791286416.7711122,0.32650470344387766,0.42812196069834185,-0.1170626893335449,0.5509967403144679,0.04507044268173336,0.03937934128803107,0.12266612422921759,0.1364882975101693
86,1791286416.7511122,0.37919513313137765,0.21736024194834183,-0.0308419862085449,0.43816167322536664,0.04507044268173336,0.03937934128803107,0.12266612422921759,0.1364882975101693
87,1791286416.7711122,0.24507403938137765,0.07844910913584184,-0.050002142458544896,0.26213691413716783,0.049131062333305726,0.04884304925910971,0.12365450088946588,0.14173898665204965
88,1791286416.7963219,0.22591388313137767,0.020968640385841834,-0.2128634705835449,0.3111070934260423,0.054372166722440635,0.059170549236594434,0.12421645274385337,0.14794327812820388
89,1791286416.8163218,0.18759357063137766,-0.036511828364158165,-0.2224435487085449,0.2932671030217576,0.05852673403833183,0.06611152099572064,0.12394244163765508,0.15217700432281078
90,1791286416.8416672,0.13490314094387765,-0.08920225805165817,-0.2463937440210449,0.29473000758447815,0.06361497369940797,0.0733492087965888,0.12275607054448634,0.15651205757188438
91,1791286416.8616672,0.19717364875637766,-0.19458311742665818,-0.2368136658960449,0.364445811756019,0.06752594620977356,0.0777780979279782,0.12123552011846152,0.15908248573370135
92,1791286416.870707,0.24986407844387765,-0.4197149533641582,-0.2559738221460449,0.551466497076786,0.0693316106603059,0.0790631674401831,0.12031722647796543,0.15979390373157762
93,1791286416.890707,0.26902423469387765,-0.4628253049266582,-0.2895040955835449,0.6085999696785459,0.07350559258508761,0.08015600141934777,0.1177721092508243,0.16030697558812426
94,1791286416.9162455,0.20196368781887766,-0.3718145627391582,-0.2799240174585449,0.507338994965343,0.07893809207211407,0.07974349165169237,0.11391900425418414,0.15989930072096598
95,1791286416.9362454,0.20196368781887766,-0.5011456174266582,-0.1841232362085449,0.5708218874353498,0.08316019352691592,0.07815946036376338,0.11065806668915773,0.15896454559168496
96,1791286416.960338,0.26902423469387765,-0.6783770627391582,-0.1937033143335449,0.7550433445088001,0.08833442243297329,0.07440616877090318,0.10663634957713845,0.1571959261204589
97,1791286416.980338,0.25944415656887765,-0.8508184689891582,-0.2320236268335449,0.919259648282129,0.09277810159349484,0.06946402507232496,0.10316000399113479,0.1551612494729028
98,1791286417.0054579,0.25944415656887765,-0.8603985471141582,-0.1984933533960449,0.92032415028418,0.0984997138017512,0.060963928508149134,0.09863759925174234,0.15214522728078242
99,1791286417.0254579,0.23549396125637767,-0.8603985471141582,-0.1841232362085449,0.9108481935955531,0.10311426043226755,0.0526302368914004,0.09500310660247306,0.14976008414747663
100,1791286417.035501,0.15885333625637765,-0.8843487424266582,-0.2128634705835449,0.9233731303109624,0.10538094250677356,0.04775892750825221,0.09315275682733129,0.14853785478754675
101,1791286417.055501,0.13011310188137765,-0.9418292111766582,-0.2320236268335449,0.9786759656371622,0.10965119401598664,0.036774020324449125,0.08935334831007472,0.14614969645598336
102,1791286417.080982,0.010362125318877646,-0.9322491330516582,-0.2032833924585449,0.954211694209491,0.11454409120889049,0.021296490581494,0.08440690185336586,0.14386943533093477
103,1791286417.100982,-0.023168148118622355,-1.0711602658641581,-0.2703439393335449,1.1049918206881895,0.11778924465228809,0.007965336298588564,0.0803963729591967,0.14283322275682378
104,1791286417.12571,0.04389239875637765,-1.2100713986766582,-0.2703439393335449,1.2406793212181189,0.12123815299594269,-0.010275736679146216,0.0751787713526633,0.14302492149364315
105,1791286417.14571,0.04389239875637765,-1.1717510861766582,-0.1697531190210449,1.1847967218228366,0.12374087682385324,-0.026388793567061652,0.07093164288079874,0.14504989136442048
106,1791286417.1561534,0.005572086256377646,-1.0951104611766582,-0.1458029237085449,1.1047879719139602,0.12489044679041394,-0.03531606461022874,0.06879940561329657,0.14689522229060403
107,1791286417.1761534,-0.018378109056122357,-1.2675518674266582,-0.1793331971460449,1.2803069503474194,0.12674252289844454,-0.05339198404135678,0.06484081800541883,0.15204835661771252
108,1791286417.2007952,-0.07585857780612236,-1.5070538205516582,-0.1458029237085449,1.5159895231920557,0.12850799499153095,-0.07745028698795367,0.06009419203129655,0.16162971152345126
109,1791286417.2207952,-0.03274822624362236,-1.6220147580516582,-0.2128634705835449,1.6362503411056495,0.12956305826770803,-0.09874135604711302,0.05628156524749784,0.17234864678439632
110,1791286417.2458353,-0.027958187181122356,-1.6555450314891582,-0.2368136658960449,1.672630181442992,0.130571857063136,-0.12755476287801595,0.051379640988981304,0.1896288345635745
111,1791286417.2658353,-0.027958187181122356,-1.6651251096141582,-0.1793331971460449,1.6749876675655373,0.13117286519531807,-0.1520974454810225,0.04742746063619305,0.20637179436104958
112,1791286417.276076,-0.027958187181122356,-1.641174914301658,-0.2272335877710449,1.657067247571688,0.13139149734311592,-0.16531869364169263,0.04539506939120897,0.21599701008693278
113,1791286417.296076,0.06305255500637764,-1.7034454221141582,-0.31345429089604493,1.733192292648354,0.13180707391083124,-0.19228323605271838,0.041210215885368426,0.23673662473972934
114,1791286417.3208072,0.09179278938137765,-1.794456164301658,-0.2607638612085449,1.8156256863943685,0.13253108902833272,-0.22711303679356606,0.03574653882117483,0.26537263626516827
115,1791286417.3408072,0.07263263313137765,-1.914207140864158,-0.2368136658960449,1.9301671404015912,0.13327540862287626,-0.2566177286074556,0.031244489138616972,0.2908456829330247
116,1791286417.3659012,-0.008798030931122355,-1.9525274533641581,-0.3278244080835449,1.9798761840136156,0.1341893635949232,-0.2953618026061201,0.025380386451162973,0.3254067358816617
117,1791286417.3859012,-0.10938885124362235,-2.019588000239158,-0.2751339783960449,2.041176209334813,0.1346312433879731,-0.3275671918458476,0.020503305980573504,0.354748111236831
118,1791286417.3961332,-0.09022869499362236,-2.134548937739158,-0.2224435487085449,2.148004077595215,0.13467021280542252,-0.3447598779691062,0.01800062266229536,0.3705664071263896
119,1791286417.4161332,-0.07585857780612236,-2.182449328364158,-0.2990841737085449,2.2041531112122987,0.13448582815556062,-0.3798002824632116,0.01306023044268368,0.4031194142596438
120,1791286417.4408684,-0.07106853874362236,-2.321360461176658,-0.5529562440210449,2.387367951471939,0.13401942374166287,-0.42499162286839903,0.006286000294128157,0.4456664663715015
121,1791286417.4608684,-0.13333904655612236,-2.603972765864158,-0.505055853396045,2.655849182794147,0.1333922628516483,-0.4634386599155314,4.31997862518586e-05,0.4822539674893389
122,1791286417.4855826,-0.11417889030612235,-2.7716241330516582,-0.3853048768335449,2.800606541807972,0.13227472957892306,-0.5137857607735171,-0.008164305775389812,0.5306025517725985
123,1791286417.5055826,-0.14291912468112236,-2.738093859614158,-0.4571554627710449,2.7796717391443515,0.13112037411265462,-0.5566821936570967,-0.01507362729501031,0.5721143517533437
124,1791286417.516111,-0.15728924186862236,-2.896165148676658,-0.505055853396045,2.944077765458396,0.1303668009478445,-0.5803253349697695,-0.018925018386733248,0.5950891979511039
125,1791286417.5361109,-0.16207928093112237,-2.9680157346141582,-0.3278244080835449,2.990460823478498,0.12867096149380913,-0.6272979440489934,-0.026393140643560534,0.640902117965658
126,1791286417.5608401,-0.14770916374362236,-2.996755968989158,-0.2799240174585449,3.01342359954191,0.12631408131718194,-0.6877287096834692,-0.03536928115962251,0.7001264252345012
127,1791286417.58084,-0.10459881218112237,-2.9823858518016584,-0.3757247987085449,3.0077791482921383,0.12431539581840596,-0.7382402005904848,-0.042523350280101437,0.7498407475753837
128,1791286417.6062195,-0.11417889030612235,-3.0111260861766582,-0.3900949158960449,3.0384356450734713,0.12174312714516235,-0.8041316146164775,-0.051697622218428926,0.8149366151890746
129,1791286417.6262195,-0.17165935905612237,-2.886585070551658,-0.3709347596460449,2.915378689123756,0.11959137860249641,-0.8571144455283481,-0.05898439978756045,0.8674251725582514
130,1791286417.6357822,-0.056698421556122355,-2.7189337033641583,-0.3565646424585449,2.742800309637594,0.1185530933083515,-0.8826678443960694,-0.062467632100812784,0.8927819243936702
131,1791286417.6557822,0.010362125318877646,-2.6662432736766584,-0.32303436902104493,2.6857609297247538,0.11663779471559164,-0.9361727271126972,-0.06967928729264705,0.9459804190485933
132,1791286417.6808476,-0.04711834343112236,-2.690193468989158,-0.4379953065210449,2.726022913956168,0.11452836438798121,-1.0032400874133036,-0.07879239456804686,1.0128255825581254
133,1791286417.7008476,-0.061488460618622356,-2.766834093989158,-0.43320526745854493,2.801217331483561,0.11293478697060093,-1.0569123490480155,-0.08627992696980782,1.0664249647660187
134,1791286417.7260516,-0.11896892936862236,-2.6327130002391583,-0.2990841737085449,2.6523164763553972,0.11088667902759317,-1.1246111318184506,-0.09568458025725637,1.1341082806746243
135,1791286417.7460515,-0.28662029655612237,-2.4794317502391583,-0.2511837830835449,2.508550635601382,0.1088968531320395,-1.1779419666419098,-0.10285339171262403,1.1874277332052934
136,1791286417.7712414,-0.20518963249362238,-2.5225421018016583,-0.34219452527104494,2.55390260851315,0.10583745632652433,-1.2444863325804782,-0.11164914622092324,1.2539590627261876
137,1791286417.7912414,-0.051908382493622354,-2.656663195551658,-0.4188351502710449,2.689977081291664,0.10338710340075798,-1.2971641718568232,-0.11872671254372062,1.3066827519218411
138,1791286417.7999625,-0.09980877311862237,-2.637503039301658,-0.4092550721460449,2.670931258492849,0.10237965012446966,-1.3201519166949,-0.12189163611595967,1.3297143478461277
139,1791286417.8199625,-0.13812908561862236,-2.5656524533641583,-0.4140451112085449,2.602515227594847,0.10005892449894298,-1.3727664368799615,-0.12929594090815041,1.3824676918218792
140,1791286417.8459232,-0.10938885124362235,-2.551282336176658,-0.4667355408960449,2.5959294183006882,0.09701646791094279,-1.4407805559354714,-0.1391802584656182,1.4507349688189768
141,1791286417.8659232,-0.03274822624362236,-2.603972765864158,-0.4379953065210449,2.640754911046991,0.09481095316506392,-1.4930515076823936,-0.14700995791533533,1.5032643976223894
142,1791286417.906118,0.08700275031887765,-2.6327130002391583,-0.4236251893335449,2.667996536959747,0.09120687577653039,-1.5981313961436545,-0.1629827116444061,1.6090077743205422
143,1791286417.926118,-0.03274822624362236,-2.575232531489158,-0.46194550183354494,2.6165413591660283,0.08976394753336006,-1.650385837612686,-0.17106658935129862,1.6616542231347606
144,1791286417.9355764,-0.051908382493622354,-2.6758233518016583,-0.5529562440210449,2.7328530326422653,0.0891238524931631,-1.6751165674980588,-0.1750361763196251,1.6865930863164051
145,1791286417.9555764,0.039102359693877646,-2.766834093989158,-0.47152557995854494,2.806997732587199,0.087954190748389,-1.7277294697085908,-0.18370749772520162,1.7396935088946521
146,1791286417.9663038,0.029522281568877647,-2.757254015864158,-0.4140451112085449,2.788324699030541,0.08747613654129566,-1.7561609250029055,-0.18837337539897836,1.768399784418234
147,1791286417.9863038,-0.061488460618622356,-2.661453234614158,-0.3900949158960449,2.6905925358989897,0.08667060304201667,-1.8093450055973417,-0.19697371555927462,1.822097633864041
148,1791286418.0109835,-0.13333904655612236,-2.5129620236766583,-0.3086642518335449,2.5353561986706215,0.08546506900219382,-1.874706785229316,-0.20728788241562343,1.888067285559691
149,1791286418.0309834,-0.11896892936862236,-2.431531359614158,-0.33261444714604493,2.457057331319817,0.08425620461125682,-1.9271463896231473,-0.21535446240175998,1.9409713700952358
150,1791286418.040538,-0.07585857780612236,-2.441111437739158,-0.4092550721460449,2.4763419168937415,0.08362570593742806,-1.9519323614776718,-0.21916169546748604,1.9659768694563822
151,1791286418.060538,-0.04232830436862236,-2.498591906489158,-0.3853048768335449,2.528480383280749,0.0823266164260314,-2.0034421372440647,-0.22712752102934444,2.0179556436815353
152,1791286418.0855582,-0.14291912468112236,-2.3501006955516583,-0.1841232362085449,2.3616309029024656,0.08059760300878933,-2.067313994000628,-0.23666656828718236,2.0823770523001888
153,1791286418.1055582,-0.20039959343112237,-2.244719836176658,-0.13143280652104491,2.2574768487411605,0.07890784300396861,-2.117604108388404,-0.24362123102005412,2.1330318590575983
154,1791286418.1308708,-0.21955974968112238,-2.302200304926658,-0.2559738221460449,2.326769289230991,0.07629274582534962,-2.1803377676091764,-0.25183845382521824,2.196159368250313
155,1791286418.1508708,-0.14291912468112236,-2.465061633051658,-0.2799240174585449,2.485017542492016,0.0739927287770285,-2.229620578992838,-0.25816098662300635,2.2457359473442984
156,1791286418.1609347,-0.16686931999362237,-2.383630968989158,-0.2942941346460449,2.4075196788326343,0.07277514994344633,-2.2543593577041285,-0.26129864744951914,2.270618708474941
157,1791286418.1809347,-0.16686931999362237,-2.4363213986766583,-0.3182443299585449,2.4626787815619977,0.07021780025319266,-2.3033781877572337,-0.26751761166230614,2.3199239832067127
158,1791286418.2061746,-0.11417889030612235,-2.580022570551658,-0.35177460339604494,2.6063957211332984,0.0669425115696391,-2.3654565394284868,-0.2754570293050909,2.3823816895648418
159,1791286418.2261746,-0.06627849968112236,-2.527332140864158,-0.2751339783960449,2.5431278567608477,0.06446580446520042,-2.4149295013640684,-0.2817448662500456,2.4321637498659725
160,1791286418.2507825,-0.051908382493622354,-2.503381945551658,-0.2416037049585449,2.515549243353587,0.06165744870417077,-2.47595478322217,-0.2892746034038354,2.493558406317345
161,1791286418.2707825,-0.056698421556122355,-2.541702258051658,-0.2655539002710449,2.5561658697238365,0.05955442963943723,-2.525680771652142,-0.2952371411968725,2.543575251476775
162,1791286418.2808306,-0.09022869499362236,-2.484221789301658,-0.1937033143335449,2.4933952935355403,0.058545616084814005,-2.550703690440499,-0.29812952547160926,2.568734731253396
163,1791286418.3008306,-0.09980877311862237,-2.551282336176658,-0.2224435487085449,2.56290547668862,0.0565537969852793,-2.6005920131152047,-0.3036472311165329,2.6188697546072777
164,1791286418.3252182,-0.17165935905612237,-2.536912218989158,-0.2655539002710449,2.556542473020391,0.0539927942884436,-2.661606621001014,-0.31025877045549355,2.6801726682130136
165,1791286418.3452182,-0.19081951530612237,-2.4027911252391583,-0.3038742127710449,2.429435493306407,0.05166386565758133,-2.711547923954453,-0.31572165029301646,2.7303555554872583
166,1791286418.3709688,-0.11896892936862236,-2.3692608518016582,-0.3278244080835449,2.394790060228738,0.04851678516597385,-2.7754200950344767,-0.322920241166797,2.7945640204724684
167,1791286418.3909688,-0.15249920280612236,-2.508171984614158,-0.2990841737085449,2.530540269235554,0.04603195252997426,-2.8249031891639595,-0.32861294879878084,2.8443247773277687
168,1791286418.4310117,-0.22434978874362235,-2.493801867426658,-0.2128634705835449,2.5129049800577152,0.04067144611112452,-2.92413670844353,-0.33983842397351777,2.9440991509466077
169,1791286418.4510117,-0.23871990593112236,-2.374050890864158,-0.1984933533960449,2.394264905402715,0.03770106864602707,-2.9735675267052764,-0.34522117250912226,2.9937773571863624
170,1791286418.4611845,-0.14291912468112236,-2.4890118283641582,-0.33261444714604493,2.5152014091095323,0.03612566042806722,-2.9986490954280947,-0.34795359956933053,3.018985453477103
171,1791286418.4811845,-0.15249920280612236,-2.527332140864158,-0.3996749940210449,2.5632799023803923,0.0330498463409203,-3.0480877694539603,-0.35361823030040573,3.0687093696599503
172,1791286418.4912827,-0.17165935905612237,-2.517752062739158,-0.33261444714604493,2.5454223137682113,0.03148427790276721,-3.0731265755610337,-0.35660395800198313,3.0939076573222457
173,1791286418.5112827,-0.12375896843112236,-2.4794317502391583,-0.3086642518335449,2.5016338074788473,0.028405573383953307,-3.1227742623407617,-0.3625922389833697,3.1438828066434237
174,1791286418.5356467,-0.09980877311862237,-2.493801867426658,-0.3661447205835449,2.5225129338783048,0.024809139638842233,-3.183270577975006,-0.3700260069918026,3.2048005104625847
175,1791286418.5556467,-0.11417889030612235,-2.484221789301658,-0.35177460339604494,2.5116011006979417,0.02197874583634174,-3.232948926852728,-0.37628979857914,3.2548480519713165
176,1791286418.5661767,-0.10938885124362235,-2.450691515864158,-0.2320236268335449,2.464079907412492,0.02053551070814422,-3.2590785864242857,-0.37955405767397726,3.281169947196601
177,1791286418.5861766,-0.04232830436862236,-2.407581164301658,-0.2224435487085449,2.41820592183811,0.01797792707082024,-3.3085506040224275,-0.38550568924270334,3.330982579011398
178,1791286418.6113682,0.005572086256377646,-2.4363213986766583,-0.2703439393335449,2.4512810633073916,0.015170225421140233,-3.370669313635827,-0.3928088100898321,3.39351447895979
179,1791286418.6313682,-0.04711834343112236,-2.407581164301658,-0.31345429089604493,2.428357632942266,0.013213187783443988,-3.4198546631436217,-0.39861286385650724,3.443032489040506
180,1791286418.6556578,-0.056698421556122355,-2.4027911252391583,-0.32303436902104493,2.4250713610332872,0.011003794442120287,-3.4793923123663797,-0.40576394718360975,3.5029896271157317
181,1791286418.6756577,-0.11896892936862236,-2.388421008051658,-0.3469845643335449,2.4164243844456124,0.009193967724667471,-3.5282487575518795,-0.41177392573906024,3.5522079880163915
182,1791286418.6860805,-0.18602947624362237,-2.465061633051658,-0.35177460339604494,2.49697440763201,0.00815385884548255,-3.5536844568492483,-0.4149823607474942,3.577841537016078
183,1791286418.7060804,-0.16207928093112237,-2.536912218989158,-0.2895040955835449,2.5585163516232,0.005935223808036893,-3.6026743765843405,-0.4211774044741297,3.627214950429404
184,1791286418.7307112,-0.17644939811862237,-2.5129620236766583,-0.2655539002710449,2.5331070637631314,0.002987368850743485,-3.6632861606261935,-0.4286877977961771,3.688285190571275
185,1791286418.7507112,-0.2626701012436224,-2.4890118283641582,-0.2655539002710449,2.5168818680607936,0.0002941027611514748,-3.712622914776559,-0.4346680760995289,3.7379814512916583
186,1791286418.775435,-0.30578045280612237,-2.4890118283641582,-0.2128634705835449,2.5167424230866136,-0.0035899445992195016,-3.773694722142014,-0.4418390412337954,3.7994745007675887
187,1791286418.795435,-0.31057049186862234,-2.441111437739158,-0.2176535096460449,2.4703951368438406,-0.007185128649479387,-3.823082678971587,-0.44741554872856726,3.84918088293735
188,1791286418.8060997,-0.25788006218112236,-2.383630968989158,-0.2990841737085449,2.4161229409443665,-0.009269323357952965,-3.8493268652788193,-0.45035641609788307,3.875593391679951
189,1791286418.8260996,-0.21476971061862238,-2.374050890864158,-0.2990841737085449,2.402435223679305,-0.013300591582549065,-3.8982977207740537,-0.4559415343462525,3.9248929550078997
190,1791286418.8506508,-0.16686931999362237,-2.378840929926658,-0.2607638612085449,2.398901275826467,-0.01820964352401117,-3.958146809068448,-0.46280005499935145,3.985152650045342
191,1791286418.8706508,-0.14770916374362236,-2.4363213986766583,-0.31345429089604493,2.460840008449304,-0.02208069139186204,-4.006810920060817,-0.46841043490431017,4.034157860269996
192,1791286418.8957288,-0.18123943718112237,-2.388421008051658,-0.3900949158960449,2.4268450071440846,-0.02682523020488162,-4.067752667272854,-0.4757133551516741,4.095562788109911
193,1791286418.9157288,-0.18123943718112237,-2.455481554926658,-0.3374044862085449,2.4851718627669235,-0.030585189148616066,-4.116329875082057,-0.4817551270786574,4.144537983509729
194,1791286418.9257843,-0.15249920280612236,-2.5129620236766583,-0.2463937440210449,2.529613412438805,-0.0324437429637213,-4.1408369058603895,-0.4847774249935464,4.169243579976626
195,1791286418.9457843,-0.13333904655612236,-2.498591906489158,-0.2607638612085449,2.515698433402146,-0.03601458662589724,-4.189786021750118,-0.49064768292682365,4.218570742237705
196,1791286418.9712253,-0.17165935905612237,-2.4267413205516584,-0.3086642518335449,2.452307891106728,-0.04045748607521743,-4.252109673611153,-0.4980813528223982,4.281373438352051
197,1791286418.9912252,-0.18602947624362237,-2.4698516721141583,-0.2703439393335449,2.4915577644941247,-0.04396282595870862,-4.3011000862014415,-0.5039171457894049,4.330742104005832
198,1791286419.0156264,-0.17644939811862237,-2.484221789301658,-0.1984933533960449,2.498377853704272,-0.04826141248807166,-4.360972061624422,-0.5108271775068849,4.391053505878032
199,1791286419.0356264,-0.10938885124362235,-2.3501006955516583,-0.2655539002710449,2.367584860983435,-0.05168493764310372,-4.409935549172107,-0.5163373751203777,4.440361152606538
200,1791286419.0613163,-0.12375896843112236,-2.3692608518016582,-0.3709347596460449,2.4013133619044233,-0.055872023095650744,-4.472487800995217,-0.5235798618747596,4.503377031159685
201,1791286419.0813162,-0.16207928093112237,-2.460271593989158,-0.34219452527104494,2.4892374540454307,-0.059071540171902644,-4.521125392742843,-0.5294421948252097,4.552403024933507
202,1791286419.090696,-0.20518963249362238,-2.441111437739158,-0.2847140565210449,2.466209628300984,-0.0606053802692986,-4.543962578391943,-0.5322202059158746,4.575426458105198
203,1791286419.110696,-0.21476971061862238,-2.4123712033641582,-0.2847140565210449,2.4385903603107497,-0.06401523718884382,-4.5926327128539866,-0.5381091905070695,4.62449291130142
204,1791286419.1363983,-0.14291912468112236,-2.4698516721141583,-0.2847140565210449,2.4903122801017123,-0.0684294865722973,-4.655208651457132,-0.545639668483059,4.687576434689484
205,1791286419.1563983,-0.12375896843112236,-2.4363213986766583,-0.2895040955835449,2.456581132646868,-0.07174917778493191,-4.7039569044235785,-0.5514818064086698,4.7367172900635355
206,1791286419.1807168,-0.17165935905612237,-2.421951281489158,-0.3182443299585449,2.448794478719947,-0.07571900498221441,-4.763200876241976,-0.558628325507703,4.796444679260605
207,1791286419.2007167,-0.17644939811862237,-2.484221789301658,-0.3469845643335449,2.514535857056585,-0.07901630252946829,-4.811975033357952,-0.5646219910523611,4.845631567763445
208,1791286419.2113428,-0.19560955436862237,-2.4698516721141583,-0.2751339783960449,2.492815493788786,-0.08080190543919061,-4.837950046250749,-0.5678245837381869,4.871828645984757
209,1791286419.2313428,-0.20997967155612238,-2.4123712033641582,-0.2463937440210449,2.4339959248898015,-0.08426696088779043,-4.886829139735658,-0.5737304983173013,4.921114370380579
210,1791286419.2555912,-0.18123943718112237,-2.398001086176658,-0.3278244080835449,2.427081742634452,-0.08854937746508003,-4.945950073421256,-0.5808611647947243,4.980729144793146
211,1791286419.2755911,-0.12854900749362236,-2.441111437739158,-0.4044650330835449,2.4777291744207655,-0.09201636613849266,-4.994657099147636,-0.5869587486380582,5.029869493566007
212,1791286419.3004987,-0.20518963249362238,-2.460271593989158,-0.3374044862085449,2.4917626068280407,-0.09630987547745457,-5.055373190348634,-0.5947993531328214,5.091155070934044
213,1791286419.3204987,-0.25788006218112236,-2.474641711176658,-0.2559738221460449,2.5011749884384207,-0.09993489503376013,-5.1042156367399345,-0.60104080680836,5.140452733080493
214,1791286419.331558,-0.18123943718112237,-2.417161242426658,-0.2799240174585449,2.440056077435403,-0.10200295287506872,-5.131230052657615,-0.6044189135232645,5.16771213195129
215,1791286419.351558,-0.11417889030612235,-2.3932110471141583,-0.2799240174585449,2.4122299622073586,-0.10562503340087726,-5.179971314546078,-0.6104514041492268,5.216887039607904
216,1791286419.3762496,-0.13812908561862236,-2.407581164301658,-0.2272335877710449,2.4222224939929164,-0.10989326138751766,-5.2400105010006,-0.6177210481960993,5.277439329151917
217,1791286419.3962495,-0.17165935905612237,-2.450691515864158,-0.2320236268335449,2.467628579200913,-0.11329658915378453,-5.288634469017554,-0.6234150331682884,5.326456323633442
218,1791286419.4213078,-0.19081951530612237,-2.417161242426658,-0.2799240174585449,2.4407863517443267,-0.11760228854507658,-5.3495663969025795,-0.630441138027972,5.387870354941578
219,1791286419.4413078,-0.13333904655612236,-2.3932110471141583,-0.2847140565210449,2.4137730861343223,-0.12100959035934641,-5.398119271695677,-0.6360547310976042,5.436809782709235
220,1791286419.4509504,-0.15249920280612236,-2.460271593989158,-0.2607638612085449,2.478747690742009,-0.12261265671235341,-5.421526785404952,-0.6387497298600915,5.460401795275303
221,1791286419.4709504,-0.22913982780612235,-2.4698516721141583,-0.2895040955835449,2.4972955300267867,-0.12601133369351894,-5.47018959975541,-0.6443264356827639,5.509447310684723
222,1791286419.4965985,-0.23871990593112236,-2.4363213986766583,-0.3086642518335449,2.4673716322227413,-0.13061602708411368,-5.53267186420324,-0.6515559435255994,5.57243606073869
223,1791286419.5165985,-0.25788006218112236,-2.407581164301658,-0.2272335877710449,2.431991836454631,-0.13441299103641025,-5.581351959186327,-0.6571516233909023,5.621512679039131
224,1791286419.5408993,-0.2530900231186224,-2.388421008051658,-0.2607638612085449,2.415907130420595,-0.1392657147641656,-5.640369065280594,-0.6638201659195578,5.681004783008418
225,1791286419.5608993,-0.21476971061862238,-2.374050890864158,-0.3469845643335449,2.40886735809547,-0.14336229638847792,-5.6887990318796025,-0.6693968625452371,5.72984112630756
226,1791286419.571024,-0.19560955436862237,-2.4459014768016583,-0.3757247987085449,2.4823106687812873,-0.14543667523405407,-5.713298456937651,-0.6723453023192564,5.754561607116572
227,1791286419.591024,-0.20039959343112237,-2.508171984614158,-0.33261444714604493,2.538054190103307,-0.14951370167668804,-5.761865644318726,-0.6783584270459153,5.803586839680589
228,1791286419.6161737,-0.18602947624362237,-2.474641711176658,-0.2942941346460449,2.4990133257775717,-0.15460040335017783,-5.82317634521325,-0.6859681643926411,5.865478356854401
229,1791286419.6361737,-0.13812908561862236,-2.421951281489158,-0.2799240174585449,2.4419838471519304,-0.15852498892802444,-5.871964101983799,-0.6919732810938884,5.9147205858644645
230,1791286419.6611054,-0.13333904655612236,-2.3501006955516583,-0.1889132752710449,2.361448878579106,-0.16319107937407498,-5.93258260201182,-0.699212951676046,5.975873694270331
231,1791286419.6811054,-0.14291912468112236,-2.383630968989158,-0.2032833924585449,2.3965488958444525,-0.1667871008541698,-5.981016707471919,-0.7047377099114044,6.024701986973359
232,1791286419.6914887,-0.15249920280612236,-2.5225421018016583,-0.2607638612085449,2.540565380684154,-0.16860405968786843,-6.006211060252029,-0.7075371280268029,6.050091521355148
233,1791286419.7114887,-0.16207928093112237,-2.5225421018016583,-0.2511837830835449,2.5401932291763236,-0.17205071049117152,-6.055027685234976,-0.7128883462701149,6.09927631036587
234,1791286419.735723,-0.18602947624362237,-2.450691515864158,-0.1218527283960449,2.460760849692144,-0.1762333306053779,-6.114345994570017,-0.7190778998279536,6.1590062635259315
235,1791286419.755723,-0.15249920280612236,-2.5225421018016583,-0.2272335877710449,2.537343052413239,-0.1796751665871901,-6.1634167162478235,-0.7239434050821735,6.208388102992048
236,1791286419.781475,-0.22913982780612235,-2.7285137814891582,-0.47152557995854494,2.7784220142049203,-0.18417923142937048,-6.227264766365001,-0.7306181120101619,6.272682941556838
237,1791286419.801475,-0.31057049186862234,-2.867424914301658,-0.2080734315210449,2.891690547496798,-0.18796211193366255,-6.277807352682102,-0.7360437541905908,6.323603033160368
238,1791286419.825996,-0.21476971061862238,-2.7285137814891582,0.15596953722895512,2.7413938025973006,-0.19287053105505256,-6.340771007655319,-0.7417938453171347,6.3869268135952595
239,1791286419.845996,-0.09980877311862237,-2.517752062739158,0.2134500059789551,2.528754267553719,-0.19674533761439314,-6.3922922325637614,-0.745226175408009,6.43859229699173
240,1791286419.8563688,-0.14291912468112236,-2.6087628049266582,0.021848443478955107,2.612766082727437,-0.19864237116585926,-6.418993499124795,-0.7465562560848513,6.465313803438176
241,1791286419.8763688,-0.16686931999362237,-2.7524639768016583,-0.0883224549585449,2.7589317080340785,-0.2022160789033924,-6.470795716847207,-0.7488358202606843,6.517119274452535
242,1791286419.901454,-0.10938885124362235,-2.7716241330516582,-0.13143280652104491,2.776894099226824,-0.20654583862866233,-6.536416194057872,-0.7516795603928332,6.582736513556439
243,1791286419.921454,-0.12375896843112236,-2.661453234614158,-0.1793331971460449,2.6703576535557785,-0.2098297926974371,-6.589036110264866,-0.7540728817619973,6.635363691259632
244,1791286419.9465864,-0.12375896843112236,-2.541702258051658,-0.2032833924585449,2.552820163760363,-0.21380403283056224,-6.655048547422127,-0.7573504631678104,6.701415004091335
245,1791286419.9665864,-0.21955974968112238,-2.4890118283641582,-0.1170626893335449,2.5014176058089,-0.2170072522998327,-6.707246517741261,-0.7600479922079698,6.753659818776954
246,1791286419.9765072,-0.3249406090561224,-2.465061633051658,0.007478326291455104,2.4863972288275247,-0.2187629870441902,-6.732941197578424,-0.7612669049541894,6.779371778795423
247,1791286419.9965072,-0.31057049186862234,-2.431531359614158,-0.006891790896044896,2.4512948170280024,-0.2227248161483324,-6.78431555125784,-0.7633547098130817,6.830757956168633
248,1791286420.0208106,-0.3920011559311224,-2.330940539301658,-0.011681829958544896,2.363701582087388,-0.22809759554670164,-6.846060800857659,-0.7655450524554341,6.892505801917978
249,1791286420.0408106,-0.5261222496811224,-2.3501006955516583,0.026638482541455104,2.4084201273021337,-0.23323297886614006,-6.896272472427296,-0.7670547378525104,6.942718819544059
250,1791286420.0659933,-0.6075529137436224,-2.287830187739158,0.017058404416455106,2.3671878886328797,-0.24087038624604493,-6.958772037013059,-0.7685879734990313,7.005230494358665
251,1791286420.0859933,-0.6602433434311223,-2.2063995236766583,-0.0547921815210449,2.3037192350157443,-0.24792782772139574,-7.0077046640969725,-0.7696796083323585,7.054204389330363
252,1791286420.0964222,-0.9332755699936224,-2.081858508051658,-0.1122726502710449,2.2842380097294765,-0.25230228914543745,-7.032747156690774,-0.770294125195745,7.079303783166906
253,1791286420.1164222,-1.1440372887436223,-1.966897570551658,-0.0595822205835449,2.276193623593463,-0.2625489916048659,-7.079641631861226,-0.7715536208806604,7.126398290754557
254,1791286420.1412747,-1.2446281090561224,-1.804036242426658,-0.0595822205835449,2.1925318549227923,-0.2778242210523772,-7.136201906638809,-0.7731060568127577,7.183331881877608
255,1791286420.1612747,-1.2254679528061223,-1.478313586176658,-0.1601730408960449,1.9268726386191708,-0.2919781496163403,-7.179814621023264,-0.7744976095405578,7.227367140203745
256,1791286420.1862707,-1.2446281090561224,-1.1238506955516583,-0.1889132752710449,1.6875508114774496,-0.311645029218003,-7.231024124020091,-0.7766303348816189,7.279284798897152
257,1791286420.2062707,-1.3931193199936225,-0.8699786252391583,0.026638482541455104,1.642666690739366,-0.32897722945111174,-7.268842807586992,-0.7783242283130598,7.317792726176767
258,1791286420.215697,-1.6517814293686224,-0.9370391721141582,0.2757205137914551,1.9189700628745776,-0.3380735376515428,-7.285271266330242,-0.7787890759700334,7.334574532018032
259,1791286420.235697,-1.8912833824936224,-0.8077081174266582,0.2230300841039551,2.068595575328549,-0.35979288922239855,-7.317516329140168,-0.7788792814381992,7.36764203021711
260,1791286420.2608047,-1.5943009606186225,-0.6927471799266582,-0.002101751833544896,1.7383033756184707,-0.38953267050513657,-7.354749693060956,-0.7785595135528228,7.406094359722586
261,1791286420.2808046,-1.4266495934311225,-0.33828428930165816,-0.2607638612085449,1.489215603644383,-0.414200439323875,-7.381506375349738,-0.7787373016920931,7.434018439465401
262,1791286420.3205755,-1.4026993981186224,-0.18021300023915818,-0.2607638612085449,1.4380681897079617,-0.4643348602469105,-7.428278769351178,-0.7805934300283046,7.483599297172272
263,1791286420.3405755,-1.6086710778061224,-0.3095440549266582,-0.13622284558354492,1.6438360082956047,-0.49028179114845827,-7.449006190600674,-0.7819823086631595,7.505968677885691
264,1791286420.3362467,-1.7906925621811225,-0.3095440549266582,0.007478326291455104,1.8172653354849844,-0.49028179114845827,-7.449006190600674,-0.7819823086631595,7.505968677885691
265,1791286420.3562467,-1.3452189293686225,-0.19458311742665818,-0.0787423768335449,1.3614980423888003,-0.5180664959837731,-7.465527279078097,-0.7832568185562638,7.524359221404505
266,1791286420.3808866,-1.0242863121811223,0.049708874760841834,-0.1745431580835449,1.0402397490893003,-0.5515413016011014,-7.483095796439301,-0.7850595469096764,7.5443514630651585
267,1791286420.4008865,-1.1727775231186224,0.18382996851084185,-0.2320236268335449,1.2095600602962797,-0.5779324597564531,-7.494866689416653,-0.786913168652262,7.55819191044828
268,1791286420.4266279,-1.2733683434311225,0.2748407106983419,-0.2224435487085449,1.3215466267490306,-0.6115271265069631,-7.506858629988147,-0.7898184400682379,7.573024830630969
269,1791286420.4466279,-1.2158878746811224,0.38022157007334184,-0.2511837830835449,1.2984779778763194,-0.6374474520459606,-7.5137957031219225,-0.7924475671936285,7.582310879219109
270,1791286420.4565678,-0.8901652184311224,0.38501160913584187,-0.2511837830835449,1.001858946238471,-0.649967451949317,-7.5161557695161205,-0.7939327444279423,7.58586741532561
271,1791286420.4765677,-0.7799943199936223,0.5382928591358419,-0.0883224549585449,0.9518146865166858,-0.6738853392025925,-7.518807178100645,-0.7969820656834494,7.590900028644234
272,1791286420.5004315,-0.8518449059311224,0.7538446169483418,-0.0835324158960449,1.1405696448565623,-0.7010637913800986,-7.519183621350572,-0.8003823075072818,7.594091427507416
273,1791286420.5204315,-0.9093253746811224,0.8831756716358419,-0.1745431580835449,1.2795847834521015,-0.7230668108509781,-7.516996262250938,-0.8031916698575503,7.594285699009311
274,1791286420.54555,-0.8949552574936224,0.8161151247608419,-0.2895040955835449,1.2453117806953113,-0.749955011575528,-7.511459882498304,-0.8070649954724148,7.591825603416189
275,1791286420.56555,-0.6698234215561224,0.6915741091358418,-0.4044650330835449,1.0442845050461378,-0.7704998145355145,-7.505451390155562,-0.8107273721549281,7.588329816642695
276,1791286420.590679,-0.5596525231186223,0.9214959841358419,-0.3805148377710449,1.1433098167930897,-0.7947583349569624,-7.495994366172087,-0.816118128004947,7.582059162755559
277,1791286420.610679,-0.5883927574936224,1.184948132573342,-0.2511837830835449,1.3466259342683702,-0.8128916017086768,-7.486436904885151,-0.8207125905665479,7.57503131632268
278,1791286420.6202543,-0.5692326012436224,1.352599499760842,-0.1793331971460449,1.4784152179514667,-0.8211023493706023,-7.480725116477049,-0.8228914999709179,7.570509081769658
279,1791286420.6402543,-0.35847088249362236,0.9693963747608418,-0.2128634705835449,1.0552447877644744,-0.8370711594220245,-7.4671014900613635,-0.8273482022385392,7.559285537440699
280,1791286420.6654356,-0.14770916374362236,0.7298944216358418,-0.2416037049585449,0.782902429449964,-0.8551170457763274,-7.449312127893483,-0.8329760970677308,7.544357197206689
281,1791286420.6854355,0.14927325813137765,1.031666882573342,-0.1026925721460449,1.0474563602201883,-0.8672975438426064,-7.434660124672591,-0.837291953475438,7.531761680663217
282,1791286420.7102659,0.13490314094387765,1.199318249760842,0.05537871691645511,1.208151449087922,-0.8796222931251938,-7.415043295495638,-0.8419345472374807,7.514350020758257
283,1791286420.7302659,0.12053302375637766,1.031666882573342,0.0745388731664551,1.0413552756035656,-0.8876772245331533,-7.398266245330498,-0.8449182024006606,7.499080014275049
284,1791286420.7401412,0.5947468909438777,0.8113250856983418,-0.021261908083544896,1.0061929873071982,-0.8905281134939015,-7.389859901161599,-0.8461309846604683,7.491262064760624
285,1791286420.7601411,0.9971101721938777,0.5622430544483419,-0.1937033143335449,1.160976710253787,-0.8930480370971062,-7.373328319653382,-0.8485411949762818,7.475528574324182
286,1791286420.7857666,0.9396297034438776,0.5239227419483419,-0.3374044862085449,1.1274931513931028,-0.8920702042334067,-7.3532365357178655,-0.8521868564372722,7.456010946731606
287,1791286420.8057666,0.9396297034438776,0.4233319216358419,-0.4092550721460449,1.1088749296233495,-0.8886026216282038,-7.338486727368162,-0.855725383459773,7.441456040239744
288,1791286420.8303976,1.2126619300063777,0.31795106226084185,-0.4092550721460449,1.3187613690720756,-0.8809967026429056,-7.321676948578317,-0.8609416382130828,7.424576017108303
289,1791286420.8503976,1.4377937659438778,0.049708874760841834,-0.3374044862085449,1.4776886251611738,-0.8717715252426256,-7.309523587762949,-0.8656618116949839,7.4120503940889275
290,1791286420.8609908,1.6341853675063778,-0.14668272680165817,-0.3086642518335449,1.6695362404194427,-0.865177603246387,-7.304129062853393,-0.8683001768913766,7.406266188111817
291,1791286420.8809907,1.8593172034438776,-0.39576475805165817,-0.4284152283960449,1.9486482018721811,-0.849355394055932,-7.2962855716590305,-0.8736398572534202,7.3973261607687295
292,1791286420.90508,2.050918765943878,-0.5969463986766582,-0.5337960877710449,2.2017154790556983,-0.8260920272962822,-7.290048954315209,-0.880845037523397,7.389393058567419
293,1791286420.92508,2.1946199378188775,-0.6065264768016582,-0.505055853396045,2.3322333617335924,-0.8033066330674485,-7.287452945036674,-0.8874880512687614,7.385113879555187
294,1791286420.9508507,2.323950992506378,-0.7358575314891582,-0.4571554627710449,2.480166453962738,-0.7696173395980463,-7.287204214344308,-0.8966236023183021,7.382383761035568
295,1791286420.9708507,2.4149617346938776,-0.9993096799266582,-0.49068573620854494,2.6592165214869783,-0.7402853575141054,-7.2896428839538325,-0.9040717584500263,7.382700151743633
296,1791286420.9809167,2.4580720862563776,-1.1669610471141583,-0.509845892458545,2.768367623848286,-0.7240580278212547,-7.292321594711122,-0.9080134839669703,7.384219847445524
297,1791286421.0009167,2.7071541175063776,-1.2148614377391582,-0.6104367127710449,3.0293901546575523,-0.6889047266524582,-7.300418256366993,-0.9163508756873777,7.38988466538373
298,1791286421.0257459,2.8316951331313773,-1.2244415158641582,-0.725397650271045,3.169220109710021,-0.6414951938217927,-7.313504612674605,-0.9276363959777512,7.399957775991143
299,1791286421.0457458,2.7790047034438774,-1.320242297114158,-0.725397650271045,3.161029676524916,-0.600618865938961,-7.326281581100051,-0.9375395395597705,7.4104065486264385
300,1791286421.0856988,2.7454744300063774,-1.483103625239158,-0.5769064393335449,3.1733337751898847,-0.5146567434145145,-7.356377077114941,-0.958257436377248,7.436357480555685
301,1791286421.1056988,2.7215242346938777,-1.689075304926658,-0.548166204958545,3.249639323678527,-0.46987940216497964,-7.373940963302051,-0.9687605011029949,7.45213317724128
302,1791286421.100821,2.6975740393813776,-1.804036242426658,-0.605646673708545,3.3012513317388428,-0.46987940216497964,-7.373940963302051,-0.9687605011029949,7.45213317724128
303,1791286421.120821,2.6353035315688773,-1.7417657346141582,-0.6104367127710449,3.2173289477568368,-0.4226191206743318,-7.396403281940968,-0.9796441987247846,7.472957325340603
304,1791286421.145872,2.6017732581313777,-1.6315948361766581,-0.629596869021045,3.1349191398897363,-0.36246275532408406,-7.426656300778754,-0.9935615999766372,7.501584346779154
305,1791286421.165872,2.5969832190688775,-1.770505968989158,-0.744557806521045,3.2300742334508374,-0.3138418081292473,-7.452289502962349,-1.0050673428649344,7.526305593063984
306,1791286421.190579,2.4580720862563776,-1.923787218989158,-0.9169992127710449,3.2533003552395123,-0.2534207015569437,-7.486051008202545,-1.0202277397762907,7.559500406137762
307,1791286421.210579,2.357481265943878,-2.019588000239158,-0.869098822146045,3.223629378920907,-0.20462355470140578,-7.515196273290644,-1.0333382666896798,7.588664823183684
308,1791286421.2354145,2.290420719068878,-2.2399297971141583,-0.5960665955835449,3.2586205597937337,-0.14446000770950604,-7.553893563872967,-1.0499057221757973,7.627875109990091
309,1791286421.2554145,2.4245418128188776,-2.182449328364158,-0.36135468152104494,3.282082460701039,-0.09620556267401058,-7.587015460273402,-1.0626822925428352,7.661680805123712
310,1791286421.280509,2.6353035315688773,-1.756135851801658,-0.3900949158960449,3.1907697937786854,-0.03521826997829966,-7.629753312179324,-1.077723024816953,7.705573492574854
311,1791286421.300509,2.7454744300063774,-1.3441924924266582,-0.509845892458545,3.0991008593738743,0.014168022466596666,-7.663356061725574,-1.0892621041552872,7.7403952607858155
312,1791286421.3107252,2.6736238440688775,-1.320242297114158,-0.5529562440210449,3.032666284058431,0.039763288017030565,-7.67998759175589,-1.0950866000112784,7.7577706327348075
313,1791286421.3307252,2.3718513831313777,-1.2148614377391582,-0.5912765565210449,2.7296840957992314,0.08992243364183436,-7.711465381395726,-1.1064950038289134,7.790963712278164
314,1791286421.3556108,2.223360172193878,-1.0136797971141582,-0.6152267518335449,2.5197978376344095,0.15154943228493847,-7.748916995499842,-1.1208128499648233,7.831021854025083
315,1791286421.3756108,2.3814314612563776,-1.0328399533641581,-0.5816964783960449,2.660140027687513,0.2005554850073896,-7.7775708625774485,-1.1323890951073194,7.862133049478254
316,1791286421.3854852,2.4772322425063775,-0.9849395627391582,-0.4379953065210449,2.7015968267112775,0.22471957453002675,-7.791090063518799,-1.1380023413645237,7.876968490097536
317,1791286421.4054852,2.5251326331313777,-1.1238506955516583,-0.31345429089604493,2.781652169714627,0.2738247780939934,-7.8175283312827,-1.148793457587036,7.906228913186152
318,1791286421.4310935,2.6400935706313775,-1.1861212033641582,-0.3661447205835449,2.9173685963844846,0.33718906494168793,-7.850739105661312,-1.1618432635487939,7.94340485810271
319,1791286421.4510934,2.5299226721938775,-1.291502062739158,-0.6200167908960449,2.9073883686795505,0.38700824861434363,-7.876502396837959,-1.1719855737893514,7.972616607931176
