imu_index,t_imu,ax,ay,az,mag,vx,vy,vz,velocity
0,1791274465.2571912,0.09068201401654388,0.18422865923713236,-0.014745806525734954,0.2058661345644361,0.0,0.0,0.0,0.0
1,1791274465.2771912,0.014041389016543874,0.24170912798713237,0.01878446691176505,0.24284422858073662,0.000272704412349283,0.0008737973880448194,-1.274290058867833e-05,0.0009154517755644638
2,1791274465.3021982,0.028411506204043875,0.23212904986213237,-0.04827607996323496,0.23879214679569222,0.000642155863189117,0.0026911639925835656,-8.15983201360402e-05,0.0027679208936412
3,1791274465.3221982,0.03799158432904388,0.13632826861213235,-0.10096650965073496,0.17384761538101268,0.0009929167317070213,0.004479311156676427,-0.00035227050751982506,0.004601543934909014
4,1791274465.3317394,0.052361701516543874,0.04052748736213235,-0.11054658777573496,0.1288595091037278,0.0011998082435743759,0.005330970048252901,-0.0006133871132360877,0.005498638488517196
5,1791274465.3517394,0.028411506204043875,-0.021743020450367648,-0.09617647058823496,0.10261523336180234,0.0016895929967018668,0.006876573921628372,-0.0013887110024797433,0.007215989997396871
6,1791274465.3767068,0.07152185776654388,-0.016952981387867647,-0.17760713465073497,0.19221621678505543,0.002396442822709704,0.008444179785828308,-0.002724095779760411,0.009190636989633348
7,1791274465.3967068,0.10984217026654387,-0.040903176700367645,-0.18239717371323497,0.2168112109915489,0.0031497730070006737,0.009424757074681694,-0.004173347001071299,0.010777937701793581
8,1791274465.421809,0.11942224839154388,0.07405776079963236,-0.22550752527573498,0.26570635916653074,0.004385084255121459,0.010533296839216801,-0.006487414953349926,0.013125008914454764
9,1791274465.441809,0.1290023265165439,0.08842787798713236,-0.22071748621323498,0.270513028470493,0.005594313675278098,0.0115277642105687,-0.008723913834875936,0.01550136657815084
10,1791274465.467398,-0.005118767233456128,0.030947409237132354,-0.12491670496323495,0.12879490321962564,0.007147144801823153,0.012838382345182812,-0.011819512573667446,0.01885753476832039
11,1791274465.487398,-0.06259923598345613,0.05968764361213236,0.01878446691176505,0.08851065101353932,0.00807718753738395,0.01384504081666235,-0.014035264394305181,0.021305275411201984
12,1791274465.496459,-0.00032872817095612797,0.07405776079963236,0.12416532628676505,0.14457416176054685,0.008392579504397348,0.01432359302797312,-0.014791397696498204,0.02223479601400928
13,1791274465.516459,0.03799158432904388,0.07884779986213236,0.19601591222426507,0.2146685209061648,0.009040796533419429,0.01545078712387589,-0.015729746174654856,0.023830395284700732
14,1791274465.54202,-0.02427892348345613,0.12674819048713237,0.2918166934742651,0.31907922606702416,0.009771273806546342,0.01706945604758078,-0.015813903596284193,0.025237346701176035
15,1791274465.56202,-0.005118767233456128,0.2752394014246324,0.18643583409926506,0.3324774430106032,0.010212997741897585,0.018748969232394316,-0.0151524962854448,0.02618066679505494
16,1791274465.58729,0.11463220932904387,0.18901869829963236,0.09542509191176506,0.240779068627059,0.010894953609489855,0.021432609716903285,-0.013907964500276569,0.027775677308951197
17,1791274465.60729,0.08589197495404388,0.10279799517463235,0.14332548253676505,0.19618117421869607,0.011654514647864288,0.023675711128336215,-0.01271259986011818,0.029291247913210923
18,1791274465.6164196,-0.009908806295956129,0.09321791704963237,0.11937528722426505,0.15178347637723513,0.012001255005831778,0.024680260929122358,-0.012068917245565823,0.029980062787207135
19,1791274465.6364195,-0.014698845358456128,0.06447768267463236,0.10500517003676506,0.12409477568541044,0.012610004861425703,0.02678736492262706,-0.010533752766120345,0.03142507103318811
20,1791274465.661376,0.057151740579043875,0.050107565487132355,-0.005165728400734953,0.07618250665455782,0.013335136424715493,0.029236739586590434,-0.008718606424858366,0.033296049361920696
21,1791274465.681376,0.11942224839154388,0.08363783892463236,-0.08180635340073496,0.16718026488673923,0.014093946316033166,0.031105836189268956,-0.007612612920058959,0.03498805858094312
22,1791274465.7069921,-0.02427892348345613,0.026157370174632356,-0.024325884650734955,0.043190540677434525,0.01510284426730546,0.03335163958931315,-0.006612433421067731,0.0372041939034563
23,1791274465.7269921,-0.09612950942095613,-0.0025828642003676463,-0.06743623621323495,0.11745296813447695,0.01559177956024124,0.03487741236808393,-0.006086314638345095,0.03868566542306677
24,1791274465.7365444,-0.03864904067095613,-0.06964341107536764,-0.07701631433823496,0.11079470079946818,0.015693715132866295,0.03544508705736923,-0.005976214290281998,0.03922195849800735
25,1791274465.7565444,-0.009908806295956129,-0.14149399701286766,-0.07701631433823496,0.16140089314230574,0.01580229169353932,0.036138663666779126,-0.006011319018742404,0.03989801236569784
26,1791274465.7821786,-0.03864904067095613,-0.12712387982536766,-0.038696001838234954,0.13838934108125678,0.01582722538969921,0.03637784935210305,-0.00627202937665898,0.040164503476606266
27,1791274465.8021786,0.004461310891543872,-0.09838364545036765,-0.009955767463234953,0.09898667734981645,0.015792479213182654,0.036198210020732265,-0.006517903189753286,0.04002743896872299
28,1791274465.827167,0.004461310891543872,-0.06485337201286764,-0.06264619715073495,0.09027961660175104,0.01577230063808761,0.03570150396429678,-0.006915088873701765,0.03963812945715415
29,1791274465.847167,-0.08654943129595613,-0.10796372357536765,-0.019535845588234953,0.13974483507006327,0.01563544079429989,0.03510436215243581,-0.007308573066812061,0.03911775161271869
30,1791274465.8572326,-0.06259923598345613,-0.14628403607536766,0.05710477941176505,0.16905217948278053,0.015464299183095474,0.03465697706336603,-0.007448538886039242,0.0386746860353359
31,1791274465.8772326,0.052361701516543874,-0.07922348920036765,0.05231474034926505,0.10842020607155949,0.015159897289477184,0.03356311555456798,-0.007520801747502135,0.037588132043000114
32,1791274465.901833,0.07631189682904388,-0.05527329388786765,0.03315458409926505,0.09988928401813912,0.015079045932694216,0.03217130707368365,-0.007438660048629904,0.036300196809227255
33,1791274465.921833,-0.00032872817095612797,-0.02653305951286765,0.06189481847426505,0.06734300159100408,0.015137148890279263,0.031086799485602695,-0.007239322713399056,0.03532605514536383
34,1791274465.9469206,-0.03864904067095613,-0.045693215762867646,0.04752470128676505,0.07642130294579806,0.015125760260861591,0.029794572914251357,-0.006820904056953856,0.03410322463882074
35,1791274465.9669206,0.004461310891543872,-0.045693215762867646,-0.038696001838234954,0.06004293313861064,0.015066761494074595,0.028781848252149477,-0.006524130041058012,0.03313557549706545
36,1791274465.9766707,-0.02427892348345613,-0.05527329388786765,-0.03390596277573495,0.06924028779893704,0.01502782171719091,0.028288361841904742,-0.006454243461581227,0.032676047801464166
37,1791274465.9966707,0.018831428079043873,-0.045693215762867646,0.05231474034926505,0.07196752537123392,0.014951756440915627,0.027276486476457782,-0.0063047785116737125,0.03173817838581964
38,1791274466.0370617,0.033201545266543876,0.030947409237132354,0.07147489659926505,0.08466844506929685,0.014978806097759022,0.025494813416727224,-0.005673205571709251,0.030108726388322543
39,1791274466.0570617,0.018831428079043873,0.030947409237132354,-0.009955767463234953,0.03756969693474722,0.01506824029898167,0.02483777471897157,-0.0053151069031115925,0.029533324907462466
40,1791274466.0672305,-0.014698845358456128,-0.10317368451286765,-0.04827607996323496,0.11485401659258247,0.01511004319010985,0.02449873562106805,-0.005204757021925099,0.02925048628476546
41,1791274466.0872304,-0.00032872817095612797,-0.09359360638786765,-0.05306611902573496,0.10759128313832377,0.01515738709964001,0.02363678609391223,-0.005172289422038189,0.028551648260705092
42,1791274466.0964632,-0.02427892348345613,-0.021743020450367648,0.004414349724265048,0.03288938350454052,0.015158924762179355,0.023218697783044424,-0.005193238630718793,0.028211179595354685
43,1791274466.1164632,-0.005118767233456128,0.04052748736213235,-0.029115923713234956,0.05016389163086352,0.015117659516855184,0.02247706186419366,-0.005268864062150068,0.02759570379279658
44,1791274466.1417413,0.03799158432904388,-0.012162942325367647,-0.00037568933823495243,0.03989284131670663,0.015135649597907195,0.021734082747550346,-0.0054060218457022986,0.027031154504094056
45,1791274466.1617413,0.10026209214154387,-0.02653305951286765,0.07147489659926505,0.1259569418951907,0.015355128576918566,0.02117637160921083,-0.005391614281508828,0.02670745575126282
46,1791274466.1866746,0.033201545266543876,0.05968764361213236,0.04273466222426505,0.08056803810120557,0.015837280452203166,0.02064738211242344,-0.0051627751320773565,0.02652900464176062
47,1791274466.2066746,0.014041389016543874,0.050107565487132355,-0.005165728400734953,0.05229353186075058,0.01623688432379419,0.020451400525971483,-0.00495039527132644,0.026578235632945077
48,1791274466.231538,0.06673181870404388,0.016577292049632354,0.10021513097426506,0.12153606343566212,0.016809768061097588,0.02036865831419067,-0.004548729260869817,0.026798161908549598
49,1791274466.251538,0.061941779641543876,0.06447768267463236,0.16248563878676506,0.18546088115879114,0.017394477813400224,0.020433667076390397,-0.0038800461599248215,0.02711378554891922
50,1791274466.276512,0.04278162339154387,0.15548842486213235,0.09063505284926505,0.18499089267072566,0.018211234309160426,0.0209146721182022,-0.0026962070661316227,0.02786291616860131
51,1791274466.296512,0.03799158432904388,0.14590834673713235,0.14332548253676505,0.20802596009101998,0.018888369012763324,0.021694192194783798,-0.0015394144832453563,0.028805871899627713
52,1791274466.3067038,0.061941779641543876,0.24649916704963237,0.23912626378676505,0.3489699033640891,0.019258063028649415,0.022331800570452906,-0.0007459980439885493,0.02949811555702413
53,1791274466.3267038,0.04757166245404387,0.27044936236213235,0.23433622472426505,0.36099776576697357,0.020038977776035704,0.024170744983336146,0.0012876031641459317,0.03142361317968131
54,1791274466.35176,0.06673181870404388,0.3183497529871324,0.17206571691176506,0.3679759663223636,0.0210853633344008,0.02723548840931458,0.0042168714780826365,0.03470081239539313
55,1791274466.37176,0.07152185776654388,0.2943995576746324,0.20080595128676507,0.36346871360487076,0.022002691355810792,0.030233966993199454,0.006763617301288088,0.03799944349649385
56,1791274466.3813272,-0.05780919692095613,0.4093604951746324,0.21038602941176507,0.46387519833454577,0.022385524602253955,0.031958154474123326,0.008094195562653162,0.039849107278790076
57,1791274466.4013271,-0.19672032973345613,0.4093604951746324,0.23912626378676505,0.5132799169777418,0.02268398379775289,0.03624992877697078,0.011132756492092409,0.04418776668246988
58,1791274466.4262764,-0.15840001723345615,0.2752394014246324,0.28702665441176506,0.4280555967382741,0.022335953414060254,0.04208172008208626,0.01533922129690372,0.05005055134538996
59,1791274466.4462764,-0.009908806295956129,0.25128920611213235,0.3924075137867651,0.46607736098955366,0.021846349177702177,0.04684518320972873,0.019224576179718504,0.05514815039180316
60,1791274466.4720151,0.11463220932904387,0.2848194795496324,0.31576688878676507,0.4404218516384654,0.021512931273342126,0.05309082494622901,0.024841814697601373,0.062438430977344694
61,1791274466.4920151,0.2727034983915439,0.3806202607996324,0.01878446691176505,0.4686062709389687,0.02187371743159648,0.058214123636900976,0.02905373165759068,0.06864009781695396
62,1791274466.5017915,0.06673181870404388,0.4333106904871324,0.09063505284926505,0.4476896278930012,0.022272505415431153,0.06093962662466964,0.030883993219663793,0.07185766227638354
63,1791274466.5217915,-0.10091954848345613,0.6105421357996325,0.2822366153492651,0.680149955448569,0.022914671485572424,0.06724474864807053,0.03462591994680498,0.07903096052938012
64,1791274466.546338,0.14337244370404387,0.5195313936121324,0.14332548253676505,0.5576833514698375,0.023662755630696638,0.07590291843312781,0.03931307789032204,0.08869440300218863
65,1791274466.566338,0.3014437327665439,0.28002944048713235,0.03794462316176505,0.41318834203139404,0.02484807163455124,0.08309855157830723,0.04283111600726932,0.09673314032324465
66,1791274466.5918355,0.20564295151654388,0.14590834673713235,0.12895536534926505,0.28320973748859923,0.027102235731996407,0.09171056661454444,0.04696257430955865,0.10654033318989721
67,1791274466.6118355,0.25833338120404387,0.38541029986213243,0.028364545036765047,0.46484597717875903,0.029301125286015386,0.09824945893257642,0.049953133771996235,0.11404748001255328
68,1791274466.6211936,0.37808435776654387,0.37583022173713243,-0.014745806525734954,0.5333043933522548,0.030622350938405027,0.10138440979262282,0.05115210505366878,0.11761405008507647
69,1791274466.6411936,0.3445540843290439,0.10279799517463235,0.03794462316176505,0.3615587632275533,0.03410643711392959,0.10779728187250567,0.05336494633208987,0.12502527955871048
70,1791274466.665788,0.3349740062040439,0.045317526424632354,0.01878446691176505,0.33854707092336994,0.039001648874884484,0.11477360429452944,0.055782579635995734,0.13343839420707673
71,1791274466.685788,0.39724451401654387,0.08842787798713236,0.02357450597426505,0.4076499121224951,0.043483625358752734,0.11979636939747837,0.0575172253792539,0.1398221263265773
72,1791274466.7112586,0.5457357249540439,0.07884779986213236,-0.10575654871323496,0.561452495434787,0.05013677711458909,0.12555309641410436,0.059237999137828394,0.1476022255267878
73,1791274466.7312586,0.3397640452665439,0.011787252987132355,-0.11054658777573496,0.357489991269304,0.05590555217088225,0.12953127293646588,0.0600620442874589,0.15333372295767533
74,1791274466.7561293,0.4355648265165439,-0.12712387982536766,-0.07701631433823496,0.4602268045154338,0.06344938350972536,0.1335210801535062,0.060583201823924716,0.15976240939708447
75,1791274466.7761292,0.512205451516544,-0.13670395795036766,-0.11533662683823497,0.5425356524441364,0.07002752091792466,0.1358525172526806,0.06065090283580008,0.16443324525350073
76,1791274466.786955,0.5505257640165439,-0.25166489545036763,-0.23508760340073495,0.6493689380627511,0.07391699649103103,0.13660987912647266,0.060397528471752296,0.16665486158735573
77,1791274466.806955,0.4499349437040439,-0.48158677045036763,-0.31172822840073494,0.7290691046949096,0.08152537140645826,0.13669929616484522,0.059179429019894675,0.16980956561408952
78,1791274466.8317983,0.3924544749540439,-0.4624266142003676,-0.23508760340073495,0.6504806451424755,0.09112815502744,0.13503478141603992,0.05687446393092135,0.17254981158556068
79,1791274466.8517983,0.5313656077665438,-0.4336863798253676,-0.364418658088235,0.7766815586364668,0.0990849801908803,0.1325516010995544,0.05439793902166685,0.1742036050812024
80,1791274466.8763754,0.4211947093290439,-0.5725975126378676,-0.493749712775735,0.8654834911839575,0.10915195932327232,0.1281029774847744,0.05022928637821007,0.17563457596566273
81,1791274466.8963754,0.3732943187040439,-0.7258787626378677,-0.42668916590073497,0.9210386912190297,0.11730701115542759,0.12307815641137015,0.04596517650058255,0.17613053370319132
82,1791274466.906279,0.4211947093290439,-0.7258787626378677,-0.16323701746323496,0.8549568907762263,0.12132965099688592,0.11988484782972122,0.043732203039965944,0.17608454370815846
83,1791274466.926279,0.5217855296415439,-0.7258787626378677,-0.302148150275735,0.9436385016027252,0.1296491174998253,0.11222579131354472,0.03920115140103311,0.17589841436352266
84,1791274466.9509163,0.4451449046415439,-0.8456297392003677,-0.383578814338235,1.029745768992297,0.14014697499769524,0.10130230353196519,0.03318968392859163,0.17608204457345114
85,1791274466.9709163,0.6175863108915439,-0.9222703642003677,-0.292568072150735,1.1478639087125717,0.148984719977106,0.09111311614393601,0.028027478710881525,0.17687166613961655
86,1791274466.9968314,0.7660775218290439,-0.9222703642003677,-0.18718721277573497,1.2134646458635523,0.1614079046543432,0.07630568299428107,0.021409383371127966,0.17981499002714205
87,1791274467.0168314,0.6271663890165439,-1.1090818876378676,-0.30693818933823497,1.3105767299447448,0.17164720897945826,0.06354518244867557,0.01632681530008339,0.18375886226442611
88,1791274467.0264113,0.5840560374540439,-1.2144627470128677,-0.517699908088235,1.4436254408963314,0.1766863548069031,0.05668034673769912,0.013664971903061273,0.1860576822879617
89,1791274467.0464113,0.4930452952665439,-1.377324075137868,-0.441059283088235,1.527955680750317,0.18724420976105632,0.04061069198395281,0.00750326648497026,0.1917444168689207
90,1791274467.0868957,0.5888460765165439,-1.377324075137868,-0.25903779871323496,1.5201519302179993,0.20869492934695436,0.004597380465029957,-0.0052242285684432,0.20881092405907756
91,1791274467.1068957,0.6798568187040439,-1.5066551298253679,-0.5033297909007349,1.7278761103087388,0.21960544226278103,-0.014851082818560395,-0.011712233954883827,0.22041842336004794
92,1791274467.1160789,0.6271663890165439,-1.6886766142003677,-0.699721392463235,1.9325052170511614,0.2247638481875365,-0.024642272103629223,-0.0150729919515295,0.2266124976978766
93,1791274467.1360788,0.5984261546415439,-1.7653172392003678,-0.42668916590073497,1.9122035618296862,0.23615153383207302,-0.04794881675346441,-0.022984078865392898,0.2420638424891017
94,1791274467.1466315,0.651116584329044,-1.5689256376378677,-0.445849322150735,1.7562067306806397,0.24224772078584825,-0.06104039939754714,-0.027222674209005288,0.2512985526731899
95,1791274467.1666315,0.7421273265165439,-1.5689256376378677,-0.738041704963235,1.8859973975233957,0.2541583530100679,-0.08683730594498137,-0.0358267548626886,0.27096262191040993
96,1791274467.192069,0.5696859202665439,-1.8659080595128679,-0.666191119025735,2.0615444553474407,0.2695376255609844,-0.12127935218580017,-0.04780763850619144,0.29940738661429084
97,1791274467.212069,0.4211947093290439,-1.9185984892003678,-0.450639361213235,2.0153165954269774,0.2813019371644795,-0.14997378036294473,-0.05748972604432772,0.3239258916009855
98,1791274467.2359023,0.5265755687040439,-1.971288918887868,-0.579970415900735,2.1212325460934633,0.2949123217929175,-0.18599195796821535,-0.06913906961924143,0.3554525241462691
99,1791274467.2559023,0.651116584329044,-2.023979348575368,-0.862582720588235,2.2944485524206666,0.3063869794233556,-0.21767618072758327,-0.0796122317193556,0.3841796562230379
100,1791274467.2663064,0.651116584329044,-2.210790872012868,-0.6422409237132349,2.392492944661649,0.31247693052908104,-0.23499058105460155,-0.08541742946287659,0.40019812912268954
101,1791274467.2863064,0.6606966624540439,-2.100619973575368,-0.5608102596507349,2.272362757239965,0.3243954343672918,-0.26974886898115025,-0.09670751245099352,0.4328385300772249
102,1791274467.3116176,0.6750667796415439,-2.071879739200368,-0.757201861213235,2.306893033781449,0.3397522434072443,-0.3150601783750746,-0.11135461326930886,0.47654417716970016
103,1791274467.3316176,0.5984261546415439,-2.277851418887868,-0.991913775275735,2.5555065812222635,0.3519766967745006,-0.3520175639770997,-0.12381583303231161,0.512966198623404
104,1791274467.356224,0.4834652171415439,-2.479033059512868,-0.805102251838235,2.650949483158524,0.3667573487230444,-0.39944546283622673,-0.14016384135580343,0.5601013596184347
105,1791274467.376224,0.5648958812040439,-2.5939939970128676,-0.714091509650735,2.7491523961569233,0.378541466612227,-0.43982172918735485,-0.15373705435309834,0.6003098177536814
106,1791274467.4013445,0.5313656077665438,-2.5460936063878674,-0.785942095588235,2.7171026920644556,0.393187849141446,-0.4926124412170996,-0.1710542361225538,0.653087477792843
107,1791274467.4213445,0.5361556468290439,-2.5844139188878676,-0.776362017463235,2.7512535622744045,0.40470088673662746,-0.5360336530487781,-0.1851168774705193,0.6966944403758837
108,1791274467.4313967,0.4451449046415439,-2.6706346220128676,-0.589550494025735,2.770922780488141,0.41035929361043344,-0.558545884901333,-0.19215448856673908,0.7192298678927427
109,1791274467.4513967,0.4786751780790439,-2.6514744657628677,-0.599130572150735,2.760145686587423,0.42131434908542525,-0.6046010469678985,-0.2058393036307749,0.7651261501603228
110,1791274467.47636,0.4211947093290439,-2.5844139188878676,-0.584760454963235,2.683010450407701,0.43462184067448084,-0.6632659330939736,-0.22257467850651075,0.8236245078350752
111,1791274467.49636,0.3637142405790439,-2.426342629825368,-0.41710908777573497,2.4886555802707973,0.44486156356946555,-0.7107326666661233,-0.23547421989123526,0.8709137973652699
112,1791274467.5069659,0.4834652171415439,-2.2586912626378677,-0.354838579963235,2.3369499896088257,0.45015096944001765,-0.7358548196256989,-0.24190269007778764,0.8958990581092424
113,1791274467.5269659,0.4451449046415439,-2.100619973575368,-0.43626924402573497,2.1911387707753462,0.4600222358644101,-0.7826619077660473,-0.2533935016702749,0.9425435724922234
114,1791274467.5511818,0.3541341624540439,-2.191630715762868,-0.465009478400735,2.2682349997949536,0.4716331758038189,-0.8386303119906003,-0.26685649362515523,0.9984743566552724
115,1791274467.5711818,0.20085291245404388,-2.416762551700368,-0.30693818933823497,2.4444414854556817,0.4806167254525649,-0.8848336308906469,-0.2774656546732534,1.044466457414085
116,1791274467.596443,0.22480310776654389,-2.4598729032628674,-0.10096650965073496,2.4721863549375556,0.49106791116285975,-0.9436767478077344,-0.28962846613741733,1.1025235354059113
117,1791274467.616443,0.3014437327665439,-2.479033059512868,-0.22071748621323498,2.5070280099955498,0.4988906062002875,-0.9906847018674275,-0.29829618852351697,1.148620316534886
118,1791274467.6412833,0.2535433421415439,-2.392812356387868,-0.421899126838235,2.4429150767993613,0.5081831069191193,-1.0493881330611095,-0.30864405437374787,1.2061205065281475
119,1791274467.6612833,0.21522302964154388,-2.5652537626378678,-0.23029756433823498,2.584547308012749,0.5152457608164396,-1.0970000689366333,-0.31670411330175546,1.2526726789822396
120,1791274467.6863427,0.3253939280790439,-2.4646629423253676,-0.05306611902573496,2.486616303471668,0.5237837536553529,-1.1571616454671534,-0.3258208734176215,1.3113091686891247
121,1791274467.7063427,0.3253939280790439,-2.3353318876378677,-0.18239717371323497,2.3649365663432778,0.5305519879131833,-1.205174392198494,-0.3323587489471198,1.3580843366637194
122,1791274467.716965,0.2822835765165439,-2.3688621610753677,-0.354838579963235,2.4118669891965347,0.5340916025666375,-1.2305972727234515,-0.33573825012438707,1.3828751426514185
123,1791274467.736965,0.3637142405790439,-2.4838230985753675,-0.43626924402573497,2.5479395768148265,0.5407254356989192,-1.2785633448766156,-0.34233350073143815,1.4297903515539987
124,1791274467.776251,0.36850427964154386,-2.397602395450368,-0.30693818933823497,2.4450978922852373,0.5539591502029078,-1.3730334181440706,-0.355535173839527,1.5226610808945702
125,1791274467.796251,0.4068245921415439,-2.268271340762868,-0.29735811121323497,2.3235711674923185,0.5608486645624904,-1.4209115207738536,-0.3621542745633431,1.5699351875137697
126,1791274467.7919965,0.3062337718290439,-2.392812356387868,-0.517699908088235,2.467254200670387,0.5608486645624904,-1.4209115207738536,-0.3621542745633431,1.5699351875137697
127,1791274467.8119965,0.22001306870404388,-2.5077732938878676,-0.575180376838235,2.582279053440497,0.5675248567423163,-1.468797197435235,-0.36961509168386414,1.617425419057849
128,1791274467.8370743,0.22480310776654389,-2.4981932157628677,-0.30693818933823497,2.526997592523457,0.5754770246682527,-1.5292495563586836,-0.3792260137205753,1.677376040435374
129,1791274467.8570743,0.4116146312040439,-2.234741067325368,-0.354838579963235,2.2998705747154755,0.5818223393003625,-1.5773289536135233,-0.38673381839670107,1.7251222880445811
130,1791274467.8815546,0.2727034983915439,-2.287431497012868,-0.579970415900735,2.375515888156,0.5896805290850498,-1.6356543319394445,-0.39626138858796384,1.7832866589698797
131,1791274467.9015546,0.14337244370404387,-2.5796238798253674,-0.46979951746323495,2.6259715546036744,0.5957616370078392,-1.6834580370798093,-0.40445231119786257,1.8309955114014227
132,1791274467.9119914,0.2391732249540439,-2.6658445829503674,-0.24945772058823495,2.688151842129052,0.5987584339159657,-1.7087679381134022,-0.40864850812004594,1.856177020571736
133,1791274467.9319913,0.3445540843290439,-2.397602395450368,-0.292568072150735,2.4398382816365447,0.6045153697814657,-1.7575892442134895,-0.4162965397233779,1.9046946192664653
134,1791274467.95622,0.3445540843290439,-2.297011575137868,-0.421899126838235,2.360715689483179,0.6116955829438727,-1.8163920761776255,-0.42547012413716667,1.9632820701894074
135,1791274467.97622,0.2822835765165439,-2.4742430204503676,-0.393158892463235,2.521137928900608,0.6176738367783948,-1.8648079720071422,-0.43312935764354177,2.0116239165297873
136,1791274468.0469122,0.17690271714154387,-2.5077732938878676,-0.23987764246323495,2.5254232810012236,0.6380696261051031,-2.036684195951237,-0.45949726592816964,2.183197906556093
137,1791274468.0669122,0.25833338120404387,-2.330541848575368,-0.326098345588235,2.3673828534482526,0.643627229991527,-2.085274211223467,-0.4666871461212678,2.2316857842301707
138,1791274468.0479133,0.3349740062040439,-2.3353318876378677,-0.512909869025735,2.4143444542969896,0.643627229991527,-2.085274211223467,-0.4666871461212678,2.2316857842301707
139,1791274468.0679133,0.25833338120404387,-2.440712747012868,-0.450639361213235,2.4953738563890755,0.6492890252293696,-2.133493540717716,-0.47439689148122505,2.280005117804469
140,1791274468.0921462,0.2343831858915439,-2.354492043887868,-0.32130830652573494,2.3878457425894113,0.6560155902575979,-2.191869634196218,-0.4837401283719173,2.3385152254731563
141,1791274468.1121461,0.25833338120404387,-2.229951028262868,-0.383578814338235,2.2773999277913535,0.6614735244866815,-2.239698638083683,-0.49135198140516245,2.3864668408887466
142,1791274468.136299,0.2439632640165439,-2.3018016142003677,-0.460219439338235,2.360002262217099,0.6679859449144248,-2.2970038540452933,-0.5006939999885164,2.4439980379956627
143,1791274468.1562989,0.3062337718290439,-2.397602395450368,-0.33088838465073495,2.439623637525829,0.6733950247735392,-2.3443873877547365,-0.5084560661567645,2.491614066115546
144,1791274468.1513314,0.2918636546415439,-2.330541848575368,-0.16802705652573496,2.354748987171778,0.6733950247735392,-2.3443873877547365,-0.5084560661567645,2.491614066115546
145,1791274468.1713314,0.3349740062040439,-2.244321145450368,-0.29735811121323497,2.2885818392734705,0.6790059140578218,-2.3915126569684717,-0.5153983526300449,2.5389008018549406
146,1791274468.196421,0.20085291245404388,-2.277851418887868,-0.402738970588235,2.321884505612029,0.6859971049094528,-2.4502719902819425,-0.5241183280311796,2.597907788217777
147,1791274468.216421,0.2535433421415439,-2.4215525907628677,-0.441059283088235,2.4744159851110257,0.6914157448189798,-2.4971348611016557,-0.5312924491096007,2.6449971480501917
148,1791274468.2418122,0.2966536937040439,-2.4694529813878674,-0.40752900965073496,2.52037325310768,0.6983109459172006,-2.5570203200104356,-0.5406502893955006,2.7052345239475053
149,1791274468.2618122,0.3158138499540439,-2.4119725126378677,-0.48895967371323495,2.4812157004301696,0.7038461142428786,-2.60443690159313,-0.5482602726586827,2.7530129410321695
150,1791274468.2874854,0.2391732249540439,-2.450292825137868,-0.431479204963235,2.4994625551851617,0.7109542115503661,-2.6655358313903874,-0.5583358936580991,2.8146538205424547
151,1791274468.3074853,0.25833338120404387,-2.4981932157628677,-0.36920869715073495,2.5385075420765792,0.7164072377088964,-2.713416415959836,-0.5662086957246447,2.8629460811821477
152,1791274468.3161843,0.2535433421415439,-2.4455027860753678,-0.35004854090073495,2.4834053402603096,0.7187572093374445,-2.734343491249704,-0.5695885706693393,2.884038382884547
153,1791274468.3361843,0.19606287339154388,-2.2922215360753677,-0.33088838465073495,2.3242649039786833,0.7240240716169724,-2.78234699969812,-0.5772151266806034,2.9323783837490778
154,1791274468.3619878,0.2391732249540439,-2.311381692325368,-0.402738970588235,2.358365501270376,0.7306422880829403,-2.8438993755185265,-0.5869985742989428,2.9943562141867375
155,1791274468.3819878,0.2966536937040439,-2.435922707950368,-0.39794893152573496,2.4859779172790293,0.7358062611875517,-2.891572448700377,-0.5946451657107454,3.042401182156794
156,1791274468.406703,0.20085291245404388,-2.4119725126378677,-0.273407915900735,2.4357145117273253,0.7421526773898651,-2.950634318880629,-0.6039215707419706,3.1018953470290622
157,1791274468.426703,0.22001306870404388,-2.229951028262868,-0.23029756433823498,2.252581698183512,0.7471492666455464,-2.998222053437068,-0.6110577697009427,3.149755404198437
158,1791274468.4365208,0.2870736155790439,-2.2155809110753677,-0.354838579963235,2.2621053141075254,0.7496075233344207,-3.0213518557977306,-0.6144662675891772,3.1730186368152533
159,1791274468.4565208,0.2727034983915439,-2.354492043887868,-0.47937959558823495,2.4182234759080057,0.7547037588477153,-3.0682571447268403,-0.6216195452795,3.22027802042924
160,1791274468.4976704,0.17211267807904387,-2.5029832548253674,-0.383578814338235,2.5380466218532822,0.7649891642344651,-3.1652791884537534,-0.6367929096176836,3.3180876980565106
161,1791274468.5176704,0.11463220932904387,-2.4646629423253676,-0.302148150275735,2.485758931876268,0.7696684513978732,-3.2128129969939727,-0.6440900131382777,3.3659187191248483
162,1791274468.5417395,0.15774256089154387,-2.388022317325368,-0.421899126838235,2.430130074046965,0.7749467505346622,-3.2701970359188848,-0.6528615224550196,3.4235886562785516
163,1791274468.5617394,0.2727034983915439,-2.4886131376378677,-0.527279986213235,2.558434429630709,0.7793204814842325,-3.318042326601061,-0.6604806064583405,3.4717401869213336
164,1791274468.5570564,0.26791345932904387,-2.5748338407628677,-0.38836885340073496,2.6177045852271257,0.7793204814842325,-3.318042326601061,-0.6604806064583405,3.4717401869213336
165,1791274468.5770564,0.10984217026654387,-2.5413035673253677,-0.31172822840073494,2.5627063062417754,0.7837364209630455,-3.366740636653012,-0.6682029904290837,3.5207499951648176
166,1791274468.6014352,0.09068201401654388,-2.3688621610753677,-0.441059283088235,2.4112785938250823,0.7886784114746352,-3.4261746940688496,-0.6775805475629904,3.580475117835577
167,1791274468.6214352,0.2487533030790439,-2.4550828642003677,-0.46979951746323495,2.5119756492632854,0.7926337483292915,-3.474855589051859,-0.6854860600414935,3.6294325675326573
168,1791274468.6617777,0.2822835765165439,-2.3784422392003677,-0.37878877527573496,2.4249025627967655,0.8010221683905947,-3.5729467065107214,-0.7016081095022199,3.7282487338076384
169,1791274468.6817777,0.19127283432904388,-2.268271340762868,-0.21592744715073497,2.2865399263759816,0.8052673045827026,-3.621251455488298,-0.7092938647922439,3.776905522029632
170,1791274468.676683,0.15295252182904387,-2.239531106387868,-0.26861787683823496,2.2607630601568607,0.8052673045827026,-3.621251455488298,-0.7092938647922439,3.776905522029632
171,1791274468.696683,0.2487533030790439,-2.3018016142003677,-0.39794893152573496,2.349155641721218,0.8093758605547638,-3.6687110718479747,-0.7164644669472111,3.8246374396466174
172,1791274468.7217479,0.2966536937040439,-2.330541848575368,-0.354838579963235,2.3759922432069662,0.8147778405070265,-3.727976166779366,-0.7255181744464569,3.8843333856542728
173,1791274468.7417479,0.20564295151654388,-2.297011575137868,-0.335678423713235,2.3305002046711745,0.8191951097038497,-3.7751132953974453,-0.7326945121829509,3.9318446394831366
174,1791274468.7673316,0.21522302964154388,-2.311381692325368,-0.39794893152573496,2.3552430091622054,0.8248056009422734,-3.835208470748586,-0.7419050871947251,3.992436781196775
175,1791274468.7873316,0.22480310776654389,-2.388022317325368,-0.455429400275735,2.4414346118503834,0.8291937201278587,-3.882189841279583,-0.7493054314721634,4.03985381157135
176,1791274468.797173,0.17211267807904387,-2.4838230985753675,-0.42668916590073497,2.5260767215722377,0.8313220690472978,-3.905436297491611,-0.7530518108751093,4.063325742063063
177,1791274468.817173,0.10984217026654387,-2.5365135282628675,-0.373998736213235,2.566289390563446,0.8354214841723914,-3.953122432440292,-0.7607242904226126,4.111424019499624
178,1791274468.842143,0.15295252182904387,-2.4119725126378677,-0.373998736213235,2.445583965097823,0.8402640494909899,-4.012995607479012,-0.7702673584391084,4.171748940431292
179,1791274468.862143,0.22480310776654389,-2.4023924345128678,-0.364418658088235,2.440251381523836,0.8441275727357603,-4.060979694198268,-0.7778720458151448,4.220093879927799
180,1791274468.886744,0.21043299057904388,-2.3688621610753677,-0.35004854090073495,2.403814460952724,0.8489700941723439,-4.119952425052705,-0.7871413162846956,4.2795268029653775
181,1791274468.906744,0.18648279526654388,-2.3353318876378677,-0.373998736213235,2.372430381072913,0.8529117883238383,-4.167760555858874,-0.7946327176037604,4.3277162251609305
182,1791274468.9167967,0.16732263901654387,-2.354492043887868,-0.383578814338235,2.3913933923693644,0.8548625871523624,-4.191721968308103,-0.7984045154306034,4.351870043184833
183,1791274468.9367967,0.14816248276654387,-2.3784422392003677,-0.364418658088235,2.4107551855953426,0.8586347899066933,-4.239342257279851,-0.8059049584780367,4.39985900670649
184,1791274468.9614315,0.1337923655790439,-2.344911965762868,-0.32130830652573494,2.370601516937748,0.8631051602526348,-4.2979267544339566,-0.815024742431654,4.4588552605920855
185,1791274468.9814315,0.1290023265165439,-2.287431497012868,-0.29735811121323497,2.3102827316321077,0.8665842604936533,-4.345303192651626,-0.8222461123211071,4.506519364856976
186,1791274469.0067167,0.15295252182904387,-2.287431497012868,-0.25903779871323496,2.307127631628253,0.8708576820284829,-4.4048907847148975,-0.8310615144293615,4.566412067299651
187,1791274469.0267167,0.09547205307904388,-2.344911965762868,-0.23508760340073495,2.3585998434176383,0.8741034605484086,-4.451901714649354,-0.8377295456794254,4.613596918711561
188,1791274469.0521855,0.08589197495404388,-2.316171731387868,-0.33088838465073495,2.341263770645792,0.877963210764199,-4.5116909993624565,-0.8460283028814765,4.673536023447353
189,1791274469.0721855,-0.009908806295956129,-2.330541848575368,-0.29735811121323497,2.3494563921698157,0.8806534993043531,-4.558569336009163,-0.8525099430013056,4.720474359633374
190,1791274469.0963974,-0.005118767233456128,-2.349702004825368,-0.24466768152573495,2.3624114772074574,0.8833945340004615,-4.615306241124082,-0.8601638496847461,4.777166466679309
191,1791274469.1163974,0.057151740579043875,-2.435922707950368,-0.27819795496323496,2.4524232633673155,0.88539715671833,-4.662321574796815,-0.866322214604765,4.824073462485668
192,1791274469.141301,0.10505213120404387,-2.373652200137868,-0.39794893152573496,2.4090712047576193,0.887819693916783,-4.721065820845733,-0.8741031195521112,4.882698286529183
193,1791274469.161301,0.06673181870404388,-2.354492043887868,-0.373998736213235,2.384944648214695,0.8897310742488602,-4.76825881118634,-0.8805725450622762,4.929839904302943
194,1791274469.1713448,0.08589197495404388,-2.354492043887868,-0.254247759650735,2.369736723642564,0.8906619444297911,-4.791951048433166,-0.8838073641922084,4.953502700800269
195,1791274469.1913447,0.17690271714154387,-2.349702004825368,-0.24945772058823495,2.3695196216055043,0.8926317035332629,-4.839108217284017,-0.8900380951414244,5.000592715622956
196,1791274469.2013953,0.20564295151654388,-2.287431497012868,-0.37878877527573496,2.327684002030743,0.8937614416502374,-4.862746740392669,-0.8931731063751703,5.024228654602825
197,1791274469.2213953,0.13858240464154387,-2.344911965762868,-0.39794893152573496,2.382473622552112,0.8961886754067031,-4.909678643031344,-0.8996409284533687,5.071237750284812
198,1791274469.261285,0.07152185776654388,-2.397602395450368,-0.273407915900735,2.4142005946658416,0.900932186526011,-5.003431523339131,-0.9126144702320977,5.16515933778807
199,1791274469.281285,0.11942224839154388,-2.354492043887868,-0.23029756433823498,2.3687404725470214,0.9032401614802442,-5.050514657900615,-0.9188990083475407,5.212285150154576
200,1791274469.2919555,0.18169275620404388,-2.306591653262868,-0.354838579963235,2.3407878439511083,0.9045277898089649,-5.075596730440596,-0.9222172788884959,5.237397961018091
201,1791274469.3119555,0.20564295151654388,-2.364072122012868,-0.441059283088235,2.4136402616763686,0.9071602259856142,-5.122563160189037,-0.9286977512054366,5.284512514776571
202,1791274469.3220103,0.07152185776654388,-2.388022317325368,-0.36920869715073495,2.417453417593427,0.9084941596786968,-5.146216961622056,-0.9320780877762862,5.3082652737000195
203,1791274469.3420103,0.04278162339154387,-2.3784422392003677,-0.282987994025735,2.395600124660872,0.9109209346693723,-5.19335881176353,-0.9387716138186374,5.3555620470546765
204,1791274469.3670902,0.09068201401654388,-2.306591653262868,-0.302148150275735,2.3280639568712616,0.9137586778075149,-5.2524198254727805,-0.9470068798203204,5.414766012923834
205,1791274469.3870902,0.14337244370404387,-2.3353318876378677,-0.373998736213235,2.3694315220577726,0.9160332700654534,-5.299416103387217,-0.9536032196209138,5.461894093551973
206,1791274469.412093,0.10505213120404387,-2.344911965762868,-0.383578814338235,2.378398785792138,0.918916136110138,-5.358131536298528,-0.9620332116498619,5.520823156540857
207,1791274469.432093,0.14337244370404387,-2.4215525907628677,-0.326098345588235,2.447613682434262,0.9212489065544263,-5.405203342330229,-0.9688294923362673,5.5680834498942415
208,1791274469.4565942,0.1290023265165439,-2.3784422392003677,-0.28777803308823496,2.3992593194124043,0.9241785530123519,-5.46304002226803,-0.977034567480131,5.626145112668298
209,1791274469.4765942,0.11463220932904387,-2.344911965762868,-0.345258501838235,2.372963569818365,0.9265767086144377,-5.51025441424829,-0.9836771258092614,5.673541115963635
210,1791274469.4871469,0.10984217026654387,-2.364072122012868,-0.373998736213235,2.3959919355324186,0.9278299120917578,-5.535156412100526,-0.9872254873291156,5.698547096850387
211,1791274469.5071468,0.09068201401654388,-2.4023924345128678,-0.31172822840073494,2.4242291817096464,0.9301495700648755,-5.582422449308666,-0.9939703772918388,5.7460069384026085
212,1791274469.5322578,0.10026209214154387,-2.3688621610753677,-0.273407915900735,2.38669485141533,0.9329847573019339,-5.641851367890242,-1.0022706370698913,5.805643275697813
213,1791274469.5522578,0.12421228745404388,-2.273061379825368,-0.345258501838235,2.3024856485762846,0.9352408749389677,-5.68904730225199,-1.0088178666820549,5.853003347816759
214,1791274469.562315,0.15774256089154387,-2.349702004825368,-0.441059283088235,2.395937294295342,0.9364178874771518,-5.71270725679904,-1.0122094735765754,5.876773832662761
215,1791274469.582315,0.13858240464154387,-2.407182473575368,-0.40752900965073496,2.445365501856843,0.938851911583114,-5.759835656982677,-1.0192152824162268,5.9241834457791
216,1791274469.606521,0.07631189682904388,-2.440712747012868,-0.32130830652573494,2.4629537646637183,0.9417460491031165,-5.817120209895342,-1.0277456907608837,5.9818086196610905
217,1791274469.6265209,0.08110193589154388,-2.3688621610753677,-0.273407915900735,2.3859667538876566,0.9440147420166504,-5.864565895021526,-1.0346287278223296,6.029490324615311
218,1791274469.6514292,0.09068201401654388,-2.3353318876378677,-0.345258501838235,2.362456705672281,0.9467373027868303,-5.92358009640311,-1.0430708828161719,6.088769132227799
219,1791274469.6714292,0.1337923655790439,-2.373652200137868,-0.43626924402573497,2.4171172949588864,0.9489321689923934,-5.970920914994302,-1.0500049665242372,6.1363571656309714
220,1791274469.6966057,0.17690271714154387,-2.440712747012868,-0.412319048713235,2.4816084063959303,0.9518673498500234,-6.030666422404761,-1.059026797071785,6.1964930974662495
221,1791274469.7166057,0.09547205307904388,-2.416762551700368,-0.24945772058823495,2.4314780070116777,0.9542578383019222,-6.078294679289956,-1.0661112857995494,6.244426915574753
222,1791274469.7572298,0.057151740579043875,-2.287431497012868,-0.22550752527573498,2.29923091901047,0.9588500985518092,-6.174858971023803,-1.0797899807637747,6.341468538602379
223,1791274469.7772298,0.12421228745404388,-2.277851418887868,-0.354838579963235,2.3086676236986485,0.9610438673922459,-6.222116146158635,-1.086384622308201,6.38894092936599
224,1791274469.7717476,0.20564295151654388,-2.359282082950368,-0.326098345588235,2.390573383402912,0.9610438673922459,-6.222116146158635,-1.086384622308201,6.38894092936599
225,1791274469.7917476,0.20564295151654388,-2.354492043887868,-0.282987994025735,2.380336953669042,0.9636663586742669,-6.269242449217092,-1.092931073214268,6.436346173777738
226,1791274469.8318183,0.16253259995404387,-2.359282082950368,-0.335678423713235,2.3885788237202994,0.9692389669856416,-6.363665330945867,-1.1059390239954932,6.531367524814529
227,1791274469.8518183,0.12421228745404388,-2.349702004825368,-0.39794893152573496,2.386397191570882,0.9720332572382696,-6.410787610581087,-1.112558073688882,6.5788169079620635
228,1791274469.8468442,0.17690271714154387,-2.383232278262868,-0.373998736213235,2.4188769539137738,0.9720332572382696,-6.410787610581087,-1.112558073688882,6.5788169079620635
229,1791274469.8668442,0.13858240464154387,-2.426342629825368,-0.30693818933823497,2.4496029662495,0.9749092804418861,-6.458082298555512,-1.1193459738443239,6.626477985262553
230,1791274469.8915339,0.08589197495404388,-2.349702004825368,-0.31651826746323497,2.372479874831352,0.9783427915172688,-6.516553113846055,-1.127623070298149,6.685368568146348
231,1791274469.9115338,0.14816248276654387,-2.349702004825368,-0.36920869715073495,2.3831421893860303,0.9810580041946831,-6.563862076301323,-1.1343508238507758,6.73301655692841
232,1791274469.9371104,0.11942224839154388,-2.416762551700368,-0.35962861902573495,2.4462901807296946,0.9845227500434671,-6.624430454386914,-1.1430620215791576,6.794038171480832
233,1791274469.9571104,0.08589197495404388,-2.383232278262868,-0.31172822840073494,2.405067153303081,0.987133632451074,-6.671888401653202,-1.149859124523593,6.8418348166760605
234,1791274469.9675984,0.09547205307904388,-2.273061379825368,-0.33088838465073495,2.299001973133017,0.9884400733771032,-6.696705046614509,-1.1533943615300106,6.866818099616387
235,1791274469.9875984,0.15774256089154387,-2.340121926700368,-0.393158892463235,2.378156273684171,0.990937496390544,-6.743849950627293,-1.1602106736875388,6.914300983155636
236,1791274470.0122144,0.10026209214154387,-2.407182473575368,-0.383578814338235,2.4396132183233785,0.994026581461947,-6.801936533893651,-1.1687757841520883,6.972837750112247
237,1791274470.0322144,0.12421228745404388,-2.392812356387868,-0.32130830652573494,2.4174818909517115,0.9964966364563386,-6.849251519759323,-1.1757482389905587,7.020515354935391
238,1791274470.0564034,0.09547205307904388,-2.364072122012868,-0.23029756433823498,2.3771808679899973,0.9994344809641273,-6.906522719270146,-1.183916864019442,7.078176636284542
239,1791274470.0764034,0.11463220932904387,-2.311381692325368,-0.263827837775735,2.3292125276620763,1.0018143490576887,-6.953785992517211,-1.1903989468511906,7.125715491960852
240,1791274470.0864677,0.1290023265165439,-2.3257518095128678,-0.364418658088235,2.3576607130929355,1.0030162059627599,-6.977502423927607,-1.1936457836803107,7.1495714446557805
241,1791274470.1064677,0.13858240464154387,-2.431132668887868,-0.38836885340073496,2.4658551260976145,1.0054476711112714,-7.024697798337827,-1.2002592822349312,7.197077637618375
242,1791274470.1320748,0.1337923655790439,-2.450292825137868,-0.37878877527573496,2.483005489781334,1.008616947131965,-7.085435613704244,-1.2089301253792437,7.258251719941912
243,1791274470.1520748,0.15295252182904387,-2.407182473575368,-0.354838579963235,2.4379976113303754,1.0111510751235262,-7.1330442892844115,-1.215786943112102,7.306222363209204
244,1791274470.1773353,0.18169275620404388,-2.354492043887868,-0.33088838465073495,2.3845612102617677,1.014505635857042,-7.193176691616822,-1.2244473502944393,7.366836764558334
245,1791274470.1973352,0.17690271714154387,-2.3784422392003677,-0.345258501838235,2.4098725048508483,1.0173011083505736,-7.240744483597489,-1.2312899215150106,7.414806611950389
246,1791274470.221631,0.11463220932904387,-2.392812356387868,-0.30693818933823497,2.415140279232731,1.0207188678677261,-7.298555801693864,-1.2395437976488652,7.473101941225618
247,1791274470.241631,0.11942224839154388,-2.330541848575368,-0.34046846277573495,2.358305695942928,1.0234613847728287,-7.346091899758369,-1.2462902143959977,7.5210224507254235
248,1791274470.2516928,0.07152185776654388,-2.383232278262868,-0.383578814338235,2.414962561842631,1.0247782441640205,-7.369976652970098,-1.249721534982272,7.545099749508595
249,1791274470.2716928,0.15774256089154387,-2.416762551700368,-0.35004854090073495,2.447071296019924,1.027347062431155,-7.4175315254802765,-1.2566194204633971,7.593043413945784
250,1791274470.296708,0.12421228745404388,-2.359282082950368,-0.27819795496323496,2.3788725778046453,1.03060710076018,-7.477050241349129,-1.2651316176518046,7.65303791430427
251,1791274470.316708,0.10984217026654387,-2.330541848575368,-0.33088838465073495,2.3564757018536664,1.03317364539875,-7.524532817027996,-1.2718299820683534,7.700882637682891
252,1791274470.326821,0.11463220932904387,-2.431132668887868,-0.383578814338235,2.463874855579851,1.0344470120673523,-7.548552579369351,-1.2752508643890632,7.725088441655784
253,1791274470.346821,0.1337923655790439,-2.4742430204503676,-0.37878877527573496,2.506643145246145,1.036960181636745,-7.596287926034023,-1.2821449277838306,7.77320862252855
254,1791274470.3724277,0.14337244370404387,-2.364072122012868,-0.335678423713235,2.3920854206818567,1.0402275154238434,-7.657529459640892,-1.2910197515518516,7.83495773492174
255,1791274470.3924277,0.11942224839154388,-2.2922215360753677,-0.302148150275735,2.3151316914105897,1.042790856894764,-7.705171527355934,-1.2978683961131017,7.882990765618661
256,1791274470.4324563,0.13858240464154387,-2.359282082950368,-0.345258501838235,2.388434730717681,1.0479262210931475,-7.800185450765581,-1.311463026668168,7.978782971199759
257,1791274470.4524562,0.1290023265165439,-2.4550828642003677,-0.383578814338235,2.4882134508811915,1.050508567638742,-7.8477590466817535,-1.3183298699895667,8.026760489236265
258,1791274470.4770577,0.16732263901654387,-2.4119725126378677,-0.40752900965073496,2.451874417859732,1.0537553257051147,-7.906480489517589,-1.3269692680039233,8.086017651217505
259,1791274470.4970577,0.15295252182904387,-2.287431497012868,-0.292568072150735,2.311132493887443,1.0564792973381607,-7.9541070015463955,-1.3339893684384898,8.134094561342426
260,1791274470.4915876,0.1290023265165439,-2.3353318876378677,-0.302148150275735,2.358327825044681,1.0564792973381607,-7.9541070015463955,-1.3339893684384898,8.134094561342426
261,1791274470.5115876,0.1337923655790439,-2.4455027860753678,-0.383578814338235,2.479015324801109,1.059201050594051,-8.00158241935319,-1.3408482429289024,8.181998661075857
262,1791274470.5371747,0.20564295151654388,-2.431132668887868,-0.37878877527573496,2.469043542248126,1.062812213609857,-8.06256807357485,-1.349769946983213,8.243570382559113
263,1791274470.5571747,0.14816248276654387,-2.354492043887868,-0.31172822840073494,2.3796553100003113,1.0657421675991052,-8.11026519743894,-1.3567332760700268,8.291738847972953
264,1791274470.5822475,0.07152185776654388,-2.344911965762868,-0.30693818933823497,2.3659963134777895,1.0692774214206273,-8.169928087196682,-1.3653167467553127,8.351955996824678
265,1791274470.6022475,0.09068201401654388,-2.397602395450368,-0.36920869715073495,2.427557524835855,1.071917716020557,-8.217494758344221,-1.3721507703133924,8.399941989669042
266,1791274470.6118116,0.19606287339154388,-2.416762551700368,-0.402738970588235,2.4579220004008047,1.0731966212666944,-8.240282929905998,-1.375482372768109,8.422942805848454
267,1791274470.6318116,0.19127283432904388,-2.4215525907628677,-0.36920869715073495,2.4569935508735803,1.0760508365054187,-8.288045625056188,-1.3825621075238792,8.471190215484357
268,1791274470.6567311,0.09547205307904388,-2.3784422392003677,-0.31172822840073494,2.4006825876224136,1.0796095949491795,-8.347601162741782,-1.3913327603687926,8.531342737212574
269,1791274470.676731,0.10026209214154387,-2.373652200137868,-0.31172822840073494,2.3961326638401728,1.082330965779771,-8.395357832420599,-1.3982512462752805,8.579544277033719
270,1791274470.7023058,0.16253259995404387,-2.435922707950368,-0.37878877527573496,2.470549983592918,1.0857929589197435,-8.45649100792643,-1.4070956039184104,8.641244386970362
271,1791274470.7223058,0.12421228745404388,-2.388022317325368,-0.31651826746323497,2.412107604157931,1.0885243291786468,-8.504363314566264,-1.4140175778953754,8.689564218759847
272,1791274470.7619624,0.06673181870404388,-2.354492043887868,-0.282987994025735,2.3723760505285685,1.0936957196774588,-8.599153133504766,-1.4274670137939596,8.78517313524187
273,1791274470.7819624,0.061941779641543876,-2.364072122012868,-0.35004854090073495,2.3906500712421965,1.0961055984061419,-8.646865414594895,-1.4341820636435785,8.833267072417295
274,1791274470.776481,0.1290023265165439,-2.407182473575368,-0.37878877527573496,2.440215153958765,1.0961055984061419,-8.646865414594895,-1.4341820636435785,8.833267072417295
275,1791274470.796481,0.14816248276654387,-2.4119725126378677,-0.37878877527573496,2.4460262589136414,1.0985059361082286,-8.694649607075817,-1.4410993190939383,8.88146464998773
276,1791274470.8215578,0.08589197495404388,-2.388022317325368,-0.335678423713235,2.4130288070290686,1.1015043402299904,-8.754604124188115,-1.4498152522831882,8.941944388585181
277,1791274470.8415577,0.1290023265165439,-2.4119725126378677,-0.33088838465073495,2.4379786965976717,1.1038593445135438,-8.8024481762058,-1.4567237634150532,8.990197076269062
278,1791274470.851597,0.17690271714154387,-2.4119725126378677,-0.335678423713235,2.4416359223273423,1.1050944898090298,-8.826494077382613,-1.4601733223560929,9.01445160066862
279,1791274470.871597,0.14337244370404387,-2.431132668887868,-0.345258501838235,2.4597083454017676,1.1076664212457117,-8.874476579851185,-1.4670359979332668,9.0628612527344
280,1791274470.8971775,0.061941779641543876,-2.426342629825368,-0.34046846277573495,2.450896594211579,1.1108564451652392,-8.935960849821342,-1.4758124693445418,9.124879220898091
281,1791274470.9171774,0.061941779641543876,-2.435922707950368,-0.354838579963235,2.4624107376722795,1.1131622661750666,-8.98411487400551,-1.4826880130645972,9.173429786303947
282,1791274470.9572446,0.1290023265165439,-2.4646629423253676,-0.35962861902573495,2.4941005920253048,1.1176625452765683,-9.080840767198653,-1.4965430861984792,9.270948161497808
283,1791274470.9772446,0.20085291245404388,-2.397602395450368,-0.39794893152573496,2.438688682717228,1.1200667368459387,-9.129173681468162,-1.5035579765882885,9.319712881326437
284,1791274470.9722574,0.21043299057904388,-2.4119725126378677,-0.37878877527573496,2.45058653826376,1.1200667368459387,-9.129173681468162,-1.5035579765882885,9.319712881326437
285,1791274470.9922574,0.12421228745404388,-2.397602395450368,-0.26861787683823496,2.415798315832882,1.122830121719415,-9.177440769669545,-1.5105876835786836,9.368459943491928
286,1791274471.016952,0.03799158432904388,-2.344911965762868,-0.263827837775735,2.3600128422623317,1.1260307810593777,-9.236881899032456,-1.5189516797471136,9.428422282756177
287,1791274471.036952,0.11463220932904387,-2.3257518095128678,-0.364418658088235,2.356918110845361,1.1284630718419155,-9.28480755928339,-1.5256518795314697,9.476744903971763
288,1791274471.0615256,0.14337244370404387,-2.354492043887868,-0.39794893152573496,2.392185568564323,1.1314788086299399,-9.343485810546658,-1.5340544740415678,9.535947489137738
289,1791274471.0815256,0.11463220932904387,-2.392812356387868,-0.34046846277573495,2.419630197043133,1.1339521009496947,-9.391200355109513,-1.5409750111706713,9.584106398726473
290,1791274471.1073847,-0.009908806295956129,-2.392812356387868,-0.27819795496323496,2.4089506552585087,1.1368733868117602,-9.452920688128174,-1.5497806377643617,9.64634701111627
291,1791274471.1273847,0.057151740579043875,-2.392812356387868,-0.335678423713235,2.4169189681245578,1.1388647270581564,-9.500674542487891,-1.5564903384603557,9.69445675644258
292,1791274471.1365924,0.1290023265165439,-2.4119725126378677,-0.393158892463235,2.4472079839462415,1.139772549830621,-9.522680082137919,-1.559619357011817,9.716631615475581
293,1791274471.1565924,0.17211267807904387,-2.407182473575368,-0.383578814338235,2.4436208670440456,1.141900311443983,-9.57053706236398,-1.566561487905649,9.764897893923296
294,1791274471.1822872,0.13858240464154387,-2.3688621610753677,-0.31651826746323497,2.393929162420814,1.1448226400052306,-9.632002398525135,-1.5754916838525663,9.826915239695063
295,1791274471.2022872,0.07152185776654388,-2.359282082950368,-0.27819795496323496,2.3767038993561505,1.147071239716624,-9.679760727442659,-1.5822920698342757,9.875079157342826
296,1791274471.2269537,0.14816248276654387,-2.354492043887868,-0.35004854090073495,2.38497775398798,1.1498349267046504,-9.738547622123583,-1.5905833639910216,9.93435380811675
297,1791274471.2469537,0.17211267807904387,-2.397602395450368,-0.393158892463235,2.435712202898323,1.152220049546301,-9.786191205907654,-1.5974124664680056,9.982428359331621
298,1791274471.2718523,0.13858240464154387,-2.4934031767003675,-0.37878877527573496,2.5258157931113283,1.1553241478846685,-9.845740511401663,-1.6060804712403007,10.042553190530823
299,1791274471.2918522,0.10026209214154387,-2.440712747012868,-0.29735811121323497,2.4608033336404604,1.1578018013939497,-9.893800193670263,-1.6130129494801484,10.09106525886992
300,1791274471.301417,0.12421228745404388,-2.4023924345128678,-0.33088838465073495,2.4282514747974524,1.1589700167078405,-9.916811099492811,-1.6162817373714446,10.114282996693936
301,1791274471.321417,0.15295252182904387,-2.392812356387868,-0.38836885340073496,2.4289454117184532,1.1614620727467715,-9.964901973476175,-1.6231703512462259,10.162821826470411
302,1791274471.3612435,0.16253259995404387,-2.426342629825368,-0.373998736213235,2.460372016188771,1.1666225325047646,-10.060696425438644,-1.6371073560976819,10.259568275203927
303,1791274471.3812435,0.08110193589154388,-2.407182473575368,-0.326098345588235,2.4305236300207342,1.1691907375948027,-10.108836779379956,-1.6441065419931853,10.308184822481948
304,1791274471.376778,0.061941779641543876,-2.364072122012868,-0.302148150275735,2.38410723057052,1.1691907375948027,-10.108836779379956,-1.6441065419931853,10.308184822481948
305,1791274471.3967779,0.08589197495404388,-2.3353318876378677,-0.354838579963235,2.3636968660575066,1.1714503967561436,-10.15675062820232,-1.6509499464765376,10.35652041379339
306,1791274471.4362535,0.15295252182904387,-2.354492043887868,-0.35962861902573495,2.3867048418871346,1.1759486087056954,-10.251021602540389,-1.6645465550408585,10.451651269534636
307,1791274471.4562535,0.10505213120404387,-2.3688621610753677,-0.28777803308823496,2.388589559713704,1.1782727455032143,-10.298703902675355,-1.6713729686420944,10.499767442095266
308,1791274471.4666235,0.052361701516543874,-2.344911965762868,-0.30693818933823497,2.365494647433771,1.1794194820587043,-10.323384880584584,-1.6748440885761269,10.524657164410648
309,1791274471.4866235,0.09547205307904388,-2.426342629825368,-0.383578814338235,2.458329956908986,1.1815211237606411,-10.37100227378022,-1.6815702093811997,10.572670367401296
310,1791274471.4963684,0.15295252182904387,-2.450292825137868,-0.402738970588235,2.4878762190443577,1.1825731004080065,-10.394287561570378,-1.6849305785676596,10.596163650350896
311,1791274471.5163684,0.10984217026654387,-2.426342629825368,-0.335678423713235,2.451914326362842,1.1848024692308081,-10.442223778635995,-1.6919003801041324,10.64454420021839
312,1791274471.5417476,0.028411506204043875,-2.373652200137868,-0.27819795496323496,2.3900682172377112,1.187470259977285,-10.503065055042558,-1.7005865970475942,10.705907525419999
313,1791274471.5617476,0.09547205307904388,-2.344911965762868,-0.326098345588235,2.3694022813976505,1.1894430773828595,-10.55089679894308,-1.707311413880449,10.754120622359032
314,1791274471.5868306,0.17211267807904387,-2.392812356387868,-0.36920869715073495,2.42723892703,1.19204955083902,-10.610799682690224,-1.7157883113630414,10.814526414376383
315,1791274471.6068306,0.1337923655790439,-2.4215525907628677,-0.326098345588235,2.4470712040954137,1.194274938749295,-10.658620250942052,-1.722576466728287,10.86276889042765
316,1791274471.616374,0.04757166245404387,-2.388022317325368,-0.335678423713235,2.4119688338076144,1.1953073589596732,-10.681458551389317,-1.725803384252126,10.885803313882132
317,1791274471.636374,0.028411506204043875,-2.349702004825368,-0.345258501838235,2.375102136384185,1.1972604152843547,-10.729247693816804,-1.732572995493937,10.933983618151021
318,1791274471.6619499,0.12421228745404388,-2.397602395450368,-0.354838579963235,2.4268985056763777,1.1996761017440096,-10.790299569257014,-1.7412743186549167,10.995536539715147
319,1791274471.6819499,0.14816248276654387,-2.3784422392003677,-0.364418658088235,2.4107551855953426,1.201690341855621,-10.8380440921186,-1.7481368705333211,11.04369693257353
320,1791274471.7065432,0.10026209214154387,-2.416762551700368,-0.345258501838235,2.443357761670087,1.2042538824054485,-10.89679231361195,-1.756618737370911,11.102973454339322
321,1791274471.7265432,0.061941779641543876,-2.416762551700368,-0.364418658088235,2.444867884718777,1.2062692174926677,-10.944651892397877,-1.7635462833437316,11.151259389160234
322,1791274471.7365966,0.15295252182904387,-2.397602395450368,-0.326098345588235,2.4245065171285045,1.207292340522518,-10.968730896397968,-1.7670268672369835,11.175553508556838
323,1791274471.7565966,0.15295252182904387,-2.4598729032628674,-0.335678423713235,2.487377972542041,1.2094812672239978,-11.01673395752386,-1.7739050917496832,11.22399266309278
324,1791274471.7815902,0.10026209214154387,-2.392812356387868,-0.326098345588235,2.4170112931052774,1.2122810710364287,-11.076820796933518,-1.782451875030801,11.284623123940513
325,1791274471.8015902,0.09547205307904388,-2.416762551700368,-0.282987994025735,2.43514647382516,1.214479019840999,-11.12490453188446,-1.7891787854555246,11.333120526117309
326,1791274471.826674,0.20085291245404388,-2.4742430204503676,-0.33088838465073495,2.504337744751175,1.2173796401085462,-11.185366127283418,-1.7975049623925552,11.394097273560373
327,1791274471.846674,0.21522302964154388,-2.5700438017003675,-0.46979951746323495,2.6214800555707556,1.2199695854085328,-11.233909074960138,-1.8043488775185745,11.443107697019903
328,1791274471.8718796,0.1290023265165439,-2.479033059512868,-0.345258501838235,2.506282095753787,1.2233947680310027,-11.295455080362544,-1.8132211527312556,11.505293180951352
329,1791274471.8918796,0.1290023265165439,-2.4694529813878674,-0.21592744715073497,2.482229701289778,1.2260918970312602,-11.344387648900158,-1.8200468575140571,11.554696146244217
330,1791274471.9013999,0.09547205307904388,-2.397602395450368,-0.13928682215073496,2.403541757160321,1.22734346959698,-11.367661577082432,-1.8230622558668275,11.578154330989237
331,1791274471.9213998,0.028411506204043875,-2.4023924345128678,-0.21592744715073497,2.4122440352340973,1.229764175022412,-11.416420832916803,-1.8289795462296576,11.627215949699728
332,1791274471.9463565,0.009251349954043872,-2.3784422392003677,-0.282987994025735,2.3952359544418873,1.2324022181643284,-11.477086409338803,-1.8361896310768293,11.688195756233716
333,1791274471.9663565,0.08589197495404388,-2.4838230985753675,-0.22071748621323498,2.49508934210748,1.2343419127812674,-11.525703921126075,-1.8418565474446276,11.737030560430272
334,1791274472.0069613,0.028411506204043875,-2.4981932157628677,-0.19197725183823497,2.5057198211675145,1.2380373526931718,-11.624775541583434,-1.8528927891583897,11.836441803471814
335,1791274472.0269613,0.07631189682904388,-2.4838230985753675,-0.24945772058823495,2.497484703651909,1.239741603808143,-11.673726775937388,-1.8581754733504916,11.885523638999318
336,1791274472.0214334,0.1290023265165439,-2.6083641142003677,-0.27819795496323496,2.6263280554113333,1.239741603808143,-11.673726775937388,-1.8581754733504916,11.885523638999318
337,1791274472.0414333,0.07631189682904388,-2.5221434110753678,-0.292568072150735,2.5402021511034385,1.2415426716651405,-11.723282329211305,-1.8635211212482021,11.935220473259033
338,1791274472.0814369,0.09547205307904388,-2.4598729032628674,-0.412319048713235,2.496016147996203,1.2451201582042148,-11.822481672794337,-1.8747243835813197,12.034782450311218
339,1791274472.1014369,0.06673181870404388,-2.5077732938878676,-0.532070025275735,2.564464571984116,1.2468837596337905,-11.872089086967168,-1.8809019266694442,12.084660129961133
340,1791274472.1421998,0.06673181870404388,-2.6706346220128676,-0.5033297909007349,2.7184707646633868,1.2503470941467605,-11.973861729176097,-1.8947694990313997,12.187160621725184
341,1791274472.1621997,0.10026209214154387,-2.6802147001378676,-0.33088838465073495,2.7024230699600853,1.2520419527824227,-12.02433181604091,-1.9018042334891847,12.23801552606869
342,1791274472.1431935,0.18648279526654388,-2.5077732938878676,-0.263827837775735,2.528499130799346,1.2520419527824227,-12.02433181604091,-1.9018042334891847,12.23801552606869
343,1791274472.1631935,0.20085291245404388,-2.388022317325368,-0.373998736213235,2.4254623343136847,1.2542130905369637,-12.074754818598192,-1.9086018305439572,12.288837022000507
344,1791274472.1862483,0.09068201401654388,-2.4550828642003677,-0.441059283088235,2.496034532804922,1.2568445366152345,-12.132535143177076,-1.9166716579564693,12.347133166612402
345,1791274472.2062483,0.10026209214154387,-2.555673684512868,-0.354838579963235,2.5821368837965393,1.2590713062057424,-12.182656843397384,-1.9238159654681306,12.397719797893394
346,1791274472.2316794,0.2487533030790439,-2.5221434110753678,-0.33088838465073495,2.555889808837697,1.2621437446976795,-12.246514745395487,-1.932845625044953,12.462183695152467
347,1791274472.2516794,0.2727034983915439,-2.340121926700368,-0.450639361213235,2.398669144282617,1.2649797643876037,-12.296495275478376,-1.9400539787690234,12.512704715796248
348,1791274472.2612336,0.1290023265165439,-2.344911965762868,-0.441059283088235,2.3895160636879735,1.266419181665025,-12.320147065895132,-1.9436198993458789,12.536646265333756
349,1791274472.2812335,0.10984217026654387,-2.316171731387868,-0.335678423713235,2.342946178595603,1.2693386467328098,-12.369223030274208,-1.9511299550478267,12.586334139623032
350,1791274472.3070893,0.14816248276654387,-2.359282082950368,-0.354838579963235,2.390413036707359,1.2730470825845717,-12.432217780614494,-1.9607215817581978,12.650103435951685
351,1791274472.3270893,0.13858240464154387,-2.3257518095128678,-0.508119829963235,2.3846409213821853,1.2759154686358667,-12.48066390694331,-1.9683224417233367,12.699182063257988
352,1791274472.3516486,0.12421228745404388,-2.364072122012868,-0.455429400275735,2.410742962048942,1.2793934557955482,-12.539868892184309,-1.9780307918476585,12.75922275302856
353,1791274472.3716486,0.13858240464154387,-2.349702004825368,-0.21113740808823497,2.363235832381272,1.2821951192927021,-12.587921392714204,-1.9857507865284276,12.807927057072437
354,1791274472.3817177,0.15774256089154387,-2.143730325137868,-0.273407915900735,2.166844320875294,1.2836178391363666,-12.61187828047336,-1.9894203908697756,12.832183836355885
355,1791274472.4017177,0.12421228745404388,-2.028769387637868,-0.33088838465073495,2.0593253855736027,1.286442786852982,-12.658584076463546,-1.9965223253119162,12.87947154429138
356,1791274472.4270499,0.09547205307904388,-2.000029153262868,-0.26861787683823496,2.020244314576233,1.2899015640001914,-12.716522851689374,-2.005307421865732,12.938124181601363
357,1791274472.4470499,0.14337244370404387,-1.971288918887868,-0.34046846277573495,2.005605752257567,1.2925809523960088,-12.761361473960386,-2.012116567892732,12.983517445991506
358,1791274472.4711885,0.11942224839154388,-2.0191893095128677,-0.383578814338235,2.058766584115613,1.295805488209554,-12.814585572611609,-2.0204128549498086,13.037437760752917
359,1791274472.4911885,0.03799158432904388,-2.0431395048253678,-0.282987994025735,2.06299408661794,1.2983125297623113,-12.858162819501764,-2.027255471611257,13.081579845910554
360,1791274472.5166345,0.13858240464154387,-1.937758645450368,-0.27819795496323496,1.962525860476647,1.301360760185743,-12.912886907955933,-2.0357264353913003,13.136984823221876
361,1791274472.5366344,0.26791345932904387,-1.9042283720128679,-0.445849322150735,1.9739921308178263,1.304006972543304,-12.955210084165348,-2.042471807211705,13.179893534947682
362,1791274472.5464478,0.11942224839154388,-1.976078957950368,-0.484169634650735,2.03803090177331,1.3053956961602369,-12.975717541773799,-2.045969564813,13.20073085505462
363,1791274472.5664477,-0.029068962545956128,-1.9569188017003678,-0.484169634650735,2.016134032287965,1.3079369669444605,-13.01714291472588,-2.0534813765110536,13.242865797688044
364,1791274472.6066504,0.10984217026654387,-2.014399270450368,-0.551230181525735,2.0913451260336573,1.312522562015335,-13.099897144135271,-2.069438088444834,13.327137527039666
365,1791274472.6266503,0.18648279526654388,-2.004819192325368,-0.570390337775735,2.092706612087438,1.3149061029229687,-13.140919223750904,-2.0778679350777853,13.369004123728685
366,1791274472.636626,0.033201545266543876,-1.899438332950368,-0.47937959558823495,1.9592787244176615,1.3160810067262045,-13.16123227876849,-2.082227319288068,13.389763811253454
367,1791274472.656626,-0.029068962545956128,-1.932968606387868,-0.48895967371323495,1.9940647432774865,1.318089411167197,-13.201597259814895,-2.0911088463876943,13.431018804008284
368,1791274472.6669397,-0.03385900160845613,-2.038349465762868,-0.37878877527573496,2.073522585563172,1.3189210879100155,-13.222362572677508,-2.0956731589692468,13.452221780386347
369,1791274472.6869397,-0.02427892348345613,-2.134150247012868,-0.07222627527573496,2.1355100977964976,1.3202047202363811,-13.262848440797018,-2.103872962446707,13.493419533572675
370,1791274472.7268925,0.061941779641543876,-2.119780129825368,0.03794462316176505,2.1210243698021256,1.3224971749618177,-13.344339907887296,-2.1178989006232958,13.575930984955576
371,1791274472.7468925,0.18648279526654388,-2.148520364200368,-0.22550752527573498,2.168356343470808,1.3238452559204108,-13.385417148296796,-2.1241483117853823,13.617414018307645
372,1791274472.7561717,0.10505213120404387,-2.220370950137868,-0.38836885340073496,2.256526860637482,1.3245797885843615,-13.404657222908982,-2.1270401064695177,13.636848847682591
373,1791274472.7761717,0.09068201401654388,-2.4119725126378677,-0.23987764246323495,2.4255671321858823,1.3262190846915385,-13.446854368785884,-2.133280366515586,13.679460318232476
374,1791274472.786746,0.18648279526654388,-2.435922707950368,-0.23508760340073495,2.4543352365378652,1.327175613249947,-13.4696629316867,-2.1364614845718877,13.702469933436062
375,1791274472.806746,0.08589197495404388,-2.316171731387868,-0.37878877527573496,2.3485122645872365,1.3291219512478996,-13.513459564955369,-2.1424964662559796,13.746652162722826
376,1791274472.8471973,-0.00032872817095612797,-2.3353318876378677,-0.47937959558823495,2.384025991919299,1.3327276450775083,-13.602865870290305,-2.155475245658938,13.836914265677558
377,1791274472.8671973,-0.014698845358456128,-2.450292825137868,-0.31651826746323497,2.470695205527164,1.3342204259778412,-13.647618029508523,-2.1621235292111054,13.88208918643123
378,1791274472.8765645,0.09068201401654388,-2.340121926700368,-0.10096650965073496,2.344053774033563,1.3348680946981735,-13.668799669883985,-2.1650635617106517,13.903433297999127
379,1791274472.8965645,0.10505213120404387,-2.1293602079503677,-0.10096650965073496,2.1343394953811816,1.3363371082841433,-13.71394509471124,-2.1707021384003635,13.948836320689537
380,1791274472.9069161,0.028411506204043875,-2.033559426700368,-0.21592744715073497,2.0451884553849173,1.3370870125007988,-13.737038622300641,-2.1734288353146183,13.972037241997134
381,1791274472.9269161,0.07631189682904388,-2.114990090762868,-0.263827837775735,2.132747457531761,1.3384756257468158,-13.781186727552322,-2.178626378623629,14.016384609378317
382,1791274472.9515066,0.009251349954043872,-2.239531106387868,-0.05785615808823496,2.2402974130645177,1.340084664346232,-13.8353567627339,-2.18465159269863,14.070736520922537
383,1791274472.9715066,0.018831428079043873,-2.273061379825368,0.01878446691176505,2.273216996974609,1.3412391545789655,-13.879574660283797,-2.188875571923842,14.114981101281458
384,1791274473.0109074,0.014041389016543874,-2.1820506376378677,-0.13449678308823496,2.1862368422662772,1.3432695315395418,-13.966784262406312,-2.1962907153386664,14.202081839408121
385,1791274473.0309074,-0.009908806295956129,-2.2060008329503678,-0.29735811121323497,2.2259738780417506,1.3441517624026864,-14.010994026719978,-2.200137855114987,14.246238245890146
386,1791274473.0268614,-0.05780919692095613,-2.373652200137868,-0.25903779871323496,2.388444525550088,1.3441517624026864,-14.010994026719978,-2.200137855114987,14.246238245890146
387,1791274473.0468614,-0.14402990004595614,-2.4742430204503676,-0.03390596277573495,2.478663500894455,1.3444000754728302,-14.05604646938114,-2.204066232935168,14.291177763623907
388,1791274473.0717683,-0.05301915785845613,-2.2922215360753677,0.09542509191176506,2.2948195026437497,1.344294834870382,-14.112640253389136,-2.2081096716469677,14.347455936390238
389,1791274473.0917683,0.10505213120404387,-2.124570168887868,0.07147489659926505,2.1283662780740094,1.3443010531399162,-14.157893060964861,-2.210619138063189,14.392356242838117
390,1791274473.116752,0.16732263901654387,-2.2155809110753677,-0.019535845588234953,2.2219759873391665,1.344818024317166,-14.214075218557015,-2.2131863823090367,14.44806782238245
391,1791274473.136752,0.07152185776654388,-2.2922215360753677,0.14811552159926505,2.2981151307810315,1.3455280609212505,-14.259065756602352,-2.2147403802377905,14.492635266427294
392,1791274473.146813,0.1290023265165439,-2.177260598575368,-0.005165728400734953,2.1810850508646746,1.345982979232189,-14.281676008644691,-2.215296993808001,14.515008803547275
393,1791274473.166813,-0.05780919692095613,-2.1293602079503677,-0.31172822840073494,2.152833316082074,1.3468584383623274,-14.326340181718646,-2.216712836980897,14.559253636672107
394,1791274473.1916058,-0.22067052504595613,-2.119780129825368,-0.25903779871323496,2.1469196213618966,1.3472630851600755,-14.38130394729938,-2.2192660317456365,14.613766207412235
395,1791274473.2116058,-0.11528966567095614,-2.1724705595128677,-0.05306611902573496,2.1761746372819273,1.3470366032692256,-14.425429831003193,-2.2214848598587498,14.657507578109096
396,1791274473.236191,-0.05301915785845613,-2.153310403262868,-0.18718721277573497,2.1620813528928235,1.3464896146805798,-14.4795120989416,-2.2242462572185686,14.711103844327576
397,1791274473.256191,-0.05780919692095613,-2.1293602079503677,-0.345258501838235,2.1579435190807614,1.3459451455954654,-14.523332415175686,-2.2269543510464587,14.754595164161216
398,1791274473.2814283,-0.16798009535845615,-2.023979348575368,-0.292568072150735,2.0519029686459844,1.344933781245035,-14.578194963078532,-2.2310662954172904,14.80912799836673
399,1791274473.3014283,-0.16319005629595615,-2.004819192325368,-0.26861787683823496,2.0293069142313342,1.3437557665041897,-14.621193836490148,-2.234677899434922,14.851894629253659
400,1791274473.3118048,-0.08654943129595613,-2.0096092313878677,-0.39794893152573496,2.0504593190403617,1.3430419066069672,-14.643280491047278,-2.236789360644157,14.873891614042345
401,1791274473.3318048,-0.04343907973345613,-1.980868997012868,-0.273407915900735,2.0001202027508342,1.3416773908330997,-14.685451280080299,-2.2412556507278145,14.915958045415795
402,1791274473.3563743,-0.08175939223345613,-1.851537942325368,-0.009955767463234953,1.8533689506934725,1.3400218514279234,-14.736548266032937,-2.24644153223987,14.96689723747694
403,1791274473.3763742,-0.01948888442095613,-1.659936379825368,-0.14407686121323496,1.6662913141527143,1.3387244886116347,-14.777170181757015,-2.250260763899719,15.007352043000914
404,1791274473.4011495,0.03799158432904388,-1.741367043887868,-0.292568072150735,1.7661819325484565,1.3373928113453986,-14.826263136229764,-2.2550935728512846,15.056299184689417
405,1791274473.4211495,-0.005118767233456128,-1.8227977079503679,-0.326098345588235,1.8517445333745388,1.336528366809133,-14.86529537009906,-2.259337688226232,15.095294674335229
406,1791274473.43137,0.08589197495404388,-1.8706980985753678,-0.35962861902573495,1.9068879230299194,1.3362147914416824,-14.885081123051126,-2.261706853527199,15.115105950669761
407,1791274473.45137,0.10984217026654387,-2.0622996610753677,-0.48895967371323495,2.1223163658979294,1.3359868169436904,-14.923890605697242,-2.266920409156875,15.154085248780861
408,1791274473.4761927,-0.04822911879595613,-2.2155809110753677,-0.551230181525735,2.2836329684181487,1.335861016766467,-14.972797445390238,-2.2743570594461295,15.203351210527671
409,1791274473.4961927,-0.12007970473345614,-2.340121926700368,-0.326098345588235,2.3657831469321313,1.3355223987628488,-15.013125136869604,-2.2807660857248395,15.243996864034571
410,1791274473.5214539,0.023621467141543874,-2.359282082950368,-0.24466768152573495,2.372052317092463,1.3349761097612487,-15.065324396916495,-2.2887281854781816,15.29654984318238
411,1791274473.5414538,0.15295252182904387,-2.3353318876378677,-0.5033297909007349,2.393848445027439,1.3348733348488566,-15.107494802648656,-2.2952084280937264,15.339043899817847
412,1791274473.5517342,0.1290023265165439,-2.397602395450368,-0.5608102596507349,2.465694018779611,1.3350458258549458,-15.129568958814657,-2.2988602324563114,15.361346379957386
413,1791274473.5717342,0.07152185776654388,-2.5460936063878674,-0.34046846277573495,2.569752284320889,1.335631849059117,-15.173487099342884,-2.306250901810921,15.405759196230795
414,1791274473.5963197,0.11942224839154388,-2.4981932157628677,-0.49853975183823496,2.550249576190032,1.3365962594199632,-15.228677685355846,-2.3155203517377374,15.461589443018534
415,1791274473.6163197,0.16732263901654387,-2.4838230985753675,-0.632660845588235,2.568585952637058,1.337693231609073,-15.274313018796885,-2.323626644077841,15.50784647071118
416,1791274473.6418009,0.17211267807904387,-2.5173533720128676,-0.31651826746323497,2.5430050308990784,1.3395298930455501,-15.333291649944004,-2.33421934655897,15.567682971927946
417,1791274473.6618009,0.14816248276654387,-2.229951028262868,-0.30693818933823497,2.255846794847647,1.3412356473518587,-15.37976062208339,-2.342221528783036,15.61479911955991
418,1791274473.6713614,0.08589197495404388,-2.297011575137868,-0.493749712775735,2.3510483590400635,1.342096565714115,-15.401888169663238,-2.3460471458405805,15.637241431691868
419,1791274473.6913614,0.04278162339154387,-2.4694529813878674,-0.38836885340073496,2.500171726277466,1.3438204025628713,-15.448383563865095,-2.354172775186463,15.684404275141295
420,1791274473.7314818,0.09547205307904388,-2.440712747012868,-0.17281709558823496,2.4486852339322382,1.3471757552675043,-15.542438476341808,-2.3697165482455986,15.779665168357656
421,1791274473.7514818,0.17211267807904387,-2.3257518095128678,-0.30693818933823497,2.3522234811943683,1.3489988773740773,-15.589441544002225,-2.3770224590916884,15.827214581095605
422,1791274473.7621021,0.14816248276654387,-2.440712747012868,-0.46979951746323495,2.489928196020788,1.3500768795824658,-15.614453725336055,-2.3809387878124766,15.852531098621256
423,1791274473.782102,0.18648279526654388,-2.5413035673253677,-0.292568072150735,2.5648773325586274,1.352304403183445,-15.661963695579244,-2.3883511983243313,15.900630661928126
424,1791274473.7915812,0.16732263901654387,-2.4742430204503676,-0.26861787683823496,2.494399918523872,1.3534533133161308,-15.684669248996846,-2.3917363238409086,15.923601601538946
425,1791274473.8115811,0.10026209214154387,-2.4886131376378677,-0.31651826746323497,2.5106635874968037,1.3559151773302989,-15.732834295436096,-2.3986850052177275,15.972296976015102
426,1791274473.836486,0.14337244370404387,-2.555673684512868,-0.335678423713235,2.581608731677178,1.3589760452780038,-15.79323725516792,-2.407258141206304,16.033341842799565
427,1791274473.856486,0.21522302964154388,-2.4934031767003675,-0.37878877527573496,2.5311778464466816,1.361603268462243,-15.842041568854054,-2.414181813265707,16.08267758669214
428,1791274473.8822408,0.22001306870404388,-2.6179441923253677,-0.46979951746323495,2.6688479033357035,1.3653196650820314,-15.905334656450782,-2.423399428856282,16.14672205474953
429,1791274473.9022408,0.04757166245404387,-2.6275242704503676,-0.546440142463235,2.6841653608095046,1.3681741360427704,-15.954980929959918,-2.431008088996762,16.197009516286908
430,1791274473.9263277,0.12421228745404388,-2.6706346220128676,-0.455429400275735,2.7120350136537494,1.37140657920252,-16.01537488117051,-2.4406069461198263,16.258214872960547
431,1791274473.9463277,0.3349740062040439,-2.6945848173253677,-0.373998736213235,2.740961505983232,1.3743767375825247,-16.066047281410533,-2.448625726538334,16.309584746828843
432,1791274473.9720397,0.38766443589154387,-2.6514744657628677,-0.546440142463235,2.7348121300635686,1.3790159493106358,-16.13172948085982,-2.4591633171468446,16.376259195936527
433,1791274473.9920397,0.3397640452665439,-2.5892039579503674,-0.431479204963235,2.6468077086629167,1.383174393556322,-16.183017519257437,-2.4675973220725504,16.428398095233835
434,1791274474.0012357,0.3637142405790439,-2.5029832548253674,-0.23029756433823498,2.539734275643085,1.3852848387161822,-16.20657463412985,-2.4713500323523316,16.452344709445093
435,1791274474.0212357,0.3445540843290439,-2.426342629825368,-0.354838579963235,2.4762403946640625,1.3902486501169362,-16.257516756152167,-2.4791650688667444,16.50411772329589
436,1791274474.046306,0.3349740062040439,-2.450292825137868,-0.460219439338235,2.5155405872494483,1.3968152046838302,-16.320964141128783,-2.4890243905687615,16.568651291788772
437,1791274474.0663059,0.3014437327665439,-2.450292825137868,-0.23029756433823498,2.4794838618322292,1.4022225816080958,-16.371338400030385,-2.4967457269516986,16.619888339027213
438,1791274474.0764027,0.22480310776654389,-2.3018016142003677,-0.18239717371323497,2.319934446784109,1.404941467522969,-16.396553262461808,-2.5003715767061285,16.645500215899563
439,1791274474.0964026,0.18169275620404388,-2.263481301700368,-0.41710908777573497,2.3087528780511177,1.4101290046470076,-16.445855496993296,-2.507375686066639,16.69555508717244
440,1791274474.1370592,0.14337244370404387,-2.397602395450368,-0.565600298713235,2.4675811237297776,1.420083782385782,-16.545257884991862,-2.5224746459816187,16.796579257976923
441,1791274474.1570592,0.20564295151654388,-2.450292825137868,-0.455429400275735,2.5007278722536097,1.424769758286085,-16.594093461383068,-2.5303196113553397,16.84625845714271
442,1791274474.1667597,0.2439632640165439,-2.397602395450368,-0.43626924402573497,2.449152133727453,1.4270287672054023,-16.61775409985947,-2.5342026270247935,16.870339219489555
443,1791274474.1867597,0.17690271714154387,-2.297011575137868,-0.5033297909007349,2.3581555559499434,1.4316189305411675,-16.666260778553827,-2.5424169264028262,16.91974186944662
444,1791274474.1969757,0.2391732249540439,-2.397602395450368,-0.421899126838235,2.446160246474283,1.433930686424373,-16.690918436057412,-2.5466923237405634,16.94486816839806
445,1791274474.2169757,0.2727034983915439,-2.440712747012868,-0.31172822840073494,2.475605057323956,1.438545390107487,-16.739207604310668,-2.554907260769687,16.994058819797736
446,1791274474.24205,0.2918636546415439,-2.344911965762868,-0.30693818933823497,2.3828570188227474,1.4445247855410688,-16.799666957883066,-2.5648250051514525,17.055608727303774
447,1791274474.26205,0.3301839671415439,-2.320961770450368,-0.34046846277573495,2.3689246012050083,1.4495118019285873,-16.847656351565558,-2.572520205137402,17.10445758304594
448,1791274474.2864301,0.3301839671415439,-2.349702004825368,-0.34046846277573495,2.397089847665822,1.4558866407959559,-16.905921412810276,-2.5817387656687187,17.163774636749395
449,1791274474.30643,0.3301839671415439,-2.3784422392003677,-0.302148150275735,2.420186447793813,1.4613222794059453,-16.953641049982505,-2.5891306654109774,17.212350369967247
450,1791274474.3310063,0.3397640452665439,-2.364072122012868,-0.36920869715073495,2.4167316083061547,1.468234601445618,-17.012225152704886,-2.5980888773697064,17.27198840046852
451,1791274474.3510063,0.3062337718290439,-2.3784422392003677,-0.46979951746323495,2.443660818286734,1.4739850290440788,-17.05986305536338,-2.605544015219341,17.320520169695936
452,1791274474.3619156,0.27749353745404387,-2.4550828642003677,-0.512909869025735,2.5233927691033426,1.477128799706731,-17.085904987044525,-2.6098046155217762,17.347078683410494
453,1791274474.3819156,0.2295931468290439,-2.450292825137868,-0.402738970588235,2.4937615404090763,1.482788364557212,-17.13384416686168,-2.617817377840575,17.395983590820336
454,1791274474.4066722,0.2727034983915439,-2.383232278262868,-0.32130830652573494,2.42020708164228,1.4896757687794417,-17.193258478233588,-2.6275924566246753,17.456560746995688
455,1791274474.4266722,0.2727034983915439,-2.3018016142003677,-0.37878877527573496,2.3486461643775325,1.495223341710774,-17.241084818417768,-2.635354981419139,17.50530760756757
456,1791274474.4364855,0.22480310776654389,-2.354492043887868,-0.42668916590073497,2.403379467809824,1.497903209807318,-17.264458583217284,-2.6391852970036336,17.529134126633185
457,1791274474.4564855,0.18169275620404388,-2.416762551700368,-0.30693818933823497,2.442941780115222,1.5031553947825804,-17.312106757820715,-2.6469211445466208,17.57767641301016
458,1791274474.48262,0.2439632640165439,-2.3257518095128678,-0.30693818933823497,2.3585696101061377,1.5098234082858355,-17.37432613171981,-2.656716732345046,17.641001078495854
459,1791274474.50262,0.2439632640165439,-2.297011575137868,-0.412319048713235,2.3464414010238444,1.5148927119327391,-17.421732776378807,-2.6641674586594046,17.68924704751444
460,1791274474.5262024,0.17690271714154387,-2.3688621610753677,-0.40752900965073496,2.410162318851913,1.5207178281895195,-17.477498802000866,-2.6730850421148573,17.74601168514473
461,1791274474.5462024,0.20085291245404388,-2.373652200137868,-0.29735811121323497,2.4006225246724893,1.5254836365926479,-17.524812850864866,-2.6805708268274606,17.79414582779934
462,1791274474.571498,0.3158138499540439,-2.344911965762868,-0.364418658088235,2.393982346084345,1.5315873653417296,-17.58463015510263,-2.6898739894523818,17.85498248748936
463,1791274474.591498,0.2870736155790439,-2.373652200137868,-0.431479204963235,2.429569989174354,1.5365937417426894,-17.631908558479818,-2.697320079139456,17.903096250399972
464,1791274474.601697,0.17690271714154387,-2.450292825137868,-0.36920869715073495,2.4842593589047657,1.5391187196314566,-17.656091878628082,-2.7011601381785795,17.927708524843922
465,1791274474.621697,0.11942224839154388,-2.426342629825368,-0.32130830652573494,2.4504365444877796,1.5437718828656073,-17.703715995316085,-2.7085965885968237,17.97613103948943
466,1791274474.6462646,0.22001306870404388,-2.450292825137868,-0.402738970588235,2.4928977832540897,1.5492557964941314,-17.762427030231173,-2.7176952742186042,18.03579427501788
467,1791274474.6662645,0.2487533030790439,-2.4598729032628674,-0.493749712775735,2.5212381253792238,1.5537536354344699,-17.810418400382215,-2.7253360007863203,18.084595938905608
468,1791274474.6921551,0.21043299057904388,-2.431132668887868,-0.393158892463235,2.471692135356021,1.5595944825947843,-17.872723082001905,-2.7354656764010876,18.147984400005203
469,1791274474.712155,0.17211267807904387,-2.3784422392003677,-0.24466768152573495,2.397180121215587,1.5640034511510035,-17.92084722857536,-2.7430736476880844,18.196904275776973
470,1791274474.7214413,0.18169275620404388,-2.297011575137868,-0.31651826746323497,2.325824208235072,1.5659899174377332,-17.94309629746142,-2.746467072796348,18.219498087034257
471,1791274474.7414412,0.17211267807904387,-2.340121926700368,-0.412319048713235,2.3823938389173125,1.57015720636341,-17.990782884908263,-2.7537725983854533,18.267920680477612
472,1791274474.7659152,0.20564295151654388,-2.416762551700368,-0.393158892463235,2.4571536723478706,1.5751851651814808,-18.049115171930843,-2.7628498715548804,18.327168526725092
473,1791274474.7859151,0.21522302964154388,-2.4023924345128678,-0.32130830652573494,2.433320650825777,1.579308967768374,-18.09686247887255,-2.77022679696503,18.37565794472464
474,1791274474.8113723,0.21043299057904388,-2.354492043887868,-0.35962861902573495,2.3910766553746594,1.5845833310155888,-18.157603957517225,-2.7795082144291934,18.437330384984072
475,1791274474.8313723,0.22001306870404388,-2.407182473575368,-0.373998736213235,2.4459779774515744,1.588751157765997,-18.205308913673072,-2.786806676773526,18.485770049886387
476,1791274474.8416865,0.2295931468290439,-2.4646629423253676,-0.441059283088235,2.51432092691866,1.590925946097819,-18.229989319787673,-2.790636496404642,18.510840284022912
477,1791274474.8616865,0.15295252182904387,-2.4838230985753675,-0.37878877527573496,2.517191410128617,1.595084266258853,-18.278090469574185,-2.798178604346718,18.559706046493
478,1791274474.8859668,0.16732263901654387,-2.5460936063878674,-0.302148150275735,2.5694129723988874,1.5999585241606167,-18.336886321591802,-2.8072014141749113,18.619389007960503
479,1791274474.9059668,0.3253939280790439,-2.5844139188878676,-0.40752900965073496,2.6365045811223173,1.604110335063415,-18.385748293943998,-2.814583295639853,18.668979335341735
480,1791274474.946796,0.3301839671415439,-2.6514744657628677,-0.364418658088235,2.6966904258947935,1.613322234376448,-18.486568912362582,-2.829756494848101,18.77134946144254
481,1791274474.966796,0.2966536937040439,-2.7616453642003678,-0.599130572150735,2.841416191634605,1.618098034367556,-18.53666711071239,-2.8375194590112405,18.822268341049067
482,1791274474.9759793,0.07631189682904388,-2.8813963407628678,-0.465009478400735,2.919675014990849,1.6202188881074235,-18.560106871257485,-2.841282238696248,18.846102012825096
483,1791274474.9959793,0.15774256089154387,-2.9724070829503675,-0.29735811121323497,2.9914057612758653,1.6244960156271901,-18.612278387639115,-2.8493913078684905,18.899072064763477
484,1791274475.0064273,0.2966536937040439,-2.7855955595128674,-0.23508760340073495,2.8111940908515654,1.626751293508645,-18.639956565034446,-2.8534092787534644,18.927129867715788
485,1791274475.0264273,0.4164046702665439,-2.6802147001378676,-0.460219439338235,2.7511353330215704,1.6314904593396873,-18.69319063955853,-2.8609899084385866,18.981106413009293
486,1791274475.0511038,0.2391732249540439,-2.6897947782628675,-0.484169634650735,2.743468610322147,1.6376739881384414,-18.758958636443296,-2.8706879512655017,19.047870078535205
487,1791274475.0711038,0.08110193589154388,-2.6275242704503676,-0.335678423713235,2.650121001003104,1.6424143087537468,-18.81224298180891,-2.878598822048767,19.10194602511792
488,1791274475.0816138,0.04757166245404387,-2.5939939970128676,-0.292568072150735,2.610874182424238,1.644633113650733,-18.840159565728488,-2.882627616584406,19.13023712651054
489,1791274475.1016138,-0.08654943129595613,-2.4215525907628677,-0.35004854090073495,2.4482527922734496,1.6481635873792184,-18.892838247404,-2.8901081582439416,19.183547779795123
490,1791274475.126661,-0.01948888442095613,-2.4934031767003675,-0.23987764246323495,2.504991118057942,1.651722618740932,-18.95814828120951,-2.899179484280699,19.24954065799134
491,1791274475.146661,0.009251349954043872,-2.431132668887868,-0.23987764246323495,2.4429557762193608,1.6541228309991038,-19.009861988071098,-2.906055963037285,19.30171330234307
492,1791274475.1718414,-0.08175939223345613,-2.239531106387868,-0.39794893152573496,2.2760816169021103,1.6565545219750484,-19.07402487867617,-2.914619484847863,19.36640402083175
493,1791274475.1918414,-0.18235021254595613,-2.234741067325368,-0.354838579963235,2.270072610256422,1.657800063636479,-19.124054524377993,-2.921530149046139,19.41682520172031
494,1791274475.2164202,-0.21588048598345613,-2.2155809110753677,-0.20634736902573497,2.2356167816631394,1.6583670542239528,-19.18451928408284,-2.9297835279016806,19.47766908457595
495,1791274475.2364202,-0.05301915785845613,-2.100619973575368,-0.302148150275735,2.122901036129298,1.658355865336835,-19.232814153366167,-2.936254736739074,19.526209983328606
496,1791274475.2461946,-0.029068962545956128,-2.0191893095128677,-0.393158892463235,2.057314848767069,1.65829103986681,-19.255896700307996,-2.9394526880047196,19.549421193755407
497,1791274475.2661946,-0.07696935317095613,-1.9521287626378678,-0.431479204963235,2.0007261910519674,1.6580192363202793,-19.30199946661893,-2.946251607990266,19.595831437705083
498,1791274475.2912545,-0.03385900160845613,-1.9617088407628678,-0.27819795496323496,1.9816261277200709,1.6575214510071625,-19.358457183771375,-2.9548266217809336,19.65269045859227
499,1791274475.3112545,0.10026209214154387,-1.813217629825368,-0.29735811121323497,1.8401718687487936,1.6572833714680197,-19.402418954922194,-2.961507012262401,19.696978785066197
500,1791274475.3367517,-0.005118767233456128,-1.7269969267003678,-0.35004854090073495,1.7621233122563356,1.6572073224873407,-19.4568272512379,-2.9699841260206425,19.751842154670893
501,1791274475.3567517,-0.014698845358456128,-1.698256692325368,-0.35004854090073495,1.7340201354279323,1.6571268912533412,-19.49824127567794,-2.9766862954589492,19.79363897012975
502,1791274475.381357,0.20085291245404388,-1.7701072782628677,-0.412319048713235,1.82855917785896,1.657386310178869,-19.547949466119977,-2.9851017923743073,19.843893025865285
503,1791274475.401357,0.22001306870404388,-1.8275877470128679,-0.431479204963235,1.8906763413519105,1.6581968431911835,-19.587689796014473,-2.992181823716704,19.884173615763853
504,1791274475.4107323,0.04278162339154387,-1.7892674345128678,-0.23508760340073495,1.8051521821666385,1.6587045858410887,-19.606067604404124,-2.995471573305643,19.9028148199705
505,1791274475.4307323,0.08589197495404388,-1.813217629825368,-0.20155732996323497,1.8264065707648283,1.659818269068816,-19.644795201154594,-3.0020917345961076,19.942054306529492
506,1791274475.4714985,0.2727034983915439,-2.0527195829503677,-0.14407686121323496,2.0757608306835293,1.6628441938359573,-19.723713329257933,-3.014618371827912,20.021934028347097
507,1791274475.4914985,0.4259847483915439,-2.201210793887868,-0.19197725183823497,2.2502549256059914,1.6651540701311702,-19.76300397263567,-3.0203462022226018,20.06169372911889
508,1791274475.4867187,0.4164046702665439,-2.158100442325368,-0.326098345588235,2.2219654586829476,1.6651540701311702,-19.76300397263567,-3.0203462022226018,20.06169372911889
509,1791274475.5067186,0.4307747874540439,-2.253901223575368,-0.23508760340073495,2.306708439403064,1.669167769213641,-19.80356757518905,-3.0259868835602384,20.102835779221284
510,1791274475.530968,0.5505257640165439,-2.277851418887868,-0.15365693933823496,2.348466767570337,1.675088964954185,-19.85361418987092,-3.0325071613292303,20.15361057290401
511,1791274475.550968,0.5265755687040439,-2.253901223575368,-0.24945772058823495,2.3279995080651554,1.6808556700094728,-19.895496994305535,-3.0376828738282065,20.19612818526791
512,1791274475.576656,0.3637142405790439,-2.287431497012868,-0.37878877527573496,2.3469366924996957,1.6888667043853278,-19.94997186589164,-3.044543837054618,20.25149118881858
513,1791274475.596656,0.20085291245404388,-2.388022317325368,-0.24466768152573495,2.4089115290662857,1.6950151171340047,-19.993035559825653,-3.050019486646789,20.2952498386369
514,1791274475.621775,0.25833338120404387,-2.397602395450368,-0.24466768152573495,2.4238596611389935,1.7024439291532187,-20.04802395421802,-3.0567868877468904,20.351057119420393
515,1791274475.641775,0.26791345932904387,-2.196420754825368,-0.345258501838235,2.2394743104150305,1.7082609888382088,-20.092130166928737,-3.062251835001274,20.39581419193073
516,1791274475.651169,0.2487533030790439,-2.124570168887868,-0.484169634650735,2.1931932982386173,1.7109474889024443,-20.112784094011385,-3.0650181132641525,20.41680095795461
517,1791274475.671169,0.1290023265165439,-2.177260598575368,-0.5416501034007349,2.2473295594704124,1.7163756969226964,-20.156612830865946,-3.0715627856605683,20.461414523259908
518,1791274475.696733,0.03799158432904388,-2.359282082950368,-0.455429400275735,2.403137791731047,1.722593454269714,-20.21292929883525,-3.080585067419205,20.518768077202186
519,1791274475.716733,0.018831428079043873,-2.2826414579503678,-0.383578814338235,2.314722306248938,1.7268134860349469,-20.2573425262865,-3.087843379502129,20.563963328579995
520,1791274475.7260883,0.033201545266543876,-2.186840676700368,-0.383578814338235,2.22047454267968,1.7285278833397597,-20.27813726915787,-3.091267565610348,20.585106142852094
521,1791274475.7460883,0.04757166245404387,-2.191630715762868,-0.441059283088235,2.236077268016964,1.7317643579639213,-20.32249211110372,-3.098726777100495,20.630191492967455
522,1791274475.7711632,0.07152185776654388,-2.263481301700368,-0.450639361213235,2.3090125190566293,1.7354373960208298,-20.378138860417554,-3.1083529080733316,20.686762534797356
523,1791274475.7911632,0.09547205307904388,-2.306591653262868,-0.31651826746323497,2.3301638958362965,1.7381780836576395,-20.422720599023474,-3.116029838407787,20.732062648712336
524,1791274475.8168817,0.014041389016543874,-2.3018016142003677,-0.16802705652573496,2.3079690040088567,1.7413849903945096,-20.480339063254608,-3.1253556250406853,20.79049200027785
525,1791274475.8368816,0.023621467141543874,-2.1054100126378676,-0.25903779871323496,2.121416950103846,1.7435612609479751,-20.525035876345587,-3.132160598578177,20.835727335786423
526,1791274475.846939,0.12421228745404388,-2.124570168887868,-0.345258501838235,2.1560219219605288,1.7446030026832837,-20.547331882587685,-3.135525156065688,20.858283849216757
527,1791274475.866939,0.2391732249540439,-2.273061379825368,-0.27819795496323496,2.302478223596099,1.7469089237643007,-20.59161499066619,-3.1421474102882843,20.903095202857813
528,1791274475.891879,0.2487533030790439,-2.148520364200368,-0.16802705652573496,2.169389557663888,1.7502657555846821,-20.646823515227364,-3.1500013436023315,20.95894224308122
529,1791274475.911879,0.11942224839154388,-2.076669778262868,-0.14886690027573496,2.085420915632848,1.7531061520961988,-20.690793351330875,-3.155830199107107,21.00337056125973
530,1791274475.9369564,0.10505213120404387,-2.1628904813878678,-0.25903779871323496,2.1808786683148957,1.7565556044542778,-20.745629647123113,-3.1628097113552345,21.05872746196636
531,1791274475.9569564,0.20564295151654388,-2.234741067325368,-0.345258501838235,2.2705858483198877,1.7593600376745149,-20.789399728916134,-3.1684475810390347,21.10292749607543
532,1791274475.9669676,0.19606287339154388,-2.2826414579503678,-0.273407915900735,2.3073024431906433,1.760854874065958,-20.811414688996763,-3.1713108799563643,21.12516991510936
533,1791274475.9869676,0.16732263901654387,-2.253901223575368,-0.24945772058823495,2.2738286535099954,1.763938329254674,-20.855603037851814,-3.1769573374400375,21.169806669541924
534,1791274476.0110323,0.11942224839154388,-2.268271340762868,-0.31651826746323497,2.293360059470601,1.7676094796071187,-20.908958733935233,-3.1837537814951573,21.22369634985829
535,1791274476.0310323,0.10026209214154387,-2.268271340762868,-0.402738970588235,2.3059284552815704,1.7705324015602868,-20.953455388036584,-3.1896338505518584,21.268658673832736
536,1791274476.0561962,0.1290023265165439,-2.3018016142003677,-0.24466768152573495,2.3183603140507034,1.7740910569127992,-21.009668120657054,-3.1971442314282803,21.32546095292963
537,1791274476.0761962,0.11463220932904387,-2.191630715762868,-0.17281709558823496,2.2014203338341525,1.7768606313342281,-21.054383932772986,-3.202844250584442,21.37059961220781
538,1791274476.1164014,0.11942224839154388,-2.081459817325368,-0.25903779871323496,2.1009134265155347,1.7822988367378638,-21.14367597668806,-3.2138862242894226,21.460677706290873
539,1791274476.1364014,0.052361701516543874,-2.1293602079503677,-0.383578814338235,2.1642664692216775,1.7848559490854683,-21.187747560189994,-3.2195190265951834,21.505154270451797
540,1791274476.1319244,0.018831428079043873,-2.234741067325368,-0.383578814338235,2.2674997171958253,1.7848559490854683,-21.187747560189994,-3.2195190265951834,21.505154270451797
541,1791274476.1519244,0.052361701516543874,-2.287431497012868,-0.26861787683823496,2.303744813357009,1.7869010235028315,-21.231936755467146,-3.2255451454086344,21.549763227029235
542,1791274476.1768234,0.10984217026654387,-2.2060008329503678,-0.21113740808823497,2.218802375706498,1.7893680428020455,-21.28708929883871,-3.2328179443477394,21.605395637910252
543,1791274476.1968234,0.09068201401654388,-2.201210793887868,-0.30693818933823497,2.2243568146475035,1.791353204797457,-21.331355924319123,-3.2385606152504143,21.650033873714236
544,1791274476.221408,0.061941779641543876,-2.177260598575368,-0.37878877527573496,2.210832746828403,1.7937088024358567,-21.38568082470829,-3.245825178901018,21.70484085857852
545,1791274476.2414079,-0.009908806295956129,-2.287431497012868,-0.31172822840073494,2.3085960076095176,1.7954157265144597,-21.429943039075937,-3.2518843341920065,21.749499488770265
546,1791274476.251743,0.08589197495404388,-2.287431497012868,-0.282987994025735,2.3064697027385264,1.7962243849432353,-21.452931233068124,-3.2550067868982095,21.772683567134482
547,1791274476.271743,0.08110193589154388,-2.2586912626378677,-0.354838579963235,2.287831759931732,1.7978050066650562,-21.49756280533959,-3.2610995280049715,21.817701059989442
548,1791274476.2966533,0.014041389016543874,-2.234741067325368,-0.39794893152573496,2.2699401205094625,1.7996561402007387,-21.553208507726485,-3.268956228843115,21.87385731933414
549,1791274476.3166533,0.08110193589154388,-2.306591653262868,-0.21113740808823497,2.31765432797937,1.8010621618695826,-21.597995932034056,-3.275231666092674,21.919041850812143
550,1791274476.3416867,0.15774256089154387,-2.191630715762868,-0.12491670496323495,2.200848039499946,1.803006494649101,-21.654091792292586,-3.282539197390477,21.97556796424577
551,1791274476.3616867,0.21522302964154388,-2.081459817325368,-0.20634736902573497,2.10270662726213,1.8048863196000877,-21.698595564092695,-3.287998565025911,22.020390519796763
552,1791274476.3715045,0.10505213120404387,-2.1820506376378677,-0.292568072150735,2.204081897826924,1.8059065233565479,-21.720304527334473,-3.2906439031505,22.042260873798533
553,1791274476.3915045,0.04757166245404387,-2.234741067325368,-0.22071748621323498,2.2461181869571014,1.8079019827964373,-21.764519654345154,-3.2959943404512373,22.08679252530938
554,1791274476.4167993,0.07631189682904388,-2.2586912626378677,-0.24466768152573495,2.273185430161268,1.8102821805344331,-21.820576736155836,-3.3026291029990404,22.143216786718277
555,1791274476.4367993,0.07152185776654388,-2.2060008329503678,-0.402738970588235,2.243602845769849,1.8121036017876204,-21.864948317934623,-3.3080592685238606,22.187900768969342
556,1791274476.461871,0.15295252182904387,-2.1820506376378677,-0.47937959558823495,2.2393178103645828,1.8144665031676828,-21.920479398113827,-3.315504064412284,22.24392665280536
557,1791274476.481871,0.07152185776654388,-2.2491111845128677,-0.27819795496323496,2.2673796767601537,1.8164053958324289,-21.964779362632814,-3.321688424345347,22.288662476684856
558,1791274476.4914174,0.04757166245404387,-2.273061379825368,-0.22550752527573498,2.284715462257441,1.8172773273782636,-21.98599089800053,-3.324558236239076,22.31006454759175
559,1791274476.5114174,0.08110193589154388,-2.263481301700368,-0.335678423713235,2.28967358619065,1.8190230316354634,-22.030568194419075,-3.3305104382862463,22.355023586167455
560,1791274476.5361853,0.14337244370404387,-2.229951028262868,-0.42668916590073497,2.2749287659971587,1.8212776038073757,-22.08583880692253,-3.3381921056988517,22.410820030736176
561,1791274476.5561852,0.16732263901654387,-2.220370950137868,-0.35004854090073495,2.2540137538911185,1.8232911218738685,-22.13045050094328,-3.3446296948767706,22.455907411762638
562,1791274476.581432,0.03799158432904388,-2.253901223575368,-0.17760713465073497,2.2612072838183623,1.8258403771226674,-22.186790613415763,-3.352536303487762,22.51281569401057
563,1791274476.601432,0.023621467141543874,-2.229951028262868,-0.19197725183823497,2.2383241113350634,1.8276493387998933,-22.231453025890367,-3.3584145980645808,22.557853496298776
564,1791274476.611184,0.12421228745404388,-2.143730325137868,-0.28777803308823496,2.1665236199031868,1.8285071894977385,-22.253162285027155,-3.361201753275094,22.57973311294931
565,1791274476.6311839,0.11463220932904387,-2.158100442325368,-0.292568072150735,2.1808562858250435,1.8303609185703922,-22.29746005644491,-3.3669310268394423,22.62439326480337
566,1791274476.6566195,0.004461310891543872,-2.2060008329503678,-0.21113740808823497,2.21608632128056,1.8325920243965181,-22.353672024269734,-3.37408538000382,22.68103830621642
567,1791274476.6766195,0.033201545266543876,-2.2155809110753677,-0.18239717371323497,2.2233240531034197,1.8341396819753417,-22.39787375422949,-3.3794573053386396,22.72552636930563
568,1791274476.7013848,0.11463220932904387,-2.134150247012868,-0.23029756433823498,2.1495987505534297,1.836043214647685,-22.452476311774685,-3.3858779237937293,22.780450314506314
569,1791274476.7213848,0.09068201401654388,-2.114990090762868,-0.26861787683823496,2.133907653917644,1.8376578561470522,-22.4963316680364,-3.3910336975854025,22.824570849256204
570,1791274476.74699,0.033201545266543876,-2.210790872012868,-0.27819795496323496,2.228473182367073,1.8396528494923412,-22.552363223465953,-3.3976944243504317,22.880947029593134
571,1791274476.76699,-0.00032872817095612797,-2.229951028262868,-0.21592744715073497,2.2403808513165493,1.8410266885417041,-22.596225190330596,-3.402857847831889,22.92505645909307
572,1791274476.775843,0.04757166245404387,-2.191630715762868,-0.26861787683823496,2.208543370889733,1.8415749649798232,-22.61566410976518,-3.4051223160902877,22.944596737901005
573,1791274476.795843,0.052361701516543874,-2.201210793887868,-0.35004854090073495,2.2294852966325878,1.8427776982797546,-22.65958114815263,-3.41039868299615,22.98876392135891
574,1791274476.8218157,0.018831428079043873,-2.229951028262868,-0.35004854090073495,2.257336969112244,1.8442440132885407,-22.716690574612432,-3.417586747560405,23.046239732770648
575,1791274476.8418157,-0.04343907973345613,-2.2586912626378677,-0.26861787683823496,2.2750227992971443,1.8451668478091292,-22.7608033177979,-3.4232195443195144,23.090631009488348
576,1791274476.8664362,0.07152185776654388,-2.196420754825368,-0.17281709558823496,2.2043695826456977,1.8461843335069654,-22.815188272324182,-3.4299286817463908,23.14531536308702
577,1791274476.8864362,0.09547205307904388,-2.191630715762868,-0.20155732996323497,2.202949265066333,1.8471373775833175,-22.859322062609547,-3.435122767560715,23.189665587972307
578,1791274476.896181,0.03799158432904388,-2.091039895450368,-0.29735811121323497,2.1124187679409636,1.8476296323818175,-22.88073047989273,-3.4376385796883064,23.21118095997076
579,1791274476.916181,-0.03385900160845613,-2.158100442325368,-0.292568072150735,2.178104687106859,1.8484945715705634,-22.924451247623974,-3.442912311701157,23.255129377663707
580,1791274476.9567893,-0.01948888442095613,-2.239531106387868,-0.254247759650735,2.254001179321399,1.8498248488139404,-23.013300162816904,-3.4536793647866513,23.344415552974358
581,1791274476.9767892,-0.005118767233456128,-2.273061379825368,-0.273407915900735,2.2894510535734933,1.8503448374457092,-23.05726427465411,-3.4589783084451,23.388581461623456
582,1791274476.9859765,0.03799158432904388,-2.1820506376378677,-0.292568072150735,2.2019047260355413,1.850570521535247,-23.077500140076772,-3.461437300619972,23.408912237789735
583,1791274477.0059764,0.03799158432904388,-2.196420754825368,-0.28777803308823496,2.2155188306659914,1.8511021007678181,-23.121512174109533,-3.4668579244374436,23.453144950585987
584,1791274477.0163133,0.057151740579043875,-2.1724705595128677,-0.263827837775735,2.189177877968528,1.8514093942603844,-23.144234488824363,-3.4696669412375085,23.47598550651195
585,1791274477.0363133,0.052361701516543874,-2.201210793887868,-0.19676729090073497,2.21060807781085,1.85207903788597,-23.18816403030003,-3.4749775307943946,23.520132157328593
586,1791274477.0610268,0.023621467141543874,-2.153310403262868,-0.24466768152573495,2.1672946133124564,1.8529232174681933,-23.242375510125576,-3.4813735838931072,23.574590258033044
587,1791274477.0810268,-0.009908806295956129,-2.2060008329503678,-0.29735811121323497,2.2259738780417506,1.8535244824069796,-23.28620557369157,-3.4865863518147795,23.61861993038051
588,1791274477.1069562,-0.04822911879595613,-2.229951028262868,-0.24945772058823495,2.2443789320681864,1.8540740166678003,-23.34313305759833,-3.4933942338059256,23.675794700005554
589,1791274477.1269562,0.028411506204043875,-2.287431497012868,-0.18239717371323497,2.294867925652779,1.8544045784117344,-23.387232179079728,-3.498505429873667,23.720054502076348
590,1791274477.1365044,0.12421228745404388,-2.186840676700368,-0.254247759650735,2.2050720534516115,1.8546480158625829,-23.408331618750424,-3.5008922323499423,23.741229009018507
591,1791274477.1565044,0.061941779641543876,-2.1820506376378677,-0.31172822840073494,2.205075113836907,1.8553606727082568,-23.452451256323553,-3.505990756440435,23.785537713919993
592,1791274477.182184,-0.04822911879595613,-2.1820506376378677,-0.33088838465073495,2.207523081694149,1.8561648648237765,-23.509007827062337,-3.5127928614883928,23.84236797606329
593,1791274477.202184,-0.005118767233456128,-2.268271340762868,-0.19676729090073497,2.276795652638283,1.856617221267951,-23.5531239656298,-3.518087363302544,23.886682790677792
594,1791274477.226757,0.11942224839154388,-2.239531106387868,-0.13928682215073496,2.247034060426012,1.857300302197701,-23.60750477045158,-3.524236056053,23.941263243158698
595,1791274477.246757,0.1290023265165439,-2.114990090762868,-0.13928682215073496,2.1234937021561087,1.858145503035096,-23.65165789877203,-3.5289076622671947,23.98555430586925
596,1791274477.2565148,0.04278162339154387,-2.244321145450368,0.013994427849265047,2.2447724862948797,1.858621729067935,-23.67315870774587,-3.530936694034069,24.007091283018106
597,1791274477.2765148,0.09547205307904388,-2.297011575137868,0.14332548253676505,2.303458114049586,1.85965879131714,-23.717429452067382,-3.5342356975336804,24.05131207646763
598,1791274477.3023956,0.08110193589154388,-2.2060008329503678,0.009204388786765048,2.207510344201361,1.8611422339194954,-23.774865042834435,-3.5375683192286482,24.10855549038722
599,1791274477.3223956,0.018831428079043873,-2.244321145450368,-0.282987994025735,2.2621702480940415,1.862266542918781,-23.819267467553036,-3.540168048872854,24.152812034667214
600,1791274477.3465536,-0.04343907973345613,-2.359282082950368,-0.12970674402573495,2.3632441135067856,1.8633763036036617,-23.87319718714605,-3.543584973934985,24.206584014533888
601,1791274477.3665535,0.018831428079043873,-2.4742430204503676,0.20080595128676507,2.482449632319463,1.8641203306874274,-23.91839780826446,-3.5458828151829462,24.251556305950388
602,1791274477.3915694,0.12421228745404388,-2.435922707950368,-0.292568072150735,2.456571637120484,1.8651797376184913,-23.975666316490294,-3.5484979827939562,24.308502806779416
603,1791274477.4115694,-0.13444982192095614,-2.5604637235753676,-0.848212603400735,2.700651005762845,1.8658843214628296,-24.022078793081512,-3.5519863390695603,24.354843477120397
604,1791274477.4658651,-0.25899083754595614,-2.8191258329503674,-0.843422564338235,2.9539648504976737,1.8659080374505832,-24.151085635725057,-3.5669246236479824,24.48427049064632
605,1791274477.485865,-0.26857091567095615,-2.9292967313878675,-0.599130572150735,3.0019772017371564,1.8651241210405531,-24.200100245828875,-3.5737656214802,24.53355540096722
606,1791274477.4674056,-0.08175939223345613,-3.0011473173253678,-0.709301470588235,3.0849114079153503,1.8651241210405531,-24.200100245828875,-3.5737656214802,24.53355540096722
607,1791274477.4874055,-0.05780919692095613,-3.2358592313878676,-0.632660845588235,3.297633486933796,1.86390171803363,-24.25243011148092,-3.582389433232074,24.586337872446315
608,1791274477.5264895,0.03799158432904388,-2.991567239200368,-0.39794893152573496,3.018158587489931,1.8618131300286331,-24.35760810562201,-3.5997352095341215,24.69245865313881
609,1791274477.5464895,0.1337923655790439,-2.7568553251378676,-0.17760713465073497,2.765808376425796,1.8611623521032965,-24.411979020356792,-3.6081432730134417,24.747269402296066
610,1791274477.5417194,-0.12965978285845614,-2.6466844267003675,-0.14407686121323496,2.6537724574209847,1.8611623521032965,-24.411979020356792,-3.6081432730134417,24.747269402296066
611,1791274477.5617194,-0.38832189223345615,-2.718535012637868,-0.014745806525734954,2.7461689579732416,1.8599204623185255,-24.466199334349913,-3.614866479355241,24.80164255967458
612,1791274477.5870984,-0.6230338062959562,-2.5317234892003677,0.13374540441176505,2.6106862666275656,1.856655917082243,-24.534675145566606,-3.621891664326177,24.869972957786576
613,1791274477.6070983,-0.5320230641084561,-2.320961770450368,0.06189481847426505,2.3819620167394397,1.8527365907735789,-24.587822416580163,-3.6263039965110546,24.922755159475955
614,1791274477.6316655,-0.28773107192095615,-2.201210793887868,-0.15365693933823496,2.225247982559255,1.8471339815662517,-24.651645948829803,-3.6310800046435934,24.986001959746105
615,1791274477.6516654,-0.6134537281709561,-2.110200051700368,-0.12491670496323495,2.2011074299047633,1.8419053068705893,-24.702277726758822,-3.634802771307642,25.036112542399806
616,1791274477.6612184,-0.9248062672334562,-2.076669778262868,0.07147489659926505,2.2744082001057997,1.8386803399974025,-24.725834052926352,-3.636352507842868,25.059343059362917
617,1791274477.6812184,-0.8481656422334561,-1.9233885282628678,0.10979520909926506,2.1049616089752425,1.830281887578126,-24.77375384815997,-3.6388384400990863,25.1063728306253
618,1791274477.7223122,-0.5128629078584561,-1.9138084501378678,-0.09617647058823496,1.9836685861229313,1.8114193401220537,-24.86927163993907,-3.643138120687418,25.199888239697646
619,1791274477.7423122,-0.16798009535845615,-1.774897317325368,-0.26861787683823496,1.8029512925319156,1.8025948849718094,-24.914319166851495,-3.6454640338667907,25.24404991060837
620,1791274477.7517085,-0.37874181410845614,-1.4395945829503678,-0.07701631433823496,1.4905735264281508,1.7986856061103151,-24.934573943570737,-3.6466364493335193,25.26393091050229
621,1791274477.7717085,-0.7427847828584562,-1.1330320829503677,0.15769559972426506,1.3639497193127497,1.7899305792033777,-24.975078191347883,-3.648636585966431,25.30357546037241
622,1791274477.7822664,-0.5799234547334562,-1.1426121610753677,0.009204388786765048,1.2813892791654873,1.7849547289115555,-24.99505483286851,-3.6494019103974895,25.323052023521576
623,1791274477.8022664,-0.05780919692095613,-1.2719432157628678,-0.038696001838234954,1.2738441144551778,1.7759861725114927,-25.030842425142808,-3.6506784492097455,25.357930762126582
624,1791274477.8274767,-0.13444982192095614,-0.9941209501378676,0.07626493566176505,1.0060663787887392,1.7660133635257476,-25.073471387074534,-3.651975152223309,25.39950182800941
625,1791274477.8474767,-0.34521154067095616,-0.3139354032628676,0.08105497472426505,0.4735993603899669,1.7585689601537264,-25.10417923420776,-3.652613571529689,25.429391768458935
626,1791274477.8722327,-0.17277013442095612,-0.14149399701286766,-0.09138643152573496,0.24129142215487168,1.7497747520652571,-25.137333447380655,-3.653304453427903,25.46161577663922
627,1791274477.8922327,-0.11049962660845614,-0.25645493451286766,-0.21592744715073497,0.35299286586224504,1.7433108403867381,-25.16069746169401,-3.654239854350021,25.484373611258828
628,1791274477.901819,-0.10570958754595614,-0.25645493451286766,-0.16323701746323496,0.3218539640977378,1.7405218670855607,-25.17058518830994,-3.6548935648096452,25.494038951524683
629,1791274477.921819,-0.07217931410845613,-0.03132309857536765,-0.09138643152573496,0.12059216291508008,1.7353091913146705,-25.188551314748644,-3.6564347610164605,25.511643037773094
630,1791274477.9476752,0.3253939280790439,0.2560792451746324,-0.19676729090073497,0.45844863944430453,1.730072062529736,-25.20785829499663,-3.6586871623609003,25.53067294283879
631,1791274477.9676752,0.4834652171415439,0.37583022173713243,-0.292568072150735,0.6786626913266265,1.7278420401709367,-25.219604394238555,-3.6609020746106196,25.54243700036406
632,1791274478.0068243,0.2439632640165439,0.2943995576746324,-0.402738970588235,0.5553267976417996,1.726267508428977,-25.23718006324743,-3.666628870987896,25.560505165841167
633,1791274478.0268242,0.2870736155790439,0.06926772173713236,-0.36920869715073495,0.4727836080999642,1.7263803422634543,-25.24426657739704,-3.6702735811196905,25.56803262429677
634,1791274478.0219562,0.22001306870404388,0.12674819048713237,-0.31172822840073494,0.4020514178238817,1.7263803422634543,-25.24426657739704,-3.6702735811196905,25.56803262429677
635,1791274478.0419562,0.25833338120404387,0.4045704561121324,-0.254247759650735,0.5431899420005037,1.7278259186053229,-25.248339686610546,-3.6746240411144573,25.57277656374086
636,1791274478.066315,0.5026253733915439,0.5818019014246324,-0.282987994025735,0.8192728014776373,1.7307126486554492,-25.250754354331384,-3.6801093247426864,25.57614447834269
637,1791274478.086315,0.7469173655790439,0.4572608857996324,-0.282987994025735,0.920356057973496,1.7346016113702531,-25.250880959487205,-3.6847864701940414,25.577206323429593
638,1791274478.1119115,0.631956428079044,0.3566700654871324,-0.302148150275735,0.7860508681504444,1.7414793359663217,-25.249456146821295,-3.690997850163549,25.5771626870097
639,1791274478.1319115,0.4164046702665439,0.3806202607996324,-0.24466768152573495,0.614920244205822,1.7476197140858867,-25.247403923638444,-3.6959433585901262,25.576269799529445
640,1791274478.156678,0.3637142405790439,0.4812110811121324,-0.13449678308823496,0.6180141891948612,1.7555319800297289,-25.243642967579557,-3.7018531684359286,25.573953931455243
641,1791274478.176678,0.9816292796415439,0.5386915498621324,-0.22550752527573498,1.142207631080457,1.7629810672396706,-25.23953154992946,-3.7064497384530295,25.571073985404066
642,1791274478.1870382,1.316932014016544,0.4237306123621324,-0.393158892463235,1.438204253963037,1.7680470034039617,-25.236973429500395,-3.708954372215661,25.56926202733924
643,1791274478.2070382,1.144490607766544,0.4381007295496324,-0.512909869025735,1.3284831704774247,1.7800517621792395,-25.2314830973816,-3.714423294829467,25.565470149845915
644,1791274478.2321513,1.034319709329044,0.5626417451746324,-0.5416501034007349,1.296058574692402,1.7969682894638905,-25.223738340544255,-3.722246565468997,25.56014848156651
645,1791274478.2521513,1.388782599954044,0.4476808076746324,-0.656611040900735,1.6000853960111228,1.8120543581816835,-25.216980147765995,-3.729339814742366,25.55557872996916
646,1791274478.277083,1.460633185891544,0.3327198701746324,-0.761991900275735,1.6807092169148512,1.8333675625193966,-25.20835993542248,-3.7395084105072662,25.550079655558143
647,1791274478.297083,1.465423224954044,0.3183497529871324,-0.670981158088235,1.642871725963749,1.8522893292607625,-25.201505527721462,-3.748591457670008,25.546013280736883
648,1791274478.3068953,1.704925178079044,0.4524708467371324,-0.493749712775735,1.8317446625719969,1.862513332060608,-25.198079797607218,-3.7532364762986794,25.544059298508206
649,1791274478.3268952,2.0210677562040438,0.3087696748621324,-0.647030962775735,2.1444585922961092,1.8858154829615241,-25.191002833022416,-3.7629951776993025,25.540224283989936
650,1791274478.3520799,2.049807990579044,0.13153822954963237,-0.848212603400735,2.2222690486623358,1.9184461530203658,-25.18259634475414,-3.7762646696410878,25.536322545739484
651,1791274478.3720798,2.049807990579044,0.18422865923713236,-0.824262408088235,2.2169938011896706,1.9466217367806964,-25.17644819591741,-3.787730475256533,25.534090586919426
652,1791274478.3966994,2.332420295266544,0.3375099092371324,-0.709301470588235,2.461139156728681,1.9841944294739724,-25.16905181036537,-3.802559204721145,25.531894819464956
653,1791274478.4166994,2.629402717141544,0.24170912798713237,-0.819472369025735,2.764727276796083,2.017581351897428,-25.163075729063173,-3.8150916999313953,25.53049038575205
654,1791274478.4272418,2.538391974954044,0.06447768267463236,-0.991913775275735,2.726074857309671,2.036626502304163,-25.160156037555762,-3.822139136767588,25.5301791400854
655,1791274478.4472418,2.437801154641544,0.10758803423713235,-1.020654009650735,2.64503010608552,2.0748017682797224,-25.155189832674406,-3.836522228486839,25.53051665566555
656,1791274478.4718173,2.586292365579044,-0.19897446576286765,-1.044604204963235,2.7963721110225905,2.1239344614368307,-25.15017127737145,-3.8553513737593157,25.532448905123587
657,1791274478.4918172,2.821004279641544,-0.3857859892003676,-1.250575884650735,3.109796780898903,2.1660327414661147,-25.147576851779682,-3.871819126090028,25.535921810234797
658,1791274478.5320957,2.864114631204044,-0.3330955595128676,-1.312846392463235,3.1682283570866536,2.255272132105749,-25.14530727972922,-3.9077530004752363,25.546883647415378
659,1791274478.5520957,2.868904670266544,-0.38099595013786763,-1.298476275275735,3.1720360273099972,2.3015361798765572,-25.145420516582625,-3.9268362920866235,25.554046352934083
660,1791274478.561659,3.036556037454044,-0.8599998563878677,-1.5667184627757351,3.5234754239512047,2.324575797721705,-25.146356656077202,-3.9366477208916786,25.55856218554544
661,1791274478.581659,3.2952181468290442,-1.0659715360753677,-1.796640337775735,3.9016245916588677,2.375028679676552,-25.15090969218171,-3.9591335522775353,25.571150894285843
662,1791274478.5919383,3.319168342141544,-1.0420213407628676,-1.782270220588235,3.9088584135621396,2.4021690880926942,-25.15452388926043,-3.971715955994541,25.57919107513495
663,1791274478.6119382,3.094036506204044,-1.2288328642003679,-1.748739947150735,3.760476500740692,2.4566744281342014,-25.163907424259687,-3.9978215859814727,25.597657383750953
664,1791274478.6369038,3.180257209329044,-1.5210252470128678,-1.897231158088235,4.003378546523017,2.5262546233742547,-25.179012564712323,-4.032347362872386,25.62468461095521
665,1791274478.6569037,3.438919318704044,-1.5449754423253679,-2.031352251838235,4.282465080884212,2.583563203735658,-25.193897231145492,-4.061750158758867,25.649660248693255
666,1791274478.6820986,3.482029670266544,-1.5258152860753678,-1.9642917049632351,4.279145336866366,2.6580062273107097,-25.21563810337271,-4.100784423066286,25.68481720684707
667,1791274478.7020986,3.4149691233915442,-1.741367043887868,-1.815800494025735,4.241639391716425,2.71858136649159,-25.23520829813671,-4.132792517171766,25.715489427319362
668,1791274478.7867734,3.472449592141544,-2.0527195829503677,-1.988241900275735,4.497184642663004,2.9803114746640507,-25.329730017996518,-4.2721375307148906,25.859788056980488
669,1791274478.8067734,3.467659553079044,-2.210790872012868,-2.093622759650735,4.614706417050096,3.0432686169998147,-25.35510219913281,-4.306236319284102,25.89761306841244
670,1791274478.7867734,3.261687873391544,-2.076669778262868,-1.945131548713235,4.328360185240982,3.0432686169998147,-25.35510219913281,-4.306236319284102,25.89761306841244
671,1791274478.8067734,3.2521077952665443,-1.9521287626378678,-1.863700884650735,4.226155795211461,3.1071057463086342,-25.384943299167716,-4.341735344059128,25.940318390847796
672,1791274478.7879772,3.228157599954044,-2.3688621610753677,-2.031352251838235,4.489866523557686,3.1071057463086342,-25.384943299167716,-4.341735344059128,25.940318390847796
