imu_index,t_imu,ax,ay,az,mag,vx,vy,vz,velocity
0,1791341638.2359583,-0.020522030101103064,0.10566262637867649,0.00140883501838325,0.10764631507311054,0.0,0.0,0.0,0.0
1,1791341638.2559583,-0.04926226447610307,0.12482278262867649,0.00619887408088325,0.1343351175394952,-0.00013084190546403185,0.00048044750395296004,1.320781570137177e-05,0.0004981203214843675
2,1791341638.2664993,-0.06363238166360306,0.1439829388786765,0.00619887408088325,0.15753917837856646,-0.0002787093085861648,0.0009081941377911683,2.892611713555092e-05,0.0009504378942694579
3,1791341638.2864993,-0.025312069163603065,0.1344028607536765,0.010988913143383251,0.13720636295809316,-0.0006505996708442811,0.0020156227286832872,8.005753406026435e-05,0.0021195339404801138
4,1791341638.311291,-0.0061519129136030646,0.1631430951286765,0.01577895220588325,0.1640197879933287,-0.0011009450407854886,0.00373571440262985,0.00018370370210813342,0.0038988958861470627
5,1791341638.331291,-0.044472225413603066,0.1727231732536765,0.00619887408088325,0.17846428060519148,-0.0014856885014796646,0.005419001213615916,0.00028774185459919295,0.005626334495165378
6,1791341638.3563547,-0.04926226447610307,0.1870932904411765,-0.00817124310661675,0.19364255535219366,-0.002071721643340146,0.007888432365571543,0.0003948567667346352,0.008165494940290929
7,1791341638.3763547,-0.044472225413603066,0.1487729779411765,-0.051281594669116755,0.16352669430564448,-0.0026098117550723355,0.010067171562319548,0.00037833039218425395,0.01040683403095002
8,1791341638.4011211,-0.04926226447610307,0.0769223920036765,-0.03691147748161675,0.09852046621264386,-0.0033503021708134917,0.012779683205007077,0.00019711797839470192,0.01321301188047237
9,1791341638.4211211,0.0034281652113969364,0.0673423138786765,0.01577895220588325,0.0692511002653847,-0.003927334720505204,0.014857980449357568,4.103285534360731e-05,0.01536831886497658
10,1791341638.4309354,0.04653851677389694,0.1535630170036765,0.03972914751838325,0.1653052899859021,-0.0041312398165955656,0.015887453557552042,1.6786557421001127e-05,0.016415803506198156
11,1791341638.4509354,0.027378360523896937,0.1966733685661765,0.03014906939338325,0.200845599686502,-0.004373563164765054,0.018196031422201414,7.960504107685614e-05,0.018714431630068164
12,1791341638.4765608,0.0034281652113969364,0.1487729779411765,-0.0033812040441167503,0.148850877803896,-0.0045782661290817575,0.021374182053891005,0.00019946503813614053,0.021859916869078257
13,1791341638.4965608,-0.015731991038603066,0.12482278262867649,0.00140883501838325,0.12581815219320913,-0.0047325221864204835,0.023892966482329737,0.0002760218376327291,0.02435871100090365
14,1791341638.5212905,-0.010941951976103065,0.0769223920036765,0.00140883501838325,0.07770949440527614,-0.004944120488136402,0.026914428126141587,0.00036171015800317934,0.02736716285983723
15,1791341638.5412905,0.027378360523896937,0.05776223575367649,0.00140883501838325,0.0639377456620798,-0.005064925145164387,0.029193501477003975,0.0004248414725346794,0.029632659102597207
16,1791341638.5514877,-0.0061519129136030646,0.05776223575367649,-0.027331399356616753,0.06419756461541769,-0.0051010457309138895,0.03026955752372631,0.0004323760652561785,0.03069940926618715
17,1791341638.5714877,-0.030102108226103066,0.0817124310661765,-0.04170151654411675,0.09655089224072406,-0.005215644380571226,0.03227269338113571,0.00034138792689536446,0.032693213823269424
18,1791341638.5961664,-0.0061519129136030646,0.05776223575367649,-0.00817124310661675,0.058660814226085295,-0.005402943399670581,0.034631828602767895,0.00015364573494595167,0.03505109066439165
19,1791341638.6161664,-0.044472225413603066,0.04818215762867649,0.025359030330883253,0.07030205947421175,-0.005607900891991006,0.03641584072886826,5.010075331667297e-05,0.036845142400188616
20,1791341638.640825,-0.06842242072610306,0.10087258731617649,0.01577895220588325,0.12290598790374314,-0.006031482769361397,0.03856113832863447,1.7666766797230295e-05,0.03902999469269545
21,1791341638.660825,0.04174847771139694,0.10087258731617649,-0.00817124310661675,0.10947594930844898,-0.0063635159704831835,0.04034274918165557,6.7179480493356595e-06,0.04084154492880248
22,1791341638.6713755,0.15191937614889695,0.10566262637867649,-0.02254136029411675,0.1864194206262293,-0.006359151603244925,0.041305046207238454,-2.2493962191720115e-05,0.04179169962173699
23,1791341638.6913755,0.08964886833639694,0.11045266544117649,0.03014906939338325,0.14541553315359448,-0.005989767291709219,0.043179764823448166,-5.815146296250278e-05,0.043593265351539866
24,1791341638.7158365,-0.020522030101103064,0.11045266544117649,0.05888930376838325,0.1268420085021361,-0.0054789387497929075,0.04553398047223998,6.812696458799707e-05,0.04586247691472428
25,1791341638.7358365,-0.030102108226103066,0.12003274356617649,0.025359030330883253,0.12632132388081657,-0.0051998580850844845,0.047515846484519036,0.00028226061842819765,0.04780035420686874
26,1791341638.7619195,0.04174847771139694,0.1391928998161765,-0.03212143841911675,0.1488266963839763,-0.004867706374177539,0.05021990446788444,0.00050640503301018,0.05045780233191004
27,1791341638.7819195,0.07048871208639694,0.11524270450367649,-0.051281594669116755,0.14449685610672727,-0.004482865862853076,0.05236396808437382,0.0005273901054965198,0.052558152366773976
28,1791341638.7909737,0.03216839958639694,0.06255227481617649,-0.03691147748161675,0.07943582432696517,-0.0042650672802311855,0.053309744727175666,0.0004755765057889818,0.05348220128972246
29,1791341638.8109736,-0.039682186351103065,0.04339211856617649,0.00140883501838325,0.05881782623808713,-0.0038674029876392996,0.05524443551105382,0.0003250382479972857,0.0553805932675558
30,1791341638.8361611,-0.001361873851103064,0.12003274356617649,0.00140883501838325,0.12004873612212177,-0.0035192502838941033,0.05762418256898137,0.00016921439567391756,0.05773179516363309
31,1791341638.856161,0.08485882927389694,0.1679331341911765,-0.00817124310661675,0.18833302333609875,-0.003159023645656541,0.059662311565535656,5.3899427831543664e-05,0.05974590995947076
32,1791341638.8810234,0.07048871208639694,0.1391928998161765,0.010988913143383251,0.15640996804202706,-0.0024887186125651436,0.06238858634822729,-6.269390827679013e-05,0.062438236341114534
33,1791341638.9010234,-0.0061519129136030646,0.0673423138786765,0.049309225643383255,0.08369129587108104,-0.0019338818333719434,0.0645625223932432,-5.1969324749160584e-05,0.06459150019572382
34,1791341638.9263828,-0.08279253791360307,0.0673423138786765,0.044519186580883253,0.1156354164887777,-0.0015050608062498775,0.06716170075993007,0.00013804672799672094,0.06717870431837765
35,1791341638.9463828,-0.015731991038603066,0.05776223575367649,0.00140883501838325,0.05988285428577209,-0.0013653819524246694,0.069091748934562,0.00033431831779048366,0.06910604754614583
36,1791341638.9568565,0.022588321461396936,0.0673423138786765,-0.027331399356616753,0.07610666787981497,-0.0012978203127755963,0.0700491520805101,0.00040132250860493965,0.07006232300258533
37,1791341638.9768565,0.03695843864889694,0.06255227481617649,-0.046491555606616754,0.08625646650985586,-0.0010988404729515545,0.07179796173257054,0.0003993431673795663,0.0718074803506013
38,1791341639.0015721,-0.010941951976103065,0.014651884191176487,-0.051281594669116755,0.05444452199447229,-0.0008416026369673613,0.07377805187824506,0.00021602442429083707,0.07378316813812931
39,1791341639.021572,0.03695843864889694,0.009861845128676487,-0.027331399356616753,0.0470126319992526,-0.0006256440210287212,0.07517677261963049,-2.798567604209425e-05,0.07517938118355814
40,1791341639.030915,0.022588321461396936,0.0002817670036764866,0.01577895220588325,0.02755516270689241,-0.0004981669719979797,0.07573927607983948,-0.0001329707534522404,0.0757410311036984
41,1791341639.050915,0.013008243336396937,0.0673423138786765,0.02056899126838325,0.07160506291479622,-0.00021282002897126615,0.07686422093321173,-0.000269475543797697,0.07686498792755399
42,1791341639.076493,0.06090863396139694,0.10566262637867649,0.00619887408088325,0.12211829651675404,0.00023916977185403128,0.0784189956410992,-0.0003665152142144455,0.07842021686364273
43,1791341639.096493,0.13754925896139694,0.09608254825367649,-0.0033812040441167503,0.16781861416582328,0.0008372634223553167,0.0797549668594758,-0.0004267844284422604,0.07976050334434243
44,1791341639.1203513,0.06090863396139694,0.04818215762867649,0.00619887408088325,0.07790897281230648,0.00179883310509534,0.08136775713320336,-0.00048285428834455636,0.08138907082459983
45,1791341639.1403513,0.04174847771139694,0.11045266544117649,0.00140883501838325,0.11808772802619455,0.0026379748604042465,0.08275488567073984,-0.0005113947169873937,0.08279849961380888
46,1791341639.1659281,-0.001361873851103064,0.09129250919117649,-0.03212143841911675,0.09678824174929758,0.0036276077303389895,0.08464971716338039,-0.000601333455851263,0.08472954476220582
47,1791341639.185928,0.08006879021139694,0.033812040441176486,-0.051281594669116755,0.1009161394253666,0.004403440781313368,0.08609679902958281,-0.0007862168778604807,0.08621291800440313
48,1791341639.1956608,0.12317914177389694,0.024231962316176487,-0.012961282169116751,0.12620730486510623,0.004872718933045063,0.08673774107690992,-0.0009095866263424437,0.08687926372130661
49,1791341639.2156608,0.09922894646139695,0.09608254825367649,0.05888930376838325,0.1501538877055262,0.006026010992714695,0.08803773535192255,-0.0010561825218993667,0.08825004915522165
50,1791341639.2409313,-0.010941951976103065,0.11524270450367649,0.00619887408088325,0.11592684457984566,0.007431970646091149,0.08983444507060308,-0.0010902652530647551,0.09014793612251809
51,1791341639.2609313,0.027378360523896937,0.0721323529411765,-0.051281594669116755,0.09264152911958284,0.008402444559129203,0.09132419269273273,-0.0011808174563807958,0.09171752054767895
52,1791341639.2857292,0.04653851677389694,0.0673423138786765,-0.051281594669116755,0.09659514860414085,0.009562712941869266,0.09315365734765563,-0.0014670030557817721,0.0936546926428073
53,1791341639.3057292,0.13754925896139694,0.05776223575367649,-0.02254136029411675,0.1508787176642283,0.010634255672979112,0.09459548668073256,-0.001773929291213979,0.09520787950171544
54,1791341639.315755,0.19981976677389696,0.09608254825367649,0.025359030330883253,0.22316557909278326,0.011344512020111688,0.09532552258370121,-0.0019025901316719461,0.09601704566398261
55,1791341639.3357549,0.10880902458639694,0.09129250919117649,0.00140883501838325,0.14204122951443782,0.013011789486475743,0.09684445850751855,-0.00208060005116878,0.09773681346262403
56,1791341639.3611186,0.11359906364889694,0.0673423138786765,-0.00817124310661675,0.1323121449994208,0.015232125508316676,0.09878357426889138,-0.00228535116263333,0.09997717250840434
57,1791341639.3811185,0.15670941521139695,0.05297219669117649,0.00140883501838325,0.16542635598445526,0.017125765851442043,0.10026373627411737,-0.002432728994018291,0.10174491062457383
58,1791341639.4060802,0.13754925896139694,0.09129250919117649,0.06846938189338325,0.1787237452945535,0.019685569037875682,0.10210408322716148,-0.002458257273377141,0.10401350137759137
59,1791341639.4260802,0.04653851677389694,0.09608254825367649,0.03493910845588325,0.11233178945483922,0.021705035037817986,0.1036384999186459,-0.002320530527360758,0.10591237922598325
60,1791341639.4360394,0.05611859489889694,0.0673423138786765,-0.03691147748161675,0.09511435802147111,0.02263648780533624,0.10441003713793359,-0.002263708545041276,0.10685967813765256
61,1791341639.4560394,0.15670941521139695,0.05297219669117649,-0.07044175091911675,0.17979414537391805,0.024545681393565548,0.10590749129177936,-0.0023277454281850525,0.10873962288683543
62,1791341639.4813304,0.21418988396139696,0.04818215762867649,-0.051281594669116755,0.22545205400918153,0.027301340852097702,0.10770892731827325,-0.0026274641407898216,0.11114620913097586
63,1791341639.5013304,0.08485882927389694,0.09608254825367649,0.06367934283088325,0.14313607402758266,0.029602202017109665,0.10913620647563875,-0.002810331301971023,0.11311454323022245
64,1791341639.5258589,0.022588321461396936,0.1439829388786765,0.044519186580883253,0.15239185322190815,0.0321984270802469,0.11106572485053896,-0.0028019173398776804,0.11567274823309556
65,1791341639.5458589,0.10401898552389695,0.09608254825367649,-0.04170151654411675,0.1476171463970903,0.03418770503787156,0.11276311513320741,-0.002791859369369008,0.11786481149622152
66,1791341639.5564234,0.18544964958639695,0.06255227481617649,-0.06565171185661675,0.20643281446054093,0.03531023811764835,0.11365092708162726,-0.0028724039135018505,0.11904451623943324
67,1791341639.5764234,0.14712933708639694,0.05297219669117649,0.00140883501838325,0.15638120177911516,0.03761543160407395,0.11525283730938163,-0.003098376488842926,0.1212754597579006
68,1791341639.6009924,0.11359906364889694,0.11045266544117649,0.03014906939338325,0.1612870266024321,0.040502918366684175,0.11722666721660735,-0.0032761826112375787,0.12406978389371709
69,1791341639.6209924,0.18065961052389695,0.1296128216911765,-0.01775132123161675,0.2230526570719634,0.04294223664485423,0.11895251174394676,-0.0033806149026613277,0.12651151842965347
70,1791341639.645941,0.20939984489889696,0.04339211856617649,-0.051281594669116755,0.21991128426970455,0.046258543486133355,0.12110617025806836,-0.0036205167516965638,0.12969065294609342
71,1791341639.665941,0.13275921989889694,0.014651884191176487,-0.00817124310661675,0.13381501183508057,0.049031514381222656,0.1226607399386399,-0.0038731651376997696,0.13215425809634204
72,1791341639.6759915,0.08964886833639694,0.04339211856617649,0.025359030330883253,0.10277585303455482,0.05038363280262232,0.12336852450407317,-0.003968127444711556,0.1333193509139579
73,1791341639.6959915,0.15670941521139695,0.0721323529411765,0.00140883501838325,0.17251928000324337,0.053040211389293955,0.12473899367322595,-0.004088599736054999,0.13560898648183964
74,1791341639.7214622,0.26209027458639694,0.04339211856617649,-0.03691147748161675,0.26821007653760875,0.056716012020192,0.12644322341111122,-0.0042868327365349415,0.13864693181234763
75,1791341639.7414622,0.21418988396139696,0.05297219669117649,-0.01775132123161675,0.22135597895506104,0.0598837787008188,0.12772522728156155,-0.004501133912876394,0.14113844565573494
76,1791341639.7660582,0.12317914177389694,0.0673423138786765,0.02056899126838325,0.1418843599854713,0.06381748418657149,0.12928728831104844,-0.004719951604642505,0.1442572429719826
77,1791341639.7860582,0.19502972771139696,0.03860207950367649,-0.01775132123161675,0.1996041698929605,0.06701365355994464,0.13052585340064962,-0.0048669651776539905,0.14680434434804937
78,1791341639.811034,0.25730023552389697,-0.004508272058823514,-0.046491555606616754,0.2615056413546988,0.07125359323646727,0.1319044189190585,-0.005143354579440188,0.15000768105604545
79,1791341639.831034,0.24772015739889694,-0.009298311121323514,-0.046491555606616754,0.2522165730362823,0.07489707562879737,0.13282204190431193,-0.005470956009601029,0.1525817751667465
80,1791341639.8406591,0.14712933708639694,0.009861845128676487,0.00140883501838325,0.14746620845784855,0.07667255728391764,0.1331978218857342,-0.005637513085897323,0.1537924651904412
81,1791341639.8606591,0.17586957146139695,0.04818215762867649,-0.00817124310661675,0.1825332728399879,0.08029290383850171,0.1339485889188574,-0.00594182913557953,0.15628333312816295
82,1791341639.8860214,0.24293011833639694,0.029022001378676488,-0.056071633731616756,0.251000691370148,0.08499189154555233,0.13490469364987118,-0.006392051236318081,0.15957367049818788
83,1791341639.9060214,0.20460980583639696,0.019441923253676486,-0.056071633731616756,0.21304269321791464,0.0888128702725466,0.13561825385778217,-0.006862043912839696,0.16225635381131853
84,1791341639.9307468,0.19023968864889695,0.03860207950367649,-0.03691147748161675,0.19759483001615533,0.09356028927950959,0.13647572306715353,-0.0075283559009852626,0.16563763720646282
85,1791341639.9507468,0.25251019646139694,0.009861845128676487,-0.027331399356616753,0.2541764361562774,0.09748850322942712,0.13713797216792745,-0.008082843186864783,0.1684522603773209
86,1791341639.9608026,0.3147807042738969,-0.018878389246323516,-0.012961282169116751,0.3156125475946318,0.0995951497026643,0.13741419814898478,-0.008350203091140582,0.1699163958801147
87,1791341639.9808025,0.286040469898897,-0.004508272058823514,0.02056899126838325,0.2868145016186193,0.1040578103919061,0.13784609708300463,-0.00879078172237459,0.17293597725130955
88,1791341640.0061183,0.22376996208639693,0.029022001378676488,0.025359030330883253,0.22706464479415125,0.10982724821473078,0.13835732994911745,-0.009177606763269055,0.17688697992495162
89,1791341640.0261183,0.21897992302389696,0.029022001378676488,0.00140883501838325,0.22089922604591616,0.11436565243789966,0.13878769782512593,-0.009397214892909877,0.18008285641028815
90,1791341640.0512583,0.22856000114889694,0.029022001378676488,0.03014906939338325,0.23235945660655755,0.12005856224126123,0.1393569678538984,-0.009572353321964011,0.1841902625140422
91,1791341640.0712583,0.22856000114889694,0.04339211856617649,0.06367934283088325,0.24120034987996605,0.124593851501173,0.13985053575358047,-0.009550041421763076,0.18754467060841057
92,1791341640.080814,0.19502972771139696,0.0673423138786765,0.02056899126838325,0.20735155010637044,0.12673926234850655,0.14013033969347272,-0.009480602164983306,0.18918042853493677
93,1791341640.1008139,0.14712933708639694,0.08650247012867648,-0.00817124310661675,0.17086979950755668,0.13106932333576643,0.14085889572364865,-0.009338468689044515,0.19263333829230517
94,1791341640.1263993,0.11359906364889694,0.019441923253676486,0.044519186580883253,0.1235503687389539,0.1362780630515002,0.14185441110217553,-0.009114167149393981,0.19691991382549603
95,1791341640.1463993,0.08006879021139694,-0.16736960018382352,0.07325942095588325,0.19947565513215126,0.1400294620124506,0.1422939805029357,-0.008788464386473741,0.19983259049799287
96,1791341640.1705348,0.17107953239889695,-0.33023092830882356,-0.012961282169116751,0.37214065520042294,0.14433213123967253,0.1418441336053584,-0.008345220533768205,0.20253682394122322
97,1791341640.1905348,0.14712933708639694,-0.23922018612132354,-0.08481186810661676,0.29337074198211627,0.14784004364393385,0.14067310657159043,-0.008179679819471795,0.2042364036578479
98,1791341640.2005365,0.10880902458639694,-0.023668428308823514,-0.09439194623161676,0.1459775251312526,0.1495231408544858,0.13997813784327265,-0.008243738437634492,0.2049853847192252
99,1791341640.2205365,0.20460980583639696,-0.08114889705882351,-0.046491555606616754,0.2249706222620961,0.152854056463778,0.13863966230952315,-0.008563944968158321,0.20653972909866058
100,1791341640.2461703,0.25730023552389697,-0.16257956112132352,0.05888930376838325,0.31000560477736516,0.15737092129484173,0.13671289942844614,-0.008888955029493927,0.20865051464311338
101,1791341640.2661703,0.20939984489889696,-0.11467917049632352,0.11636977251838325,0.2655965571037908,0.16106649201665163,0.13501920966668568,-0.008841608770245963,0.21035868385976517
102,1791341640.2910495,0.24293011833639694,-0.07156881893382351,0.03493910845588325,0.2556518717674686,0.16581809042164775,0.1328808289429015,-0.008509212875280104,0.21266255080618032
103,1791341640.3110495,0.30041058708639695,-0.15778952205882352,-0.08960190716911676,0.3509594789622994,0.16987987070215574,0.1310756349465823,-0.008364080683587077,0.21473227608376066
104,1791341640.3206062,0.3052006261488969,-0.21526999080882353,-0.056071633731616756,0.37766733940578223,0.17196369262393246,0.13007503840359055,-0.008409545981862549,0.21578171298832285
105,1791341640.3406062,0.30041058708639695,-0.15299948299632352,0.12594985064338327,0.3598871038365039,0.17657889839060992,0.1277427316320657,-0.008385604335477193,0.21810234111933433
106,1791341640.366184,0.424951602711397,-0.11946920955882352,0.26486098345588327,0.5147893717209134,0.18298737616620167,0.12468469571145074,-0.007609872784753081,0.22155939010714076
107,1791341640.386184,0.39142132927389695,-0.09072897518382352,0.3223414522058833,0.5151178658895933,0.18847125647277232,0.12233690984089732,-0.006213488793470744,0.22478065190054047
108,1791341640.4113262,0.30999066521139695,-0.03803854549632352,0.35587172564338326,0.4734826592115911,0.19565365272078988,0.11958538449366346,-0.0034425082701538584,0.22933134733541086
109,1791341640.4313262,0.30041058708639695,0.06255227481617649,0.25049086626838324,0.3961123350795292,0.2014256566876454,0.11776170132880694,-0.0006593568388985238,0.2333249841387444
110,1791341640.4405787,0.26209027458639694,0.0769223920036765,0.044519186580883253,0.27674956982471305,0.20408574549133335,0.11714135490317515,0.0006397916298736973,0.23531574081356008
111,1791341640.4605787,0.20460980583639696,-0.009298311121323514,-0.027331399356616753,0.2066364842541313,0.20967325572506929,0.11610300987175604,0.0030525376538745883,0.23969167915002745
112,1791341640.4856613,0.18065961052389695,-0.12425924862132352,0.14990004595588327,0.2656092609834189,0.2163543697389964,0.11474487493558627,0.005855126908361055,0.2449691452821247
113,1791341640.5056612,0.3147807042738969,0.029022001378676488,0.28881117876838325,0.4281834482190752,0.22162572368373118,0.11368152918948536,0.008412676995585245,0.24922324251848868
114,1791341640.5307374,0.43932171989889696,0.2254136029411765,0.33671156939338326,0.5976533668684569,0.22866185184944987,0.11302680174801388,0.012314781562572348,0.25536827181452765
115,1791341640.5507374,0.3052006261488969,0.4649155560661765,0.3606617647058833,0.6628505148182076,0.23454866720242562,0.11361843228357395,0.016006211247451572,0.2611099849479321
116,1791341640.576313,0.35310101677389694,0.4936557904411765,0.26486098345588327,0.662214246328241,0.2422101695723475,0.11610021986810978,0.02121852923561722,0.2694350631981879
117,1791341640.596313,0.42016156364889695,0.3643247357536765,0.30797133501838325,0.6357000832490723,0.2484626202236204,0.11903681979322989,0.02554237558452206,0.2766872802739109
118,1791341640.6058471,0.424951602711397,0.3403745404411765,0.28881117876838325,0.6163202003902761,0.25160042222871776,0.12073063317050726,0.0277211350637719,0.28044093777593265
119,1791341640.625847,0.525542423023897,0.3547446576286765,0.12115981158088325,0.6455372262358157,0.2586210757626797,0.12479349513941543,0.032220966929340865,0.288957553920327
120,1791341640.6664374,0.544702579273897,0.21104348575367649,0.00619887408088325,0.5841906185369369,0.27399044294552233,0.13352470556510143,0.04037129094514376,0.30745642122796524
121,1791341640.6864374,0.48722211052389697,0.08650247012867648,-0.0033812040441167503,0.494853003287351,0.281975311758908,0.13762782104066923,0.04378902813840068,0.31681062569181845
122,1791341640.695751,0.38184125114889694,0.0769223920036765,-0.00817124310661675,0.3895979526183752,0.28574300083936477,0.13936610301365668,0.04513379349033192,0.32110595216022747
123,1791341640.715751,0.45369183708639693,0.20625344669117648,-0.03691147748161675,0.4997391564413335,0.2938734217235576,0.1429637337982152,0.04752075523999888,0.33023997237708635
124,1791341640.7257402,0.48722211052389697,0.2637339154411765,-0.07044175091911675,0.5584827691252837,0.29803007099216355,0.1448431984526115,0.048453697125037984,0.3348869004883015
125,1791341640.7457402,0.544702579273897,0.2541538373161765,-0.10397202435661676,0.6100043071478974,0.30665184977862264,0.14881855089799148,0.049779781340083255,0.34447110864961594
126,1791341640.771293,0.5734428136488969,0.2876841107536765,-0.13750229779411677,0.6561293241460552,0.31815791697997464,0.15417416411645393,0.05075712440868463,0.35717001371375284
127,1791341640.791293,0.563862735523897,0.3834848920036765,-0.30036362591911675,0.7451309647859513,0.3275187428664066,0.1587439515272115,0.05075054252773205,0.36748304265928267
128,1791341640.8158708,0.5542826573988969,0.41222512637867653,-0.34826401654411676,0.7735933326564672,0.339357807260013,0.16498413158404154,0.049548026596299574,0.3805765257638102
129,1791341640.8358707,0.578232852711397,0.2637339154411765,-0.24767319623161677,0.6820929718449522,0.34924540962443384,0.17031426988998252,0.04782236676519103,0.39149238234596706
130,1791341640.8461285,0.822524844898897,0.2493637982536765,-0.30036362591911675,0.9104656677386215,0.3546335886539418,0.17303270362594939,0.04664843856606079,0.39734289416866436
131,1791341640.8661284,0.927905704273897,0.3116343060661765,-0.4536448759191168,1.0788505967876436,0.3661889890432072,0.1783794238670249,0.04357189138208016,0.4096487571984439
132,1791341640.8906624,0.875215274586397,0.1487729779411765,-0.5494456571691168,1.0440429617677764,0.3815555833858043,0.18480159667736082,0.0385182538898539,0.4256993648457872
133,1791341640.9106624,0.880005313648897,-0.10988913143382352,-0.4632249540441168,1.0005310246597794,0.3948361655941077,0.18930994649295926,0.03349750487125012,0.4391536591386028
134,1791341640.9365103,0.9518558995863969,-0.18173971737132352,-0.5015452665441168,1.0911492257434117,0.4129766145588953,0.19369718717171955,0.02611172762706182,0.4568917889505483
135,1791341640.9565103,1.009336368336397,-0.10030905330882352,-0.5590257352941168,1.1581587038671977,0.4278492416202219,0.1961595707333183,0.01966330061736987,0.4710840648296733
136,1791341640.9663332,1.057236758961397,-0.16257956112132352,-0.5015452665441168,1.181409891860742,0.43558060915660335,0.1969938717066546,0.016189930337632313,0.47832955836698293
137,1791341640.9863331,1.095557071461397,-0.37334127987132354,-0.46801499310661676,1.2484658753276427,0.4521901480989364,0.19763388067131862,0.008724376082862246,0.493569848719488
138,1791341641.0112386,1.191357852711397,-0.5649428423713235,-0.46801499310661676,1.3991182873997063,0.47404279905902547,0.1965586902183111,-0.0009261994156439003,0.5131790641534504
139,1791341641.0312386,1.263208438648897,-0.7086440142463235,-0.36742417279411677,1.494279900538841,0.49264085061819723,0.19391440711726787,-0.008766657012731542,0.5295041635914125
140,1791341641.0565515,1.239258243336397,-0.8188149126838236,-0.27162339154411674,1.5099662651014951,0.5173994732167608,0.18816985801808733,-0.018414626857785263,0.5508622412489717
141,1791341641.0765514,1.301528751148897,-0.8571352251838236,-0.2955735868566168,1.5861972227832886,0.5378383843020604,0.1817979323937025,-0.0257449369953915,0.5683163006919411
142,1791341641.0861197,1.440439883961397,-0.9289858111213236,-0.44885483685661676,1.7718217633670283,0.5481175380727238,0.17792504284255328,-0.02926001775963865,0.5770149955180737
143,1791341641.1061196,1.339849063648897,-1.0918471392463236,-0.4440647977941168,1.7845221302861831,0.5705510874517437,0.16801277789472607,-0.036844690343761456,0.5959147322686338
144,1791341641.131299,1.2200980870863969,-1.4798403033088237,-0.36742417279411677,1.9528356787406558,0.5993921302785191,0.1525489027110204,-0.04649369713329485,0.6202449172958051
145,1791341641.151299,1.291948673023897,-1.5277406939338236,-0.3530540556066168,2.031691454874457,0.6226323657559735,0.13759702573047672,-0.05408898683805466,0.6399450155083021
146,1791341641.1758776,1.277578555836397,-1.4606801470588235,-0.3530540556066168,1.9724199919198446,0.6516455378963558,0.11646960680150382,-0.06332458725958891,0.6649940448758358
147,1791341641.1958776,1.167407657398897,-1.5373207720588236,-0.3147337431066168,1.9558254328561686,0.6753802279435082,0.09735964565451839,-0.07071415179728509,0.6860159212171448
148,1791341641.2214642,1.057236758961397,-1.6187514361213236,-0.3051536649816168,1.9573514083311048,0.7054591658973275,0.0705223791243044,-0.07993935998607632,0.7134678282732085
149,1791341641.2414641,0.947065860523897,-1.5756410845588236,-0.21893296185661676,1.851353616494398,0.728450349444282,0.047899859756350555,-0.08685480524667709,0.7351721331529186
150,1791341641.251008,0.889585391773897,-1.5708510454963236,-0.15187241498161677,1.811629213395158,0.7390906009170936,0.036471570500399404,-0.08992523976892461,0.7454338606249751
151,1791341641.271008,0.903955508961397,-1.7385024126838236,-0.14229233685661677,1.9646305785610818,0.7607337679286219,0.011151001163959447,-0.09583567208125356,0.7668276772111858
152,1791341641.2961652,0.736304141773897,-1.8295131548713237,-0.10397202435661676,1.9748600848894162,0.7869690922292907,-0.022653410142656306,-0.10261965273459579,0.7939548615901626
153,1791341641.3161652,0.621343204273897,-1.7480824908088235,-0.08960190716911676,1.857387486212308,0.8067340785323003,-0.05086312534912145,-0.10749428746173781,0.815451992960068
154,1791341641.3406446,0.6165531652113969,-1.5995912798713237,-0.056071633731616756,1.7152183815135331,0.8295697978307177,-0.08635798441552678,-0.11283318567347826,0.8416502116285813
155,1791341641.3606446,0.5542826573988969,-1.6810219439338236,-0.012961282169116751,1.7700937927453737,0.8471845688595561,-0.115928698782015,-0.11664439212645601,0.8629988824613817
156,1791341641.3715107,0.520752383961397,-1.7720326861213236,-0.08960190716911676,1.8491380121159628,0.8561954027201203,-0.13239893276470968,-0.118488039894795,0.874436653299948
157,1791341641.3915107,0.549492618336397,-1.6235414751838235,-0.11355210248161676,1.7177669048000228,0.8718981091314668,-0.16325977073367853,-0.12167713522262949,0.8953576886825882
158,1791341641.4165807,0.578232852711397,-1.4750502642463237,-0.15187241498161677,1.591600372091015,0.8907493359328121,-0.20196730645100608,-0.1255740967969463,0.9219512059356445
159,1791341641.4365807,0.678823673023897,-1.6427016314338236,-0.2764134306066168,1.7987981025097617,0.9054179729097245,-0.2328915859672145,-0.12885906226404797,0.9437292272732941
160,1791341641.4611425,0.640503360523897,-1.8007729204963236,-0.33868393841911676,1.9410652941563682,0.9231606706926739,-0.2715162193915796,-0.1334212714151047,0.9714668892826286
161,1791341641.4811425,0.48722211052389697,-1.9061537798713235,-0.26204331341911674,1.9848109017255935,0.9371324878653984,-0.303809821956461,-0.13747999738108532,0.9946951580307962
162,1791341641.490713,0.525542423023897,-1.9827944048713235,-0.29078354779411675,2.071768221122862,0.9435423336050613,-0.31973634194534106,-0.13952765281774687,1.0059679068272023
163,1791341641.5107129,0.7315141027113969,-1.9684242876838236,-0.2955735868566168,2.1206533908341823,0.9568138280515418,-0.35395369639187657,-0.14404447076719884,1.030303222502347
164,1791341641.5352886,0.827314883961397,-2.0354848345588237,-0.24767319623161677,2.211106157803059,0.9735486881050379,-0.39707256984816625,-0.14976344633238575,1.062022958176621
165,1791341641.5552886,0.750674258961397,-2.2222963579963237,-0.26204331341911674,2.3602499113311364,0.9874918293622461,-0.43328625339618315,-0.15448406032407044,1.0893770767431763
166,1791341641.5803273,0.779414493336397,-2.3180971392463237,-0.3961644071691168,2.477500259719962,1.0052027351377975,-0.4803493437186164,-0.16074353642897365,1.1256138393086268
167,1791341641.6003273,0.7937846105238969,-2.3037270220588235,-0.37700425091911677,2.465640769714776,1.0195873124001331,-0.5192354559006059,-0.1661531459624839,1.1561879666320989
168,1791341641.6106465,0.836894962086397,-2.1648158892463236,-0.43927475873161675,2.362156498955491,1.0271579772433317,-0.5397480484202254,-0.16915737960645663,1.1726021000592561
169,1791341641.6306465,0.884795352711397,-2.092965303308824,-0.36742417279411677,2.3018182160604526,1.0422124817969463,-0.5799273169481981,-0.17531662448247698,1.2055117042053203
170,1791341641.6563516,0.788994571461397,-2.2031362017463234,-0.26683335248161677,2.3553177270248167,1.0618859127632956,-0.6321042508102593,-0.1832681748385722,1.2492976825105369
171,1791341641.6763515,0.9135355870863969,-2.2270863970588235,-0.2955735868566168,2.425247375853652,1.077450665223716,-0.6732566240776093,-0.18937051643948546,1.2845371191024277
172,1791341641.7015011,1.033286563648897,-2.0690151079963237,-0.23809311810661676,2.324907089030466,1.097759313083659,-0.7253460684737013,-0.19689966726604868,1.330402911708195
173,1791341641.721501,0.975806094898897,-1.9875844439338237,-0.15187241498161677,2.2194041288242015,1.1145006787250828,-0.7666410758794109,-0.20257398121441492,1.367803538513214
174,1791341641.731175,0.947065860523897,-2.169605928308824,-0.11834214154411675,2.3702591611019903,1.1227788116321629,-0.7866352339558297,-0.2051029599826146,1.3861798134962522
175,1791341641.751175,0.975806094898897,-2.3468373736213235,-0.07523178998161675,2.5427353411811273,1.1402104128956128,-0.8285459479682632,-0.20983753566169513,1.4249912157423235
176,1791341641.7757716,1.057236758961397,-2.2414565142463236,-0.15666245404411674,2.4832277370921103,1.162183177577545,-0.8808220110449179,-0.2152146607776569,1.4740537655048729
177,1791341641.7957716,1.028496524586397,-2.1169154986213234,-0.24288315716911676,2.366036465785323,1.1804982335986682,-0.9234901228314666,-0.21953037443022239,1.5147949273067713
178,1791341641.8215725,0.860845157398897,-2.1743959673713236,-0.19977280560661675,2.347117675319613,1.2042374558233604,-0.9785814540461852,-0.2251193026023683,1.5679566998534247
179,1791341641.8415725,0.908745548023897,-2.1025453814338237,-0.19498276654411675,2.29881139532828,1.2225333756725514,-1.0212959876181467,-0.22939392432416886,1.6094268922430406
180,1791341641.850673,1.018916446461397,-1.9492641314338237,-0.3243138212316168,2.223286044036132,1.2309253618655507,-1.0405821356868985,-0.23140165221953998,1.6283535096054778
181,1791341641.870673,0.9710160558363969,-1.8726235064338237,-0.36742417279411677,2.141165920776347,1.249586826562474,-1.082342264384358,-0.23618977493302365,1.6699453955665877
182,1791341641.8967597,0.836894962086397,-1.8774135454963237,-0.25246323529411674,2.070944828708346,1.2738138096468576,-1.1359783037649351,-0.2427111367041836,1.723936490753629
183,1791341641.9167597,0.736304141773897,-1.8822035845588236,-0.13271225873161677,2.025449744263512,1.2919615986452455,-1.1765707097471676,-0.24753867374628605,1.7648679277523864
184,1791341641.9408479,0.803364688648897,-1.8438832720588236,-0.19019272748161675,2.020265729435905,1.3133219275425894,-1.2248586568672153,-0.25306421448034844,1.8135971744897752
185,1791341641.9608479,0.860845157398897,-1.8822035845588236,-0.26683335248161677,2.0868504394756697,1.3308930933689773,-1.2645265513556037,-0.2576493519242217,1.8538303626835744
186,1791341642.0010824,0.707563907398897,-1.8582533892463236,-0.14708237591911677,1.9938368957878816,1.3656720909699025,-1.3436446622987088,-0.2667388314604639,1.9343192194637395
187,1791341642.0210824,0.626133243336397,-1.8247231158088235,0.054099264705883256,1.9299181376990409,1.3823675217482359,-1.382598253649062,-0.2707188098478852,1.9737797673963655
188,1791341642.0156097,0.9135355870863969,-1.7576625689338237,0.00140883501838325,1.980890446218681,1.3823675217482359,-1.382598253649062,-0.2707188098478852,1.9737797673963655
189,1791341642.0356097,1.014126407398897,-1.7049721392463235,-0.09439194623161676,1.9860242207242518,1.3992845366064193,-1.4205037079007232,-0.27366304600694935,2.0126399234078973
190,1791341642.0614827,0.956645938648897,-1.7241322954963236,-0.14229233685661677,1.9768790386452502,1.4217107336533512,-1.4688386700559122,-0.27735981072354116,2.0629292070842786
191,1791341642.0814826,0.865635196461397,-1.7528725298713237,-0.22851303998161676,1.9682745257641008,1.4391794283291404,-1.5058129670016231,-0.28034500105642585,2.1017381944793576
192,1791341642.1061645,0.7937846105238969,-1.8055629595588236,-0.36742417279411677,2.006278179014275,1.4605755117799712,-1.5511853291370323,-0.2845795599085701,2.1495214064668082
193,1791341642.1261644,0.7746244542738969,-1.9301039751838236,-0.4153245634191168,2.1208109046208743,1.4776650132729585,-1.5880397546607061,-0.28867030113033637,2.188308638329723
194,1791341642.135951,0.827314883961397,-1.9205238970588236,-0.3434739774816168,2.119159345024605,1.4859488853560243,-1.6061950013443442,-0.2909287224762626,2.2073844236552995
195,1791341642.155951,0.894375430836397,-1.8151430376838236,-0.25246323529411674,2.0392129226029887,1.5029210539024027,-1.6433353646983953,-0.2957456551926563,2.246505799613446
196,1791341642.180611,0.908745548023897,-1.7145522173713237,-0.18540268841911675,1.9493285854414621,1.5240435147700178,-1.6887882951802318,-0.30160384897192793,2.2947068271491644
197,1791341642.2006109,0.856055118336397,-1.6810219439338236,-0.08960190716911676,1.8885692053470895,1.5412520820753184,-1.7252159212463998,-0.30605486787982544,2.333558985236179
198,1791341642.225667,0.903955508961397,-1.7480824908088235,-0.09439194623161676,1.9702380050053423,1.5628846775016259,-1.7704512051229255,-0.31114045977795685,2.3819979787148053
199,1791341642.245667,1.023706485523897,-1.8007729204963236,-0.18061264935661675,2.0792736733783177,1.5804533690236375,-1.806465546980741,-0.3150034193782593,2.4208217155145046
200,1791341642.2568653,0.966226016773897,-1.8869936236213236,-0.17103257123161675,2.1268732429320707,1.590486078499956,-1.826703009629429,-0.31713724456921366,2.4427578437463535
201,1791341642.2768652,0.9326957433363969,-1.8343031939338237,-0.15666245404411674,2.0637666247472812,1.6085649995691471,-1.863007209384342,-0.3208681221782467,2.4821832268966606
202,1791341642.30109,0.9518558995863969,-1.7864028033088235,-0.20935288373161676,2.0349676309892,1.6306021712481182,-1.9069626190632207,-0.32537425664892305,2.530066852530457
203,1791341642.32109,0.961435977711397,-1.7911928423713237,-0.29078354779411675,2.0536031772150785,1.6489369278528043,-1.943175187480816,-0.3292866887639004,2.5696989171252813
204,1791341642.3460567,0.827314883961397,-1.8582533892463236,-0.20456284466911676,2.0443584649685653,1.6717411328089786,-1.9884334558170862,-0.3343656555446466,2.6192339366589477
205,1791341642.3660567,0.817734805836397,-1.8438832720588236,-0.14708237591911677,2.0224314472833576,1.689736221810927,-2.0248032757026317,-0.33835142112364924,2.6588566130523787
206,1791341642.3761141,0.942275821461397,-1.9013637408088235,-0.27162339154411674,2.13935669429088,1.6987556700565825,-2.0431743368299293,-0.34037093815607755,2.6788401543897797
207,1791341642.396114,1.033286563648897,-1.8630434283088235,-0.37700425091911677,2.1635027486909104,1.7169644740218375,-2.079873322453315,-0.3447574436671293,2.718951587923178
208,1791341642.420936,0.755464298023897,-1.8007729204963236,-0.17582261029411675,1.9607200226121615,1.73950362198717,-2.125409141404953,-0.35041409564314435,2.7687590916689784
209,1791341642.440936,0.6357133214613969,-1.7385024126838236,0.025359030330883253,1.8512604210132835,1.7570269024648277,-2.1619044278444104,-0.3545138946054297,2.808318784003469
210,1791341642.4664993,0.745884219898897,-1.7720326861213236,0.01577895220588325,1.9226783624697228,1.778713731417938,-2.208284869655079,-0.35888920350803716,2.858171804541656
211,1791341642.4864993,0.9135355870863969,-1.8007729204963236,-0.13271225873161677,2.0235965318422036,1.7956249640850064,-2.244487845388969,-0.3619742571730892,2.897070945386065
212,1791341642.5108905,0.7746244542738969,-1.7720326861213236,-0.06086167279411675,1.934902330624671,1.816243801256951,-2.288552656911243,-0.3655264158590952,2.9444565491361225
213,1791341642.5308905,0.745884219898897,-1.7049721392463235,0.03972914751838325,1.8614112039694262,1.832895329695104,-2.3244801319472734,-0.3680338724171006,2.9829787301759403
214,1791341642.5411594,0.822524844898897,-1.6570717486213236,0.00619887408088325,1.8499925206861665,1.8413704937006035,-2.342749296253348,-0.36909282881388566,3.0025570896235423
215,1791341642.5611594,0.860845157398897,-1.8007729204963236,-0.07044175091911675,1.9971979212092479,1.8579259952430696,-2.3781802608930755,-0.3709422722287082,3.040596738541236
216,1791341642.5866582,0.779414493336397,-1.9444740923713235,-0.06565171185661675,2.0958951776259753,1.8790040971908604,-2.4237393660718656,-0.37320678657171413,3.0894096875373576
217,1791341642.6066582,0.717143985523897,-2.0306947954963235,-0.06086167279411675,2.154465360975723,1.8953016116929773,-2.460076171056776,-0.3749062983344789,3.1280501433350176
218,1791341642.631231,0.8129447667738969,-2.0690151079963237,-0.15666245404411674,2.228507535425723,1.9151417715605183,-2.505580024120568,-0.37708206756717433,3.176143911747187
219,1791341642.651231,0.745884219898897,-2.2175063189338236,-0.22851303998161676,2.3507223897022085,1.9312058283370759,-2.543490266872616,-0.37916507050303616,3.2160013743418077
220,1791341642.6613228,0.587812930836397,-2.2989369829963238,-0.23809311810661676,2.384811025288261,1.9391051739333687,-2.563168434702525,-0.38041163936988875,3.236460152017732
221,1791341642.6813228,0.602183048023897,-2.3180971392463237,-0.16624253216911675,2.4007988982443615,1.9541969094659177,-2.603242589387784,-0.3831180341722556,3.2775809628865877
222,1791341642.7059062,0.659663516773897,-2.2510365923713236,-0.06565171185661675,2.34662136758935,1.9722911783065944,-2.653536125505977,-0.38637321145939607,3.3287341017156558
223,1791341642.7259061,0.6165531652113969,-2.1648158892463236,0.044519186580883253,2.2513435095158996,1.9867181332619905,-2.6949391146236197,-0.38865594534095393,3.370578469107227
224,1791341642.7514844,0.43932171989889696,-2.1169154986213234,0.12594985064338327,2.1656865347402383,2.0044269038925138,-2.7481612991942668,-0.3908104304724885,3.423864853057629
225,1791341642.7714844,0.38184125114889694,-2.0738051470588235,0.14511000689338327,2.1136526306721315,2.017428361324317,-2.789820236118635,-0.3918357684881814,3.4650612422292744
226,1791341642.7815351,0.49201214958639694,-1.9301039751838236,0.11157973345588326,1.9949504623621888,2.0236407593027104,-2.810633375035948,-0.3920802553324636,3.4854711041979365
227,1791341642.8015351,0.3052006261488969,-1.7911928423713237,0.17385024126838325,1.8253063105005185,2.035344292343758,-2.851418876129146,-0.39206563838819886,3.52518530865069
228,1791341642.826623,0.0034281652113969364,-1.7816127642463235,0.25049086626838324,1.7991390908226155,2.048403708527069,-2.9016283079016363,-0.3912516183802318,3.5733013333902743
229,1791341642.846623,-0.03489214728860306,-1.7672426470588236,0.23133071001838326,1.7826603526537232,2.0572058165548315,-2.94097443328589,-0.3899772915666834,3.6101951023242465
230,1791341642.871687,0.027378360523896937,-1.6810219439338236,0.26486098345588327,1.7019799326576226,2.0665678794360796,-2.989368784394522,-0.38768711149081947,3.65476809467378
231,1791341642.891687,-0.001361873851103064,-1.4415199908088236,0.19301039751838325,1.454384664437872,2.0729568471099413,-3.026876701580578,-0.38544696014571667,3.688861886224108
232,1791341642.9011886,-0.12111285041360308,-1.3792494829963236,0.22654067095588326,1.4029676170454097,2.075449576869419,-3.0440333975491582,-0.3842433532506197,3.70422370086357
233,1791341642.9211886,-0.2696040613511031,-1.2403383501838237,0.22175063189338326,1.2885258691927197,2.0793233760805463,-3.0786587233677336,-0.3814174804886369,3.734595631618709
234,1791341642.9462473,-0.3893550379136031,-0.9337758501838236,0.10678969439338326,1.017319380904472,2.08221051179766,-3.1196206601581387,-0.3777904717453026,3.7696630246306784
235,1791341642.9662473,-0.36540484260110306,-0.7230141314338235,0.12594985064338327,0.8198374827527914,2.0830370209363087,-3.1498946336263165,-0.37498078117361944,3.794929514469097
236,1791341642.9914079,-0.26481402228860307,-0.6751137408088236,0.18822035845588325,0.7492208838298712,2.0827315783132017,-3.18490565844121,-0.3713834582062738,3.8235220090255906
237,1791341643.0114079,-0.2791841394761031,-0.6272133501838235,0.18822035845588325,0.7118758836490312,2.0817092064149945,-3.2105147043825406,-0.3683882295967767,3.8440379517942986
238,1791341643.0213072,-0.2791841394761031,-0.46914206112132356,0.12115981158088325,0.559211728409277,2.0808645076708867,-3.2221030363030074,-0.3668983648194026,3.853123341646957
239,1791341643.0413072,-0.10195269416360307,-0.07635885799632351,0.010988913143383251,0.12785062867969285,2.0788422203924686,-3.2428216744102674,-0.36414162991038407,3.8691183124770285
240,1791341643.0657778,0.11359906364889694,0.2493637982536765,-0.13750229779411677,0.30658430005476206,2.076760415877312,-3.2640515458289068,-0.36150681435221077,3.8855699061535445
241,1791341643.0857778,0.08485882927389694,0.3834848920036765,-0.22372300091911676,0.45201069062696175,2.075611848981075,-3.277850908642848,-0.36021821522337544,3.8964378975546494
242,1791341643.110864,0.12796918083639694,0.4744956341911765,-0.21893296185661676,0.5380091633956954,2.074787717330294,-3.2909490207496854,-0.35967719902302403,3.9069754563671135
243,1791341643.130864,0.659663516773897,0.6613071576286765,-0.37700425091911677,1.0072811510717894,2.0754106811215665,-3.298121433692157,-0.3602044769334074,3.913397724726681
244,1791341643.141227,1.038076602711397,0.6804673138786765,-0.42011460248161675,1.3103950082217133,2.077004593514766,-3.300237524761891,-0.36105625392794694,3.9161048785532304
245,1791341643.161227,0.769834415211397,0.8145884076286766,-0.3961644071691168,1.188757981337898,2.0823311653826093,-3.3014662508495984,-0.36367795513381995,3.9202097064918497
246,1791341643.1858692,0.424951602711397,1.0349302045036766,-0.4153245634191168,1.1933812826671477,2.0901178256869692,-3.299334870840734,-0.3679234189075528,3.9229543404659566
247,1791341643.2058692,0.899165469898897,0.8720688763786766,-0.5925560087316167,1.3856858557735283,2.0974757982963066,-3.2950039955641883,-0.3723640648960198,3.9236604149758656
248,1791341643.2309387,1.636831485523897,0.5511362591911765,-0.9086985868566168,1.9515895085680348,2.1100835859719176,-3.287713722992943,-0.37991804250466,3.9250289149463344
249,1791341643.2509387,1.828433048023897,0.6421470013786765,-1.0476097196691168,2.202953995713662,2.1238310060599424,-3.2809801576044624,-0.38797496667654185,3.9275964038662954
250,1791341643.276534,1.7374223058363971,0.6325669232536765,-1.0140794462316167,2.1088229666052833,2.1456307604369584,-3.2712083267894805,-0.4006970785222676,3.9325682989779582
251,1791341643.296534,1.794902774586397,0.40264504825367653,-0.9326487821691168,2.0624336973543387,2.1654082152584833,-3.2631652506159874,-0.4120669469738802,3.937897835181228
252,1791341643.3061678,2.063144962086397,0.3451645795036765,-0.9422288602941168,2.294232103928803,2.1762933862496556,-3.259331808035357,-0.4180768425025886,3.9413557292056187
253,1791341643.3261678,2.4750883214613975,0.2493637982536765,-1.0332396024816168,2.693664526077898,2.2023089469646577,-3.251675437417749,-0.43164523904152374,3.950933492299472
254,1791341643.3511958,2.8630814855238973,0.09129250919117649,-1.220051125919117,3.113534111719454,2.2400017291304444,-3.24289198222378,-0.45030746534415206,3.966955125562089
255,1791341643.3711958,2.9732523839613973,-0.03803854549632352,-1.2727415556066168,3.234431594120296,2.274358624215359,-3.23684603720542,-0.4667227602387092,3.9834293711624977
256,1791341643.3965406,2.9061918370863973,-0.18173971737132352,-1.0571897977941167,3.0978428926234756,2.3225424192761603,-3.2307513731484305,-0.48883349339773063,4.008854687900905
257,1791341643.4165406,3.1504838292738975,-0.5122524126838235,-1.1098802274816169,3.379317240534153,2.3639465650432228,-3.2277043820929046,-0.5069148055394846,4.0327759125243405
258,1791341643.4266005,3.6869682042738976,-0.8715053423713236,-1.4403929227941168,4.05314542955762,2.3868074036989535,-3.2274456893318435,-0.516569499241115,4.047233537551923
259,1791341643.4466004,3.8785697667738974,-1.0104164751838236,-1.5314036649816167,4.290622574192999,2.436787938178517,-3.229831407783584,-0.5373425330596425,4.0814805372796465
260,1791341643.4711733,3.7588187902113974,-1.1780678423713236,-1.4930833524816167,4.212583582118395,2.5030603937629654,-3.2363562230519363,-0.5646108102513137,4.130145070619729
261,1791341643.4911733,3.9791605870863975,-1.6187514361213236,-1.7948558134191168,4.6557043055515255,2.5605159490447185,-3.2450654443940046,-0.588407448500303,4.175274241192196
262,1791341643.516459,4.707246524586397,-2.0306947954963235,-2.072678079044117,5.5297274449141325,2.6387333808738473,-3.261345674140251,-0.6213148704920884,4.240910471805065
263,1791341643.536459,5.018599063648898,-2.1408656939338235,-2.120578469669117,5.853759093705904,2.7059089325396117,-3.2785484608343993,-0.6497289214617732,4.300345431778841
264,1791341643.5460544,4.985068790211398,-2.0881752642463236,-2.235539407169117,5.848848024898235,2.740502619367261,-3.2886072856731956,-0.6644512033722455,4.332065083514381
265,1791341643.5660543,4.7838871495863975,-2.3564174517463234,-2.326550149356617,5.8181711099231,2.8164450397307332,-3.3130952038551076,-0.6973775280027236,4.404009299285681
266,1791341643.5910482,4.807837344898897,-2.792311006433824,-2.393610696231617,6.0532365604501495,2.9150943315638567,-3.3487587985370624,-0.7412013810760459,4.501259816985035
267,1791341643.6110482,5.095239688648897,-2.993492647058824,-2.542101907169117,6.433097840015416,2.9970467687278792,-3.3816946391507363,-0.7784124118047913,4.585201614897081
268,1791341643.6366642,5.430542423023898,-3.070133272058824,-2.575632180606617,6.749102936408756,3.1064886690111555,-3.4292005736365745,-0.8287554096263825,4.700693986414039
269,1791341643.6566641,5.478442813648898,-2.902481904871324,-2.4606712431066167,6.670280341723171,3.195483126505461,-3.469686748375356,-0.8697199319980643,4.79648322250244
270,1791341643.6665776,5.420962344898897,-2.7444106158088237,-2.398400735294117,6.532300395728543,3.241082229605573,-3.4909429678211117,-0.8905919385838398,4.846075817062216
271,1791341643.6865776,5.511973087086398,-2.835421357996324,-2.4606712431066167,6.669060245401771,3.33567684097768,-3.53576375014619,-0.9336727178781692,4.949758582839438
272,1791341643.7112825,5.545503360523898,-2.849791475183824,-2.489411477481617,6.713500463828796,3.455485527898356,-3.593357768609226,-0.988077701086558,5.082213870954641
273,1791341643.7312825,5.397012149586398,-2.936012178308824,-2.431931008731617,6.607737592034909,3.554342161252008,-3.6416681204921324,-1.0328969202657663,5.192491785930605
274,1791341643.7560456,5.310791446461398,-3.0174428423713238,-2.4175608915441167,6.569175576821574,3.6782690374857783,-3.7035684855544413,-1.0890727850497508,5.332181745819866
275,1791341643.7760456,5.234150821461397,-3.252154756433824,-2.326550149356617,6.586780775088196,3.7791627899659854,-3.755467750131672,-1.1347539269577605,5.447318229192103
276,1791341643.7860675,5.373061954273897,-3.175514131433824,-2.087048196231617,6.580991941705687,3.8301095414905975,-3.7824046401320874,-1.1575284533909722,5.506014537024013
277,1791341643.8060675,5.626934024586397,-2.672560029871324,-2.139738625919117,6.586611041921643,3.933029439281601,-3.8368692316817623,-1.2025005851302457,5.624614984914126
278,1791341643.8318112,5.598193790211398,-2.3947377642463237,-2.3648704618566168,6.532010025530493,4.067308296760089,-3.906243279313809,-1.2604024168531016,5.77843816186406
279,1791341643.8518112,4.980278751148897,-2.3420473345588237,-2.4846214384191168,6.038352908592805,4.171847640908347,-3.9591599161066275,-1.3059123840574898,5.8978527563082395
280,1791341643.8758934,4.429424258961397,-2.4617983111213237,-2.470251321231617,5.637587407797956,4.295838475201302,-4.021996297256514,-1.3614408645892708,6.0402155299242875
281,1791341643.8958933,4.434214298023897,-3.007862764246324,-2.5612620634191168,5.938817913259259,4.396660956400666,-4.074557948485044,-1.4081865355175325,6.157567649641662
282,1791341643.9065406,4.932378360523898,-3.534767061121324,-2.8103440946691167,6.687373804281788,4.449763859800945,-4.103567249365084,-1.4336289262027542,6.220526864832077
283,1791341643.9265406,4.448584415211397,-3.826959443933824,-2.6139524931066167,6.424038412166782,4.548621927461996,-4.160927466676178,-1.482387901890608,6.340406352403603
284,1791341643.9510264,3.9312601964613973,-3.347955537683824,-2.633112649356617,5.796282881191299,4.666887495577051,-4.233795576820242,-1.5427647670733844,6.487294274903759
285,1791341643.9710264,4.142021915211397,-2.892901826746324,-2.695383157169117,5.7262829906698345,4.761106652771286,-4.293747618823868,-1.592675864771725,6.6061351472282945
