imu_index,t_imu,ax,ay,az,mag,vx,vy,vz,velocity
0,1790598132.4227886,-0.01676513671875,0.02682421875000011,0.029267138671875612,0.04309494084907223,0.0,0.0,0.0,0.0
1,1790598132.4427886,-0.026345214843750003,-0.0019160156249998911,-0.00426313476562439,0.0267566025322436,-8.604099460499127e-05,7.156311534578026e-05,7.482153631057269e-05,0.00013462018617757123
2,1790598132.4674513,-0.055085449218750006,0.01724414062500011,0.00052690429687561,0.05772386620510039,-0.0003268490440804089,0.00017492573155072883,0.0001463360890821215,0.0003985518286781348
3,1790598132.4874513,-0.06945556640625,0.05077441406250011,0.01489702148437561,0.08731573785583652,-0.0006796490056279762,0.0003482011578549828,0.00021876682636964208,0.0007943712869323088
4,1790598132.5130038,-0.03113525390625,0.02682421875000011,-0.009053173828124391,0.042082094811412965,-0.0012555597872295704,0.0006850882790970807,0.0003086247322342644,0.0014632243692649584
5,1790598132.5330038,-0.00239501953125,0.02682421875000011,-0.023423291015624393,0.03569209145042578,-0.0016890062952250602,0.0009896905165882623,0.0003196921877728133,0.001983540440439164
6,1790598132.557617,-0.03113525390625,0.01724414062500011,0.00531694335937561,0.03598658511707166,-0.002204313550675855,0.0013896721500127232,0.00029784534718116693,0.0026227654803759426
7,1790598132.577617,-0.026345214843750003,0.03640429687500011,0.01968706054687561,0.049060406939841365,-0.002646450331463314,0.0017464069507242724,0.000320261982653051,0.0031868800309979035
8,1790598132.58778,-0.00718505859375,0.02682421875000011,-0.023423291015624393,0.03632924910517844,-0.0028629806258573796,0.0019486863924092655,0.0003270965511837161,0.0034786533132509815
9,1790598132.60778,-0.04071533203125,-0.030656249999999892,-0.023423291015624393,0.056090948364955075,-0.003297026025253948,0.0022812955250702503,0.0002682590749752101,0.004018289787361527
10,1790598132.632521,-0.02155517578125,-0.016286132812499892,-0.01384321289062439,0.030356189946732802,-0.0038689680230270833,0.0025439260583856455,0.0001372414055748072,0.00463241929850308
11,1790598132.652521,-0.026345214843750003,0.01724414062500011,0.02447709960937561,0.039881814606978705,-0.004333811163250608,0.0027258216860744536,6.316739671356148e-05,0.005120157534978483
12,1790598132.662797,-0.01676513671875,0.03640429687500011,0.04842729492187561,0.06286131985260762,-0.004570049269666085,0.0028466088207682134,8.700462450449126e-05,0.0053848028664321675
13,1790598132.682797,0.00239501953125,0.02203417968750011,0.00531694335937561,0.02279278569510361,-0.0049824192395250275,0.0031340877355997172,0.00020705544802272682,0.0058898114886116355
14,1790598132.7079573,-0.011975097656250001,0.01724414062500011,-0.00426313476562439,0.02142283052729911,-0.005441450180348316,0.0035156121638020583,0.00033741607276655076,0.006487122517545581
15,1790598132.7279572,-0.055085449218750006,0.01724414062500011,0.00052690429687561,0.05772386620510039,-0.005852192795913645,0.003825127862945501,0.00041989205707574365,0.007004004071102534
16,1790598132.7519603,-0.03592529296875,0.02682421875000011,-0.01384321289062439,0.04692334098903791,-0.006435043547450958,0.004220207077879246,0.000480055877721376,0.00771040769891626
17,1790598132.7719603,-0.03113525390625,0.03161425781250011,-0.00426313476562439,0.0445762229318698,-0.006948434397204465,0.004587676906376098,0.0004955070035364655,0.008341045927226658
18,1790598132.7978256,-0.03592529296875,0.04119433593750011,0.00052690429687561,0.05466148201759807,-0.007642883817436876,0.005132869333687542,0.000505244161952582,0.009220373761769943
19,1790598132.8178256,-0.026345214843750003,0.04119433593750011,0.00531694335937561,0.04918651792088729,-0.008192716494748233,0.0056147800432318285,0.0005204096741740276,0.009945711876289606
20,1790598132.8272994,-0.01676513671875,0.02682421875000011,0.01010698242187561,0.0332078245963559,-0.008444730841836131,0.0058571446502999015,0.0005374751090512797,0.01029118564298812
21,1790598132.8472993,-0.02155517578125,0.04119433593750011,0.029267138671875612,0.05493782232971195,-0.008954431010948753,0.006394076447196014,0.0006271588035633768,0.011020860969421335
22,1790598132.8729432,-0.02155517578125,0.02682421875000011,0.03884721679687561,0.05189672983312049,-0.00959284825969057,0.007110078077635548,0.0008559052485025604,0.011971153737127272
23,1790598132.8929431,-0.01676513671875,0.002874023437500109,0.01489702148437561,0.022610861748806214,-0.010073552691629606,0.007629282196211002,0.0010881637187277237,0.012683316243759579
24,1790598132.9180117,-0.011975097656250001,-0.0019160156249998911,-0.00426313476562439,0.012854897812967761,-0.010639737167751764,0.008184250295101718,0.001355608140361379,0.013491613443985303
25,1790598132.9380116,0.00718505859375,0.002874023437500109,-0.03300336914062439,0.03389848746400404,-0.011030874935451136,0.008562033739916855,0.0014810733751861433,0.014042158023171651
26,1790598132.946996,-0.026345214843750003,0.02682421875000011,0.01010698242187561,0.03893276448426577,-0.011193135325078601,0.008726295812347755,0.0015135521547260454,0.014273239195613456
27,1790598132.966996,-0.03592529296875,0.002874023437500109,0.00531694335937561,0.03643016020135825,-0.011593567210802722,0.009081656894702203,0.0015981437882688191,0.014813553125178115
28,1790598132.993046,-0.03113525390625,0.02682421875000011,-0.05695356445312439,0.07023283599051591,-0.01216791733025859,0.009533110922289222,0.0015909123162048538,0.015539286277385126
29,1790598133.013046,-0.055085449218750006,-0.021076171874999893,-0.03300336914062439,0.06758575375897158,-0.012672062414766438,0.009836346589058102,0.0014512578706255429,0.016107173230299095
30,1790598133.0369658,-0.055085449218750006,0.02203417968750011,0.08195756835937561,0.10117783750166957,-0.01338221806754647,0.010146332605391556,0.0013971092649498072,0.016851817114032764
31,1790598133.0569658,-0.04071533203125,0.07951464843750011,0.11548784179687561,0.1460060244697264,-0.01403063168748146,0.010518964930348871,0.0016547933052840026,0.017613789757995893
32,1790598133.0676656,-0.02155517578125,0.08909472656250012,0.03405717773437561,0.09778745962258198,-0.014375462055443544,0.010823721515833057,0.0018919795483641414,0.0180938233486246
33,1790598133.0876656,0.00718505859375,0.01724414062500011,-0.0713236816406244,0.07372959389324983,-0.01494489087281527,0.011467433267384,0.0022129262830217445,0.01896704593963833
34,1790598133.112966,-0.02155517578125,-0.040236328124999894,-0.0665336425781244,0.08068651249531641,-0.015584449799426414,0.012115970200412352,0.0022964419755106716,0.019873234643484925
35,1790598133.132966,-0.03592529296875,-0.02586621093749989,-0.009053173828124391,0.0451845936079544,-0.016100404622816953,0.012452583215769098,0.0022391779540658317,0.02047690835243578
36,1790598133.1578052,-0.01676513671875,0.04119433593750011,0.02447709960937561,0.0507658500157073,-0.016743239253887505,0.01283648927277457,0.0022074601117147616,0.02121283568285456
37,1790598133.1778052,0.01676513671875,0.055564453125000114,0.053217333984375614,0.07874365305650541,-0.01718319684757061,0.013244373562286011,0.002302293882085321,0.021816879751220812
38,1790598133.187524,0.011975097656250001,0.02682421875000011,0.029267138671875612,0.04146693962017668,-0.01734397359162098,0.01347290608055015,0.0024015896405929294,0.02209299099271021
39,1790598133.207524,-0.01676513671875,-0.011496093749999891,-0.018633251953124392,0.027575860078260118,-0.01763238424091669,0.013895640101756484,0.0025912254568928716,0.022598766276620497
40,1790598133.2326016,-0.045505371093750004,0.007664062500000109,-0.00426313476562439,0.04634275531745692,-0.018056891329005776,0.014338981916025843,0.002750275023384945,0.023221148540929132
41,1790598133.2526016,-0.03113525390625,0.060354492187500115,0.029267138671875612,0.07395021412448016,-0.018459623672730695,0.014741549145893098,0.0028956000055266233,0.02380032513961998
42,1790598133.2779956,-0.02155517578125,0.055564453125000114,0.01489702148437561,0.06143252642653458,-0.018994621730946973,0.015396790699205812,0.0031365539142726457,0.024651466264586627
43,1790598133.2979956,-0.00239501953125,-0.011496093749999891,-0.023423291015624393,0.026202039082225757,-0.019388701341779387,0.015901544513130673,0.0032850710722685445,0.025289771639412834
44,1790598133.3075533,0.00239501953125,-0.016286132812499892,-0.00426313476562439,0.017004368808377746,-0.019548777920984407,0.01608666224438833,0.0033255528438146417,0.02553418731986589
45,1790598133.3275533,-0.026345214843750003,0.03640429687500011,0.058007373046875615,0.07337709795246661,-0.019869425698518545,0.016446101787177717,0.003478172611800601,0.02602625647880692
46,1790598133.3523169,-0.03113525390625,0.05077441406250011,0.04363725585937561,0.07383532527275462,-0.020313649201396302,0.016986309431491018,0.003827579193767059,0.026754988590248135
47,1790598133.3723168,-0.01676513671875,0.03161425781250011,-0.01384321289062439,0.03836881089333826,-0.02069045526584391,0.017480740141552598,0.004112134776231555,0.027396730962329596
48,1790598133.3979285,-0.01676513671875,0.03161425781250011,-0.06174360351562439,0.07136388219070083,-0.021165014439896854,0.018140379785552364,0.00427667963391963,0.02820143974509639
49,1790598133.4179285,-0.026345214843750003,-0.0019160156249998911,-0.03779340820312439,0.04610946935984602,-0.021544673344996337,0.018622769574909555,0.004236592568051612,0.02879113080048164
50,1790598133.4428358,-0.02155517578125,0.007664062500000109,0.03405717773437561,0.041027488494853596,-0.022036046755782236,0.019144147400448595,0.0041871783968616275,0.02948928956825288
51,1790598133.4628358,-0.00239501953125,0.01724414062500011,0.04363725585937561,0.04698198168858418,-0.022407348513227458,0.01953736504509157,0.004269993341715191,0.03003382665323709
52,1790598133.4722521,0.011975097656250001,0.04119433593750011,0.01010698242187561,0.04407411225293642,-0.02254917588891219,0.019735999494105615,0.004341091019633736,0.030279036981733426
53,1790598133.492252,-0.00239501953125,0.002874023437500109,0.01010698242187561,0.010777162100964775,-0.02279085671722265,0.020160710704942183,0.004499769574098861,0.030759150382501287
54,1790598133.5171962,-0.03113525390625,-0.016286132812499892,0.00531694335937561,0.03553747380554575,-0.023109796933513397,0.020585865750936218,0.004696843653389079,0.031303369200905116
55,1790598133.5371962,-0.050295410156250005,0.002874023437500109,0.00052690429687561,0.050380213592667325,-0.023449308269436142,0.02085550103274444,0.004839920158731426,0.03175290236788986
56,1790598133.5628068,-0.03113525390625,0.03161425781250011,0.00052690429687561,0.04437502632089299,-0.02397526327034078,0.02121523208693529,0.004997676677034,0.03240179151764374
57,1790598133.5828068,-0.02155517578125,0.04119433593750011,0.03405717773437561,0.057632371732586625,-0.024403419777367263,0.021563228881171452,0.005154269130393467,0.03297068738865954
58,1790598133.5923507,-0.00718505859375,0.06514453125000011,0.03405717773437561,0.0738601812481442,-0.024597658922839855,0.021780498462665786,0.0052665412508360425,0.03327418510667553
59,1790598133.6123507,-0.00239501953125,0.04598437500000011,0.00531694335937561,0.046352656335775545,-0.02495801586653145,0.022334201273268177,0.005525586144103797,0.03394482589062435
60,1790598133.6374288,-0.026345214843750003,0.02203417968750011,-0.00426313476562439,0.0346085211717326,-0.025396147156120614,0.02305228096345245,0.005803663042042061,0.034785836955560666
61,1790598133.6574287,-0.04071533203125,0.02203417968750011,0.00531694335937561,0.046599498104623216,-0.025793739536201288,0.023605157294655323,0.005993747293486827,0.03547457479357566
62,1790598133.6830475,-0.04071533203125,0.03161425781250011,0.01489702148437561,0.05365743945210305,-0.026383099633423918,0.02431020947785411,0.006239550267157158,0.036414093681714804
63,1790598133.7030475,-0.02155517578125,0.01245410156250011,0.00531694335937561,0.025455846781760428,-0.02686758979833759,0.024844166795749894,0.00643297983777224,0.03715485479637836
64,1790598133.7128115,-0.01676513671875,-0.030656249999999892,0.00052690429687561,0.03494500109313117,-0.027096699807837684,0.025052412905025894,0.006517526452485479,0.037474427065651406
65,1790598133.7328115,-0.03113525390625,-0.02586621093749989,-0.009053173828124391,0.041478004537732184,-0.027567452821245755,0.02533020573953019,0.006651940823810911,0.038024098866140416
66,1790598133.7580624,-0.01676513671875,-0.02586621093749989,-0.047373486328124395,0.056518827697879644,-0.028163363011289515,0.025530351411913788,0.006689327745826984,0.03859690356767716
67,1790598133.7780623,-0.03113525390625,-0.02586621093749989,-0.03779340820312439,0.05537875592389093,-0.028636405520695414,0.025587499401047088,0.0065867479860568755,0.03896343280277193
68,1790598133.8030043,-0.026345214843750003,-0.021076171874999893,0.04363725585937561,0.0551587297261684,-0.029245371531136002,0.025560265645075787,0.006488941849195233,0.03937924963941363
69,1790598133.8230042,-0.01676513671875,0.04598437500000011,0.08674760742187561,0.09960311213390304,-0.029725097737619412,0.025579065855273565,0.006617855979822146,0.03977016549260408
70,1790598133.8330424,-0.00718505859375,0.055564453125000114,0.058007373046875615,0.08064669147507136,-0.029947790281884327,0.025663538506396723,0.006781833766235952,0.04001850347863961
71,1790598133.8530424,-0.01676513671875,0.02203417968750011,-0.00426313476562439,0.02801337540763871,-0.030360854194677874,0.02592299412886026,0.007140152930239071,0.04055570090508379
72,1790598133.8775961,-0.026345214843750003,-0.02586621093749989,-0.03300336914062439,0.049521243805652766,-0.030871290593509678,0.026186688719541083,0.007445444540802077,0.04116082960064361
73,1790598133.8975961,-0.011975097656250001,-0.021076171874999893,-0.01384321289062439,0.02791491586798015,-0.031282175330258184,0.026298846064519606,0.007586545583595199,0.04156632617408327
74,1790598133.9223373,-0.01676513671875,0.002874023437500109,0.01968706054687561,0.026017497437186878,-0.03176755101157005,0.026383003920219188,0.007745757222865085,0.042014722991858135
75,1790598133.9423373,-0.01676513671875,0.04119433593750011,0.03405717773437561,0.056017269460058854,-0.032151354359943526,0.02650693236086319,0.007935769905479227,0.04241819767923604
76,1790598133.9526093,0.00718505859375,0.03640429687500011,0.01010698242187561,0.03845840599446194,-0.032326288645528604,0.02662081688817132,0.008052746287085346,0.04264391576944765
77,1790598133.9726093,-0.01676513671875,-0.021076171874999893,-0.009053173828124391,0.02841187755966072,-0.03263017125617215,0.026832285514590618,0.008247920412155689,0.043043324839850454
78,1790598133.9971747,-0.03113525390625,-0.006706054687499892,-0.02821333007812439,0.04254841006871577,-0.03303568685032862,0.027001879498792312,0.008383028478197356,0.04348256281093082
79,1790598134.0171747,-0.03113525390625,0.01724414062500011,-0.00426313476562439,0.0358460421766659,-0.033409720648961784,0.02713505039012584,0.00842781238558618,0.043858276472325854
80,1790598134.042483,0.00239501953125,0.04598437500000011,-0.1335941894531244,0.1413071347042781,-0.0338665865748541,0.027398305706089806,0.008214311441080487,0.04432931032903069
81,1790598134.062483,0.00239501953125,-0.011496093749999891,0.04842729492187561,0.04983070522794329,-0.03416628470650689,0.027626870328157523,0.007943149673450866,0.044650561043616914
82,1790598134.073071,0.00239501953125,0.002874023437500109,0.053217333984375614,0.05334867163931028,-0.03429734136931706,0.027722874805938942,0.007901845743504804,0.04480295278955815
83,1790598134.093071,-0.011975097656250001,0.08909472656250012,0.02447709960937561,0.09316867322448401,-0.034522136078938975,0.028014972609655953,0.007952069683902484,0.04516472054635337
84,1790598134.1172955,-0.09340576171875001,0.01724414062500011,0.19212846679687562,0.21432532389307807,-0.034945031967512225,0.02850890047830505,0.008397314829976396,0.04587404017574749
85,1790598134.1372955,-0.011975097656250001,-0.0737666015624999,0.06758745117187562,0.10076198700833566,-0.035399877751094905,0.028770739457303306,0.009099346966129981,0.04651564155122997
86,1790598134.1624718,-0.00718505859375,0.07472460937500011,-0.2916654785156244,0.30117128626578954,-0.03592273826789915,0.029052714316603282,0.009427407632126544,0.047152723659280055
87,1790598134.1824718,0.14130615234375002,-0.2653681640624999,-0.09527387695312439,0.3153804096924475,-0.03607461207369565,0.02895714937841213,0.009068518158416555,0.047139496793886466
88,1790598134.2079303,0.21794677734375,-0.05939648437499989,0.08195756835937561,0.24030352290804535,-0.03555298302447654,0.028233645659148147,0.00865477711168372,0.04621751308755131
89,1790598134.2279303,-0.06945556640625,0.26632617187500013,0.20170854492187562,0.3412331206446781,-0.0349819281966532,0.028060919694674558,0.008803999953797232,0.04570187008923417
90,1790598134.2374356,-0.36643798828125,0.36212695312500015,0.21607866210937562,0.5586615412342103,-0.03506198314865222,0.028439164157405585,0.009162120743401829,0.046065965493028674
91,1790598134.2574356,-0.35685791015625,0.2806962890625001,-0.02821333007812439,0.4548999524386016,-0.03629010260073147,0.030079880562005647,0.010084410157095066,0.0482023452708752
92,1790598134.2830102,-0.38559814453125,0.21842578125000012,-0.1144340332031244,0.457701757627988,-0.03904908240618941,0.03282058312218768,0.010813257587490212,0.05214353318388788
93,1790598134.3030102,-0.43349853515625003,0.14178515625000013,-0.1527543457031244,0.4809967782081717,-0.04211167312506916,0.03518269664822391,0.010896954288006539,0.055946034440240024
94,1790598134.3273938,-0.31853759765625,0.06993457031250011,-0.09048383789062439,0.3384440428857122,-0.046660738944630686,0.038017744596537055,0.010538863628411733,0.06110352780032227
95,1790598134.3473938,-0.32811767578125,0.13220507812500013,0.08195756835937561,0.36312041371080833,-0.050802287879038836,0.04029752319652121,0.010276416714114563,0.06565338963070402
96,1790598134.3584452,-0.34248779296875004,0.1705253906250001,0.1394380371093756,0.40720972897676433,-0.05330334948128163,0.041619222513232655,0.010336654292785321,0.06841237585772166
97,1790598134.3784451,-0.28021728515625,0.1992656250000001,0.053217333984375614,0.34793763930248245,-0.058084696470036015,0.04420702952572417,0.010718298306020571,0.07377652297364864
98,1790598134.4024444,-0.11735595703125,-0.006706054687499892,-0.01384321289062439,0.11835973286269062,-0.06367712376772612,0.04719310464659774,0.01117843392210286,0.08004325457192414
99,1790598134.4224443,-0.055085449218750006,-0.2126777343749999,0.00531694335937561,0.21976008577810782,-0.06789721423016269,0.0489792330613687,0.011491584286083552,0.08450475419111426
100,1790598134.4481652,-0.18920654296875,-0.006706054687499892,0.01489702148437561,0.18991052714571444,-0.07298160377329035,0.05050851019487665,0.011872894388443345,0.08954546170848993
101,1790598134.4681652,-0.34248779296875004,0.10346484375000012,0.08674760742187561,0.3681412902925142,-0.07713963186870812,0.05166441195542955,0.012277385104971884,0.09365077924158413
102,1790598134.4773266,-0.33290771484375004,0.055564453125000114,0.08195756835937561,0.3473211742248803,-0.07922268522689001,0.05222374795660111,0.0125507978864331,0.09571351123420135
103,1790598134.4973266,-0.28021728515625,-0.016286132812499892,0.1298579589843756,0.30927343004841734,-0.08400767559997106,0.05332056656302762,0.013375864311122662,0.1003956479354648
104,1790598134.522423,-0.19399658203125,-0.02586621093749989,0.058007373046875615,0.20412885645069914,-0.09000392034735433,0.05441109142370443,0.014609485097407053,0.10618243547132918
105,1790598134.542423,-0.28500732421875,-0.0785566406249999,0.00052690429687561,0.2956359218240489,-0.09478420317011074,0.05499316455185517,0.015532924991434792,0.11067775330575604
106,1790598134.5672863,-0.38559814453125,0.002874023437500109,0.07237749023437562,0.39234256736847867,-0.10108598168880525,0.055467106081976775,0.016644661597847995,0.11649901420529538
107,1790598134.5872862,-0.33290771484375004,-0.1264570312499999,0.22565874023437563,0.4215931621827096,-0.10647251494672215,0.055605784337244904,0.017851853855022276,0.12143759046070222
108,1790598134.5978575,-0.23231689453125,-0.2078876953124999,0.1585981933593756,0.3497739559827813,-0.10934070127681564,0.0554030065417407,0.01869887446349933,0.12399407242191743
109,1790598134.6178575,-0.17962646484375,-0.1839374999999999,0.01968706054687561,0.2578492798739009,-0.11457104669511027,0.0544891752288878,0.020328425618228695,0.12848673023333357
110,1790598134.642453,-0.17483642578125,-0.1599873046874999,-0.023423291015624393,0.2381435785469264,-0.1206922419031627,0.052899513322658236,0.022024919172771378,0.13360416471784384
111,1790598134.662453,-0.17004638671875,-0.4282294921874999,-0.07611372070312439,0.4670006103791942,-0.12544042994781487,0.05091844213747395,0.023048200817569416,0.13732883446722666
112,1790598134.6881762,-0.47660888671875,0.01245410156250011,0.17775834960937562,0.5088311767186288,-0.1318788829582346,0.047950529036491614,0.02436298806748351,0.14242488614272267
113,1790598134.7081761,-0.37122802734375004,-0.1791474609374999,0.17775834960937562,0.4488898438389246,-0.13740568766609132,0.0457390521870991,0.025765180374369735,0.14709258450951707
114,1790598134.7179823,-0.35206787109375004,-0.15040722656249988,0.1250679199218756,0.4027606041463008,-0.14024100647836762,0.04457501774215584,0.026572278019104927,0.14953447115599688
115,1790598134.7379823,-0.35206787109375004,-0.1839374999999999,0.1442280761718756,0.4225949925389269,-0.14621252687682829,0.042055527281064466,0.0283754086951752,0.1547641244255716
116,1790598134.7772906,-0.28979736328125,-0.3324287109374999,0.1585981933593756,0.4686627215356376,-0.15808087501446214,0.03632414333619496,0.03228049652204169,0.16538148895857718
117,1790598134.7972906,-0.17483642578125,-0.4952900390624999,0.10590776367187561,0.5358138230584137,-0.16391062591464162,0.03260386824603992,0.03436612011810589,0.17061868515583747
118,1790598134.807685,-0.16525634765625,-0.4138593749999999,0.06758745117187562,0.4507297485988523,-0.16675110249298555,0.03025165057030178,0.03542271701904383,0.17313538467299247
119,1790598134.8276849,-0.09819580078125001,-0.4521796874999999,0.01489702148437561,0.4629587522963298,-0.17179189323675234,0.025105530065330263,0.03727451284615653,0.17757289075094546
120,1790598134.8522778,-0.16525634765625,-0.4234394531249999,0.09153764648437561,0.46366989510575396,-0.17754644733671335,0.018111764444083772,0.0394063216930193,0.18276661391660137
121,1790598134.8722777,-0.26105712890625,-0.34200878906249993,0.22565874023437563,0.48584226184322155,-0.1821637894229995,0.012129107771341966,0.04135574237667583,0.18719257159353764
122,1790598134.8830135,-0.15088623046875002,-0.3851191406249999,0.1346479980468756,0.4349867703722018,-0.18460223233411327,0.00881393231059021,0.042535316433584436,0.1896442003585102
123,1790598134.9030135,-0.26105712890625,-0.2557880859374999,0.06279741210937562,0.3708394321373861,-0.18908140372353469,0.002603015715304205,0.04469933136351184,0.19431053277993315
124,1790598134.9278188,-0.30416748046875003,-0.2749482421874999,0.058007373046875615,0.41410052811425263,-0.1948550079745459,-0.004932078411818815,0.047205438386435254,0.20055212026671823
125,1790598134.9478188,-0.23710693359375,-0.3851191406249999,0.10590776367187561,0.4644920934095082,-0.19962378083987425,-0.011086253954916367,0.04916883759808693,0.2058886434320895
126,1790598134.972829,-0.25626708984375,-0.2605781249999999,0.1442280761718756,0.3929065009919543,-0.20561816315165604,-0.018838961555073957,0.05172501349947119,0.21285960751597535
127,1790598134.992829,-0.28979736328125,-0.2366279296874999,0.11548784179687561,0.3915516957897863,-0.210511748725364,-0.02485442498428035,0.05385206582696797,0.21870753024654202
128,1790598135.002914,-0.22752685546875,-0.4042792968749999,0.07716752929687562,0.4702818808108876,-0.21300046107480744,-0.027917456215200472,0.054909453723590615,0.22172872815183722
129,1790598135.022914,-0.22273681640625,-0.4186494140624999,0.1681782714843756,0.5031530108000333,-0.21787105926539033,-0.0343151763665652,0.057059902744297106,0.22781826593949914
130,1790598135.047939,-0.27063720703125,-0.1791474609374999,0.1585981933593756,0.36123634579993,-0.22397728271804085,-0.042241589063997595,0.05996037542781647,0.23568076213779846
131,1790598135.067939,-0.23231689453125,-0.1599873046874999,0.06279741210937562,0.288981992714857,-0.22887977162357132,-0.048134833825402935,0.06226280753210801,0.2420321658119797
132,1790598135.0930216,-0.14130615234375002,-0.3563789062499999,0.053217333984375614,0.3870470748456134,-0.23480873627442334,-0.05538848273188854,0.06493547177402291,0.2498392325969789
133,1790598135.1130216,-0.33290771484375004,-0.05460644531249989,0.06279741210937562,0.34315146136915897,-0.23953847356154634,-0.06092119580250608,0.06692091958275692,0.2560634333363605
134,1790598135.1222034,-0.30416748046875003,-0.7204218749999999,0.21128862304687562,0.8100422312338212,-0.24182284097610907,-0.06361390253392563,0.0678844333911179,0.25910096740495864
135,1790598135.1422033,-0.53408935546875,0.06993457031250011,-0.03300336914062439,0.5396586941062389,-0.24730973032020723,-0.06957517791996307,0.06993580642030198,0.2662589437245369
136,1790598135.1672883,-0.38080810546875005,-0.045026367187499895,0.03884721679687561,0.38542352443210537,-0.2548806340897755,-0.07588370556963167,0.0721337949834721,0.27554629154409277
137,1790598135.1872883,-0.16046630859375,-0.2557880859374999,0.1394380371093756,0.3325957716120126,-0.2608233156379206,-0.08061019035671506,0.07389079052153386,0.28281911833113654
138,1790598135.212636,-0.09819580078125001,-0.2988984374999999,0.1394380371093756,0.34413029134897133,-0.2677169767213341,-0.08675643415673531,0.0763137296010898,0.2915867689351345
139,1790598135.232636,-0.13172607421875002,-0.4665498046874999,0.19212846679687562,0.5214727477411893,-0.27268524049839993,-0.09202671532662202,0.0784360748144229,0.29829243126799426
140,1790598135.24261,-0.04071533203125,-0.6389912109374999,0.18254838867187562,0.6658013368299027,-0.2749202601105678,-0.09508776412145492,0.07961600455409033,0.3015983098195954
141,1790598135.26261,-0.09340576171875001,-0.4665498046874999,0.06758745117187562,0.4805844568149441,-0.27893087472155237,-0.10196341565930259,0.08200231490780699,0.3080963334025272
142,1790598135.2878327,-0.18920654296875,-0.3324287109374999,0.01489702148437561,0.382792221716768,-0.28376474972361626,-0.11084533600525942,0.08471640243985386,0.3162056143432256
143,1790598135.3078327,-0.28979736328125,-0.2078876953124999,0.01489702148437561,0.356961800303917,-0.28774125429904546,-0.11764216471371666,0.08659037029458753,0.32269583290131126
144,1790598135.3328524,-0.41433837890625,-0.1312470703124999,0.04842729492187561,0.4373182920868093,-0.2932909066021483,-0.12550585444159162,0.08870185409180978,0.3311182482345979
145,1790598135.3528523,-0.36643798828125,-0.1312470703124999,-0.09048383789062439,0.39961220907354744,-0.29823286680687355,-0.13124270043269473,0.09007344953898383,0.33805430861411057
146,1790598135.3622882,-0.58198974609375,0.04119433593750011,0.2543989746093756,0.636496564133618,-0.3008859149691237,-0.13360705325945457,0.09073949611206694,0.3414920711556174
147,1790598135.3822882,-0.24189697265625001,0.24716601562500012,0.03405717773437561,0.347512699070735,-0.30690155432468513,-0.13743420150001548,0.09237214923853228,0.34872530413464436
148,1790598135.408345,-0.26105712890625,0.14178515625000013,0.053217333984375614,0.3018044726673479,-0.31454625717619095,-0.14091232689611016,0.09435072843645269,0.357348137998949
149,1790598135.428345,-0.26105712890625,0.41481738281250014,-0.03779340820312439,0.4915817605849455,-0.3203169931183452,-0.1423466262163466,0.09566473108325296,0.3633418209465921
150,1790598135.4524336,-0.33769775390625,0.34296679687500015,0.02447709960937561,0.4819389226419787,-0.32730662276890177,-0.1424459668653088,0.09698590625995732,0.36990099323689585
151,1790598135.4724336,-0.41433837890625,0.10346484375000012,0.053217333984375614,0.4303642071121572,-0.33336744435806975,-0.14184642739418227,0.09803483643425309,0.37531998491555774
152,1790598135.483185,-0.48139892578125004,0.13220507812500013,-0.052163525390624396,0.501940376744646,-0.3368591556087943,-0.14138243954078,0.09851498285270445,0.3783758538469928
153,1790598135.503185,-0.50055908203125,0.3908671875000001,-0.1048539550781244,0.6436854082264513,-0.34385309878830317,-0.1398641857588831,0.099038652512221,0.3841947405883511
154,1790598135.5275533,-0.52929931640625,0.4579277343750001,0.00052690429687561,0.6998970309167502,-0.35297858937104043,-0.1367405256353877,0.09939032228691692,0.3913697638675079
155,1790598135.5475533,-0.49097900390625004,0.41481738281250014,0.053217333984375614,0.6449542061236521,-0.3608751975449517,-0.13325225835734644,0.09971627303356656,0.39740458938988826
156,1790598135.5726283,-0.45744873046875,0.3669169921875001,0.04842729492187561,0.5884153491003132,-0.37107414234462527,-0.12806471129155791,0.1002547895465988,0.40515134483550974
157,1790598135.5926282,-0.40954833984375,0.3094365234375001,0.01010698242187561,0.513403307156795,-0.37928918032359754,-0.12353319849968007,0.10070768707159707,0.4114155705335161
158,1790598135.6181078,-0.36643798828125,0.3190166015625001,0.00531694335937561,0.48587720795977174,-0.3896679820953882,-0.11742515134140437,0.10122759631375536,0.41937671453396663
159,1790598135.6381078,-0.39038818359375,0.30464648437500014,-0.03300336914062439,0.49628785669841546,-0.39772796683517025,-0.11241436264230657,0.10153295066311709,0.42559777325718384
160,1790598135.6471634,-0.37601806640625,0.14178515625000013,-0.03779340820312439,0.4036346844615066,-0.4013504856221909,-0.11018268708835462,0.10160238742984673,0.42842208390163944
161,1790598135.6671634,-0.25626708984375,0.07951464843750011,0.07237749023437562,0.27790988061915145,-0.40909941846341724,-0.105661243063832,0.10178461621580552,0.43461102214635466
162,1790598135.6923585,-0.32332763671875003,0.21363574218750012,0.06758745117187562,0.39338156357669674,-0.41849214888039493,-0.1002657623205744,0.10224422818169615,0.44231525404933447
163,1790598135.7123585,-0.39517822265625,0.09867480468750012,-0.03300336914062439,0.40864626159614054,-0.42590749319103044,-0.096156787247713,0.10260621968323005,0.4485213002832227
164,1790598135.7378705,-0.43828857421875,-0.045026367187499895,0.04363725585937561,0.44275101144067974,-0.43554240991831156,-0.09159893832905233,0.10301905951911627,0.45683747981603184
165,1790598135.7578704,-0.42391845703125003,0.10825488281250012,0.11069780273437561,0.451309186029625,-0.443255974648798,-0.08846695946334208,0.10352565893872337,0.4637023010911649
166,1790598135.767112,-0.46702880859375,0.2711162109375001,0.09153764648437561,0.5477216890114022,-0.44690314478604753,-0.08697387059819492,0.10386480790526681,0.46698476774696673
167,1790598135.787112,-0.41912841796875,0.26632617187500013,0.06279741210937562,0.5005414823390905,-0.4549413865563478,-0.08342115537907725,0.10472017830489429,0.4742331389841934
168,1790598135.8126824,-0.37601806640625,0.1896855468750001,0.00052690429687561,0.42115373747041707,-0.46520180288404944,-0.07868573806922426,0.10577118793394479,0.48352012055241966
169,1790598135.8326824,-0.46223876953125004,0.22321582031250012,-0.023423291015624393,0.5138468965144668,-0.4732806274185935,-0.07491813547636489,0.1064355869267708,0.49085212995100536
170,1790598135.8578544,-0.48139892578125004,0.2567460937500001,0.06279741210937562,0.549187579399662,-0.48370493453817687,-0.06998139355367948,0.10722070254348545,0.5003640056940702
171,1790598135.8778543,-0.48618896484375,0.3908671875000001,0.1250679199218756,0.6362380469553689,-0.49219640263029846,-0.0656759308280545,0.10803273050162378,0.5081748690283442
172,1790598135.8868923,-0.32811767578125,0.39565722656250013,0.06758745117187562,0.5184340976895035,-0.4960100717361309,-0.06348899775896724,0.10847523296598484,0.51168713123074
173,1790598135.9068923,-0.26584716796875,0.24716601562500012,-0.047373486328124395,0.36607376743468467,-0.5040743438252934,-0.05841124932442065,0.10933787944797727,0.5190930456408756
174,1790598135.9324338,-0.51971923828125,0.34296679687500015,-0.06174360351562439,0.6257368320415819,-0.5143330888943056,-0.05176880109818611,0.11006527014927747,0.5285195349196987
175,1790598135.9524338,-0.72090087890625,0.4675078125000001,0.04363725585937561,0.8603289150407974,-0.5230220500925566,-0.04613199848118242,0.11052224858006245,0.5365588444877987
176,1790598135.9772923,-0.59156982421875,0.35254687500000015,0.10590776367187561,0.6967500343770687,-0.5346487690343121,-0.03864789624189602,0.1112838495600961,0.5474733429919156
177,1790598135.9972923,-0.39038818359375,0.27590625000000013,0.01968706054687561,0.47845038722072986,-0.5440728776576707,-0.032587058833190755,0.1119930782510669,0.5564347780128828
178,1790598136.0078359,-0.34727783203125,0.28548632812500013,-0.05695356445312439,0.45315344495053383,-0.5488791702684851,-0.029427248956983898,0.11228141640993546,0.5610182020280788
179,1790598136.0278358,-0.40954833984375,0.21842578125000012,-0.07611372070312439,0.47035408264701806,-0.5577638501969938,-0.02357665163149127,0.11254671865461494,0.569493753230576
180,1790598136.0527678,-0.46223876953125004,0.21842578125000012,0.04842729492187561,0.5135364688762496,-0.5688082686822221,-0.016560451538095815,0.11277606413714462,0.5801168293703243
181,1790598136.0727677,-0.43349853515625003,0.2806962890625001,0.10111772460937561,0.5262472621365841,-0.5776825821106553,-0.011027727367953984,0.11315676216509035,0.5887641541981159
182,1790598136.0974545,-0.45744873046875,0.36212695312500015,0.03405717773437561,0.5844272089339253,-0.5886430267227306,-0.004032651047468563,0.11380646476415297,0.5995571587479233
183,1790598136.1174545,-0.37122802734375004,0.2711162109375001,-0.009053173828124391,0.4597784336775718,-0.5974336888063988,0.0017342048578489876,0.11429137289555905,0.6082701191951333
184,1790598136.1271315,-0.38080810546875005,0.12741503906250012,0.04842729492187561,0.4044683031628652,-0.6015948301640461,0.004395182038611124,0.11451937764612753,0.6124135409686141
185,1790598136.1471314,-0.42391845703125003,0.12741503906250012,0.06758745117187562,0.4477828870635465,-0.610112017366985,0.009452107042015205,0.11509394768076679,0.6209449515503681
186,1790598136.1721845,-0.51971923828125,0.22321582031250012,0.01010698242187561,0.565716837447058,-0.6209538045338706,0.015495318195277403,0.11585170977811406,0.6318586478869888
187,1790598136.1921844,-0.5867797851562501,0.22800585937500012,0.07716752929687562,0.6342334079462635,-0.6299703561544121,0.02027283230364919,0.11649680857923253,0.6409720304132428
188,1790598136.2174652,-0.53887939453125,0.30464648437500014,0.053217333984375614,0.6213151912908764,-0.6417923321617786,0.02641588070646169,0.11743713965187652,0.6529829080035457
189,1790598136.2374651,-0.44786865234375,0.24716601562500012,-0.01384321289062439,0.5117313783375803,-0.6512221254517514,0.03137448370099695,0.11812852520314422,0.6625926073931633
190,1790598136.2775698,-0.40475830078125,0.2806962890625001,0.11069780273437561,0.5048501681439773,-0.6698592920670045,0.04141389522674691,0.11959827992421872,0.681711324863532
191,1790598136.2975698,-0.28979736328125,0.24716601562500012,0.1298579589843756,0.40241351935079217,-0.6788012485500293,0.04646130238884724,0.1205821287677519,0.6909919228405708
192,1790598136.292198,-0.27542724609375,0.11304492187500012,0.10111772460937561,0.31442664722108005,-0.6788012485500293,0.04646130238884724,0.1205821287677519,0.6909919228405708
193,1790598136.312198,-0.28979736328125,0.1609453125000001,0.029267138671875612,0.3327799134360821,-0.6868303089041939,0.05097830753040056,0.12178303038134013,0.6994038658435889
194,1790598136.3378954,-0.23710693359375,0.09867480468750012,-0.07611372070312439,0.267861369961442,-0.6966147030561913,0.05641189386188597,0.12300429938118747,0.7096368112981506
195,1790598136.3578954,-0.29458740234375,0.07472460937500011,-0.07611372070312439,0.31330305352032245,-0.703885042243221,0.06026654428343508,0.12358388051753123,0.7171883884847688
196,1790598136.3828683,-0.41912841796875,0.13220507812500013,0.029267138671875612,0.4404581465213958,-0.7129381835840661,0.06474525005039206,0.12411127673382913,0.7265510374562385
197,1790598136.4028683,-0.53887939453125,0.23279589843750012,0.08674760742187561,0.5933886412572364,-0.7205380007980705,0.06834157102261645,0.12464431672289025,0.7344261614452713
198,1790598136.4129252,-0.51971923828125,0.20884570312500012,0.08674760742187561,0.5667889922597634,-0.7245848001886616,0.07021183509491712,0.1250030123473756,0.7386329179963188
199,1790598136.4329252,-0.38080810546875005,0.07472460937500011,0.10111772460937561,0.40102789761701435,-0.7327761698228391,0.07379862456543347,0.12589113765674254,0.7471651293981064
200,1790598136.4576516,-0.30416748046875003,0.1657353515625001,0.02447709960937561,0.34725378520260974,-0.7426545288869378,0.07801381141113078,0.1270573572244395,0.7574730860380651
201,1790598136.4776516,-0.40954833984375,0.26632617187500013,0.00052690429687561,0.4885281467044677,-0.7505167091963059,0.08155994462847782,0.12789666697871177,0.7656924400664513
202,1790598136.5026834,-0.36164794921875004,0.04119433593750011,0.06279741210937562,0.36936394985852905,-0.7603287438085482,0.08590984263286429,0.12890845309670718,0.7759495402424531
203,1790598136.5226834,-0.24668701171875002,0.04119433593750011,-0.018633251953124392,0.2507960389288613,-0.767904944984073,0.08898759504588816,0.12966183899764566,0.7838424517052482
204,1790598136.5319521,-0.36164794921875004,0.1801054687500001,0.00531694335937561,0.40404886948792673,-0.7713122709794213,0.09035382972021887,0.12994935788355474,0.7873838133482874
205,1790598136.5519521,-0.31374755859375003,0.08909472656250012,0.03405717773437561,0.3279257418685153,-0.7785747949597954,0.09326346272839382,0.13053576204503303,0.7949316763090117
206,1790598136.5773153,-0.35206787109375004,0.20405566406250011,0.06279741210937562,0.4117450848038238,-0.7876698816791269,0.0969575072844875,0.13135210969995617,0.8044115721730142
207,1790598136.5973153,-0.35206787109375004,0.14657519531250013,0.03884721679687561,0.38333429273970054,-0.7948221717242177,0.09995942931197008,0.13205174298886171,0.8118939801471451
208,1790598136.6219103,-0.37122802734375004,0.1992656250000001,0.03884721679687561,0.42311481165876974,-0.8036325958842776,0.10373525390732881,0.1329263795018668,0.8211307900927811
209,1790598136.6419103,-0.30416748046875003,0.1705253906250001,0.04363725585937561,0.3514270551927568,-0.8107354191284406,0.10689977519201074,0.13365465145245115,0.828603070004177
210,1790598136.6521473,-0.31374755859375003,0.1801054687500001,0.00531694335937561,0.36180627452254427,-0.8143000773846963,0.10854577484770303,0.13400908791982147,0.8323612418362073
211,1790598136.6721473,-0.34727783203125,0.11304492187500012,0.01010698242187561,0.3653535247889721,-0.8212112452423975,0.11171892056182711,0.1346208168152052,0.8396378926918806
212,1790598136.6976864,-0.23231689453125,0.03161425781250011,0.01968706054687561,0.2352831934810804,-0.8298229099271426,0.11544018709289479,0.13534186534512183,0.8486753909187482
213,1790598136.7176864,-0.28021728515625,0.10825488281250012,-0.00426313476562439,0.3004313912877899,-0.8363240118122947,0.11812702866040796,0.1358449627072019,0.8554798077844206
214,1790598136.7421224,-0.27063720703125,0.11304492187500012,0.04842729492187561,0.29726899448958827,-0.8440851576698503,0.121322972655519,0.13644838449138633,0.8636070742663107
215,1790598136.7621224,-0.25147705078125,0.09388476562500012,0.06758745117187562,0.2768088146031612,-0.850267713229437,0.12385676690517242,0.13704220353916788,0.8701012862991808
216,1790598136.7727776,-0.15088623046875002,0.09388476562500012,-0.052163525390624396,0.18520809146122172,-0.8533889957118118,0.1251542364372388,0.13732343732095878,0.8733808375146813
217,1790598136.7927775,-0.31374755859375003,0.1848955078125001,-0.023423291015624393,0.36492811606504577,-0.8590658548168892,0.12764247871799952,0.137658756953116,0.8793387735403373
218,1790598136.8172293,-0.28500732421875,0.055564453125000114,0.07716752929687562,0.3004520109554872,-0.8660632892606273,0.13066923387128476,0.1381057814710236,0.8866866845516332
219,1790598136.8372293,-0.28979736328125,0.060354492187500115,0.053217333984375614,0.3007611363331047,-0.8717904379205701,0.13294745332909144,0.1386121508521211,0.8926964329268273
220,1790598136.8622456,-0.22752685546875,0.007664062500000109,0.03884721679687561,0.23094656106200157,-0.8788501242098767,0.13549726079040347,0.1393232534245778,0.9000822281604206
221,1790598136.8822455,-0.23231689453125,0.02203417968750011,-0.023423291015624393,0.23453207695568556,-0.8843373418337473,0.1372745452439868,0.13982962335933014,0.905786486155724
222,1790598136.89219,-0.20357666015625,0.03640429687500011,-0.02821333007812439,0.2087216361219738,-0.886981558082807,0.13806928041045585,0.14000512277954322,0.9085157373301687
223,1790598136.91219,-0.20836669921875,0.04598437500000011,0.06279741210937562,0.22242922257449094,-0.8921197510180348,0.13955146030468418,0.14035701450186797,0.913811989278718
224,1790598136.936959,-0.21794677734375,0.10825488281250012,0.1490181152343756,0.2853529675249233,-0.8983206108130456,0.14139825809498188,0.1411209316128399,0.9202654533030642
225,1790598136.956959,-0.24668701171875002,0.10825488281250012,0.1585981933593756,0.3126131608559255,-0.9032734543919253,0.1429905522734457,0.14210666194487093,0.9254963721256289
226,1790598136.9827335,-0.28500732421875,0.05077441406250011,0.07237749023437562,0.29840528995704657,-0.9097266913008736,0.14504219472209062,0.14363294295647686,0.9323466701916054
227,1790598137.0027335,-0.23710693359375,-0.0785566406249999,0.00531694335937561,0.2498381748876724,-0.9147662010582571,0.14635371612607617,0.14475616837634778,0.9376411686276735
228,1790598137.0276902,-0.24668701171875002,-0.1025068359374999,-0.01384321289062439,0.26749536016121733,-0.9210169546398462,0.14740588953659226,0.14593157058929623,0.9440851393273751
229,1790598137.0476902,-0.24189697265625001,-0.06418652343749989,0.029267138671875612,0.25197345212797734,-0.9260077124092049,0.14787256823791026,0.14675536583847582,0.9491542115383511
230,1790598137.0571952,-0.16046630859375,-0.06418652343749989,0.08195756835937561,0.19127568846060666,-0.9283106361562652,0.14796957551861406,0.14716743930924378,0.9514798409177404
231,1790598137.0771952,-0.12693603515625002,-0.06418652343749989,0.11069780273437561,0.18024059016325986,-0.9328605744434657,0.14795051601497056,0.1481934255240438,0.9560750482617142
232,1790598137.1026227,-0.13651611328125002,-0.11208691406249989,0.08674760742187561,0.196787379887261,-0.9382799919917908,0.14759375340219133,0.14967872322520903,0.9615388601620792
233,1790598137.1226227,-0.17004638671875,-0.15519726562499989,0.04842729492187561,0.23525978786658328,-0.9423630668846692,0.14695430860515524,0.1508745030834169,0.9656121552292964
234,1790598137.1472034,-0.15088623046875002,-0.1791474609374999,0.01968706054687561,0.23504903245577963,-0.947220236116011,0.14566990998803936,0.15224928462404438,0.9703740222471583
235,1790598137.1672034,-0.15088623046875002,-0.0929267578124999,0.01010698242187561,0.17749419133111896,-0.9510321046825139,0.14437351106343527,0.15324477231383202,0.9740583838123638
236,1790598137.1774473,-0.12693603515625002,-0.11208691406249989,0.01489702148437561,0.1699945721908465,-0.9529051107052767,0.1436515928851552,0.15369738403662755,0.9758518412168831
237,1790598137.1974473,-0.06466552734375,-0.1983076171874999,0.029267138671875612,0.21062788720221282,-0.956300810865095,0.1419879611269193,0.1545147501441334,0.9790539464086346
238,1790598137.221995,-0.08382568359375,-0.2030976562499999,0.07237749023437562,0.2313307249304116,-0.9601168727230329,0.1395133004629631,0.15555463094677002,0.9825912748963892
239,1790598137.241995,-0.06945556640625,-0.1791474609374999,0.11548784179687561,0.2241770061091597,-0.9629895138576207,0.13722616815311223,0.15655657246700858,0.9852359034304122
240,1790598137.2679982,-0.08382568359375,-0.1983076171874999,0.1250679199218756,0.24898723031137196,-0.9664631008676625,0.13396245524724842,0.15813299192693842,0.9884345744106555
241,1790598137.2879982,-0.01676513671875,-0.2509980468749999,0.029267138671875612,0.25325413076651254,-0.9688849035813446,0.1311547895343757,0.15939510534611462,0.99062926204203
242,1790598137.2972667,-0.10777587890625001,-0.2126777343749999,0.058007373046875615,0.24538197590837244,-0.9699254554549349,0.129726495515012,0.15995293562060703,0.9915489369626289
243,1790598137.3172667,-0.12693603515625002,-0.2653681640624999,0.08674760742187561,0.3066890394398053,-0.972186065094394,0.1263897028163611,0.1611932197259126,0.9935307525322685
244,1790598137.3426692,-0.045505371093750004,-0.2845283203124999,0.029267138671875612,0.2896267758068498,-0.9749551739358181,0.12173961281250358,0.1627532721394839,0.9959150325725927
245,1790598137.3626692,-0.050295410156250005,-0.2749482421874999,0.053217333984375614,0.2845316305811818,-0.9769520280184494,0.11778844869537607,0.16392102265675976,0.9975868309897953
246,1790598137.3878171,-0.00718505859375,-0.2653681640624999,0.03884721679687561,0.2682927390328723,-0.9791946540506807,0.11254640693924169,0.16534274205977822,0.9994133712274477
247,1790598137.4078171,0.00718505859375,-0.2941083984374999,0.06279741210937562,0.3008236860124242,-0.9807106686531456,0.10816357406022545,0.1664562907967672,1.0006000555213854
248,1790598137.4178746,-0.045505371093750004,-0.3324287109374999,0.1442280761718756,0.3652140805201631,-0.9813875823189915,0.10581756479565474,0.1670884294282023,1.0011181184046074
249,1790598137.4378746,-0.026345214843750003,-0.3324287109374999,0.07716752929687562,0.34228313685969897,-0.982639536997238,0.1008548488062143,0.1684890187280001,1.00206821605607
250,1790598137.4630024,-0.05987548828125,-0.2988984374999999,0.01010698242187561,0.3050041001864328,-0.9841390355885848,0.09436519069064617,0.1701492356180347,1.0031875163521091
251,1790598137.4830024,-0.12693603515625002,-0.2318378906249999,0.07237749023437562,0.2740439118887068,-0.9854337211531838,0.08917858330870716,0.1713961628744493,1.0041957394626027
252,1790598137.50773,-0.14130615234375002,-0.2030976562499999,0.1681782714843756,0.29916553555500097,-0.9872918099194796,0.08292123902286787,0.17315271494379342,1.005784724733666
253,1790598137.52773,-0.11735595703125,-0.1887275390624999,0.11548784179687561,0.2504554775887487,-0.9889572214968433,0.07803163566354625,0.17478582695437853,1.007310978506246
254,1790598137.5373485,-0.11256591796875001,-0.2653681640624999,0.04363725585937561,0.2915399775073495,-0.9898038840914524,0.0757052471565638,0.17556821386882682,1.008100794132537
255,1790598137.5573485,-0.05987548828125,-0.2941083984374999,0.00531694335937561,0.3001884308481526,-0.9915589559298482,0.07075432321670795,0.1770244528312991,1.0097192650627036
256,1790598137.5828109,-0.045505371093750004,-0.2366279296874999,0.01489702148437561,0.24142377090021241,-0.9936594550526446,0.06438313206713202,0.17863892774631274,1.0116403347122163
257,1790598137.6028109,-0.045505371093750004,-0.2078876953124999,0.06279741210937562,0.22188183257841876,-0.9951983709065418,0.05946262854595224,0.17983337471654373,1.0130625076028474
258,1790598137.627285,-0.06945556640625,-0.2462080078124999,0.07716752929687562,0.26720270656113715,-0.9970100952711803,0.05351103614874789,0.18133269541397418,1.0147778611540843
259,1790598137.647285,-0.03592529296875,-0.2893183593749999,0.02447709960937561,0.29256600648677455,-0.9984266081694625,0.04857371210065723,0.1825266052780264,1.0161353546857501
260,1790598137.672294,-0.06466552734375,-0.2893183593749999,0.06758745117187562,0.3040638206922973,-1.0001208664300367,0.0422405983961743,0.18396827077260217,1.0177771564899143
261,1790598137.692294,-0.07903564453125,-0.2701582031249999,0.08674760742187561,0.2945458117434683,-1.0014881017248785,0.03709640661519469,0.18517975520679406,1.0191398839309098
262,1790598137.7027967,-0.055085449218750006,-0.2845283203124999,0.03884721679687561,0.29240362177706947,-1.0022040433242876,0.03436326059528148,0.1858194580455383,1.019864034625512
263,1790598137.7227967,-0.04071533203125,-0.2845283203124999,0.06279741210937562,0.29420676112200794,-1.0035065760910904,0.02908577324370808,0.18700735559536127,1.0211969357131943
264,1790598137.747621,-0.07903564453125,-0.2414179687499999,0.1442280761718756,0.29211471496329383,-1.0051037523945257,0.022538605975502814,0.18864607766018346,1.022902187138852
265,1790598137.767621,-0.06466552734375,-0.1887275390624999,0.1442280761718756,0.2461736224364281,-1.0064130662202948,0.017409822838562048,0.19020097470163547,1.0243762846569895
266,1790598137.7928162,-0.07424560546875,-0.2030976562499999,0.07237749023437562,0.22803413998410751,-1.0080775624292155,0.011177547923323343,0.1922752539234187,1.0263113965664235
267,1790598137.8128161,-0.10777587890625001,-0.2366279296874999,0.02447709960937561,0.2611657435183534,-1.0094736851599415,0.006312837709420322,0.19382012061587156,1.0279315211169902
268,1790598137.8227544,-0.12214599609375,-0.2701582031249999,0.03884721679687561,0.2990220816767995,-1.0102347497519781,0.003880360621542197,0.1945198345390363,1.0287989467500873
269,1790598137.8427544,-0.11735595703125,-0.2462080078124999,0.04363725585937561,0.2762155206730013,-1.0118958511230598,-0.001055092788858261,0.1958404657417426,1.03067347630702
270,1790598137.867742,-0.11735595703125,-0.2318378906249999,0.058007373046875615,0.26624440558999435,-1.0140997727769872,-0.007192331500761661,0.19743343713128012,1.0331650598409845
271,1790598137.887742,-0.12693603515625002,-0.2318378906249999,0.07237749023437562,0.2740439118887068,-1.0159656135614477,-0.012063217537592655,0.1987127670619025,1.0352866332325779
272,1790598137.9120903,-0.13651611328125002,-0.2462080078124999,0.09153764648437561,0.2960306960778183,-1.018377484409436,-0.017976589017244374,0.2003359488389184,1.0380512274940845
273,1790598137.9320903,-0.10298583984375001,-0.2605781249999999,0.06279741210937562,0.2871420509163937,-1.0204207081322032,-0.022865490592345328,0.20170075868091192,1.0404155171360676
274,1790598137.9571595,-0.10298583984375001,-0.2509980468749999,0.09153764648437561,0.28633065408245356,-1.0229849141866538,-0.029036201192772476,0.2034450662217792,1.0434227957080326
275,1790598137.9771595,-0.09819580078125001,-0.2414179687499999,0.07237749023437562,0.2704876189755716,-1.0250255291406514,-0.033959314896911036,0.20487379081526083,1.0458507735912208
276,1790598137.9877079,-0.10777587890625001,-0.2270478515624999,0.03884721679687561,0.25431372992039797,-1.0261032975739883,-0.036536989263947765,0.20560228863243352,1.0471366816073158
277,1790598138.0077078,-0.12693603515625002,-0.2462080078124999,0.06758745117187562,0.28513015219036275,-1.0281923230547407,-0.041401115378527004,0.20693600536714396,1.0496266078280414
278,1790598138.0475874,-0.13172607421875002,-0.2270478515624999,0.1298579589843756,0.29285760198399907,-1.0325066265381218,-0.05106073240510986,0.20978705181579788,1.0548401487184886
279,1790598138.0675874,-0.09819580078125001,-0.1983076171874999,0.10111772460937561,0.24329636363051643,-1.0346906238064963,-0.05581649676279735,0.21134886800947192,1.057529438036045
280,1790598138.0622146,-0.06945556640625,-0.2222578124999999,0.058007373046875615,0.23997388659997468,-1.0346906238064963,-0.05581649676279735,0.21134886800947192,1.057529438036045
281,1790598138.0822146,-0.09819580078125001,-0.2222578124999999,0.053217333984375614,0.24874290973766597,-1.036733793933162,-0.060455529724313305,0.21284700141686605,1.0600828630675276
282,1790598138.107356,-0.11735595703125,-0.2126777343749999,0.04842729492187561,0.24768819560700492,-1.0393233961692545,-0.06623251971098373,0.21463943987337683,1.0633202516839486
283,1790598138.127356,-0.12214599609375,-0.2318378906249999,0.06279741210937562,0.26946607738047207,-1.0414336674019617,-0.07080553612070668,0.21601827493991999,1.0659556288381142
284,1790598138.1529005,-0.12693603515625002,-0.2318378906249999,0.10111772460937561,0.2829953334965361,-1.044201857485066,-0.07665850178522085,0.21782922462230933,1.0694314452879967
285,1790598138.1729004,-0.11735595703125,-0.1887275390624999,0.10590776367187561,0.24618480671496742,-1.046410545376492,-0.08118453974144751,0.2193449624941626,1.0722304656834387
286,1790598138.182959,-0.09819580078125001,-0.2030976562499999,0.08195756835937561,0.24001690831417646,-1.0475173550955184,-0.08341497997146377,0.22013465457288675,1.0736432993568554
287,1790598138.202959,-0.08382568359375,-0.2366279296874999,0.053217333984375614,0.25661567951813946,-1.0496609922923663,-0.08784420679230086,0.22167206541535497,1.0764029487105065
288,1790598138.2428513,-0.09340576171875001,-0.2318378906249999,0.04842729492187561,0.25459506425922646,-1.0538256189897144,-0.09675521621421082,0.22458273453143443,1.0818259618595452
289,1790598138.2628512,-0.07903564453125,-0.2222578124999999,0.04842729492187561,0.24081190007390735,-1.0558590286044043,-0.10123376884863856,0.22596839238959399,1.0845037015150631
290,1790598138.272901,-0.07903564453125,-0.2270478515624999,0.07237749023437562,0.25106943481484206,-1.0568466780536563,-0.10348529627257266,0.22665128643869673,1.0858199266462127
291,1790598138.292901,-0.055085449218750006,-0.2270478515624999,0.058007373046875615,0.24072803937758866,-1.0587185386503832,-0.1079750576313984,0.2280020273038053,1.0883604557347497
292,1790598138.3025262,-0.06466552734375,-0.2174677734374999,0.058007373046875615,0.23417668167071728,-1.0595707099855802,-0.11013258114209855,0.2286383263980206,1.0895387827821712
293,1790598138.3225262,-0.055085449218750006,-0.2174677734374999,0.058007373046875615,0.23171425188644454,-1.0612554379097618,-0.11459559330335536,0.22993617728644491,1.0919092911605304
294,1790598138.3476515,-0.050295410156250005,-0.2414179687499999,0.053217333984375614,0.25227831566459674,-1.0632530112971907,-0.12022603025441907,0.23153164590257763,1.0947913807834062
295,1790598138.3676515,-0.026345214843750003,-0.2366279296874999,0.03884721679687561,0.24123837527686012,-1.0647195485178436,-0.12475270346804716,0.23274925123015955,1.0969791100867998
296,1790598138.392193,-0.04071533203125,-0.2270478515624999,0.01489702148437561,0.23115013824496813,-1.0663726087865526,-0.13032756426360806,0.23411816035173938,1.0995213175666971
297,1790598138.412193,-0.055085449218750006,-0.2557880859374999,0.029267138671875612,0.2632840994614755,-1.0676613850790295,-0.13491352493329625,0.23513265021643345,1.101539765780883
298,1790598138.4372747,-0.02155517578125,-0.2509980468749999,0.01010698242187561,0.25212456491127816,-1.0691793529779001,-0.14075535048911228,0.2362881340168785,1.1039876085367681
299,1790598138.4572747,-0.026345214843750003,-0.2270478515624999,0.029267138671875612,0.2304373291165065,-1.0702800610703151,-0.1454319269398852,0.23713036602595364,1.105839348635112
300,1790598138.4821773,-0.050295410156250005,-0.2509980468749999,-0.023423291015624393,0.257056994419239,-1.0715881485237948,-0.15127427520171846,0.2380326658452455,1.1080815025998105
301,1790598138.5021772,-0.026345214843750003,-0.2893183593749999,-0.018633251953124392,0.29111231766270823,-1.0725960876521143,-0.15607308346308324,0.23858554461616752,1.1098397347041102
302,1790598138.513083,-0.04071533203125,-0.2653681640624999,0.07716752929687562,0.27934356684574096,-1.0731181127788472,-0.15875099985562374,0.2388896778704628,1.110789197877909
303,1790598138.533083,0.03113525390625,-0.1887275390624999,0.19691850585937562,0.27452574740137403,-1.0739462210182655,-0.16360650637247837,0.23977489257554455,1.1124835161369515
304,1790598138.5578134,-0.04071533203125,-0.1408271484374999,0.12027788085937562,0.1896227639907053,-1.0748343689043445,-0.16932111411999262,0.2412936235103636,1.11452284544176
305,1790598138.5778134,-0.09340576171875001,-0.2462080078124999,0.053217333984375614,0.2686542463272533,-1.075646073144048,-0.17382995158498238,0.24259785871624018,1.1162817958705378
306,1790598138.5873551,-0.06945556640625,-0.3228486328124999,-0.023423291015624393,0.33106489692463026,-1.0760917879661405,-0.17606563152801583,0.24314807993292692,1.1171811095380162
307,1790598138.607355,-0.13172607421875002,-0.2845283203124999,0.029267138671875612,0.31490425385341336,-1.0771876644478018,-0.18095987768215985,0.24413714300085498,1.1192330795512935
308,1790598138.632673,-0.13172607421875002,-0.2270478515624999,0.08195756835937561,0.2749900517102616,-1.0788670950699109,-0.18719754856336338,0.24541258507951016,1.1221517134185237
309,1790598138.652673,-0.12693603515625002,-0.2318378906249999,0.10111772460937561,0.2829953334965361,-1.0803827597908717,-0.19207422836366975,0.24654360718987287,1.1246791396220674
310,1790598138.6772504,-0.11735595703125,-0.2078876953124999,0.08195756835937561,0.25240197607080084,-1.082416235902426,-0.1979786612824897,0.24806246790532227,1.1279873430369962
311,1790598138.6972504,-0.14609619140625002,-0.2174677734374999,0.09153764648437561,0.2775166127480911,-1.0842179535021013,-0.20270074462025287,0.2493732947300656,1.1308418115237948
312,1790598138.708072,-0.14609619140625002,-0.2509980468749999,0.10111772460937561,0.3075205861542505,-1.0852837439466954,-0.20525272953770124,0.25013252976791317,1.1324909581562799
313,1790598138.728072,-0.12214599609375,-0.2605781249999999,0.12027788085937562,0.31190923714162766,-1.0873603927427862,-0.2100290916265066,0.25165733060417256,1.1356919719193315
314,1790598138.7528343,-0.10298583984375001,-0.2174677734374999,0.08674760742187561,0.2557801068996691,-1.0899639736798772,-0.2159435648166774,0.2536465185414376,1.1397322683305735
315,1790598138.7728343,-0.13172607421875002,-0.2318378906249999,0.09632768554687561,0.2835129435517024,-1.092103462787463,-0.2206779522184313,0.2552867570690259,1.1430485818032878
316,1790598138.7977839,-0.17004638671875,-0.2414179687499999,0.1346479980468756,0.32454351426197076,-1.0949367663998173,-0.22658365670526412,0.2574582007940325,1.1473933070469418
317,1790598138.8177838,-0.14130615234375002,-0.2030976562499999,0.11069780273437561,0.27105366663201025,-1.0973343351640081,-0.23127442504990148,0.2593057851961476,1.1510299705256108
318,1790598138.827872,-0.14609619140625002,-0.2078876953124999,0.08195756835937561,0.2669802127820265,-1.0985797437388802,-0.23359654576987876,0.2602437014324689,1.1528970394984432
319,1790598138.847872,-0.17962646484375,-0.2030976562499999,0.09153764648437561,0.28617034362491967,-1.1011670083282519,-0.23812610916181456,0.262084459100964,1.1567026790828236
320,1790598138.8723896,-0.18920654296875,-0.1935175781249999,0.09153764648437561,0.2857049346256543,-1.104541144153023,-0.2435751994956341,0.2643391633788425,1.1615572350220345
321,1790598138.8923895,-0.18920654296875,-0.1983076171874999,0.08674760742187561,0.2874894334235422,-1.1074483235429102,-0.24794123022033593,0.26616995919607805,1.1656599376059973
322,1790598138.918184,-0.18441650390625,-0.2078876953124999,0.08195756835937561,0.28973053651061437,-1.1113581766268656,-0.25351338860091294,0.2685033762488445,1.1711020869302289
323,1790598138.938184,-0.16525634765625,-0.2174677734374999,0.06279741210937562,0.2802595366658946,-1.114459491443656,-0.25782377692368963,0.2702583573844133,1.175386165373819
324,1790598138.9467838,-0.16046630859375,-0.2174677734374999,0.053217333984375614,0.2754519074429745,-1.1158030764177278,-0.2596797065913791,0.2709746129691018,1.1772328980420166
325,1790598138.9667838,-0.13651611328125002,-0.2078876953124999,0.058007373046875615,0.2553797141034528,-1.1189045455714959,-0.2639865370426468,0.27255734240119206,1.181492183104537
326,1790598138.992455,-0.12214599609375,-0.2030976562499999,0.07716752929687562,0.24924512014031824,-1.1227863513922247,-0.2694767013994834,0.27454440403590674,1.1868620447454041
327,1790598139.012455,-0.12214599609375,-0.1983076171874999,0.10111772460937561,0.25391012115805056,-1.125723394369578,-0.27371449955997645,0.2761277015125366,1.1909740952022967
328,1790598139.0374098,-0.13651611328125002,-0.2222578124999999,0.11548784179687561,0.28525887541951145,-1.1293224774343025,-0.27899615716439397,0.27821231596484264,1.196081187255017
329,1790598139.0574098,-0.12693603515625002,-0.2414179687499999,0.07716752929687562,0.28346114413504514,-1.1321694627061618,-0.28328969975540313,0.2799214030065424,1.200173628327592
330,1790598139.0822434,-0.08861572265625,-0.2414179687499999,0.04363725585937561,0.26084399942533076,-1.1355757338664545,-0.2887205380570152,0.2819502308438046,1.2051505006077639
331,1790598139.1022434,-0.05987548828125,-0.2126777343749999,0.058007373046875615,0.22843324653736485,-1.138130245558475,-0.29311938071733323,0.2834915389835717,1.2089776176101779
332,1790598139.1122284,-0.05987548828125,-0.2078876953124999,0.06758745117187562,0.2266504610963136,-1.1393039605572344,-0.2953010307676273,0.284239665565987,1.210788338560827
333,1790598139.1322284,-0.045505371093750004,-0.2270478515624999,0.07237749023437562,0.24261073098722163,-1.141460348742541,-0.2996678176993107,0.28572334115702047,1.214236532310753
334,1790598139.1574423,-0.02155517578125,-0.2222578124999999,0.08195756835937561,0.23786593667784262,-1.1438979364176418,-0.30519689921407966,0.28760509410917307,1.2183449127352954
335,1790598139.1774423,0.011975097656250001,-0.2222578124999999,0.07716752929687562,0.23557751539343902,-1.1455557991007332,-0.30959153974918957,0.2891125141545945,1.2213644239858898
336,1790598139.202385,0.02155517578125,-0.2270478515624999,0.09153764648437561,0.2457529109207175,-1.1472505130859407,-0.3150906509391019,0.29102607085383425,1.2248110188930381
337,1790598139.222385,0.04071533203125,-0.2318378906249999,0.08195756835937561,0.2492460406972317,-1.148312162143972,-0.31952697085791204,0.2925905233047166,1.2273253526107593
338,1790598139.232674,0.026345214843750003,-0.2414179687499999,0.08195756835937561,0.2563079183168577,-1.148724652340474,-0.32183208713336875,0.29340111720785544,1.2285065871952745
339,1790598139.2526739,0.01676513671875,-0.2701582031249999,0.04842729492187561,0.27497586697449905,-1.1493415262035032,-0.32640809244596086,0.2949360028120291,1.230656504644877
340,1790598139.277992,0.04071533203125,-0.2941083984374999,-0.023423291015624393,0.2978357581887856,-1.1498961487710226,-0.33240343964864244,0.2966350529543953,1.2331851257171145
341,1790598139.297992,0.045505371093750004,-0.3180585937499999,-0.018633251953124392,0.3218372351592587,-1.1501392216779498,-0.3373472923304404,0.2977128031236972,1.2350126873957243
342,1790598139.322976,0.03592529296875,-0.3180585937499999,0.07716752929687562,0.32925176280606633,-1.1502447373321891,-0.3437887666569972,0.29896686851844423,1.2371882881403544
343,1790598139.342976,0.06945556640625,-0.2462080078124999,0.09632768554687561,0.27335230348147926,-1.1501584623714647,-0.34901814795533564,0.300080416722283,1.2388407535543393
344,1790598139.3529413,0.08382568359375,-0.2318378906249999,0.053217333984375614,0.2522055459259639,-1.1500073624883147,-0.351590184774951,0.30066379558127065,1.2395690016214307
345,1790598139.3729413,0.07424560546875,-0.2941083984374999,0.01968706054687561,0.3039732559220775,-1.1495124887143504,-0.35676683938345727,0.30176836036411586,1.2408568340911728
346,1790598139.3975227,0.05987548828125,-0.3276386718749999,-0.01384321289062439,0.3333523780447158,-1.1487482215637272,-0.3633212094200989,0.30293308606583547,1.2423337846141351
347,1790598139.4175227,0.045505371093750004,-0.3324287109374999,-0.018633251953124392,0.336045807491027,-1.1480615998922752,-0.368844169263374,0.3036898703692894,1.2435107541600574
348,1790598139.4431124,0.05987548828125,-0.3324287109374999,-0.009053173828124391,0.3378992185679751,-1.14711260535955,-0.37612675155765013,0.3044597847801035,1.2450037843960282
349,1790598139.4631124,0.055085449218750006,-0.3228486328124999,0.02447709960937561,0.32842773151763416,-1.146309719492562,-0.38194769752712704,0.30499439714675053,1.2461667620909729
350,1790598139.472987,0.06945556640625,-0.2988984374999999,0.053217333984375614,0.31144250878959817,-1.145880537974221,-0.38485103672693266,0.30527629800341355,1.246734192159882
351,1790598139.492987,0.12214599609375,-0.2557880859374999,0.07716752929687562,0.29377204912497784,-1.1448542612221722,-0.3906814259401951,0.30595719285508155,1.2477712369953842
352,1790598139.5172553,0.14609619140625002,-0.2509980468749999,0.10590776367187561,0.3091287289859261,-1.1433075162510988,-0.3976173493505429,0.3069926935939928,1.2487978808201523
353,1790598139.5372553,0.14130615234375002,-0.3180585937499999,0.08195756835937561,0.3575552275660423,-1.1417929197303536,-0.4033295414071375,0.3079998586295538,1.249491778057736
354,1790598139.562954,0.15567626953125,-0.3755390624999999,0.06279741210937562,0.41134924738739953,-1.1395662824314876,-0.41090520412913417,0.30937887910445055,1.250267847171578
355,1790598139.582954,0.18920654296875,-0.3324287109374999,0.01489702148437561,0.382792221716768,-1.1375760104930785,-0.41697854970577325,0.3104076598059763,1.2507210743528316
356,1790598139.5930026,0.21315673828125,-0.37074902343749994,0.00531694335937561,0.4276901955168577,-1.136422790930303,-0.4201022235867074,0.3108622523832692,1.250830915018139
357,1790598139.6130025,0.16525634765625,-0.4282294921874999,0.058007373046875615,0.46266079772079977,-1.1339041876728744,-0.4265852331526286,0.3117263056047417,1.2509544186627841
358,1790598139.638068,0.13651611328125002,-0.4234394531249999,0.08674760742187561,0.4532800095323397,-1.1306538622768416,-0.43509252112302893,0.3129188913273624,1.2512401411273049
359,1790598139.658068,0.17483642578125,-0.4090693359374999,0.08195756835937561,0.45235223045287554,-1.1279823835393892,-0.44211113439678695,0.3139807897262985,1.2515552121460585
360,1790598139.6979978,0.20357666015625,-0.3946992187499999,0.053217333984375614,0.4472840422803369,-1.122315579327215,-0.45642894606047074,0.31618766725181485,1.252155854246826
361,1790598139.7179978,0.17483642578125,-0.3659589843749999,0.053217333984375614,0.4090548113164647,-1.119335340627379,-0.46366568429721455,0.31728688853086773,1.2524250241854058
362,1790598139.7120233,0.14609619140625002,-0.3659589843749999,0.03405717773437561,0.39551228393492904,-1.119335340627379,-0.46366568429721455,0.31728688853086773,1.2524250241854058
363,1790598139.7320232,0.14609619140625002,-0.3755390624999999,-0.01384321289062439,0.4031938977091861,-1.1163346413138322,-0.4709396682030447,0.318222671719654,1.2526982363206516
364,1790598139.7576013,0.13172607421875002,-0.3659589843749999,-0.023423291015624393,0.3896490567624509,-1.11253971939591,-0.4802694298626593,0.31916844045772214,1.2531048822338648
365,1790598139.7776012,0.055085449218750006,-0.3946992187499999,0.00531694335937561,0.39856009569973083,-1.1097372740730942,-0.48761127855933123,0.3197698695688704,1.2536085297769555
366,1790598139.802956,0.011975097656250001,-0.3851191406249999,0.053217333984375614,0.3889630317601144,-1.1065898842353354,-0.4970056415222553,0.3205292687975721,1.254709046652979
367,1790598139.822956,0.06945556640625,-0.3467988281249999,0.07716752929687562,0.3620059812647719,-1.1043574694942704,-0.5044022705717036,0.32123400957122095,1.2558735445461386
368,1790598139.8479877,0.15567626953125,-0.3228486328124999,0.06279741210937562,0.36388165050150795,-1.1015598764097871,-0.5135282939978788,0.3222465084569432,1.257373565120966
369,1790598139.8679876,0.21315673828125,-0.3324287109374999,0.053217333984375614,0.3984679755848314,-1.099106664958194,-0.5207090732627961,0.3231081607491894,1.258400684788612
370,1790598139.8775306,0.14609619140625002,-0.36116894531249993,0.04363725585937561,0.3920348381209147,-1.0978545779424491,-0.5241178430241242,0.32352694657311704,1.2588303590414311
371,1790598139.8975306,0.09340576171875001,-0.4378095703124999,0.02447709960937561,0.44833133348536214,-1.0952648330330725,-0.5313887588418658,0.3243751512743116,1.259840587640633
372,1790598139.9225786,0.050295410156250005,-0.4521796874999999,0.02447709960937561,0.45562619160411566,-1.0922379842216319,-0.5408008873443773,0.3253700660218706,1.2614733821179407
373,1790598139.9425786,0.09340576171875001,-0.4761298828124999,0.04363725585937561,0.4871637422143004,-1.0899681231529514,-0.5485813222717488,0.3261474818987272,1.2630693395787376
374,1790598139.9681568,0.16046630859375,-0.5336103515624999,0.06758745117187562,0.5612998370249809,-1.087013588709851,-0.5589763098459389,0.3272059629883767,1.2653524407152354
375,1790598139.9881568,0.18441650390625,-0.5000800781249999,0.12027788085937562,0.5464030564286148,-1.0845326037813818,-0.56743562581784,0.3281912550549318,1.2672425411130415
376,1790598139.9977129,0.17004638671875,-0.4042792968749999,0.19212846679687562,0.47882237966866703,-1.083270949587173,-0.5715193889876266,0.32881531732920927,1.268160035294676
377,1790598140.0177128,0.19399658203125,-0.4186494140624999,0.17296831054687561,0.4927677365535637,-1.0804804342894536,-0.5800186937700054,0.3304731532044318,1.2700677773228757
378,1790598140.0430195,0.18920654296875,-0.5144501953124999,0.07716752929687562,0.5535457947966355,-1.0767518145202273,-0.5909310262393317,0.3327309735959699,1.272518702666092
379,1790598140.0630195,0.15088623046875002,-0.58630078125,-0.08090375976562439,0.6107869341952584,-1.0737369450255503,-0.5999125997021721,0.33424207856711174,1.2745681313602202
380,1790598140.0881815,0.14130615234375002,-0.6533613281249999,-0.2198148925781244,0.7036810646724774,-1.0699614776445183,-0.6118567884066897,0.3352905311255833,1.2773433498574553
381,1790598140.1081815,0.17962646484375,-0.7587421874999999,-0.1479643066406244,0.793630146859473,-1.0669292910351316,-0.622044696169104,0.33544722027843354,1.279766601257186
382,1790598140.1182427,0.19399658203125,-0.6389912109374999,0.06758745117187562,0.6712022832582519,-1.0653507815104055,-0.6274558099566383,0.33545356924981995,1.2810941332453352
383,1790598140.1382427,0.25147705078125,-0.5336103515624999,0.1681782714843756,0.613404145212406,-1.0620154479426958,-0.6383575823647678,0.3358179450164834,1.283803297560265
384,1790598140.1625218,0.29937744140625,-0.5288203125,0.1298579589843756,0.6214023373363975,-1.0575707694618455,-0.6515413391214969,0.33673663531490067,1.2869940211856283
385,1790598140.1825218,0.21794677734375,-0.6150410156249999,0.07716752929687562,0.6570624599178846,-1.0536826665633523,-0.6624882578470845,0.3376904305740396,1.2896405237517168
386,1790598140.2077928,0.11256591796875001,-0.6485712890625,-0.018633251953124392,0.6585309415378209,-1.0488803546679744,-0.6766403731014595,0.3388257630837129,1.293365799241869
387,1790598140.2277927,0.09819580078125001,-0.6533613281249999,-0.1144340332031244,0.6705360455154283,-1.0453336547625436,-0.6881135230960548,0.3393899105535001,1.2966912438326998
388,1790598140.238055,0.13651611328125002,-0.64378125,-0.0713236816406244,0.6619501602082702,-1.0436061250633268,-0.6941158626765628,0.33949298933981087,1.2985245723126697
389,1790598140.258055,0.20836669921875,-0.58630078125,0.07716752929687562,0.6269929146453423,-1.0402270532512266,-0.705904190044755,0.3396725107893003,1.3022098380923017
390,1790598140.2825482,0.24668701171875002,-0.47133984374999993,0.1585981933593756,0.5551298199465229,-1.0358736357028364,-0.720118276182035,0.34029248551212077,1.3066765079894929
391,1790598140.3025482,0.26105712890625,-0.4090693359374999,0.20170854492187562,0.5255234373951574,-1.0320904479058606,-0.7313044457265028,0.3412632503610868,1.310144072628992
392,1790598140.3280268,0.18441650390625,-0.4378095703124999,0.20649858398437562,0.5180041814095442,-1.0271426014131118,-0.7450355921529026,0.34309447592422737,1.3144633036422284
393,1790598140.3480268,0.10777587890625001,-0.5384003906249999,0.18733842773437562,0.5801605874283042,-1.0234029817333934,-0.7556616827694265,0.3449070720747973,1.3180816098383026
394,1790598140.3576283,0.04071533203125,-0.6294111328124999,0.10111772460937561,0.6387807969882211,-1.0217700308512894,-0.7608388151197956,0.34585445762163874,1.3200397737930085
395,1790598140.3776283,-0.026345214843750003,-0.6581513671874999,0.04363725585937561,0.6601223390969853,-1.0188572743640787,-0.7719364657707614,0.34774897184754944,1.3247208763102818
396,1790598140.4029984,0.026345214843750003,-0.6773115234374999,0.02447709960937561,0.6782655074022839,-1.0157166495264003,-0.7864433627607937,0.3499213013476092,1.3313971579106085
397,1790598140.4229984,0.07903564453125,-0.6916816406249999,0.09153764648437561,0.7021746690162357,-1.0134541118260765,-0.7982176167055609,0.3515509555494099,1.3370971074473201
398,1790598140.4481368,0.055085449218750006,-0.6773115234374999,0.17775834960937562,0.7024125122409961,-1.0107839880612717,-0.8133780888305536,0.35379977375514454,1.3447834271063444
399,1790598140.4681368,0.08861572265625,-0.7252119140625,0.17775834960937562,0.7519196083730848,-1.0087627487890927,-0.8257342350751454,0.35585382552377615,1.3513220398778256
400,1790598140.493013,0.055085449218750006,-0.7395820312499999,0.1346479980468756,0.7537546491011109,-1.0063577172991922,-0.8415304768342791,0.35860830230230956,1.359974011916667
401,1790598140.513013,0.07903564453125,-0.8018525390625,0.12027788085937562,0.8146661255578694,-1.0045129716568704,-0.8546375526456051,0.36087306087222687,1.3673627984855652
402,1790598140.5230625,0.11735595703125,-0.787482421875,0.06279741210937562,0.7986516765026358,-1.003577042726079,-0.8614335959748798,0.3619783437761728,1.3712268383910724
403,1790598140.5430624,0.07903564453125,-0.768322265625,0.06758745117187562,0.7753281889093894,-1.0016992278249053,-0.875263563196884,0.3640436297272704,1.3791357483692908
404,1790598140.5683322,0.045505371093750004,-0.806642578125,0.09632768554687561,0.8136473502970094,-0.9994464858572191,-0.8931013897823883,0.3665723321455072,1.3895677907961792
405,1790598140.5883322,0.07424560546875,-0.787482421875,0.07716752929687562,0.7947300184788045,-0.9977513486540943,-0.907492804580599,0.36853373541926027,1.3981659623409155
406,1790598140.6129122,0.07903564453125,-0.6773115234374999,0.06758745117187562,0.6852485654443997,-0.9956979477487177,-0.925227159346376,0.3708495732822572,1.408896414058466
407,1790598140.6329122,0.09819580078125001,-0.62462109375,0.04363725585937561,0.6337966047143625,-0.9940119307976529,-0.9394454641006146,0.3726180864730675,1.4175548444254802
408,1790598140.6419117,0.07424560546875,-0.5767207031249999,0.07237749023437562,0.5859673032149855,-0.9932506657605163,-0.9456945891687427,0.37337281865684285,1.421369903553787
409,1790598140.6619117,0.05987548828125,-0.5527705078124999,0.10111772460937561,0.5651239710314762,-0.9916114744813176,-0.9591932588845986,0.3750587306714852,1.4296902026892313
410,1790598140.6868024,0.07424560546875,-0.5000800781249999,0.06279741210937562,0.5094467680107138,-0.9896270720438078,-0.9754383431890218,0.37714817633836484,1.4398202839245937
411,1790598140.7068024,0.12693603515625002,-0.49049999999999994,0.01968706054687561,0.5070410115307884,-0.9879699799399931,-0.9880193839757516,0.3786989659599396,1.447646328076572
412,1790598140.7324846,0.18920654296875,-0.567140625,0.04363725585937561,0.599459602080501,-0.9855523291576775,-1.0037887183745924,0.38051361821967367,1.4572905675584595
413,1790598140.7524846,0.21315673828125,-0.5910908203124999,0.08195756835937561,0.633672783022742,-0.9833484543636811,-1.0159643563649632,0.3819031942043445,1.4645845164574818
414,1790598140.7778533,0.21315673828125,-0.5767207031249999,0.1250679199218756,0.6274428651927443,-0.9801611757546941,-1.0313137072134118,0.3837952912787407,1.4736426699681402
415,1790598140.7978532,0.22273681640625,-0.6198310546874999,0.1298579589843756,0.6713161068002151,-0.9773714873433033,-1.0433943898588924,0.38544560562717944,1.480707665934763
416,1790598140.806992,0.26584716796875,-0.6773115234374999,0.07237749023437562,0.7312073013796149,-0.9759530902712102,-1.0489756076619627,0.3862252028044599,1.4839151482349167
417,1790598140.826992,0.32332763671875003,-0.6868916015625,0.04842729492187561,0.7607273071585365,-0.9724308350437786,-1.061404058819183,0.38785661187797743,1.4908497766036792
418,1790598140.8515809,0.30416748046875003,-0.6916816406249999,0.03884721679687561,0.7566045561621094,-0.9675927843032468,-1.0769344253059958,0.3897224250724555,1.499302211446785
419,1790598140.8715808,0.32811767578125,-0.6773115234374999,0.01968706054687561,0.7528610026387957,-0.9632994725601227,-1.0897251482623547,0.3911001943566749,1.5061228816454022
420,1790598140.8823314,0.32811767578125,-0.6677314453125,0.10111772460937561,0.7508337275651561,-0.9608087508441688,-1.0966536992422284,0.3918270981384079,1.509745431056495
421,1790598140.9023314,0.29458740234375,-0.6198310546874999,0.1490181152343756,0.7022668101531373,-0.9559360771080581,-1.1095412666359965,0.3933517658023833,1.516450202790981
422,1790598140.9276013,0.27063720703125,-0.5575605468749999,0.1394380371093756,0.6352646908605422,-0.9496317040932641,-1.125613647046483,0.3955359175618392,1.5248787223637974
423,1790598140.9476013,0.24668701171875002,-0.5623505859374999,0.09632768554687561,0.621588035806509,-0.9446145510411604,-1.1381059524460144,0.39735891943927465,1.5314946685802373
424,1790598140.9720645,0.20357666015625,-0.62462109375,0.029267138671875612,0.657610471878192,-0.938572171257408,-1.153271809855798,0.3994847026022186,1.5396563303802884
425,1790598140.9920645,0.15088623046875002,-0.6389912109374999,-0.009053173828124391,0.6566265164892471,-0.9338414987142395,-1.1657063046047,0.4009922756251788,1.5465205910129558
426,1790598141.002557,0.11256591796875001,-0.6677314453125,0.01489702148437561,0.677316979114191,-0.9315246076409424,-1.172279588362382,0.40166915301189043,1.550263086193107
427,1790598141.022557,0.14130615234375002,-0.6485712890625,0.029267138671875612,0.6644311183955992,-0.9273899878172841,-1.1849040328348694,0.4028320715966922,1.5576660214689675
428,1790598141.0471957,0.15088623046875002,-0.6389912109374999,0.053217333984375614,0.6587173193691249,-0.9225205045401511,-1.2005029262741096,0.4042022374872821,1.5670452469789888
429,1790598141.0671957,0.14609619140625002,-0.6150410156249999,0.09632768554687561,0.6394517738244697,-0.9187152235767831,-1.213146774573326,0.4053719310825134,1.574829883256909
430,1790598141.0928295,0.14130615234375002,-0.66294140625,0.08195756835937561,0.6827706641488812,-0.9140170643937076,-1.2293784310502813,0.40698899958875817,1.5850673697104487
431,1790598141.1128294,0.14609619140625002,-0.6485712890625,0.08674760742187561,0.6704580236920312,-0.9104702081543629,-1.2421103046472475,0.4083144742155972,1.5932717027241419
432,1790598141.122232,0.13651611328125002,-0.62462109375,0.07716752929687562,0.6440054250708215,-0.9088535638951214,-1.2480958937128988,0.40895973449803685,1.59718697244517
433,1790598141.142232,0.14130615234375002,-0.6294111328124999,0.053217333984375614,0.6472695631921171,-0.9055138969163469,-1.2607990376726101,0.4103219586243392,1.6055945131427556
434,1790598141.1678252,0.15088623046875002,-0.66294140625,0.058007373046875615,0.6823656043453507,-0.9013204273481576,-1.277097109493991,0.41201716626833906,1.6165128162599778
435,1790598141.1878252,0.17004638671875,-0.6821015625,0.09632768554687561,0.7095472769335823,-0.8980535745565105,-1.2899404414497961,0.4133746869329279,1.6252154309685585
436,1790598141.2120585,0.14609619140625002,-0.66294140625,0.12027788085937562,0.6894216227303589,-0.8941143947928689,-1.3056126363956677,0.4151665026239628,1.6359792578736678
437,1790598141.2320585,0.13172607421875002,-0.6342011718749999,0.12027788085937562,0.658809269561934,-0.8909342792471937,-1.318552583895019,0.41678431643637837,1.6450088063172448
438,1790598141.272245,0.17483642578125,-0.6150410156249999,0.10111772460937561,0.6473546330344531,-0.8845789107011608,-1.3444182202881871,0.4202147012429124,1.6632860834627272
439,1790598141.292245,0.19399658203125,-0.6102509765624999,0.08195756835937561,0.6455679447174202,-0.8813371614205715,-1.357198050862021,0.42194046352771447,1.6723562706930966
440,1790598141.2872956,0.15088623046875002,-0.62462109375,0.09153764648437561,0.649074191465362,-0.8813371614205715,-1.357198050862021,0.42194046352771447,1.6723562706930966
441,1790598141.3072956,0.19399658203125,-0.6533613281249999,0.11069780273437561,0.6904851210991371,-0.878037948673372,-1.3699229106443844,0.4237118858509789,1.6814193952224763
442,1790598141.332021,0.19878662109375,-0.62462109375,0.10590776367187561,0.6639910284704864,-0.8738426498438724,-1.3856645020931808,0.4259750283075101,1.6926670711598566
443,1790598141.352021,0.18441650390625,-0.6342011718749999,0.08674760742187561,0.6661424177411667,-0.8703833663883116,-1.3983758709175635,0.4278200355509033,1.701779146560646
444,1790598141.3771179,0.20357666015625,-0.6533613281249999,0.07716752929687562,0.6886793950942784,-0.8659633222590827,-1.414357594606349,0.4300964873526705,1.7132667245212436
445,1790598141.3971179,0.19399658203125,-0.6342011718749999,0.08195756835937561,0.6682535770639858,-0.8623729398554866,-1.4271145411120005,0.43187718410488246,1.7224578087717195
446,1790598141.407179,0.20357666015625,-0.6485712890625,0.053217333984375614,0.6818506128126386,-0.860537670811225,-1.433537437548798,0.43274061966814714,1.7270839909077829
447,1790598141.427179,0.19399658203125,-0.64378125,0.053217333984375614,0.6744783586800799,-0.8568403548297127,-1.4463283916869276,0.43435917275744185,1.7362917673084015
448,1790598141.4527664,0.18920654296875,-0.6485712890625,0.07237749023437562,0.6794720994941628,-0.8520842780562291,-1.4627181580670094,0.4363603106063669,1.7481425421063452
449,1790598141.4727664,0.17962646484375,-0.6294111328124999,0.07237749023437562,0.6585305931186527,-0.8483711347570626,-1.4755243421523403,0.43790698072517553,1.757460722275443
450,1790598141.5118763,0.24189697265625001,-0.6581513671874999,0.03405717773437561,0.7020236882515182,-0.8409628116467018,-1.5005871891323468,0.4407900150389923,1.775746659892373
451,1790598141.5318763,0.27542724609375,-0.6581513671874999,0.03405717773437561,0.7142711539582102,-0.8369666381546997,-1.5134557499744827,0.44214535970783886,1.7850921487771936
452,1790598141.5274503,0.31374755859375003,-0.6868916015625,0.04842729492187561,0.7567052303995825,-0.8369666381546997,-1.5134557499744827,0.44214535970783886,1.7850921487771936
453,1790598141.5474503,0.31374755859375003,-0.7060517578125,0.03884721679687561,0.773599199512592,-0.8323869638690075,-1.5265576263790388,0.44336067547615243,1.7943842768018614
454,1790598141.5722146,0.31853759765625,-0.6868916015625,0.04363725585937561,0.7584131351161106,-0.8263925737858389,-1.5429342830791544,0.4447929758097909,1.805937894624036
455,1790598141.5922146,0.30895751953125,-0.6581513671874999,0.03405717773437561,0.727858408181776,-0.8213363545308827,-1.5561939523999466,0.44589275059398625,1.8152557312380309
456,1790598141.6176484,0.28021728515625,-0.6821015625,0.053217333984375614,0.7393350749840597,-0.8147470313149511,-1.5730833918851796,0.4472480164877847,1.827138437862267
457,1790598141.6376483,0.24189697265625001,-0.6725214843749999,0.07237749023437562,0.7183577057558713,-0.8095595451038384,-1.5864042564576522,0.4483422707223505,1.8365935624661662
458,1790598141.6473477,0.25147705078125,-0.64378125,0.01489702148437561,0.691315359420217,-0.8070622410095413,-1.592852962628084,0.4488568348999796,1.8411959373333504
459,1790598141.6673477,0.23231689453125,-0.6342011718749999,-0.00426313476562439,0.6754261175067907,-0.8019595407161443,-1.6060725434721292,0.44977465929564087,1.850649984190742
460,1790598141.6927173,0.19878662109375,-0.6677314453125,0.04842729492187561,0.6983742597479095,-0.7956374829042198,-1.6228032572432272,0.4508482997452723,1.8627382009570195
461,1790598141.7127173,0.22273681640625,-0.6294111328124999,0.08195756835937561,0.67267161862419,-0.7907688409307564,-1.635960078918509,0.4517633142300409,1.872370377806201
462,1790598141.7525768,0.19399658203125,-0.5623505859374999,0.11069780273437561,0.6050841750320989,-0.7812753967880656,-1.661810882920823,0.45388931433613056,1.8915660617300567
463,1790598141.7725768,0.18920654296875,-0.567140625,0.11548784179687561,0.6089212149617356,-0.7766516642466276,-1.674530416524172,0.45513532580849975,1.9011544093630277
464,1790598141.7674644,0.23231689453125,-0.5958808593749999,0.06758745117187562,0.6431276713142134,-0.7766516642466276,-1.674530416524172,0.45513532580849975,1.9011544093630277
465,1790598141.7874644,0.22752685546875,-0.6150410156249999,0.02447709960937561,0.656233989721514,-0.7720838106479829,-1.6870195116112738,0.4564070865676865,1.9106165685168375
466,1790598141.8122447,0.21315673828125,-0.6773115234374999,0.01010698242187561,0.7101329776524987,-0.7664540984628404,-1.7025744234800955,0.45781073269349765,1.922446935420695
467,1790598141.8322446,0.21794677734375,-0.6677314453125,0.03884721679687561,0.7034736576919633,-0.7619452985348919,-1.7152631051254406,0.4588471057333465,1.932156521662741
468,1790598141.857238,0.20357666015625,-0.6150410156249999,0.08195756835937561,0.6530206355642878,-0.7563658065851312,-1.7311458589294626,0.46017441265259645,1.9444062611295936
469,1790598141.877238,0.21794677734375,-0.6198310546874999,0.10111772460937561,0.6647677251038306,-0.751938472213665,-1.743801271085122,0.4613518308056326,1.954251736808955
470,1790598141.9020553,0.21315673828125,-0.62462109375,0.10111772460937561,0.667691620482334,-0.7464664060449854,-1.759465643546104,0.4629701120817208,1.966538270884598
471,1790598141.9220552,0.22752685546875,-0.62462109375,0.09153764648437561,0.671043308170823,-0.7420569757431509,-1.772069715298848,0.4643676294301831,1.976491064080741
472,1790598141.932448,0.25147705078125,-0.6150410156249999,0.07237749023437562,0.6683970818782006,-0.739736020549557,-1.7786030461796614,0.4651126607230069,1.981657882466825
473,1790598141.952448,0.23710693359375,-0.6389912109374999,0.07237749023437562,0.6853962114764208,-0.7352066024808128,-1.79117110224906,0.46654849087090666,1.991604920710283
474,1790598141.9778395,0.18441650390625,-0.6198310546874999,0.06758745117187562,0.6502061571716566,-0.729515976207122,-1.8071310948680308,0.4683645019121375,2.004315758614835
475,1790598141.9978395,0.16525634765625,-0.6198310546874999,0.06279741210937562,0.6445492314504273,-0.7251815210050542,-1.819676003626909,0.4697759214325047,2.0143977792234984
476,1790598142.0375357,0.16525634765625,-0.6294111328124999,0.09632768554687561,0.6578351294601221,-0.7168848936859019,-1.844559668086006,0.4726308641651555,2.0346263179478696
477,1790598142.0575356,0.17483642578125,-0.6006708984374999,0.10111772460937561,0.6337176802329673,-0.7128217078441167,-1.8570612682215895,0.4741496669074332,2.0448983465519777
478,1790598142.052566,0.18441650390625,-0.5719306640624999,0.03405717773437561,0.6018920358031056,-0.7128217078441167,-1.8570612682215895,0.4741496669074332,2.0448983465519777
479,1790598142.072566,0.18441650390625,-0.5815107421874999,-0.02821333007812439,0.6107046603609293,-0.7088747600408045,-1.869318900345293,0.475428115487978,2.0549667806579
480,1790598142.0971222,0.15567626953125,-0.62462109375,0.01010698242187561,0.643808016994421,-0.7041292232004657,-1.8843327759697661,0.47672900606679264,2.067311906506671
481,1790598142.1171222,0.12693603515625002,-0.5958808593749999,0.06758745117187562,0.6129884331262604,-0.7004200174872193,-1.8965574829871301,0.47774614113423847,2.0774407001259823
482,1790598142.1428125,0.21315673828125,-0.5958808593749999,0.053217333984375614,0.6350920234742319,-0.6957148782597166,-1.9122011564722885,0.47908945289168847,2.0904686456672694
483,1790598142.1628125,0.26584716796875,-0.6102509765624999,0.09632768554687561,0.6725771287483001,-0.6918828540851395,-1.9243621980631564,0.4802026762474726,2.100587147296369
484,1790598142.1724787,0.28500732421875,-0.6150410156249999,0.11548784179687561,0.687635126620407,-0.6899092541845542,-1.930246419406779,0.4808135629918573,2.1054708976851484
485,1790598142.1924787,0.28500732421875,-0.6581513671874999,0.09153764648437561,0.7230294169070893,-0.6855832567534426,-1.9425048045092475,0.4821984693424903,2.115623946101577
486,1790598142.2172081,0.24189697265625001,-0.6725214843749999,0.04363725585937561,0.7160331713162097,-0.6800593590802693,-1.9578564350449579,0.4839047224089443,2.128343565425774
487,1790598142.2372081,0.19878662109375,-0.6725214843749999,0.03884721679687561,0.7023605725869633,-0.6756009988382347,-1.9704272870782478,0.4852013916743904,2.138794238297955
488,1790598142.2769864,0.19878662109375,-0.64378125,0.08195756835937561,0.6787396125089609,-0.6668776927323611,-1.9956062887918729,0.4877539153215173,2.159878283339406
489,1790598142.2969863,0.18920654296875,-0.6389912109374999,0.12027788085937562,0.6771821410681029,-0.66256763286606,-2.0082911706281004,0.4891481377045136,2.1705978887772632
490,1790598142.2930095,0.17483642578125,-0.5958808593749999,0.09632768554687561,0.6284272410965877,-0.66256763286606,-2.0082911706281004,0.4891481377045136,2.1705978887772632
491,1790598142.3130095,0.18441650390625,-0.6054609375,0.06758745117187562,0.6365221577504537,-0.6584505813895379,-2.0208324691196786,0.4906775076806138,2.1813036131919405
492,1790598142.336458,0.12693603515625002,-0.5910908203124999,0.09632768554687561,0.6121928927076093,-0.6538001337543031,-2.035434933540168,0.49248988476451483,2.193854204401053
493,1790598142.356458,0.09819580078125001,-0.5719306640624999,0.09153764648437561,0.5874744594532954,-0.6500908925219431,-2.047766154299462,0.4940856439015569,2.2045600501560396
494,1790598142.3822422,0.11735595703125,-0.58630078125,0.08195756835937561,0.6035213912998135,-0.6456093497686373,-2.063518908712911,0.496169835930543,2.218356649687274
495,1790598142.4022422,0.12214599609375,-0.6150410156249999,0.08674760742187561,0.6330246777623962,-0.6422953421620659,-2.07570697037272,0.49779703561736,2.229103995350242
496,1790598142.412302,0.15088623046875002,-0.6054609375,0.07237749023437562,0.6281624809522413,-0.6406724608996343,-2.08183874835796,0.4986127918937214,2.234530933453346
497,1790598142.432302,0.17004638671875,-0.6054609375,0.09153764648437561,0.6355138560239109,-0.6374485761803251,-2.094017142493618,0.5002372004440683,2.245325307620163
498,1790598142.4574914,0.16525634765625,-0.6102509765624999,0.09153764648437561,0.6388231801993934,-0.6333637891577991,-2.10935145753565,0.5023220785995033,2.2589468190890685
499,1790598142.4774914,0.17962646484375,-0.6006708984374999,0.03884721679687561,0.6281562714443275,-0.6300896981440852,-2.1215167595911284,0.5039247116614614,2.269754723303034
500,1790598142.5020692,0.14609619140625002,-0.6581513671874999,0.08674760742187561,0.6797297011809965,-0.6260692966891941,-2.136544582466864,0.5058302717219554,2.2831228133667523
501,1790598142.5220692,0.15088623046875002,-0.6821015625,0.09632768554687561,0.7052008360125702,-0.6228429967331488,-2.1489493875372574,0.5074229200349457,2.2942089897289377
502,1790598142.5478551,0.19399658203125,-0.62462109375,0.12027788085937562,0.6650210171274858,-0.6186403015417562,-2.1650709765452163,0.5095872108215858,2.308663527152247
503,1790598142.5678551,0.19399658203125,-0.6150410156249999,0.10590776367187561,0.6535492170807159,-0.6152875854658659,-2.1775590093971164,0.5113533492047467,2.3198759234014816
504,1790598142.577404,0.19878662109375,-0.6006708984374999,0.029267138671875612,0.6333863073682776,-0.613645658273953,-2.1834976656727956,0.5121669068234483,2.3251963337236963
505,1790598142.597404,0.17483642578125,-0.6150410156249999,-0.018633251953124392,0.6396799393128899,-0.6101620887668961,-2.1958938667525008,0.5136312404562727,2.3362501363899972
506,1790598142.622556,0.14130615234375002,-0.6342011718749999,0.01010698242187561,0.6498312905604765,-0.6058419228919681,-2.2115014731027625,0.5151804701034846,2.3501476800076144
507,1790598142.642556,0.10298583984375001,-0.6054609375,0.06279741210937562,0.6173593321675279,-0.6025555248816002,-2.2239100020436267,0.5163369366574215,2.361239651096812
508,1790598142.667429,0.10777587890625001,-0.5431904296874999,0.11069780273437561,0.5647348816111186,-0.5986882884586441,-2.239169893132634,0.5178830936299118,2.3749762895062427
509,1790598142.687429,0.13172607421875002,-0.5192402343749999,0.10111772460937561,0.5451485796120779,-0.5956858923739423,-2.2511932288651617,0.5192575698911093,2.3858627496046187
510,1790598142.6971657,0.17004638671875,-0.5623505859374999,0.04842729492187561,0.5894905919807393,-0.5942230888511106,-2.256958486773066,0.5199355530524095,2.391086713122014
511,1790598142.7171657,0.17962646484375,-0.6198310546874999,0.053217333984375614,0.6475247391904698,-0.5911445893820212,-2.268797644590385,0.5212717486671455,2.401794935795523
512,1790598142.7435617,0.16525634765625,-0.62462109375,0.09632768554687561,0.6532535451116568,-0.5870082628606429,-2.284542843151382,0.5230667911565574,2.4160533046420327
513,1790598142.7635617,0.16525634765625,-0.6102509765624999,0.08195756835937561,0.6375209469872735,-0.5838485532574768,-2.2965356159894506,0.5244902898320899,2.426941497600847
514,1790598142.7873838,0.17004638671875,-0.6342011718749999,0.07237749023437562,0.6605795948531509,-0.580050469956368,-2.310900972678441,0.5262072388057385,2.440003260529446
515,1790598142.8073838,0.18920654296875,-0.64378125,0.06279741210937562,0.6739413392287066,-0.5768011903088427,-2.3230693978346744,0.5276352557710028,2.4510711950961737
516,1790598142.8176613,0.18920654296875,-0.6342011718749999,0.06279741210937562,0.6647960268213426,-0.5750902367634432,-2.329369585724323,0.5283558159909439,2.456796962634396
517,1790598142.8376613,0.17004638671875,-0.6102509765624999,0.07237749023437562,0.6376209917531062,-0.5717212771130457,-2.3416573753761023,0.5297504536566575,2.4679667796602334
518,1790598142.8625214,0.21794677734375,-0.6054609375,0.06758745117187562,0.6470330811858198,-0.5674383613953794,-2.3569068349010975,0.5314849341440588,2.4818284303329063
519,1790598142.8825214,0.23710693359375,-0.5910908203124999,0.06758745117187562,0.6404499351017577,-0.5638270173201152,-2.369129620061749,0.532873777147788,2.492916068479999
520,1790598142.907329,0.17962646484375,-0.5815107421874999,0.08195756835937561,0.6141151790691235,-0.5592441119932301,-2.384198158782997,0.5346163130757801,2.506585214859066
521,1790598142.927329,0.16525634765625,-0.5910908203124999,0.10590776367187561,0.6228278034130824,-0.5555862575971734,-2.3962830872942784,0.5360922195933431,2.517586858877355
522,1790598142.9373748,0.18920654296875,-0.6198310546874999,0.10111772460937561,0.6559073459623558,-0.5537574892662148,-2.4023550410197663,0.5368783309694322,2.5231320699273803
523,1790598142.9573748,0.17483642578125,-0.6006708984374999,0.06758745117187562,0.6292387206502684,-0.5501166857781633,-2.4144610769711354,0.5384616881965377,2.5342043425571728
524,1790598142.982267,0.16046630859375,-0.6198310546874999,0.053217333984375614,0.6424733902545129,-0.5456390465077269,-2.429546796379812,0.5403622766970076,2.5480209957828923
525,1790598143.002267,0.17004638671875,-0.6485712890625,0.04363725585937561,0.6719112297999135,-0.5420852868388213,-2.441752147562021,0.5418055599939889,2.559211455345429
526,1790598143.0278723,0.19878662109375,-0.6533613281249999,0.01010698242187561,0.6830075379589965,-0.537509661117813,-2.457534646092063,0.543479398280356,2.5736672335197115
527,1790598143.0478723,0.20357666015625,-0.6581513671874999,0.058007373046875615,0.6913548539056827,-0.5338682637742549,-2.4699802419918924,0.5446928657366489,2.585054745431916
528,1790598143.0574083,0.23231689453125,-0.6150410156249999,0.10590776367187561,0.6659302101509235,-0.5320807205496663,-2.475934802527387,0.5453018941845229,2.5905052007954374
529,1790598143.0774083,0.23710693359375,-0.5910908203124999,0.1490181152343756,0.6540752666810913,-0.5281899121460658,-2.4883592603335014,0.5467700044753858,2.6018981205217036
530,1790598143.1029847,0.23231689453125,-0.5767207031249999,0.09632768554687561,0.6291716235658248,-0.523060157592528,-2.504104723784295,0.5488364633630712,2.61636271561426
531,1790598143.1229846,0.22273681640625,-0.5910908203124999,0.03884721679687561,0.6328579252038794,-0.5189679537954093,-2.5163220684362018,0.5504127508060377,2.62757658031417
532,1790598143.1478026,0.22273681640625,-0.6150410156249999,0.01968706054687561,0.6544270170437643,-0.5138224656935184,-2.531453507346855,0.5521843139656526,2.641434818938332
533,1790598143.1678026,0.22752685546875,-0.6533613281249999,0.00052690429687561,0.6918451941561056,-0.509622475246226,-2.543720957183261,0.5534281336939846,2.652642847134424
534,1790598143.177842,0.24668701171875002,-0.6677314453125,-0.009053173828124391,0.7119000806055644,-0.5074733980962133,-2.5499498498856576,0.5539524167832959,2.658314647811139
535,1790598143.197842,0.22273681640625,-0.6389912109374999,0.04363725585937561,0.6781044662418177,-0.5031301478233222,-2.5624575561873244,0.5548920816273047,2.6696879771169733
536,1790598143.2226584,0.22752685546875,-0.58630078125,0.029267138671875612,0.6295821165343696,-0.4977112614797449,-2.5779300297869487,0.5560188412440735,2.68376539401258
537,1790598143.2426584,0.22752685546875,-0.5910908203124999,0.03405717773437561,0.6342844150477231,-0.4933165976079851,-2.5902951791081383,0.5568856884922735,2.6950161503104013
538,1790598143.2677505,0.22273681640625,-0.6006708984374999,0.03405717773437561,0.6415427569287457,-0.48778270088055314,-2.6057243637748835,0.5579382935945164,2.709063779741538
539,1790598143.2877505,0.25147705078125,-0.5910908203124999,0.02447709960937561,0.6428282767058607,-0.4833221504766444,-2.617965319775041,0.5587392377840226,2.720208126692822
540,1790598143.3128927,0.26105712890625,-0.62462109375,0.09153764648437561,0.6831408903250625,-0.47758938765913644,-2.6333377472458808,0.5598138469479692,2.734218509466521
541,1790598143.3328927,0.26105712890625,-0.6485712890625,0.1346479980468756,0.7119870960396676,-0.4729299888965906,-2.6456416559211005,0.5608797259283264,2.745481490176196
542,1790598143.3424118,0.26584716796875,-0.6054609375,0.1346479980468756,0.6748242341035294,-0.4706687984347017,-2.6515146459730143,0.5615031993812697,2.750880745969328
543,1790598143.3624117,0.22752685546875,-0.6054609375,0.1298579589843756,0.6597078946848098,-0.4658905201615489,-2.6638194906351687,0.563013407569319,2.7622404588607097
544,1790598143.3878841,0.22752685546875,-0.6485712890625,0.08195756835937561,0.692192335963836,-0.459848312198981,-2.6795361875327703,0.5650529847219864,2.776807434100019
545,1790598143.4078841,0.20836669921875,-0.7012617187499999,0.03884721679687561,0.7325938750633836,-0.45516197351001786,-2.69205007494599,0.5665953816825832,2.788429011951044
546,1790598143.4329948,0.19878662109375,-0.6773115234374999,0.058007373046875615,0.708259751669468,-0.4493938880064943,-2.708001251917517,0.5684238446782693,2.8032715377150423
547,1790598143.4529948,0.19878662109375,-0.6294111328124999,0.07716752929687562,0.6645519711895893,-0.44489252902084375,-2.720760296896195,0.5698644781267288,2.8151752128377163
548,1790598143.4630818,0.20357666015625,-0.6102509765624999,0.10111772460937561,0.6512100315459182,-0.44265840502192866,-2.7271679165880682,0.5706169529132249,2.821169086700731
549,1790598143.4830818,0.20836669921875,-0.5958808593749999,0.09632768554687561,0.6385684794253653,-0.4382752460106771,-2.739776090295789,0.5721812918944705,2.8329930545301774
550,1790598143.5074155,0.21315673828125,-0.5910908203124999,0.058007373046875615,0.6310221931598007,-0.4329729612098817,-2.7549815177887766,0.5740807719760223,2.8472719366525547
551,1790598143.5274155,0.20357666015625,-0.6102509765624999,0.06279741210937562,0.6463692643709885,-0.4286435874524706,-2.7674063217177056,0.5755889909069396,2.8589466173750977
552,1790598143.5529962,0.21794677734375,-0.6054609375,0.08674760742187561,0.6493141704801497,-0.4231280725829655,-2.783246702660362,0.5775156033501337,2.873851743877965
553,1790598143.5729961,0.18920654296875,-0.5815107421874999,0.1490181152343756,0.6294126292422547,-0.4188519287749372,-2.795554110532771,0.5791496094925057,2.8854763893212643
554,1790598143.5820389,0.20836669921875,-0.5815107421874999,0.10590776367187561,0.6267279146717113,-0.41693889846806975,-2.8010728218326864,0.5799504776527955,2.8907074488427917
555,1790598143.6020389,0.24189697265625001,-0.6389912109374999,0.02447709960937561,0.6836834365705508,-0.4126670843026982,-2.813278526182667,0.5816516543846963,2.9022661551614912
556,1790598143.6275616,0.23231689453125,-0.6198310546874999,-0.01384321289062439,0.6620825555644836,-0.4071256367483165,-2.8289278925322017,0.5835173037005407,2.9170321816809555
557,1790598143.6475616,0.25626708984375,-0.6102509765624999,-0.00426313476562439,0.6618891523892043,-0.4027017536321471,-2.8411966320703175,0.5847328025863923,2.92856269437529
558,1790598143.6721392,0.27542724609375,-0.62462109375,0.058007373046875615,0.6851105998129301,-0.3971007041394854,-2.8562882068584985,0.5861015195394074,2.9427174993657506
559,1790598143.6921391,0.25147705078125,-0.6198310546874999,0.09153764648437561,0.6751373076260505,-0.39243618326466845,-2.868593508005365,0.5872725586382652,2.954272148979407
560,1790598143.7031636,0.25147705078125,-0.6150410156249999,0.08195756835937561,0.6695022038664611,-0.389834805303157,-2.875380077890571,0.5879646900710063,2.9606560496832506
561,1790598143.7231636,0.33290771484375004,-0.5910908203124999,0.06758745117187562,0.6817506641112294,-0.38494684679070057,-2.8876543143858275,0.589256289323269,2.97219691284952
562,1790598143.7468772,0.35685791015625,-0.5623505859374999,0.1346479980468756,0.6794967497518786,-0.3787938616098508,-2.902076057148109,0.5909176794563686,2.9857518207245084
563,1790598143.7668772,0.32811767578125,-0.62462109375,0.10111772460937561,0.7127675035716158,-0.3733553988523952,-2.9141952852279456,0.592462358114696,2.9971553279868304
564,1790598143.7925065,0.27063720703125,-0.7347919921874999,-0.042583447265624394,0.7842047689178987,-0.366280653307667,-2.9300091587642605,0.594257406791357,3.0120187670325578
565,1790598143.8125064,0.21315673828125,-0.7587421874999999,-0.1192240722656244,0.7970821046633685,-0.3608622619919703,-2.9427388502165686,0.5952053572066086,3.0239383145083067
566,1790598143.8528562,0.22752685546875,-0.7443720703125,-0.1383842285156244,0.7905747553031778,-0.3502368438281428,-2.969117318385966,0.5960513822742054,3.0485407570549485
567,1790598143.8728561,0.22273681640625,-0.7204218749999999,-0.09527387695312439,0.7600634703700645,-0.34508479019265803,-2.9824281781338446,0.5960573393550109,3.0609223613068086
568,1790598143.8673828,0.21794677734375,-0.6581513671874999,-0.02821333007812439,0.693873195821397,-0.34508479019265803,-2.9824281781338446,0.5960573393550109,3.0609223613068086
569,1790598143.8873827,0.22752685546875,-0.6006708984374999,0.058007373046875615,0.6449332163232175,-0.34013235058286795,-2.995691185106899,0.5959488883289129,3.073273624319948
570,1790598143.9129846,0.22752685546875,-0.5575605468749999,0.1250679199218756,0.615048142818618,-0.33386993210860283,-3.0123463673570594,0.59618241506365,3.088872486932182
571,1790598143.9329846,0.23710693359375,-0.5384003906249999,0.1298579589843756,0.6024597647104504,-0.32901465154347,-3.025049573417996,0.5967198684269067,3.10084668501074
572,1790598143.9425163,0.25626708984375,-0.5767207031249999,0.08195756835937561,0.6363934582955427,-0.32669507802268377,-3.0309928098266927,0.5970890130773358,3.106471048756615
573,1790598143.9625163,0.28021728515625,-0.6389912109374999,0.053217333984375614,0.6997596581627982,-0.3217533607393502,-3.04341622037634,0.5979501498322445,3.1182450027669857
574,1790598143.98738,0.29937744140625,-0.6342011718749999,0.08195756835937561,0.706084288057706,-0.3154505870186527,-3.058918373834684,0.5991121922006025,3.1329580446404406
575,1790598144.00738,0.35685791015625,-0.6198310546874999,0.10590776367187561,0.7230176753040568,-0.3101568616212348,-3.0713986532427073,0.6001885090714519,3.144823240243124
576,1790598144.032646,0.40954833984375,-0.6054609375,0.11069780273437561,0.7393015575780761,-0.3030201450603957,-3.0871218772483076,0.6017547171191363,3.1597866119206004
577,1790598144.052646,0.43828857421875,-0.6006708984374999,0.06758745117187562,0.7466394485133562,-0.29694650726565797,-3.0995103209492894,0.603075955517935,3.171567761529353
578,1790598144.0779812,0.38559814453125,-0.6342011718749999,0.03884721679687561,0.743240312231804,-0.2888411999222595,-3.115196039961154,0.6047008429816914,3.1864617863180085
579,1790598144.0979812,0.31374755859375003,-0.6725214843749999,-0.00426313476562439,0.7421191627949798,-0.2823535244966823,-3.1276812330383312,0.6058430178706399,3.198305671851657
580,1790598144.1074636,0.27542724609375,-0.6677314453125,-0.01384321289062439,0.7224382918236286,-0.2793199716994395,-3.133665946425931,0.6062904394341003,3.203977217042733
581,1790598144.1274636,0.24189697265625001,-0.66294140625,0.058007373046875615,0.7080750728763056,-0.27310544345679477,-3.146391326653684,0.6071588213971771,3.2160545390412256
582,1790598144.1519763,0.22752685546875,-0.6342011718749999,0.11069780273437561,0.6828130050733798,-0.2657681717561011,-3.1620332882573776,0.608373653500038,3.2309759732067533
583,1790598144.1719763,0.26105712890625,-0.5958808593749999,0.10111772460937561,0.6583689067327225,-0.25994678501308216,-3.174726351969026,0.6095338813503587,3.2431452778805996
584,1790598144.197712,0.24668701171875002,-0.5958808593749999,0.07716752929687562,0.649525448229705,-0.25259952424160637,-3.1909098818617223,0.611147018749138,3.258713407517733
585,1790598144.217712,0.22273681640625,-0.6054609375,0.04842729492187561,0.6469465504310389,-0.2470420640871907,-3.2034021261124694,0.6124009889096053,3.270756783105068
586,1790598144.227792,0.19878662109375,-0.5958808593749999,0.04363725585937561,0.6296779568908977,-0.24434254762657315,-3.2096620845985457,0.61300779700509,3.276799129803223
587,1790598144.247792,0.19399658203125,-0.6006708984374999,0.06758745117187562,0.6348293200738537,-0.2392006665519337,-3.2220142663250106,0.6141980095377678,3.288743238107977
588,1790598144.2727141,0.20836669921875,-0.6054609375,0.058007373046875615,0.642934276197416,-0.233002347773077,-3.237352047264608,0.6156934295171496,3.3036066308122556
589,1790598144.292714,0.23710693359375,-0.6054609375,0.04842729492187561,0.652033624662149,-0.22810611619034013,-3.249630696266484,0.6168731431698702,3.3155187432926856
590,1790598144.3170304,0.23710693359375,-0.6150410156249999,0.07716752929687562,0.6636640538985417,-0.22218129918226107,-3.264545852707086,0.618321361608989,3.3300068258721853
591,1790598144.3370304,0.22752685546875,-0.6006708984374999,0.1346479980468756,0.6562804900096011,-0.21734219974075297,-3.276796881249129,0.6196515609592546,3.3419460632618545
592,1790598144.3470745,0.27063720703125,-0.567140625,0.1394380371093756,0.6436893292171169,-0.21490124061173355,-3.2829062547592223,0.6204258602548426,3.347922380944135
593,1790598144.3670745,0.28021728515625,-0.567140625,0.07237749023437562,0.6367171401166745,-0.20994355174101387,-3.294948001405646,0.622054111634974,3.3597187299961093
594,1790598144.3921466,0.25147705078125,-0.5623505859374999,0.04842729492187561,0.6179191625668645,-0.20366100921943964,-3.3099031707955113,0.6240162818004605,3.374364107008983
595,1790598144.4121466,0.28979736328125,-0.6054609375,0.03884721679687561,0.6723649045391997,-0.19858925853173548,-3.321795148282699,0.6254776310195199,3.385998075555338
596,1790598144.4370801,0.30895751953125,-0.5767207031249999,0.09632768554687561,0.6613172773266359,-0.19209515327395862,-3.336607516620967,0.6272789701932671,3.400489549216349
597,1790598144.4570801,0.36164794921875004,-0.5048701171875,0.23044877929687563,0.6624120426762089,-0.18666149441073712,-3.3483291351930418,0.62899730706997,3.4120064659052898
598,1790598144.467468,0.34727783203125,-0.4330195312499999,0.27834916992187564,0.6209557693270045,-0.18371029111795786,-3.354234769059538,0.6301523294255407,3.417854928944611
599,1790598144.487468,0.39517822265625,-0.4138593749999999,0.18254838867187562,0.6006407613073237,-0.17776691006025475,-3.3651697637871125,0.6327338902641187,3.428749158119933
600,1790598144.512036,0.47660888671875,-0.3659589843749999,0.04842729492187561,0.6028492448676684,-0.16995480159160167,-3.378024375709619,0.6358550098411152,3.4415468776427334
601,1790598144.532036,0.43828857421875,-0.2174677734374999,0.2639790527343756,0.5559442841302595,-0.16317683639035935,-3.387794316162406,0.638483290337302,3.4512951077235656
602,1790598144.557427,0.43828857421875,-0.11208691406249989,0.5130610839843757,0.6840263346494647,-0.15419336909719222,-3.398964759076198,0.6427992302627238,3.4626475245022865
603,1790598144.577427,0.51013916015625,-0.0881367187499999,0.5897017089843757,0.7847025866505309,-0.1467560141960717,-3.406744058041979,0.6473430307626433,3.470806160560398
604,1790598144.587522,0.41912841796875,0.04598437500000011,0.5944917480468757,0.7288371779684113,-0.14286148919258115,-3.410113626677307,0.650189109583441,3.4744827284310227
605,1790598144.607522,0.26584716796875,0.08430468750000011,0.42684038085937565,0.5098771496975074,-0.13527572284530012,-3.41559248095974,0.6565138473947778,3.4807444532744896
606,1790598144.6327627,0.16525634765625,0.09867480468750012,0.19212846679687562,0.27195537368200284,-0.1263221505501681,-3.421123417936502,0.6644703161016541,3.4873433337504043
607,1790598144.6527627,0.20357666015625,0.03640429687500011,0.07237749023437562,0.21910552362723215,-0.11973852892193054,-3.4246459730664007,0.6702258822556489,3.491667236349086
608,1790598144.6921086,0.29458740234375,0.055564453125000114,0.1681782714843756,0.3437340208216102,-0.10725930261915767,-3.4302650149017273,0.6805602406255211,3.4987690509059557
609,1790598144.7121086,0.10298583984375001,0.24716601562500012,0.21607866210937562,0.34407428079883867,-0.10127111812425536,-3.4322387056685915,0.6856017303261804,3.5015094037688943
610,1790598144.7218788,0.11256591796875001,0.21363574218750012,0.1538081542968756,0.2863010034148726,-0.09862668435529076,-3.432720587353349,0.6879661569476426,3.5023699528764443
611,1790598144.7418787,0.23710693359375,0.2711162109375001,0.24960893554687563,0.43821035872761194,-0.09350088405147705,-3.432831930015258,0.6926853635552015,3.503268543508232
612,1790598144.7521324,0.10298583984375001,0.29506640625000014,0.1394380371093756,0.3422181080809843,-0.09100561626479216,-3.4324450424283928,0.6950410924203302,3.503290326483923
613,1790598144.7721324,0.050295410156250005,0.2519560546875001,-0.1096439941406244,0.27934438821566693,-0.08663868601695515,-3.4309830724442647,0.698991444633205,3.502533389560226
614,1790598144.7974098,0.12214599609375,0.11783496093750012,-0.07611372070312439,0.1860054323404287,-0.08162042368021377,-3.428711442427916,0.7028831065113686,3.500966825095166
615,1790598144.8174098,0.31853759765625,0.07951464843750011,-0.09527387695312439,0.3418565372585894,-0.07758442923263822,-3.426887661887352,0.7052433139733016,3.4995637617793394
616,1790598144.8417487,0.5484594726562501,0.10825488281250012,-0.1767045410156244,0.5863031703945174,-0.07182693350656869,-3.424658372226541,0.7071882532535062,3.497650540059433
617,1790598144.8617487,0.6682104492187501,0.04119433593750011,-0.2677152832031244,0.7210226422373881,-0.06598050416540657,-3.422877111247619,0.7078801018919701,3.495931261379055
618,1790598144.871966,0.62989013671875,-0.11687695312499989,-0.3156156738281244,0.7141673893936421,-0.062447082918413686,-3.422161627321621,0.7077335237720326,3.4951361321625747
619,1790598144.8919659,0.59635986328125,-0.1456171874999999,-0.5359574707031244,0.8149232247461915,-0.05472858780492405,-3.421364902344675,0.7062122796537886,3.493918830947982
620,1790598144.9166164,0.56282958984375,-0.05460644531249989,-0.4832670410156244,0.7438454436274703,-0.04449920206456247,-3.4209003851744435,0.702734212498136,3.4926172131635633
621,1790598144.9366164,0.59635986328125,0.10346484375000012,-0.03779340820312439,0.6064473613832045,-0.03570584168037689,-3.420506748739214,0.6995540136811286,3.4914921084484765
622,1790598144.9618907,0.65863037109375,0.24716601562500012,0.07716752929687562,0.707700383343695,-0.02388146237631724,-3.4194192754947954,0.6962126147946414,3.489657649522339
623,1790598144.9818907,0.72090087890625,0.12741503906250012,0.01489702148437561,0.7322257784564868,-0.013858853574336558,-3.418125948204794,0.6941032198003442,3.4879157594974286
624,1790598144.9925787,0.59635986328125,-0.0019160156249998911,0.01010698242187561,0.5964485801327576,-0.008250228312316006,-3.417437862359058,0.6931650846784377,3.487037058014973
625,1790598145.0125787,0.48618896484375,-0.0785566406249999,0.06758745117187562,0.49711057007272863,0.0022944340852899623,-3.416464131159006,0.6917894684088831,3.485800495227069
626,1790598145.037561,0.44786865234375,-0.1408271484374999,-0.05695356445312439,0.4729295127111023,0.015240289829404204,-3.415841328779408,0.6903488389188287,3.4849369821028517
627,1790598145.057561,0.49576904296875,-0.2030976562499999,-0.1719145019531244,0.5626634855063765,0.02546518593091966,-3.4159334087667115,0.6890252125845008,3.484824998819909
628,1790598145.082575,0.49576904296875,-0.3994892578124999,-0.1958646972656244,0.666139317792222,0.03819548972259865,-3.4171617897728215,0.6869280849509338,3.485731456497029
629,1790598145.102575,0.55324951171875,-0.48091992187499993,-0.1767045410156244,0.754051383056111,0.04842071334126643,-3.4193172276564674,0.6849439935681162,3.4875812740571117
630,1790598145.1119523,0.60114990234375,-0.6821015625,-0.2964555175781244,0.9563104206037677,0.05330768482286285,-3.42099418602686,0.6838204972251487,3.489076296459566
631,1790598145.1319523,0.6442602539062501,-0.8928632812499999,-0.4832670410156244,1.2024238631613478,0.06403538018940712,-3.4263967858888336,0.6806141299791991,3.4939277408373335
632,1790598145.1578445,0.6251000976562501,-0.9742939453124999,-0.48805708007812443,1.256263721269079,0.0783053675932123,-3.435967794345505,0.6751995398342271,3.5025563283073375
633,1790598145.1778445,0.67779052734375,-0.9168134765624999,-0.2629252441406244,1.1700754820822215,0.08962889447402336,-3.4450884543668687,0.6705180300136615,3.5108777001926366
634,1790598145.201904,0.74964111328125,-0.7779023437499999,-0.047373486328124395,1.0813593770528722,0.10378330421546221,-3.4574726690361084,0.6651711170683291,3.522405548250723
635,1790598145.221904,0.72090087890625,-0.9551337890624999,-0.052163525390624396,1.1977894913539149,0.1159903368776354,-3.468822658231869,0.6612437903437365,3.5331894575270013
636,1790598145.2328253,0.71611083984375,-1.2329560546875,-0.2198148925781244,1.442675970109511,0.12283331559780582,-3.475883040365428,0.6591981337115429,3.539970778581307
637,1790598145.2528253,0.8071215820312501,-1.2808564453125,-0.2150248535156244,1.529141644619169,0.13576993134413073,-3.490643934603534,0.6553616090037252,3.554226693810847
638,1790598145.277622,0.8262817382812501,-1.3191767578125,-0.1767045410156244,1.5665865198530613,0.15244106524093576,-3.5110352999988534,0.6505899217777663,3.574055735789333
639,1790598145.297622,0.8646020507812501,-1.3862373046875,-0.1431742675781244,1.6400272686815123,0.16640668062970718,-3.5290732024820226,0.6468387604193577,3.591719537187692
640,1790598145.3225713,1.0370434570312501,-1.4485078125,-0.1192240722656244,1.7854546743203703,0.18477343200160906,-3.5535040048731372,0.6423702291933184,3.6158223746717644
641,1790598145.3425713,1.1088940429687502,-1.477248046875,-0.2246049316406244,1.8607404885810572,0.20050708801039227,-3.574539315598511,0.6388097145336187,3.636703488392256
642,1790598145.352624,1.13763427734375,-1.6448994140625,-0.4353666503906244,2.0468145865326797,0.20892289739224235,-3.5858803744785352,0.6367909362873667,3.647970604824391
643,1790598145.372624,1.0370434570312501,-1.77423046875,-0.5311674316406244,2.1226143616888744,0.22641679822601585,-3.6101878106271,0.6319272017407175,3.6720638042957896
644,1790598145.397749,0.97477294921875,-1.7119599609375,-0.2150248535156244,1.9817227096673142,0.24888806244791845,-3.642712944201535,0.6253275271406812,3.7043673383834888
645,1790598145.417749,1.13763427734375,-1.553888671875,-0.1862846191406244,1.9348084434633976,0.267261077090072,-3.6696187236551294,0.6202601210395674,3.7312534995735236
646,1790598145.4418278,1.28612548828125,-1.58262890625,-0.25813520507812443,2.0555940286460945,0.29044023744031494,-3.702817084262397,0.6142717974886349,3.7646433738429703
647,1790598145.4618278,1.20948486328125,-1.5490986328125,-0.2437650878906244,1.9803993604226258,0.31054844323065356,-3.730953152844549,0.6092911121236079,3.7931105208821014
648,1790598145.486389,1.11847412109375,-1.3431269531249999,-0.06174360351562439,1.7489387194359831,0.33582670972915774,-3.765650737055497,0.6035292470581185,3.8284660902910788
649,1790598145.506389,1.12326416015625,-1.25690625,-0.0665336425781244,1.6869980499026376,0.35668563750215193,-3.7935666767967247,0.5993487629861836,3.85714813236359
650,1790598145.51762,0.99393310546875,-1.3431269531249999,-0.1288041503906244,1.6758530781412342,0.36842553878160234,-3.809081783230721,0.5971887695825528,3.8731738710626153
651,1790598145.53762,0.9651928710937501,-1.50598828125,-0.2868754394531244,1.8116002592829217,0.38913422419918037,-3.8368397576421422,0.5932957956019315,3.9018924474343777
652,1790598145.5628672,1.1472143554687502,-1.3814472656249999,-0.3108256347656244,1.8223912588475126,0.4153546097205924,-3.8720915900489747,0.5879868579426437,3.93844401745885
653,1790598145.5828671,1.2286450195312502,-1.2808564453125,-0.2868754394531244,1.7979041507485716,0.43657373724391624,-3.899821655130509,0.5835155653424715,3.9673285703194443
654,1790598145.622815,1.13284423828125,-1.54430859375,-0.2629252441406244,1.9332239355396816,0.479674380393339,-3.9553656540689084,0.5742770426472824,4.025518487139936
655,1790598145.6428149,0.98914306640625,-1.5874189453125,-0.1192240722656244,1.8741710949548358,0.5011990738827387,-3.9837002949085267,0.5697723151126574,4.055330941166705
656,1790598145.637846,0.9604028320312501,-1.3574970703125,0.00531694335937561,1.6628891020051075,0.5011990738827387,-3.9837002949085267,0.5697723151126574,4.055330941166705
657,1790598145.657846,1.02746337890625,-1.2521162109375,0.03884721679687561,1.6201805784969754,0.5222181300515579,-4.01184125344304,0.5664386641950959,4.085148073017317
658,1790598145.6827211,1.08973388671875,-1.1036249999999999,0.01489702148437561,1.5510415873654901,0.5483893034135462,-4.045986706274683,0.5630146107702807,4.12161675891763
659,1790598145.702721,1.00830322265625,-0.9168134765624999,0.22086870117187563,1.3805815161673534,0.5694220480976125,-4.07235277081997,0.5610282200675205,4.150066411827273
660,1790598145.727675,0.88855224609375,-0.7491621093749999,0.25918901367187563,1.1907761775286096,0.5952781378901887,-4.103432955431081,0.5598200209888574,4.184007234346975
661,1790598145.747675,0.93166259765625,-0.7587421874999999,-0.08569379882812439,1.2045863730432416,0.6156231040024172,-4.126868408199641,0.5592571692828988,4.209845988414793
662,1790598145.7728336,0.89334228515625,-0.7539521484374999,-0.1527543457031244,1.178913979352566,0.6408204228647688,-4.154780911220348,0.5582054164299609,4.240807531771904
663,1790598145.7928336,0.8214916992187501,-0.6342011718749999,-0.0713236816406244,1.0402628542131578,0.6604187884108258,-4.175723937279315,0.5571586182575964,4.264182114116633
664,1790598145.802168,0.81670166015625,-0.4282294921874999,-0.052163525390624396,0.9236358227474275,0.669340498095879,-4.184776009450357,0.5566568935299063,4.274369409489178
665,1790598145.8221679,0.79754150390625,-0.3755390624999999,-0.07611372070312439,0.8848137297735015,0.6880103741810725,-4.202467595265025,0.555550720125922,4.2944998273216655
666,1790598145.8477886,0.75443115234375,-0.48091992187499993,0.00052690429687561,0.8946790555898314,0.7113218395356787,-4.223377353203978,0.554200985178041,4.318568484918234
667,1790598145.8677886,0.67779052734375,-0.36116894531249993,0.11069780273437561,0.7759491024192766,0.728937918727574,-4.23851464021492,0.5534722386960916,4.336206679078196
668,1790598145.8778043,0.7065307617187501,-0.37074902343749994,0.07237749023437562,0.8011735496928017,0.7374764071107954,-4.245507912220688,0.5532995564804122,4.344461909486022
669,1790598145.8978043,0.74964111328125,-0.5384003906249999,-0.042583447265624394,0.9239318856537687,0.7541532880166795,-4.25874151942683,0.5530511489449638,4.3602169767645345
