imu_index,t_imu,ax,ay,az,mag,vx,vy,vz,velocity
0,1791285989.6427293,0.010729687499999975,0.03721860351562498,0.027542724609375003,0.04752843696576629,0.0,0.0,0.0,0.0
1,1791285989.6627293,0.010729687499999975,0.03721860351562498,0.027542724609375003,0.04752843696576629,4.586937031801779e-05,0.00015910937829062454,0.00011774503541455489,0.00020318387425722373
2,1791285989.6732821,0.015519726562499976,0.013268408203124981,0.032332763671875,0.038240295180357084,8.721721435007621e-05,0.0002704283752502654,0.0002179428711224682,0.0003581025602988483
3,1791285989.6932821,0.07300019531249997,-0.01068178710937502,-0.025147705078125002,0.07794572574689075,0.0002866055616006926,0.0004536357075581694,0.000390132411575707,0.0006634239984158896
4,1791285989.7183053,0.07300019531249997,-0.04421206054687502,-0.029937744140625,0.09044337088860195,0.0007726576795286471,0.0005454529273398097,0.0004698727558750049,0.0010560772662981308
5,1791285989.7383053,-0.0036404296875000245,-0.03463198242187502,0.017962646484375,0.03918269520466046,0.0012069056301547026,0.0004895646842520718,0.0005060831887250154,0.0013972884362493058
6,1791285989.7630165,-0.022800585937500027,0.018058447265624982,0.041912841796875,0.05101627724784076,0.0016139592420699373,0.0004001531925071672,0.0006550815907795588,0.0017872098094837445
7,1791285989.7830164,0.03467988281249998,0.051588720703124986,0.017962646484375,0.06470507742361799,0.0019118100519449667,0.0004431133520264472,0.0008473979500369,0.002137627283505867
8,1791285989.7936635,0.049049999999999976,0.046798681640624985,-0.001197509765625,0.06780452147858088,0.0021134484396422674,0.0005411180741682028,0.0009478086371805152,0.002378616045084163
9,1791285989.8136635,0.025099804687499977,-0.001101708984375019,0.003592529296875,0.02537952373047618,0.002546625749511943,0.0007661460013908331,0.0011117252615458102,0.0028823975195457563
10,1791285989.838239,-0.018010546875000026,-0.02026186523437502,-0.001197509765625,0.027135898937594008,0.0030121281340576176,0.0009618018503606059,0.001287343786632569,0.00341397608666493
11,1791285989.858239,-0.018010546875000026,-0.01068178710937502,-0.010777587890625,0.02355072770270019,0.0032801059464329083,0.0010507305623763871,0.0013908645653727906,0.0037145166541214976
12,1791285989.8826447,0.03467988281249998,0.003688330078124981,-0.020357666015625,0.04038233049562229,0.0035885763570869837,0.001130170309715005,0.0014412500051181685,0.004028941148348796
13,1791285989.9026446,0.029889843749999978,-0.01068178710937502,-0.015567626953125,0.03535327911525446,0.003900298207055634,0.001175014479392496,0.001422458468824366,0.004314669538478419
14,1791285989.912694,0.015519726562499976,-0.01068178710937502,0.013172607421875001,0.02298869449785294,0.004067659053022083,0.0011780655701261007,0.0014126275228736798,0.004464213836447496
15,1791285989.932694,0.005939648437499976,0.003688330078124981,0.027542724609375003,0.02841627845503645,0.004382964268359913,0.0011727367760232396,0.0014570699307143765,0.00476536883216285
16,1791285989.9586933,0.03946992187499998,-0.001101708984375019,0.017962646484375,0.04337908671499994,0.004819913889620626,0.0011718923865431342,0.0015949106411151798,0.005210435838021425
17,1791285989.9786932,0.044259960937499974,-0.01068178710937502,0.017962646484375,0.048945902655499814,0.005231213759077763,0.001153665044268987,0.0017389274616546333,0.0056320874588760865
18,1791285990.0033877,0.025099804687499977,-0.01068178710937502,0.027542724609375003,0.03876470624303153,0.005791339123701377,0.001094968061429997,0.0019743549824065582,0.006215837956206677
19,1791285990.0233877,0.03946992187499998,0.018058447265624982,-0.020357666015625,0.047941806558239895,0.006273791393695099,0.0010656252551667095,0.002147204005671599,0.006716137333171796
20,1791285990.0335355,0.06821015624999997,0.018058447265624982,-0.053887939453125006,0.08878424945787645,0.006563818308366571,0.001080458274863911,0.0021652434638991646,0.0069956686690357305
21,1791285990.0535355,0.020309765624999976,0.02763852539062498,-0.020357666015625,0.03988494993245429,0.007182461798298197,0.0011738524875645735,0.002084095524519378,0.007570280133647381
22,1791285990.0781202,0.015519726562499976,0.018058447265624982,0.027542724609375003,0.03640839338844818,0.007894918243724984,0.0013556944969493417,0.0020125560234530307,0.008259420281817448
23,1791285990.0981202,0.020309765624999976,0.022848486328124983,0.022752685546875002,0.03810806485278306,0.00844131491120007,0.001542795742070539,0.002038530621507817,0.008819955965118233
24,1791285990.1227822,0.020309765624999976,0.042008642578124984,0.017962646484375,0.049998692980134145,0.009089145312569453,0.001858866509541677,0.0021410647207926125,0.009521139918724105
25,1791285990.1427822,0.005939648437499976,0.013268408203124981,0.017962646484375,0.023108153291175815,0.009575080841316915,0.0021596554167325932,0.0022656312547814335,0.010073696919176155
26,1791285990.1528392,0.010729687499999975,-0.005891748046875019,0.022752685546875002,0.025836477865422872,0.009795353479057382,0.0022937831496511176,0.0023495841724671548,0.010331066580988292
27,1791285990.1728392,0.010729687499999975,-0.001101708984375019,0.022752685546875002,0.02517984622925412,0.010199884313431029,0.002510018192283581,0.0025597534836514038,0.010811575705235403
28,1791285990.1974602,0.0011496093749999755,0.003688330078124981,0.003592529296875,0.005275570796529456,0.0106451189385548,0.002741061616975861,0.0028283218066268772,0.011350391193517408
29,1791285990.2174602,0.005939648437499976,-0.04421206054687502,-0.0059875488281250005,0.045009293066330426,0.01096317243203842,0.002839803836293721,0.003010166724978444,0.011718222532253054
30,1791285990.242578,0.0011496093749999755,-0.03942202148437502,-0.015567626953125,0.04240009892183363,0.011316052961135704,0.0027876589329149286,0.003163681601031777,0.012076132585318675
31,1791285990.262578,0.010729687499999975,0.008478369140624982,-0.010777587890625,0.017411643744130085,0.011572704333587511,0.0027059513992254503,0.003228063947050885,0.012315439716626244
32,1791285990.2880604,-0.008430468750000026,0.013268408203124981,0.008382568359375,0.017815468332016315,0.0118550529482009,0.002659023868611618,0.003293212950919755,0.01258800778036774
33,1791285990.3080604,-0.027590625000000025,-0.005891748046875019,0.022752685546875002,0.036244171704336914,0.011989383476811468,0.0026387822698735667,0.003383378385248441,0.012734038531416704
34,1791285990.318122,0.029889843749999978,-0.02026186523437502,0.027542724609375003,0.04541527959930732,0.012048560146328574,0.002610390825242186,0.0034598879653894737,0.012804404187358846
35,1791285990.338122,0.044259960937499974,0.018058447265624982,0.027542724609375003,0.055169315191891354,0.012259770055319363,0.002559115321220327,0.003671787173512989,0.013051170602064186
36,1791285990.3628485,0.029889843749999978,0.008478369140624982,0.017962646484375,0.0358879112154322,0.012619237509134205,0.0025544432303410075,0.00397885797816135,0.013475965506758798
37,1791285990.3828485,0.020309765624999976,-0.01547182617187502,-0.010777587890625,0.02771318071920461,0.012941676921446672,0.0025407409117934915,0.004200752026455875,0.013841556397592714
38,1791285990.4075687,0.049049999999999976,-0.029841943359375022,-0.015567626953125,0.05948777262947243,0.013409028725601695,0.002442332749335331,0.004385031538551191,0.01431766538988029
39,1791285990.4275687,0.06342011718749997,-0.01068178710937502,0.017962646484375,0.0667747595177165,0.013899129832723834,0.00231387228539753,0.004515352397423038,0.014796223245577177
40,1791285990.4372942,0.015519726562499976,0.02763852539062498,0.056282958984375006,0.06459505763121377,0.014159286953821898,0.0022731433503459272,0.004623374915826251,0.015067454441417246
41,1791285990.4572942,-0.008430468750000026,0.003688330078124981,0.041912841796875,0.042911104502212485,0.014624667085090678,0.002248940724230871,0.00495948835375766,0.015605612658972945
42,1791285990.4828897,0.049049999999999976,0.003688330078124981,0.013172607421875001,0.05092174255714385,0.015208886261371301,0.002236773603449861,0.005430859959883383,0.016303607495529428
43,1791285990.5028896,0.09216035156249998,0.022848486328124983,0.003592529296875,0.09501836661592859,0.015808728584506767,0.0022684976254595686,0.0057690834806578255,0.016980703905966798
44,1791285990.5274224,0.05863007812499998,0.003688330078124981,0.008382568359375,0.05934102537038265,0.016711599353362198,0.002350401182071679,0.006143764165155892,0.01795961516238679
45,1791285990.5474224,0.020309765624999976,-0.03463198242187502,-0.001197509765625,0.040165841405979015,0.01745565269902846,0.0023607407623742493,0.0064141764714785235,0.018746054729022413
46,1791285990.5592399,0.03946992187499998,-0.01068178710937502,-0.0059875488281250005,0.041325852073947525,0.01788233106799199,0.002325771728849792,0.006543620794809918,0.019183481218648955
47,1791285990.5792398,0.07779023437499998,0.008478369140624982,0.008382568359375,0.07869860710140761,0.018672018705743164,0.002272161950763532,0.006733425271028323,0.019978639051713282
48,1791285990.6029265,0.03467988281249998,0.022848486328124983,0.013172607421875001,0.04356908520575205,0.019666787202023254,0.0022738459865639053,0.006962791039407635,0.02098650407949675
49,1791285990.6229265,-0.008430468750000026,-0.001101708984375019,0.008382568359375,0.011939598750819664,0.020420109866499878,0.002307674759434437,0.007159740329223788,0.021761620604568262
50,1791285990.6476872,0.010729687499999975,-0.053792138671875024,-0.0059875488281250005,0.05517763240400107,0.021217124987635512,0.0022413329985276303,0.00737144399842562,0.022572730295052065
51,1791285990.6676872,0.049049999999999976,-0.04421206054687502,-0.0059875488281250005,0.06630580320582598,0.021854001559564892,0.002048778539280214,0.007498830877954086,0.023195416405071015
52,1791285990.6777356,0.015519726562499976,0.008478369140624982,0.013172607421875001,0.022051354655673778,0.02217464576302053,0.0019396168640764756,0.007558647201261484,0.023507662065973135
53,1791285990.6977355,-0.013220507812500025,0.03242856445312498,0.003592529296875,0.03520369136979474,0.02272056423393006,0.0018162961960498727,0.007684992843786674,0.024053733306681927
54,1791285990.7220106,0.0011496093749999755,0.013268408203124981,-0.010777587890625,0.01713267809479851,0.023261806891447658,0.001772264616926246,0.007802261202302827,0.024599346771741123
55,1791285990.7420106,0.03946992187499998,0.003688330078124981,-0.0059875488281250005,0.040091510978672085,0.023701771844617702,0.0017668641020142733,0.007859237306961404,0.025033246061516534
56,1791285990.767246,0.010729687499999975,0.03242856445312498,0.013172607421875001,0.036609501125103756,0.02426864755425505,0.001829428876925609,0.007933943373889432,0.025598076521263523
57,1791285990.787246,-0.0036404296875000245,0.022848486328124983,0.022752685546875002,0.03244981903479772,0.024661160550411565,0.001954491498610685,0.008038157438537304,0.026011629163088378
58,1791285990.7976892,0.029889843749999978,-0.01068178710937502,-0.0059875488281250005,0.03230099187669946,0.024855931903514348,0.0020195283568254685,0.008097542622216238,0.02621957364441255
59,1791285990.8176892,0.08258027343749998,-0.04900209960937502,-0.020357666015625,0.09815875861451748,0.025341695529141,0.002035872883003289,0.008154695028276926,0.026699164063536476
60,1791285990.8422112,0.044259960937499974,-0.01068178710937502,-0.001197509765625,0.04554644604881704,0.026081231787104683,0.0019431390489753249,0.008174615317562353,0.027401291511285696
61,1791285990.8622112,-0.013220507812500025,0.003688330078124981,0.013172607421875001,0.019023753359324547,0.02664047628650382,0.0018683609106014516,0.008206387737383653,0.027938334756393707
62,1791285990.8875678,-0.008430468750000026,-0.02026186523437502,-0.001197509765625,0.021978398844307773,0.027201973610685944,0.0017562574284574718,0.008263400920276361,0.028483602357157894
63,1791285990.9075677,0.049049999999999976,-0.04900209960937502,-0.0059875488281250005,0.06959137164258433,0.027639352031479103,0.0015772031381277383,0.008290847150935716,0.02889912623141272
64,1791285990.9326642,0.049049999999999976,-0.01068178710937502,-0.001197509765625,0.05021391346518189,0.028290506178277726,0.0012738851858954388,0.008306597323637808,0.02951228697317578
65,1791285990.9526641,0.020309765624999976,0.013268408203124981,0.008382568359375,0.025667190892008026,0.028835629017235142,0.001072301506077946,0.008328043861931039,0.030033308940338184
66,1791285990.963349,0.029889843749999978,-0.005891748046875019,0.013172607421875001,0.033190857788525215,0.02912340417280873,0.0009866714851439627,0.008355056708007234,0.030314240281200944
67,1791285990.983349,0.049049999999999976,-0.005891748046875019,0.022752685546875002,0.0543902555118362,0.029699669517569787,0.0008327572819213067,0.008451922542897082,0.030890109239278984
68,1791285991.0081632,0.08737031249999998,0.018058447265624982,0.022752685546875002,0.09207260028688223,0.030561286145909323,0.000693082088133796,0.008638765606734931,0.03176634767928393
69,1791285991.0281632,0.08258027343749998,0.013268408203124981,0.017962646484375,0.08554653053151628,0.031406499225848476,0.0006443818414051195,0.00882784340505894,0.03262995925166006
70,1791285991.0531595,0.06342011718749997,-0.03463198242187502,0.008382568359375,0.07274443568304648,0.032578115381130555,0.0005525947357414495,0.009078098798365108,0.033823820607984285
71,1791285991.0731595,0.08258027343749998,-0.04421206054687502,0.003592529296875,0.09373960809370664,0.03359393252898878,0.00037190432466197,0.009266260253899783,0.03485045472704705
72,1791285991.0827315,0.08258027343749998,-0.029841943359375022,-0.015567626953125,0.08917619723574265,0.03412574787115264,0.00024523383375078334,0.009334209572689408,0.03538013956650796
73,1791285991.1027315,0.010729687499999975,-0.03942202148437502,0.013172607421875001,0.04292714243987151,0.03521022006484667,-8.3629601372501e-05,0.009451295463491658,0.03645673568578754
74,1791285991.128205,-0.0036404296875000245,-0.04421206054687502,0.017962646484375,0.047860377086195255,0.0363978450667854,-0.0005994511823397832,0.009637540534458474,0.03765693368795517
75,1791285991.148205,0.0011496093749999755,-0.02505190429687502,0.017962646484375,0.030847628423227327,0.03718667879491459,-0.0010475842152953417,0.009815720389496713,0.03847460044300744
76,1791285991.172345,0.05863007812499998,0.018058447265624982,-0.0059875488281250005,0.06163963270135652,0.03810421013635099,-0.0015200060666463598,0.010020204093527264,0.0394289961656872
77,1791285991.192345,0.029889843749999978,0.042008642578124984,-0.0059875488281250005,0.05190356010549998,0.03888314128998237,-0.0017625982833290434,0.010146244644389311,0.040223770455651287
78,1791285991.217359,0.015519726562499976,0.022848486328124983,-0.020357666015625,0.034312531321151675,0.039796416435848574,-0.00189882276777147,0.010230813459196941,0.041134290234253114
79,1791285991.237359,0.06342011718749997,-0.001101708984375019,-0.0059875488281250005,0.06371166115972542,0.040535500993981254,-0.0019587827489246667,0.010248769855724559,0.041856910471822315
80,1791285991.2476704,0.07779023437499998,0.013268408203124981,-0.001197509765625,0.07892278029821903,0.04096859792138439,-0.0019756500716260057,0.01025108236687367,0.042277818043768595
81,1791285991.2676704,0.08258027343749998,0.013268408203124981,0.013172607421875001,0.0846703596516978,0.041923185073481764,-0.001963653444651042,0.010272857551748265,0.04320811247711019
82,1791285991.2920125,0.08258027343749998,-0.03942202148437502,-0.0059875488281250005,0.0917030429151398,0.04321226836922587,-0.001998989933643607,0.010308502254327834,0.04446977981839228
83,1791285991.3120124,0.09216035156249998,-0.053792138671875024,-0.0059875488281250005,0.10687832017760668,0.04437464777058893,-0.0021634893026771513,0.010315433137016338,0.045609189989857156
84,1791285991.3231947,0.05384003906249998,-0.04900209960937502,0.022752685546875002,0.07627345719169684,0.045049513499867154,-0.0023278781535508285,0.010332787498406968,0.04627790164603109
85,1791285991.3431947,0.03946992187499998,-0.04900209960937502,0.027542724609375003,0.06868538547503089,0.04621544774579717,-0.002724797635127065,0.010434613633366719,0.04745706790536627
86,1791285991.3674583,0.044259960937499974,-0.04421206054687502,-0.0059875488281250005,0.06284505693337185,0.04757013405113204,-0.0033037314040466267,0.01057884273270981,0.048844080587069745
87,1791285991.3874583,0.05384003906249998,-0.04421206054687502,-0.029937744140625,0.07582693867143518,0.04866642690225917,-0.003841989725491245,0.010626007050068055,0.04996092491449504
88,1791285991.4124508,0.03946992187499998,-0.001101708984375019,-0.010777587890625,0.04092975563382954,0.05000579159012114,-0.004498655102258497,0.010599785841927051,0.0513144477723226
89,1791285991.4324508,-0.008430468750000026,0.06116879882812498,0.017962646484375,0.06430669811258374,0.05096339239708218,-0.004855221191717026,0.010592727639998044,0.05227854642484478
90,1791285991.4428885,-0.022800585937500027,0.046798681640624985,0.027542724609375003,0.058894694169354216,0.05136373918093046,-0.0049288751396498465,0.010625219542614948,0.052682281681013736
91,1791285991.4628885,0.020309765624999976,0.008478369140624982,0.017962646484375,0.02840820289546247,0.052012049980302566,-0.00496592023586997,0.010746397276078878,0.05334227930411139
92,1791285991.5031502,0.029889843749999978,0.018058447265624982,0.027542724609375003,0.04447597054537026,0.053272975616433314,-0.004949177665233804,0.011091157048921715,0.05463989435636743
93,1791285991.5231502,0.03467988281249998,0.013268408203124981,0.013172607421875001,0.03939876285398213,0.053902239107369354,-0.004895118100212213,0.011297800193965498,0.05529063077254419
94,1791285991.5325878,0.06821015624999997,-0.03942202148437502,-0.010777587890625,0.07951652403308436,0.05422746196046307,-0.004891946959767885,0.01138237931872374,0.055624700760417235
95,1791285991.5525877,0.06342011718749997,-0.058582177734375025,-0.010777587890625,0.08700654695434294,0.05501073472921911,-0.005033240907804286,0.011502399905171082,0.056425345839108396
96,1791285991.562648,0.03946992187499998,-0.001101708984375019,0.022752685546875002,0.045571627084182866,0.055423266582086725,-0.005138685938440964,0.011562751828901952,0.0568492902476342
97,1791285991.582648,0.03467988281249998,0.03242856445312498,0.022752685546875002,0.05264969861237752,0.05623159043316918,-0.005269877460502259,0.011732992929105608,0.05768384950891225
98,1791285991.608019,0.06342011718749997,0.003688330078124981,-0.0059875488281250005,0.06380882214718128,0.05728985084983358,-0.005342613234174981,0.011948460305158792,0.05876594447662791
99,1791285991.628019,0.10174042968749998,-0.029841943359375022,-0.010777587890625,0.10657304076173027,0.0582466827970059,-0.005430580494761542,0.012067687347891622,0.059731033301723246
100,1791285991.6524713,0.06342011718749997,-0.01068178710937502,-0.001197509765625,0.06432453551767792,0.05954393211306224,-0.005596314927906977,0.012169629142836492,0.061031946271862036
101,1791285991.6724713,0.029889843749999978,-0.001101708984375019,0.013172607421875001,0.03268232103716781,0.0605857874992607,-0.005729214208038409,0.01225846507561404,0.06207843029875362
102,1791285991.6976721,0.010729687499999975,0.003688330078124981,0.022752685546875002,0.025424686275504597,0.06177842652974026,-0.005866665361271424,0.01242151271346193,0.06328732673325958
103,1791285991.717672,0.025099804687499977,0.003688330078124981,0.008382568359375,0.026718372450720913,0.06263670108624844,-0.005948322172735038,0.01257820421606609,0.06416346375422505
104,1791285991.727739,0.03467988281249998,0.008478369140624982,0.013172607421875001,0.03805383819622233,0.06304904664831594,-0.005974072671022319,0.012661518929085803,0.06458471869669924
105,1791285991.747739,0.029889843749999978,-0.001101708984375019,0.027542724609375003,0.04065978604215149,0.06384222354174342,-0.006006492210912808,0.01286328430243184,0.06540161724666205
106,1791285991.772819,0.015519726562499976,-0.005891748046875019,0.003592529296875,0.016984724736407362,0.0647730857233872,-0.006054202858656217,0.013136911256174359,0.06636855011024144
107,1791285991.792819,0.049049999999999976,-0.005891748046875019,-0.044307861328125,0.0663611465431408,0.06550090767329794,-0.00610421785272255,0.013261311209485777,0.06710806774609318
108,1791285991.8189096,0.03946992187499998,-0.053792138671875024,-0.001197509765625,0.06673007526858936,0.06648117034117977,-0.006276466332803111,0.013310207649969798,0.06809039335504743
109,1791285991.8389096,-0.013220507812500025,-0.01068178710937502,0.037122802734375,0.040828726229527476,0.06715925857629011,-0.006485409845451915,0.01339595521148591,0.06878864855053207
110,1791285991.8476841,0.010729687499999975,0.042008642578124984,0.041912841796875,0.0603037192268784,0.06741049030459334,-0.006542712662824967,0.013479944452336978,0.0690557035626461
111,1791285991.8676841,0.029889843749999978,0.07074887695312498,-0.001197509765625,0.0768130221978448,0.06795816250035909,-0.006484596530086535,0.01370374035601065,0.06962868907518062
112,1791285991.8926976,0.049049999999999976,0.022848486328124983,-0.010777587890625,0.05517347395467009,0.06868846957112201,-0.006247225417297995,0.013919186242407497,0.07036247169541669
113,1791285991.9126976,0.03946992187499998,-0.029841943359375022,-0.010777587890625,0.05064161052951313,0.06931759069354206,-0.006096390162561825,0.014033277815023995,0.07098610595606195
114,1791285991.9382422,0.020309765624999976,-0.06337221679687502,0.017962646484375,0.06892881190195568,0.07011512383087679,-0.006111220298710351,0.014170906627970424,0.07179339940424337
115,1791285991.9582422,0.020309765624999976,0.003688330078124981,0.008382568359375,0.022279089092851773,0.07070681210946786,-0.006210615512719991,0.014302016514734806,0.07240561235234584
116,1791285991.968103,0.06342011718749997,0.003688330078124981,-0.001197509765625,0.06353856366396866,0.0710167012634165,-0.006246814844707737,0.01436227612382515,0.07272323926708987
117,1791285991.988103,0.03467988281249998,-0.01547182617187502,-0.015567626953125,0.041041718847206095,0.07169810140314124,-0.006326897881384219,0.014441016276887481,0.07341110496870291
118,1791285992.0129058,-0.018010546875000026,-0.03463198242187502,0.013172607421875001,0.041197956156786106,0.07244739110935003,-0.006504519500505604,0.014519562998329448,0.07417378891593744
119,1791285992.0329058,-0.03238066406250003,-0.01547182617187502,0.037122802734375,0.051633199523915985,0.0728853693490316,-0.006701417430754983,0.014648842155213039,0.07464432086377588
120,1791285992.057592,-0.018010546875000026,0.03721860351562498,0.027542724609375003,0.04968104191034783,0.07325158149508569,-0.0068677316657667015,0.01490420216376587,0.07506727097678827
121,1791285992.077592,0.010729687499999975,0.03242856445312498,-0.001197509765625,0.03417853150702798,0.07349285076193558,-0.006877792653379207,0.015119572607926977,0.07534656343022811
122,1791285992.0879133,0.05384003906249998,-0.04421206054687502,-0.015567626953125,0.0713849221685065,0.07364866934556996,-0.0068913276407058565,0.01520106884509588,0.07551615315320291
123,1791285992.1079133,0.03946992187499998,-0.03942202148437502,-0.001197509765625,0.055797890106812235,0.07404527752164891,-0.0070390716508548215,0.015310150780975782,0.07593847753214497
124,1791285992.1328092,0.049049999999999976,0.018058447265624982,0.017962646484375,0.05526903913013131,0.07463020330094046,-0.007235286110660406,0.015456871617708982,0.07655672073730142
125,1791285992.1528091,0.07779023437499998,0.018058447265624982,0.013172607421875001,0.0809379124270797,0.07521987567102977,-0.0073150943990139845,0.01560376168163334,0.07716876104129747
126,1791285992.1777756,0.07300019531249997,-0.02026186523437502,0.017962646484375,0.07786031317148517,0.07612791602212515,-0.007403902954683277,0.015817923576482273,0.07810559572210907
127,1791285992.1977756,0.07779023437499998,-0.02026186523437502,0.022752685546875002,0.08354369184138548,0.07697239735283871,-0.007525159335983145,0.016024821998342778,0.0789821049184801
128,1791285992.207794,0.06342011718749997,-0.01547182617187502,0.032332763671875,0.07284844731241887,0.07743806289488284,-0.007603637348908637,0.016154305147934582,0.07946968265104709
129,1791285992.227794,0.06821015624999997,0.003688330078124981,0.013172607421875001,0.06956828861417713,0.07842568890472064,-0.007754480724775122,0.016442281130047063,0.08050508841216457
130,1791285992.2528837,0.049049999999999976,-0.001101708984375019,-0.001197509765625,0.04907698332543493,0.07969946135141541,-0.00791045995500019,0.01677188814628106,0.0818283309642619
131,1791285992.2728837,0.020309765624999976,-0.029841943359375022,-0.020357666015625,0.04144228189675746,0.08066656724937883,-0.008062561789564732,0.016962886295471158,0.08282414796351478
132,1791285992.2976725,0.029889843749999978,-0.02505190429687502,-0.015567626953125,0.04199228116274301,0.08177876913613176,-0.008324861919265542,0.017097317060258074,0.08396063755150128
133,1791285992.3176725,0.025099804687499977,0.003688330078124981,0.003592529296875,0.025622455793010018,0.08262399198231693,-0.00853679041452009,0.017171545888841715,0.08482017937901341
134,1791285992.3434439,0.029889843749999978,0.022848486328124983,0.003592529296875,0.037793681398281806,0.08365603854247795,-0.008717620669527585,0.017266735252379446,0.08586308776787668
135,1791285992.3634439,0.03946992187499998,-0.001101708984375019,0.008382568359375,0.0403652814656909,0.08444086333295829,-0.008804284463791456,0.017347489151355457,0.08665281417929308
136,1791285992.3729894,0.049049999999999976,-0.02026186523437502,0.008382568359375,0.05372814099776362,0.08482262940494074,-0.008854737381909271,0.01739225240128183,0.08703892966288357
137,1791285992.3929894,0.05384003906249998,-0.01547182617187502,0.013172607421875001,0.05754689216313142,0.08565686302022733,-0.00899819099040903,0.01750430535506004,0.08788894315856262
138,1791285992.4175694,0.05863007812499998,-0.02026186523437502,0.003592529296875,0.06213642659880339,0.08673568473894795,-0.009213925021623184,0.017652268125421276,0.08899201082911896
139,1791285992.4375694,0.044259960937499974,-0.01547182617187502,0.008382568359375,0.04762970711206753,0.08763615270005862,-0.00941673115284931,0.017772564542810988,0.08991459356579118
140,1791285992.462833,0.029889843749999978,-0.02505190429687502,0.032332763671875,0.050659730308801665,0.0887434833150614,-0.009711267453370233,0.01797887305442013,0.09106565995340078
141,1791285992.482833,0.07300019531249997,-0.02505190429687502,-0.010777587890625,0.07792806186030213,0.08964294723918746,-0.009984618231471107,0.018150031947653803,0.09200529468816904
142,1791285992.4923863,0.08737031249999998,-0.01547182617187502,-0.039517822265625,0.09713190612799635,0.09012305538242124,-0.010124640014887965,0.01818348906302006,0.09249493349042967
143,1791285992.5123863,0.03946992187499998,-0.01547182617187502,0.008382568359375,0.0432148075341186,0.09116765044017927,-0.010420219093389665,0.018196321940268066,0.09354799615646955
144,1791285992.5380616,-0.008430468750000026,-0.01068178710937502,0.051492919921875005,0.05326062505524479,0.09236728481043571,-0.010793117958654988,0.01832562426060517,0.09478415058997189
145,1791285992.5580616,0.015519726562499976,0.013268408203124981,0.056282958984375006,0.05987223096608611,0.0931722138812358,-0.01103613974006454,0.018572900853355508,0.09564418678624204
146,1791285992.5983636,0.08258027343749998,0.051588720703124986,0.013172607421875001,0.09825688398828927,0.09484744943362058,-0.011256356158000873,0.01920638572815046,0.09742499407625067
147,1791285992.6183636,0.09695039062499998,0.02763852539062498,0.013172607421875001,0.10166997548145244,0.09582338380726352,-0.011230405878770703,0.0195131166137056,0.09843274160794331
148,1791285992.6125212,0.06342011718749997,-0.01547182617187502,0.027542724609375003,0.07085259591628819,0.09582338380726352,-0.011230405878770703,0.0195131166137056,0.09843274160794331
149,1791285992.6325212,0.09216035156249998,-0.053792138671875024,-0.010777587890625,0.1072533495223248,0.09696633907524677,-0.011300040123499638,0.01981178935844725,0.09961259367184408
150,1791285992.6732657,0.07779023437499998,-0.04421206054687502,-0.044307861328125,0.099845948527671,0.09946487346682613,-0.011720107120309874,0.02016065208412212,0.10216199810663595
151,1791285992.6932657,0.08258027343749998,-0.058582177734375025,-0.020357666015625,0.1032753972382479,0.1007479009706724,-0.012049564307337262,0.020209211062913523,0.10345889890086041
152,1791285992.702742,0.03467988281249998,-0.053792138671875024,0.017962646484375,0.06647514666027893,0.10134797872553654,-0.012262120647283383,0.02022706589619599,0.10407164161907602
153,1791285992.722742,0.005939648437499976,-0.03463198242187502,0.008382568359375,0.03612369142723029,0.10248540189247182,-0.012776066636837708,0.020298613895961118,0.10525454482286117
154,1791285992.7321658,0.010729687499999975,-0.01547182617187502,0.013172607421875001,0.02297871156595184,0.10295273168764284,-0.013017319011255146,0.02034250428173493,0.10574749659751273
155,1791285992.7521658,0.025099804687499977,-0.001101708984375019,0.003592529296875,0.02537952373047618,0.10384951749583182,-0.013477387562767958,0.020446828215572047,0.10669786803732886
156,1791285992.77791,-0.0036404296875000245,0.022848486328124983,-0.0059875488281250005,0.023898886935699054,0.10487215141603344,-0.01393877314866013,0.020556347772983628,0.10777300670056998
157,1791285992.79791,0.010729687499999975,0.003688330078124981,0.008382568359375,0.014106644707812416,0.10555807371605927,-0.014203640375809363,0.020632260694061558,0.10848935665731474
158,1791285992.8232296,0.020309765624999976,0.046798681640624985,-0.001197509765625,0.05102976790738684,0.10635512598943551,-0.014392786270053597,0.020727593497163525,0.10930781423588982
159,1791285992.8432295,0.015519726562499976,0.08990903320312499,0.003592529296875,0.09130937756246237,0.10694402430322335,-0.014314720586412753,0.02079519404948357,0.10988346397520954
160,1791285992.8527834,0.020309765624999976,0.07553891601562499,0.013172607421875001,0.07932296009888254,0.10720881485597501,-0.014164472074012353,0.020834655626022425,0.1101292201325931
161,1791285992.8727834,0.049049999999999976,0.003688330078124981,0.013172607421875001,0.05092174255714385,0.10778401599587702,-0.013778282927696709,0.020944390338583245,0.11066120671350946
162,1791285992.8975353,0.09216035156249998,-0.029841943359375022,0.013172607421875001,0.09776292533408856,0.10865124461401263,-0.01342057999524464,0.021108733580571457,0.11149342382830618
163,1791285992.9175353,0.09695039062499998,-0.005891748046875019,0.013172607421875001,0.09801840910603873,0.1095305363068876,-0.013228504648156014,0.02126112481186686,0.11235642904242947
164,1791285992.9434009,0.06821015624999997,0.003688330078124981,0.032332763671875,0.07557537165688259,0.11081752803473699,-0.013021633138657725,0.021516923156076354,0.11363566971436391
165,1791285992.9634008,0.07779023437499998,-0.03463198242187502,0.027542724609375003,0.08949467274365754,0.1118823961563626,-0.012932083489867512,0.021774858260269554,0.11471291908644377
166,1791285992.972854,0.07300019531249997,-0.03463198242187502,0.003592529296875,0.08087835921234499,0.11241711993385371,-0.012945213160652223,0.021900559323158306,0.1152598017379188
167,1791285992.9928539,0.07779023437499998,-0.03463198242187502,-0.029937744140625,0.09026053010489145,0.11360493019505226,-0.013072720858539342,0.022087097062231432,0.11646809027327794
168,1791285993.0183394,0.07300019531249997,-0.03942202148437502,-0.025147705078125002,0.08669216437645344,0.11517971248029851,-0.013352376801077537,0.02218385161875473,0.11805412066474051
169,1791285993.0383394,0.03946992187499998,-0.005891748046875019,-0.010777587890625,0.0413369547572944,0.11639886802340617,-0.01360689046721162,0.022194503366399887,0.11927464074562605
170,1791285993.0780165,0.03946992187499998,0.018058447265624982,0.003592529296875,0.04355328365591813,0.11868961392474957,-0.013999866330498186,0.022191084002591666,0.12155519289642876
171,1791285993.0980165,0.06342011718749997,0.03721860351562498,0.003592529296875,0.07362229267333656,0.11982543692084877,-0.014085324430472647,0.02220039652690714,0.12267595242563184
172,1791285993.1085522,0.044259960937499974,0.022848486328124983,0.013172607421875001,0.05152198614151413,0.12041910907877232,-0.014076126127644964,0.022217813836227906,0.12325798314814304
173,1791285993.1285522,0.05863007812499998,-0.001101708984375019,0.017962646484375,0.06132989884511863,0.12153136807353979,-0.014028664003456783,0.022292620500296966,0.12435287599536389
174,1791285993.137738,0.05863007812499998,-0.02505190429687502,0.022752685546875002,0.06769614959093583,0.12204637462832935,-0.014028153078686099,0.022349874949251496,0.12486642282441161
175,1791285993.157738,0.049049999999999976,0.003688330078124981,0.017962646484375,0.05236566573135329,0.1231610082718368,-0.014059252849859932,0.022516907702677173,0.12598931574432265
176,1791285993.1832821,0.05863007812499998,-0.02026186523437502,0.008382568359375,0.0625962993795893,0.12457738073127536,-0.014124767421491049,0.0227487156475245,0.12742267030708576
177,1791285993.203282,0.08258027343749998,-0.053792138671875024,-0.053887939453125006,0.11232544574765846,0.12573181083272764,-0.014279449143260297,0.0228347289372216,0.12858388611621654
178,1791285993.227772,0.08258027343749998,-0.058582177734375025,-0.029937744140625,0.10558239262937592,0.12723672292531898,-0.014646847619393555,0.022770287297301378,0.13008535578443015
179,1791285993.247772,0.020309765624999976,-0.01547182617187502,0.027542724609375003,0.037556166787133895,0.1284357130814678,-0.015012963180074241,0.02272196172858129,0.13129131350925885
180,1791285993.2577791,0.05384003906249998,-0.001101708984375019,0.032332763671875,0.06281218970549503,0.12900130044916308,-0.015181112616878122,0.022746347364776164,0.1318681084125371
181,1791285993.277779,0.08258027343749998,-0.01068178710937502,0.008382568359375,0.08368912467675756,0.13016674202139503,-0.015484437573925997,0.022848846255932934,0.13306095712369004
182,1791285993.3026967,0.12090058593749999,-0.001101708984375019,0.022752685546875002,0.12302784295561736,0.13178121275666083,-0.015827679671275564,0.023015578682382753,0.13470902101001908
183,1791285993.3226967,0.09216035156249998,0.051588720703124986,0.027542724609375003,0.1091491098581042,0.13320227324234596,-0.01598612545057835,0.023204774585401766,0.13615015008221448
184,1791285993.348336,0.09216035156249998,0.013268408203124981,0.008382568359375,0.09348715691830585,0.13510520076087706,-0.016034062405023055,0.023480018333784113,0.1380645417578312
185,1791285993.368336,0.11611054687499998,-0.053792138671875024,-0.001197509765625,0.1279714316093423,0.13667933168386934,-0.01612663225780935,0.02367329465618001,0.13964860492466835
186,1791285993.3778806,0.12090058593749999,-0.04900209960937502,0.008382568359375,0.13072270230704966,0.13748753558202728,-0.016237767707157135,0.023756839885739862,0.14046663298409162
187,1791285993.3978806,0.06342011718749997,0.003688330078124981,0.022752685546875002,0.06747888367805448,0.13920351487104968,-0.016503682544087746,0.0239523458059614,0.14221007334074098
188,1791285993.4233932,0.09216035156249998,0.008478369140624982,-0.010777587890625,0.09317494053740223,0.14136183084010398,-0.016768731101381718,0.02418724481087646,0.14439314517233112
189,1791285993.4433932,0.10653046874999998,-0.04421206054687502,-0.015567626953125,0.11638641707195445,0.14309802673114247,-0.01699894253034601,0.02430424828860881,0.14613933688904954
190,1791285993.4679093,0.09216035156249998,-0.09690249023437503,0.022752685546875002,0.13565141987219195,0.14527236522267908,-0.01749827642967409,0.02443936958796439,0.14834935982759706
191,1791285993.4879093,0.08258027343749998,-0.04900209960937502,0.027542724609375003,0.09989649146014713,0.1470422079957893,-0.018063381743808237,0.0246085085848827,0.15017747962684602
192,1791285993.5125532,0.09695039062499998,-0.01547182617187502,0.008382568359375,0.09853437521866364,0.1492277074704814,-0.018774420875486753,0.02485205957607839,0.15244347287200732
193,1791285993.5325532,0.15922089843749998,-0.03942202148437502,-0.034727783203125,0.1676645734893405,0.15111957681957341,-0.019347254334881773,0.024980549421625718,0.15438740427195424
194,1791285993.5436018,0.12569062499999997,-0.02505190429687502,-0.044307861328125,0.13560574359982971,0.1522440202112549,-0.019669662115183992,0.02497539140690546,0.1555278350448518
195,1791285993.5636017,0.07779023437499998,-0.029841943359375022,0.003592529296875,0.08339525414752616,0.15427937865990368,-0.02024807915953,0.02490638202983512,0.1575831185601828
196,1791285993.58815,0.029889843749999978,-0.005891748046875019,0.017962646484375,0.03536625684419964,0.15660112722488226,-0.020917333717568695,0.024874070017741227,0.159938010670395
197,1791285993.60815,0.05863007812499998,-0.03463198242187502,0.013172607421875001,0.0693568875722051,0.15834174542889215,-0.02144158598293528,0.02489839640203935,0.16171512019079967
198,1791285993.6177769,0.10174042968749998,-0.02505190429687502,-0.001197509765625,0.1047861964742288,0.15916969563332165,-0.02169917234770185,0.024916995550663214,0.16256291937539535
199,1791285993.6377769,0.12569062499999997,-0.01547182617187502,-0.010777587890625,0.12709707714469076,0.16097291074486816,-0.022214827030157366,0.02493187696891553,0.1644000456899214
200,1791285993.6630147,0.09695039062499998,-0.02505190429687502,0.017962646484375,0.10173314513944066,0.1633284754235691,-0.02284462682447829,0.024961439018934432,0.16679670649276343
201,1791285993.6830146,0.07779023437499998,-0.005891748046875019,0.041912841796875,0.08855913034044065,0.1651772760533979,-0.02331527047387622,0.025071164931361502,0.16868816696112965
202,1791285993.7080991,0.09695039062499998,-0.001101708984375019,0.017962646484375,0.09860653464020003,0.16747701378963858,-0.02383017699038172,0.025300788838705124,0.171045483422242
203,1791285993.728099,0.14006074218749998,-0.04421206054687502,-0.010777587890625,0.14726803523050758,0.1693910826892633,-0.024247104265757987,0.025467184562799904,0.17300242324739584
204,1791285993.7527125,0.12569062499999997,-0.03463198242187502,-0.015567626953125,0.13130064138575767,0.1718839100663182,-0.024828785623276582,0.025592612722659787,0.17554352440686852
205,1791285993.7727125,0.11132050781249998,-0.03463198242187502,0.003592529296875,0.11663848392726492,0.17396117387649643,-0.02533443748683461,0.025661280887072688,0.17765929493282415
206,1791285993.7833765,0.11132050781249998,-0.02505190429687502,0.013172607421875001,0.1148624000916901,0.17508069911457277,-0.025611344057408548,0.025705811400975085,0.17880151254018245
207,1791285993.8033764,0.14485078124999998,-0.04421206054687502,0.022752685546875002,0.15314744472609024,0.17724964580876923,-0.026156670260006645,0.02583068756675608,0.18102163616152692
208,1791285993.8274548,0.12569062499999997,-0.04421206054687502,0.032332763671875,0.13710669975370451,0.1799577623279032,-0.026874402977700506,0.026057954884871313,0.1838098114091191
209,1791285993.8474548,0.07300019531249997,-0.03463198242187502,0.032332763671875,0.08702764117677511,0.18216780222470744,-0.02749940775762002,0.02631540999393252,0.18610165608491702
210,1791285993.8736334,0.09216035156249998,0.003688330078124981,-0.0059875488281250005,0.09242826905150812,0.18495094918572305,-0.02825553736756776,0.026653578418103757,0.18898582549789267
211,1791285993.8936334,0.10174042968749998,-0.04900209960937502,0.008382568359375,0.11323686789832997,0.187049133402103,-0.028814527029647437,0.02687677237716297,0.191154430154872
212,1791285993.9026444,0.12569062499999997,-0.07774233398437502,0.003592529296875,0.14783406228937102,0.1880063773326863,-0.029114260168496376,0.026970341875132545,0.19214951835427754
213,1791285993.9226444,0.10653046874999998,-0.04900209960937502,-0.025147705078125002,0.11992645083099136,0.1901606210556361,-0.02986984566714927,0.02711453501266666,0.19439256027275756
214,1791285993.9478781,0.07779023437499998,-0.04900209960937502,-0.020357666015625,0.0941645416058947,0.19281974050389367,-0.030865638136962515,0.02718305248861832,0.1971574454292553
215,1791285993.967878,0.08737031249999998,-0.02505190429687502,0.022752685546875002,0.09369553946075775,0.19485893085013578,-0.031647584794500694,0.02723280526354452,0.19928170572811055
216,1791285993.9934955,0.09695039062499998,0.013268408203124981,0.041912841796875,0.1064524081741447,0.19743321242173204,-0.03252156018111627,0.02741121505637963,0.20196262019157363
217,1791285994.0134954,0.08258027343749998,0.03721860351562498,0.017962646484375,0.09234382858311749,0.19941083185852745,-0.0330258101390233,0.02761942305176733,0.20400543259325526
218,1791285994.0233104,0.07779023437499998,0.008478369140624982,-0.0059875488281250005,0.07847964098013771,0.20035382246542077,-0.033202512819991085,0.027715089448148336,0.20496874692788136
219,1791285994.0433104,0.10653046874999998,-0.04900209960937502,-0.020357666015625,0.11901420547071499,0.20226360550198094,-0.033569355367740195,0.02784127017518824,0.2069120684141803
220,1791285994.0679975,0.12090058593749999,-0.08253237304687502,-0.029937744140625,0.1494149015493732,0.20468844636924535,-0.034197786701207954,0.02788053567785941,0.2093900020583627
221,1791285994.0879974,0.12090058593749999,-0.09211245117187503,-0.015567626953125,0.15278745481836375,0.20672094034325847,-0.03489250372115277,0.02783931667480779,0.21148536957731123
222,1791285994.1136656,0.10653046874999998,-0.06337221679687502,0.003592529296875,0.12400679376789707,0.20937601225097846,-0.03594969376831709,0.027771297590997696,0.2142473802828063
223,1791285994.1336656,0.10653046874999998,-0.058582177734375025,0.017962646484375,0.12289535788189584,0.21145405456685207,-0.03683280099516788,0.027758581359179066,0.21642553283054441
224,1791285994.1430857,0.10174042968749998,-0.029841943359375022,0.008382568359375,0.10635752944084809,0.21243315925513961,-0.037248831862882095,0.027772103529820208,0.21745485131571524
225,1791285994.1630857,0.10653046874999998,-0.029841943359375022,0.008382568359375,0.1109484105693203,0.2145124960203446,-0.038089143225858,0.027821653850318373,0.21963706017775148
226,1791285994.1879168,0.08737031249999998,-0.058582177734375025,0.032332763671875,0.11004931013464317,0.2170679706866355,-0.0391406162061991,0.027949770693268143,0.22233236700224573
227,1791285994.2079167,0.07300019531249997,-0.03942202148437502,0.046702880859375004,0.0952065301024181,0.21905807029212607,-0.040007487971457756,0.028156036152396202,0.22445444888821298
228,1791285994.2334757,0.09216035156249998,-0.02505190429687502,0.027542724609375003,0.0993968308746876,0.22153642836513934,-0.04107272436051502,0.02852241628731005,0.22710985449787063
229,1791285994.2534757,0.09695039062499998,-0.04421206054687502,0.037122802734375,0.11283699314939205,0.22346852066930362,-0.04188513923607213,0.02886310433673576,0.2291846927936188
230,1791285994.2635527,0.06342011718749997,-0.04421206054687502,0.094603271484375,0.1221744512466626,0.22441718744870803,-0.04229990324398377,0.02910856706409725,0.23021656003286123
231,1791285994.2835526,0.07300019531249997,-0.02505190429687502,0.15208374023437501,0.17054644665967034,0.22622222661452676,-0.04310350948663308,0.029892694928955445,0.2322239900497237
232,1791285994.3083556,0.08737031249999998,-0.03463198242187502,0.195194091796875,0.21664182233637064,0.2284232882651218,-0.04406163622555902,0.03136527680862232,0.2347390189082461
233,1791285994.3283556,0.09695039062499998,-0.02026186523437502,0.247884521484375,0.26693942649345304,0.2302083820559013,-0.044800679311825936,0.03303920529064786,0.23684296299834298
234,1791285994.3529267,0.10174042968749998,-0.01068178710937502,0.271834716796875,0.29044677458165097,0.23243866804426438,-0.0456294685430666,0.03574500753370463,0.23955685831405252
235,1791285994.3729267,0.06342011718749997,0.051588720703124986,0.247884521484375,0.26101770698440907,0.2342294694464544,-0.04614151995013448,0.03839664037278953,0.24179906164498138
236,1791285994.397996,0.03946992187499998,0.018058447265624982,0.17603393554687502,0.1813061739560606,0.23633092040640744,-0.046556131732761595,0.0420188539652304,0.24451045259990278
237,1791285994.417996,-0.03238066406250003,-0.06816225585937502,0.16645385742187502,0.1827607375220107,0.2377665929707643,-0.046912444461110946,0.0449888854082473,0.24649083144920084
238,1791285994.42785,-0.13776152343750003,0.046798681640624985,0.16645385742187502,0.22107745383404284,0.2382421062301406,-0.04707745665307431,0.04647876819674539,0.24725667634865287
239,1791285994.44785,-0.08507109375000003,0.08990903320312499,0.051492919921875005,0.134060605866983,0.23872819996869113,-0.047157069753755235,0.04937599270019709,0.24830008325246658
240,1791285994.4735963,-0.08028105468750003,-0.01068178710937502,-0.07304809570312501,0.10906499256608554,0.2389408027972666,-0.047091198154811394,0.05250457328066742,0.2491325317987254
241,1791285994.4935963,-0.06112089843750003,-0.10169252929687503,-0.202379150390625,0.23459423533717574,0.23886907900775856,-0.04721626529147562,0.05415719468636108,0.24944100374715106
242,1791285994.5181787,-0.008430468750000026,-0.15438295898437504,-0.130528564453125,0.2023434628702137,0.23866591501466933,-0.04781905047060417,0.055269999923100326,0.2496053955129958
243,1791285994.5381787,0.005939648437499976,-0.13522280273437504,0.022752685546875002,0.13725221492746764,0.23852168044125002,-0.04867031564132534,0.05587789829289753,0.24976735411733741
244,1791285994.5481462,-0.08507109375000003,-0.03463198242187502,0.209564208984375,0.2288091407386015,0.23840142342150797,-0.04915790814650854,0.05630908991956817,0.24984485632150147
245,1791285994.5681462,-0.18087187500000004,-0.02026186523437502,0.314945068359375,0.3637520782520466,0.23779740737296723,-0.050071852569854566,0.05783126341549089,0.24979842353648687
246,1791285994.593465,-0.09944121093750002,0.03721860351562498,0.233514404296875,0.2565204785090151,0.23661516371738683,-0.051023105462767955,0.060510679879137594,0.24950277628015682
247,1791285994.613465,0.029889843749999978,0.10427915039062499,0.17603393554687502,0.20677400810960583,0.23571703632730104,-0.051449564059499936,0.06292405731458957,0.24933715295913783
248,1791285994.6379113,0.06342011718749997,0.133019384765625,0.195194091796875,0.24457514481219975,0.23495499288059407,-0.051457560855586434,0.06611211075935029,0.24944446363425865
249,1791285994.6579113,0.09695039062499998,0.05637875976562498,0.204774169921875,0.23347463130336682,0.23466562146030048,-0.051179024902079956,0.0689290430603575,0.24987688861215912
250,1791285994.6680934,0.09695039062499998,-0.01068178710937502,0.16166381835937502,0.18880855114301123,0.23468847285018446,-0.051023593866549255,0.07042788073260074,0.25028418408740044
251,1791285994.6880934,0.03946992187499998,0.08032895507812499,0.15208374023437501,0.17646552014611488,0.23493125553294456,-0.050659617403246586,0.0734009431986435,0.25129025075434086
252,1791285994.7136269,0.025099804687499977,0.18570981445312498,0.17603393554687502,0.2571110301867388,0.23531836806788314,-0.049755173959597984,0.07725557567062426,0.252623703674222
253,1791285994.7336268,0.05384003906249998,0.209660009765625,0.25267456054687504,0.33271685116436456,0.23569451453173257,-0.048559947686448196,0.08046502507085976,0.2537411928704399
254,1791285994.7580788,0.03467988281249998,0.324620947265625,0.271834716796875,0.4248241600139494,0.23624774610103486,-0.04633804018974206,0.08476221263963014,0.25523488044938347
255,1791285994.7780788,0.06821015624999997,0.401261572265625,0.324525146484375,0.520557437266471,0.2367867096253306,-0.04370445889591368,0.08864432746396676,0.25658496131713215
256,1791285994.7879057,0.07779023437499998,0.391681494140625,0.35326538085937503,0.5331623980834256,0.23711940911256285,-0.04202014772410147,0.0907652112347068,0.25735118139058
257,1791285994.8079057,0.1879611328125,0.382101416015625,0.199984130859375,0.4704514131819391,0.23809358725000734,-0.03794571053548048,0.09526409476965257,0.25923672770250106
258,1791285994.8326404,0.22149140625,0.372521337890625,0.104183349609375,0.44574068757771373,0.23987724738364297,-0.03226264652447623,0.10055770644780912,0.26209506767423246
259,1791285994.8526404,0.20233125,0.329410986328125,0.142503662109375,0.4120155656705382,0.24173887595547555,-0.02730382507983325,0.10456599313424682,0.2647965821765045
260,1791285994.8778925,0.2933419921875,0.243190283203125,0.17124389648437502,0.4177505359758366,0.24467556388583916,-0.02089748736257125,0.10946195721884867,0.2688582463289963
261,1791285994.8978925,0.422673046875,0.15217954101562498,0.06586303710937501,0.45403640483511143,0.24772659484439696,-0.01599161877566308,0.11311363216671681,0.2727982614427985
262,1791285994.9236655,0.35082246093749997,0.16654965820312498,-0.015567626953125,0.3886612133398098,0.2525637089827139,-0.01000185140716728,0.11721073472929107,0.2786159013094125
263,1791285994.9436655,0.269391796875,0.257560400390625,-0.015567626953125,0.3730303621447884,0.25668460518170794,-0.0054148175304798134,0.11986649362959904,0.28334481304804643
264,1791285994.9532266,0.288551953125,0.18570981445312498,-0.020357666015625,0.3437510718558853,0.25875920297934746,-0.0032330368346643605,0.12091988805560674,0.2856368270742796
265,1791285994.9732265,0.346032421875,-0.08253237304687502,-0.029937744140625,0.35699621582540064,0.2633998037406672,0.0008010301406933171,0.1227174261129407,0.29058503907065375
266,1791285994.9981217,0.3939328125,-0.16396303710937501,-0.082628173828125,0.43461978028210047,0.2696913939581786,0.004609019850903871,0.12440912895156099,0.29703926071409764
267,1791285995.0181217,0.3795626953125,-0.09211245117187503,-0.116158447265625,0.40748659880411003,0.27514792493753537,0.006825239026269959,0.12526614914217335,0.30239803671007276
268,1791285995.028188,0.45141328125,-0.22144350585937503,-0.111368408203125,0.5149894165144373,0.27810968339756686,0.007536649645181009,0.12546102085786642,0.3051921769018123
269,1791285995.048188,0.575954296875,-0.47531557617187503,-0.07304809570312501,0.7503227794264479,0.2846525702873831,0.007692946909106736,0.12551349698946956,0.31119110708676345
270,1791285995.0729399,0.480153515625,-0.6046466308593751,-0.082628173828125,0.7765129502376708,0.29349595554017205,0.005852531009043502,0.12527970333594288,0.3191694410584953
271,1791285995.0929399,0.384352734375,-0.5902765136718751,-0.135318603515625,0.7172618151495181,0.3008664856331575,0.0027961222739829707,0.12479221043242572,0.3257323383725184
272,1791285995.1175487,0.5807443359375,-0.6190167480468751,-0.173638916015625,0.8663695465799207,0.31035639930023684,-0.002632454540766397,0.12371212104217431,0.33411482052772046
273,1791285995.1375487,0.748395703125,-0.7339776855468751,-0.269439697265625,1.0823202491865809,0.3189058130408159,-0.008412047005033896,0.12230136967156018,0.3416567065777845
274,1791285995.1630201,0.6957052734375001,-0.7866681152343751,-0.370030517578125,1.1134519006020358,0.33091962578042755,-0.017573652106879282,0.11955256078625777,0.35229170692138595
275,1791285995.18302,0.6621750000000001,-0.7866681152343751,-0.326920166015625,1.078980652791832,0.34097462266487344,-0.026048231304330163,0.11667254414622266,0.3613235201493102
276,1791285995.1930747,0.556794140625,-0.8441485839843751,-0.259859619140625,1.044094616659366,0.34619054553256867,-0.030899381260266794,0.11499936706384341,0.3660976918849522
277,1791285995.2130747,0.6621750000000001,-1.0117999511718752,-0.279019775390625,1.2409943218546344,0.3568379169208789,-0.04188547418674096,0.11136209320790603,0.3761505120346463
278,1791285995.23809,0.7436056640625001,-1.0022198730468752,-0.42272094726562504,1.3176065637408891,0.37079516536447127,-0.05734398449159873,0.10617854058632659,0.38993752024661654
279,1791285995.25809,0.6286447265625,-0.9495294433593752,-0.499361572265625,1.2434477616276456,0.3823386334527851,-0.0707769306405481,0.1012727691970488,0.4018063940783905
280,1791285995.2827015,0.6621750000000001,-0.9830597167968751,-0.47062133789062505,1.2752907829556812,0.39679564264065836,-0.08839492918211525,0.09435093511073313,0.4173278620940543
281,1791285995.3027015,0.7531857421875001,-1.026170068359375,-0.46104125976562504,1.3538363322933442,0.40890463100487123,-0.10357812340753618,0.08817229568723631,0.43093593332723384
282,1791285995.3122473,0.7244455078125001,-1.150711083984375,-0.523311767578125,1.4569874737553334,0.41487509973693126,-0.11129640592814306,0.08496090709036896,0.4378659544745046
283,1791285995.3322473,0.6861251953125,-1.347102685546875,-0.484991455078125,1.5876618470408037,0.42762367591397177,-0.12878850165944813,0.07772933780234323,0.4533104193784365
284,1791285995.3582034,0.7436056640625001,-1.3135724121093753,-0.456251220703125,1.5768915758141921,0.4444703830962371,-0.15326425693203796,0.06791959389614126,0.4750336042193881
285,1791285995.3782034,0.8010861328125001,-1.3662628417968752,-0.384400634765625,1.6297782036423163,0.4578211699770057,-0.17331440265953457,0.06023372523777026,0.4932202423911298
286,1791285995.4025903,0.7627658203125001,-1.500383935546875,-0.355660400390625,1.7203075222442499,0.4745188169186232,-0.1993383894266937,0.05091417294504067,0.5172003036694348
287,1791285995.4225903,0.729235546875,-1.663245263671875,-0.21674926757812502,1.8289749957144463,0.48839666969512713,-0.2222250301434881,0.043558942236294806,0.5383425047683957
288,1791285995.4331524,0.8106662109375001,-1.7207257324218752,-0.106578369140625,1.9051077923685151,0.4958461967502384,-0.23517934485666708,0.040001101234875346,0.550248001521941
289,1791285995.4531524,0.9304171875000001,-1.7159356933593752,-0.188009033203125,1.9609841516713244,0.5104479408570698,-0.2611844889023709,0.0338328240220304,0.5743858437929342
290,1791285995.4776921,0.8106662109375001,-1.7925763183593753,-0.130528564453125,1.9716864022548841,0.5288810898736357,-0.2947635980406229,0.026813427931460517,0.6060690933162771
291,1791285995.497692,0.6094845703125,-1.7782062011718751,0.022752685546875002,1.87989532156307,0.5437809533471184,-0.32338183183371516,0.021789048931304518,0.6330468363688116
292,1791285995.5376906,0.7340255859375001,-2.0224981933593753,-0.020357666015625,2.151675379214632,0.5731401978700187,-0.3834327839234078,0.013255094891966489,0.6896999954634869
293,1791285995.5576906,0.7962960937500001,-2.257210107421875,-0.183218994140625,2.400552881688484,0.5879138033755965,-0.4153749076495358,0.009322670012328308,0.7199068455575198
294,1791285995.552632,0.6478048828125,-2.4152813964843753,-0.22153930664062502,2.5104412071956674,0.5879138033755965,-0.4153749076495358,0.009322670012328308,0.7199068455575198
295,1791285995.572632,0.6190646484375001,-2.4344415527343752,-0.207169189453125,2.5204495205584787,0.6023292628271647,-0.4516850905139427,0.005322364564585113,0.7528932789015071
296,1791285995.5981867,0.729235546875,-2.616463037109375,-0.259859619140625,2.7285876069947994,0.6205696690981494,-0.5008011945838675,8.26299203515882e-05,0.7974387484496342
297,1791285995.6181867,0.710075390625,-2.7984845214843754,-0.255069580078125,2.898410455411744,0.634862884008785,-0.5415976125056279,-0.00417544499093934,0.834503618748667
298,1791285995.6430132,0.499313671875,-2.9182354980468754,-0.183218994140625,2.966307766364794,0.6521959305578566,-0.5952875438452655,-0.009484349432667585,0.8830723325853429
299,1791285995.6630132,0.52805390625,-2.9134454589843752,-0.12094848632812501,2.9633821735860573,0.6656057978124665,-0.6407992799607415,-0.013575876740861931,0.9240341442333492
300,1791285995.6728883,0.6525949218750001,-2.9038653808593753,-0.140108642578125,2.9795880107719066,0.6721082138152583,-0.6642085909336972,-0.015486398121150786,0.9450620783180496
301,1791285995.6928883,0.6957052734375001,-3.028406396484375,-0.27422973632812503,3.1193674163270373,0.6853246170911913,-0.7134062837042918,-0.019396881098891802,0.9894415573525912
302,1791285995.718093,0.518473828125,-3.0379864746093754,-0.22153930664062502,3.0898635236441923,0.7017772378937579,-0.7775744054567703,-0.024522963293170098,1.0477187711289324
303,1791285995.738093,0.4705734375,-2.999666162109375,-0.178428955078125,3.0415905931263705,0.7143577356223432,-0.8299108523359782,-0.028580343991969268,1.095388439473053
304,1791285995.763027,0.6525949218750001,-3.052356591796875,-0.29338989257812503,3.1350978492879413,0.7297896529299637,-0.8966893045263786,-0.03376227007028887,1.1566263602633031
305,1791285995.783027,0.6669650390625,-3.196057763671875,-0.350870361328125,3.2837079045672497,0.7422904388851308,-0.9515913216437467,-0.03826168554146974,1.2074705361492044
306,1791285995.7931054,0.7148654296875001,-3.162527490234375,-0.30296997070312504,3.256440313010248,0.7486894478152826,-0.9799140470892312,-0.04068316308734661,1.2338648826802472
307,1791285995.8131053,0.8154562500000001,-3.061936669921875,-0.40356079101562503,3.194258345582192,0.7617785781657199,-1.0370246302597024,-0.045827431525465215,1.2875662466054627
308,1791285995.838253,0.7819259765625001,-2.956555810546875,-0.5568420410156251,3.1084889500115898,0.7787807270144087,-1.1094144560095058,-0.05313690117594518,1.3565114766335524
309,1791285995.858253,0.7004953125000001,-3.0044562011718754,-0.475411376953125,3.1214526626125654,0.7924979139021273,-1.1672919324349567,-0.0596265262158413,1.412153929887081
310,1791285995.8822093,0.6957052734375001,-3.0140362792968753,-0.389190673828125,3.1176737964388272,0.8089725658027065,-1.2370330790877513,-0.06778734676069036,1.4796224435171264
311,1791285995.9022093,0.7531857421875001,-3.052356591796875,-0.475411376953125,3.179651789592193,0.8228367218292469,-1.2956227070282391,-0.07487536925481043,1.5366537640857578
312,1791285995.9286537,0.7004953125000001,-3.1768976074218753,-0.499361572265625,3.2913119072389514,0.8413016351819605,-1.3738256615917686,-0.08477482276914595,1.6131869576659246
313,1791285995.9486537,0.7340255859375001,-3.128997216796875,-0.532891845703125,3.257819955545482,0.855323708783839,-1.4335577925240814,-0.09268713199644407,1.671902358318806
314,1791285995.9585216,0.8489865234375001,-2.9613458496093754,-0.6143225097656251,3.1412958319747446,0.8623759523313703,-1.463116057851472,-0.09685449241572101,1.7011118936164595
315,1791285995.9785216,0.7579757812500001,-2.865545068359375,-0.604742431640625,3.0251593730557236,0.8769356801815944,-1.522778030495795,-0.10586242840895174,1.7604192600300783
316,1791285996.0177896,0.4753634765625,-2.932605615234375,-0.499361572265625,3.0125583993027205,0.9048666069751606,-1.6394235785066444,-0.12414740157735563,1.8766741388692605
317,1791285996.0377896,0.4370431640625,-2.932605615234375,-0.259859619140625,2.9763584198509863,0.9183271250567278,-1.698719797269028,-0.1332021972959616,1.9356436871524558
318,1791285996.0478616,0.5807443359375,-2.822434716796875,-0.154478759765625,2.885700157937839,0.9248578719787623,-1.7284494973122533,-0.1373911850954597,1.9651402204071853
319,1791285996.0678616,0.5999044921875,-2.7410040527343753,-0.173638916015625,2.8112522281019348,0.9376517456708872,-1.7869738349893955,-0.14495373197574532,2.0232345063066877
320,1791285996.0781553,0.5903244140625,-2.7745343261718753,-0.173638916015625,2.8419489992079976,0.9441677471274897,-1.8168354299032123,-0.14853033088940334,2.0529015985335257
321,1791285996.0981553,0.4562033203125,-2.702683740234375,-0.164058837890625,2.745821584058484,0.9564986513827706,-1.8743673878659044,-0.15494359597176124,2.110011917673683
322,1791285996.1232774,0.3939328125,-2.6978937011718753,-0.173638916015625,2.7320256142177954,0.9712660668335039,-1.945969425183285,-0.16242727200900586,2.180948737366992
323,1791285996.1432774,0.5328439453125,-2.717053857421875,-0.164058837890625,2.7736653793270207,0.9826492315045241,-2.0025444080741193,-0.16799796640440035,2.2369637760145715
324,1791285996.1673665,0.5999044921875,-2.726633935546875,-0.058677978515625,2.792465062160181,0.996349691410041,-2.070300190956795,-0.17410358914918533,2.304163112282473
325,1791285996.1873665,0.4705734375,-2.582932763671875,-0.077838134765625,2.6266023294275036,1.0076239961285178,-2.1260806538657206,-0.17861717899457638,2.3595400316477098
326,1791285996.1974242,0.4274630859375,-2.597302880859375,-0.101788330078125,2.634211041070877,1.0131206345996022,-2.153831721410135,-0.18068201963870098,2.3870589637930535
327,1791285996.2174242,0.4849435546875,-2.6978937011718753,-0.025147705078125002,2.741246629022373,1.02377992388986,-2.2086806873079903,-0.18436251569740866,2.441390023785938
328,1791285996.242466,0.56637421875,-2.659573388671875,-0.111368408203125,2.721491004530783,1.037098892416251,-2.277117305768568,-0.18853598369006347,2.509259483199714
329,1791285996.262466,0.537633984375,-2.5446124511718753,-0.288599853515625,2.6167523198161335,1.0477966685366522,-2.3313827189701066,-0.1919691517913376,2.5632158309725774
330,1791285996.2881985,0.4849435546875,-2.597302880859375,-0.360450439453125,2.666660275598545,1.0614696218659232,-2.400652748875078,-0.1969764051490484,2.6322330981528017
331,1791285996.3081985,0.5903244140625,-2.7218438964843754,-0.370030517578125,2.8095977816418167,1.072115450646772,-2.454394158266211,-0.2013801278271368,2.6858957871686884
332,1791285996.3175218,0.575954296875,-2.717053857421875,-0.417930908203125,2.808695651054303,1.0771493096047489,-2.4794919812980782,-0.2036760561379602,2.711017347112956
333,1791285996.3375218,0.4657833984375,-2.649993310546875,-0.365240478515625,2.7152935987383566,1.0878905298899897,-2.533305300680388,-0.20903715159238295,2.7649300320669115
334,1791285996.3632262,0.422673046875,-2.6547833496093753,-0.21195922851562501,2.6965633410826286,1.1013374320856268,-2.6023196821582246,-0.2160065547450508,2.8340202361934312
335,1791285996.3832262,0.50889375,-2.6643634277343753,-0.149688720703125,2.7166545670996287,1.1116280934918772,-2.6559421017602958,-0.22115834654198546,2.8876731948730745
336,1791285996.4077282,0.5807443359375,-2.6452032714843754,-0.188009033203125,2.714721298358471,1.1243465232565644,-2.7215382868647136,-0.22714367256257756,2.953391270931581
337,1791285996.4277282,0.6909152343750001,-2.635623193359375,-0.207169189453125,2.732543238729077,1.135078300893567,-2.7749714082556096,-0.23188917313015228,3.007098544180176
338,1791285996.4377766,0.6909152343750001,-2.597302880859375,-0.197589111328125,2.6948817363526936,1.1407027690090883,-2.801734080477563,-0.2342208098454198,3.0341021823101313
339,1791285996.4577765,0.5807443359375,-2.626043115234375,-0.192799072265625,2.696393500411213,1.1521257980556083,-2.854846496586302,-0.2387510820637648,3.0878057666898306
340,1791285996.482343,0.6094845703125,-2.659573388671875,-0.250279541015625,2.739971149452418,1.166245254048318,-2.920038410448464,-0.2442973831364332,3.153796683759422
341,1791285996.502343,0.710075390625,-2.6883136230468754,-0.288599853515625,2.79544756196211,1.1779952709964172,-2.973173108569908,-0.2489437478282901,3.2077101149567686
342,1791285996.5276027,0.6717550781250001,-2.6547833496093753,-0.31255004882812504,2.7562324015533166,1.1932272306600227,-3.0403377059430516,-0.255070671176084,3.2760503105816103
343,1791285996.5476027,0.6094845703125,-2.6883136230468754,-0.350870361328125,2.7787787943208,1.2054003077122932,-3.093554605294697,-0.2601892647266837,3.330280536419107
344,1791285996.5726326,0.595114453125,-2.7649542480468754,-0.298179931640625,2.843948747383458,1.2206110064458378,-3.160402340260447,-0.26685270419930546,3.39841794768079
345,1791285996.5926325,0.6190646484375001,-2.736214013671875,-0.24069946289062502,2.815678319516495,1.2327631838217188,-3.214056204469931,-0.2721867446948698,3.4531070033906435
346,1791285996.6031256,0.6190646484375001,-2.6308331542968753,-0.24548950195312502,2.7138145147120656,1.2391568840993947,-3.242207141652887,-0.2749481047668812,3.481811797485729
347,1791285996.6231256,0.6525949218750001,-2.6739435058593752,-0.250279541015625,2.7637825264002878,1.2514229331378453,-3.2957721945591105,-0.28016549221917797,3.5364765542899783
348,1791285996.6623008,0.56637421875,-2.683523583984375,-0.23111938476562502,2.7523616680006753,1.275426807996478,-3.400696381349185,-0.29026660487404404,3.64358396672598
349,1791285996.6823008,0.5520041015625,-2.6739435058593752,-0.21674926757812502,2.73891632688277,1.287520778479484,-3.4542640890699996,-0.29532175269118427,3.6982245861585534
350,1791285996.692636,0.6190646484375001,-2.635623193359375,-0.28380981445312503,2.722186376260603,1.2937407581393063,-3.481909189071251,-0.2979302133967442,3.7264217638727253
351,1791285996.712636,0.5903244140625,-2.683523583984375,-0.33171020507812504,2.767636789716373,1.30578584490929,-3.535360261541872,-0.3031440490643591,3.7809714579903955
352,1791285996.7224708,0.48973359375,-2.6978937011718753,-0.24069946289062502,2.7525271383050898,1.3116170846915332,-3.561671005950597,-0.30574553116535597,3.807797271561531
353,1791285996.7424707,0.5472140625,-2.6308331542968753,-0.22153930664062502,2.696257773346645,1.3232521525305367,-3.6151437889661406,-0.31093570655891406,3.8622457052459067
354,1791285996.76818,0.56637421875,-2.5685626464843754,-0.24069946289062502,2.6412553939396557,1.3381122989849188,-3.6835956955699207,-0.31749798237697635,3.931949483644138
355,1791285996.7881799,0.6046945312500001,-2.6739435058593752,-0.207169189453125,2.7492814373413736,1.3496950606529148,-3.7367227563515715,-0.3225090403057566,3.9860739827135045
356,1791285996.813342,0.595114453125,-2.669153466796875,-0.173638916015625,2.7401992472787677,1.3643458516732248,-3.803619902781762,-0.32858649075273283,4.054248765150047
357,1791285996.833342,0.595114453125,-2.6308331542968753,-0.22632934570312502,2.706782087792129,1.3760294936312794,-3.856766618689733,-0.3332924617981304,4.108429113843155
358,1791285996.8428123,0.6717550781250001,-2.669153466796875,-0.307760009765625,2.769539914482447,1.3816317987343292,-3.8819217750794257,-0.33556589013057303,4.134105412508102
359,1791285996.8628123,0.710075390625,-2.726633935546875,-0.346080322265625,2.838751709520677,1.3937612308873373,-3.935171427205171,-0.3406276770523984,4.188576338637113
360,1791285996.8877556,0.6813351562500001,-2.7649542480468754,-0.360450439453125,2.87038570722414,1.4092225457903365,-4.00189443135802,-0.3473153876631584,4.256958444923527
361,1791285996.9077556,0.5999044921875,-2.726633935546875,-0.279019775390625,2.805756591951914,1.4216819649161143,-4.05560644769515,-0.3528325589837694,4.312031317445787
362,1791285996.9325645,0.6478048828125,-2.635623193359375,-0.24069946289062502,2.724719621356557,1.437140480084688,-4.122216617207328,-0.35961677020283866,4.380338664999476
363,1791285996.9525645,0.710075390625,-2.6739435058593752,-0.255069580078125,2.7783522857226015,1.4497700568067473,-4.175824762783537,-0.36500922073409386,4.435377931846455
364,1791285996.9625993,0.6382248046875001,-2.693103662109375,-0.24069946289062502,2.7781422691469855,1.456171055133736,-4.202726825136242,-0.3676821104638832,4.463018826185279
365,1791285996.9825993,0.5041037109375,-2.616463037109375,-0.173638916015625,2.6702340438799843,1.4687284965643255,-4.256266031381667,-0.372831767875321,4.517960541400355
366,1791285997.0082326,0.5807443359375,-2.5685626464843754,-0.202379150390625,2.641161746874117,1.484494417061084,-4.324560807229744,-0.3791647910096837,4.587953333290839
367,1791285997.0282326,0.6046945312500001,-2.5877228027343753,-0.279019775390625,2.6720435653211463,1.4967285050403436,-4.377588205981695,-0.38408693876692723,4.642305191979701
368,1791285997.053209,0.595114453125,-2.669153466796875,-0.29338989257812503,2.7503852585954296,1.5119625393668754,-4.443724266109333,-0.39038406696704775,4.710107832459825
369,1791285997.073209,0.5711642578125,-2.640413232421875,-0.250279541015625,2.7130518786049835,1.5240808393261103,-4.496703415012684,-0.3954856437249688,4.764406878277742
370,1791285997.0830946,0.6046945312500001,-2.5877228027343753,-0.29338989257812503,2.6735823175997613,1.5300439772780996,-4.522838101132813,-0.398032086419667,4.791192816333241
371,1791285997.1030946,0.6190646484375001,-2.635623193359375,-0.298179931640625,2.7237220724501467,1.5421343045438636,-4.57561641482532,-0.4032985073841111,4.845316653731534
372,1791285997.1281025,0.5999044921875,-2.693103662109375,-0.23111938476562502,2.768773899152495,1.5572706764645488,-4.6417058340326305,-0.40988861967519485,4.913098176304657
373,1791285997.1481025,0.5711642578125,-2.616463037109375,-0.21674926757812502,2.6868359977783856,1.569316723535946,-4.694596628390237,-0.4150402671446647,4.967318281066162
374,1791285997.1726842,0.585534375,-2.592512841796875,-0.28380981445312503,2.6729237456329105,1.5840340128408206,-4.759456204801639,-0.4213451500025023,5.033797657305271
375,1791285997.1926842,0.6717550781250001,-2.712263818359375,-0.31255004882812504,2.8116396352289823,1.5960980035813914,-4.812268399038531,-0.42659996646195913,5.087970470905537
376,1791285997.2032738,0.6142746093750001,-2.745794091796875,-0.24069946289062502,2.823943115876322,1.602548894564535,-4.84037186993661,-0.42940434262723526,5.1168106168013265
377,1791285997.2232738,0.5615841796875,-2.6739435058593752,-0.23111938476562502,2.7420369861504876,1.614668600663946,-4.893617296115059,-0.434614067570461,5.171415117599501
378,1791285997.2478945,0.6669650390625,-2.626043115234375,-0.29338989257812503,2.7252563981153237,1.629619051788981,-4.959119178503736,-0.4410339759900725,5.238609762955702
379,1791285997.2678945,0.748395703125,-2.669153466796875,-0.31255004882812504,2.789653005445696,1.6420649772944675,-5.012289262713329,-0.4463756599977027,5.293266691997182
380,1791285997.2934046,0.6478048828125,-2.702683740234375,-0.24548950195312502,2.7900565695863913,1.6582298782916687,-5.080212854866884,-0.45323467449962646,5.363181019710479
381,1791285997.3134046,0.5807443359375,-2.669153466796875,-0.22632934570312502,2.740961361596268,1.6708450355894353,-5.133535074741549,-0.45851326854038776,5.418038382476002
382,1791285997.3377259,0.5903244140625,-2.6452032714843754,-0.269439697265625,2.723633788116983,1.686020926202051,-5.198345871754394,-0.46487385588041086,5.484667179315285
383,1791285997.3577259,0.6238546875000001,-2.6547833496093753,-0.24069946289062502,2.7377007754527765,1.6984497554974407,-5.251596946343185,-0.4700849530122977,5.539402668324352
384,1791285997.3682845,0.6046945312500001,-2.640413232421875,-0.23111938476562502,2.718612455663115,1.7049999650946446,-5.279686136483873,-0.47279701789542233,5.568271509264212
385,1791285997.3882844,0.537633984375,-2.669153466796875,-0.24069946289062502,2.7333800983223226,1.7172596841599577,-5.332875749531183,-0.47787133162681344,5.62289121292327
386,1791285997.4129252,0.5520041015625,-2.635623193359375,-0.24548950195312502,2.7039754512726044,1.7321122067380228,-5.398381315632402,-0.48408383657832976,5.6900852969473386
387,1791285997.4329252,0.5903244140625,-2.6739435058593752,-0.22153930664062502,2.74727800754721,1.7440726321366766,-5.451538737303952,-0.48907046113306213,5.744584742733511
388,1791285997.4583764,0.5615841796875,-2.736214013671875,-0.279019775390625,2.8071508606679245,1.7592087488579404,-5.519364980009145,-0.4954198614156642,5.814090302334045
389,1791285997.4783764,0.5328439453125,-2.7505841308593753,-0.279019775390625,2.815579472515498,1.7709604788867612,-5.572899350793714,-0.5004979684052909,5.868901635590228
390,1791285997.488434,0.5999044921875,-2.6787335449218754,-0.24548950195312502,2.7560413458447344,1.7768382432630918,-5.599878210655978,-0.50306426738246,5.896512848626629
391,1791285997.508434,0.6094845703125,-2.6978937011718753,-0.173638916015625,2.771326818949179,1.7885872029530843,-5.653544100160568,-0.5080306404006947,5.951445219996051
392,1791285997.5327103,0.585534375,-2.755374169921875,-0.24069946289062502,2.827167054140087,1.802884890791724,-5.718842316053709,-0.5139090493332611,6.0182766533550325
393,1791285997.5527103,0.5136837890625,-2.8176446777343753,-0.326920166015625,2.8826844017439965,1.8145459875436016,-5.772928351424818,-0.5188769633996057,6.073591375351313
394,1791285997.5780475,0.48973359375,-2.822434716796875,-0.350870361328125,2.886015719618671,1.8290098249959743,-5.8418877653558035,-0.525514575974441,6.144029229463938
395,1791285997.5980475,0.403512890625,-2.712263818359375,-0.197589111328125,2.7492251872477373,1.8400541917909647,-5.896458060166774,-0.530790764409996,6.199657726005216
396,1791285997.6081696,0.5520041015625,-2.769744287109375,-0.12094848632812501,2.8268039338556727,1.845530730859025,-5.92409523722267,-0.5333023365941979,6.2277844728640215
397,1791285997.6281695,0.6525949218750001,-2.9182354980468754,-0.116158447265625,2.9925693540817218,1.856535465683562,-5.979043790433319,-0.5378761778497836,6.283709045297881
398,1791285997.653102,0.5903244140625,-3.128997216796875,-0.087418212890625,3.1853961198736047,1.8705205544067194,-6.048576675171944,-0.5431034190125191,6.354454206588887
399,1791285997.673102,0.4657833984375,-3.2008478027343754,-0.092208251953125,3.235874409221983,1.8816403561674344,-6.105481977699403,-0.546937018754151,6.412224318631859
400,1791285997.6979337,0.48973359375,-3.2343780761718754,-0.111368408203125,3.273139693751898,1.8951551920199854,-6.177521917836439,-0.5513619509523575,6.485166940653718
401,1791285997.7179337,0.537633984375,-3.267908349609375,-0.111368408203125,3.313710639894091,1.9059485816928212,-6.2365943244203965,-0.5547253916658316,6.544881131358184
402,1791285997.7280645,0.5136837890625,-3.2200079589843753,-0.096998291015625,3.262166605115116,1.9113946231683967,-6.266958335230161,-0.556331884863583,6.575538103235637
403,1791285997.7480645,0.4753634765625,-3.1002569824218753,-0.053887939453125006,3.136951976349603,1.9220168455734137,-6.327390622762541,-0.5592539671970702,6.636473901667736
404,1791285997.7730448,0.5232638671875,-3.061936669921875,0.037122802734375,3.1065478183667374,1.9351650284626778,-6.403094421054986,-0.5623876468135047,6.712731315762524
405,1791285997.7930448,0.518473828125,-3.0331964355468752,0.099393310546875,3.0787943674832086,1.945675437852069,-6.463756229150089,-0.5643154528537464,6.773791363015763
406,1791285997.817746,0.346032421875,-2.8415948730468754,0.089813232421875,2.863994810790172,1.9583108205903519,-6.538322450193197,-0.5659887398202162,6.848721412522552
407,1791285997.837746,0.020309765624999976,-2.6787335449218754,0.108973388671875,2.681026126450112,1.9675563485489471,-6.597921443047063,-0.5668421619247944,6.908339553747418
408,1791285997.8484397,-0.27188261718750006,-2.6978937011718753,0.195194091796875,2.7185752360058038,1.9715565456756756,-6.629320616095341,-0.5669860780004466,6.939481267099843
409,1791285997.8684397,-0.29583281250000004,-2.573352685546875,0.16166381835937502,2.595341266063002,1.9770641122135069,-6.6871429436729,-0.5666795759485095,6.996269648513701
410,1791285997.892752,-0.3197830078125,-2.2428399902343754,0.094603271484375,2.267496895886671,1.98163240038928,-6.755671071126738,-0.5658955936126343,7.063016098976517
411,1791285997.912752,-0.39163359375000006,-2.127879052734375,0.041912841796875,2.1640246812656208,1.9837595839058593,-6.810144414919059,-0.565142631677529,7.11566969672785
412,1791285997.9380672,-0.6742458984374999,-2.084768701171875,0.06586303710937501,2.1920780115230687,1.9840244937728142,-6.876750647963748,-0.5641278911798036,7.179435419569374
413,1791285997.9580672,-0.956858203125,-2.060818505859375,0.027542724609375003,2.2722916046711474,1.9817557349880128,-6.927697134497863,-0.5633063535581728,7.227562343449331
414,1791285997.9827404,-1.02391875,-2.008128076171875,-0.020357666015625,2.254196622186477,1.9757112736011606,-6.988649834640919,-0.562431582637559,7.28429755247611
415,1791285998.0027404,-0.7604666015625,-1.744675927734375,-0.096998291015625,1.9056789376408012,1.9688700316976429,-7.036275773743763,-0.5620048945326281,7.328129056407857
416,1791285998.0128121,-0.650295703125,-1.3375226074218751,-0.135318603515625,1.4933728105616724,1.9648759744238178,-7.058990291683124,-0.5619977386048314,7.348872225800466
417,1791285998.032812,-0.8371072265625,-1.189031396484375,-0.164058837890625,1.4633726363707797,1.9559033546586602,-7.101119659461096,-0.5624347259409105,7.387001500723694
418,1791285998.057561,-1.15803984375,-1.1363409667968751,-0.12094848632812501,1.6269467135952689,1.942762415500134,-7.149748649313954,-0.5634233794292455,7.4303887822868395
419,1791285998.077561,-1.1053494140625,-1.1363409667968751,-0.192799072265625,1.5969469628812518,1.9303408069822134,-7.186560984118515,-0.5645731076604624,7.462681636211517
420,1791285998.1033075,-1.014338671875,-1.0501202636718752,-0.307760009765625,1.4920964221679394,1.9126555950573922,-7.23106421999447,-0.5667977522543737,7.501186630857093
421,1791285998.1233075,-0.937698046875,-0.8920489746093752,-0.389190673828125,1.3514800704448504,1.8980503308853127,-7.263362118380145,-0.5693120681507652,7.528820661447293
422,1791285998.133038,-1.02391875,-0.6573370605468751,-0.370030517578125,1.2717799344655127,1.8905787499942568,-7.2778496437802485,-0.570905937877285,7.541042171829148
423,1791285998.153038,-1.052658984375,-0.41304506835937504,-0.39398071289062503,1.1974631384770107,1.8744105239681175,-7.3047659123369355,-0.5748365529610838,7.563296695821358
424,1791285998.178382,-0.8658474609375,-0.298084130859375,-0.456251220703125,1.0230890240224437,1.8533487779847313,-7.335109579791793,-0.5806863977315941,7.587880529694793
425,1791285998.198382,-0.5497048828125001,-0.27413393554687504,-0.365240478515625,0.7146505999106454,1.8370978148051897,-7.3563215989693616,-0.5858425481848191,7.604841046326269
426,1791285998.2233536,-0.5018044921875,-0.13522280273437504,-0.22153930664062502,0.5649536433599693,1.817881329447837,-7.379600575043148,-0.5924137345559785,7.623263815979528
427,1791285998.2433536,-0.65987578125,0.08511899414062499,-0.192799072265625,0.6927140623015353,1.8030568166277008,-7.395523343883715,-0.5975087037466653,7.635561280283828
428,1791285998.2529123,-0.5784451171875,0.042008642578124984,-0.192799072265625,0.6111750665037007,1.7961466911722357,-7.401900738282979,-0.5998549409993063,7.640294721137685
429,1791285998.2729123,-0.37726347656250003,0.10427915039062499,-0.22153930664062502,0.4497571970975267,1.782423561496424,-7.413023419707865,-0.6046492003806362,7.64823840039233
430,1791285998.297578,-0.41079375000000007,0.477902197265625,-0.22632934570312502,0.6696021116430112,1.7665797634347924,-7.42360631513707,-0.6105035461169287,7.655288979688595
431,1791285998.317578,-0.45390410156250005,0.516222509765625,-0.192799072265625,0.7139230317551514,1.7543629846979938,-7.429408986317743,-0.6151671225344839,7.6584814393393055
432,1791285998.3426328,-0.3197830078125,0.516222509765625,-0.192799072265625,0.6371172058113138,1.7399004104587377,-7.433647748935619,-0.620857595761222,7.659754333383315
433,1791285998.3626328,-0.03238066406250003,0.501852392578125,-0.259859619140625,0.5660665623417688,1.7295590926936624,-7.434996701821991,-0.6253976542778967,7.659090862315154
434,1791285998.372683,0.05863007812499998,0.468322119140625,-0.279019775390625,0.5482838027849667,1.7251617087727347,-7.4348416002547335,-0.6277430782247453,7.6581403692119085
435,1791285998.392683,-0.16650175781250004,0.679083837890625,-0.21674926757812502,0.7320231821701869,1.7175617672932602,-7.432858140098195,-0.6324539939310778,7.654893638041675
436,1791285998.4184113,-0.19045195312500005,0.779674658203125,-0.23111938476562502,0.8352129603327094,1.7085628225304583,-7.427874479241692,-0.6384693626365456,7.6485390320589195
437,1791285998.4384112,-0.013220507812500025,0.626393408203125,-0.27422973632812503,0.6839191706289129,1.7023112408640748,-7.422472413881615,-0.643202054180263,7.642294758651191
438,1791285998.4630733,0.03467988281249998,0.5258025878906251,-0.24069946289062502,0.5793162237847328,1.6957984206916323,-7.414679149749574,-0.6491150016285312,7.633776880593938
439,1791285998.4830732,0.08737031249999998,0.549752783203125,-0.135318603515625,0.5728636998478336,1.6914920887330764,-7.407693777514848,-0.6537549319334618,7.626432199836704
440,1791285998.4936416,0.10653046874999998,0.535382666015625,-0.07304809570312501,0.550744372761035,1.6897115626307773,-7.403696142205393,-0.6560041446129848,7.622347615318038
441,1791285998.5136416,0.211911328125,0.449161962890625,-0.034727783203125,0.49785429477073295,1.6873251232908215,-7.395788848852547,-0.6597838252106255,7.614464752332211
442,1791285998.537746,0.33645234375,0.410841650390625,-0.010777587890625,0.5311376447883362,1.685871715105011,-7.386133594232507,-0.6637381324381715,7.605108889430422
443,1791285998.557746,0.52805390625,0.238400244140625,-0.039517822265625,0.580721329545257,1.6861434338350731,-7.378350209310801,-0.666602414006066,7.597860900876022
444,1791285998.5830233,0.7004953125000001,-0.13043276367187503,-0.140108642578125,0.7261796061572101,1.6887644259733627,-7.369783915425505,-0.6700200180829582,7.590426013810392
445,1791285998.6030233,1.0022677734375,-0.336404443359375,-0.307760009765625,1.1011016587010631,1.6930812837089873,-7.364723016555987,-0.6729902873778582,7.58673745893056
446,1791285998.6127188,1.1603390625,-0.25497377929687504,-0.417930908203125,1.2593905717146685,1.6964326613495353,-7.363067649860565,-0.674741914628697,7.586034909112497
447,1791285998.6327188,1.3471505859375001,-0.19270327148437502,-0.43230102539062504,1.4278772456294402,1.706070143035419,-7.360836671877913,-0.6790885359164037,7.586418989393658
448,1791285998.6575825,1.5579123046875,-0.23102358398437503,-0.39398071289062503,1.6234788103278432,1.7216714579433121,-7.359269334070025,-0.6852224830379648,7.588974080318159
449,1791285998.6775825,1.9363253906250002,-0.40346499023437504,-0.389190673828125,2.015839625892564,1.7375798416589647,-7.359149435656742,-0.6905911810896793,7.592969136106467
450,1791285998.7029157,2.2093576171875,-0.575906396484375,-0.48978149414062505,2.335126371342388,1.762584517132866,-7.360881139113366,-0.698041482781506,7.601087898181101
451,1791285998.7229156,2.3530587890625,-0.7196075683593751,-0.566422119140625,2.524986085956936,1.786207683244292,-7.363986478931002,-0.7046253594782675,7.6102123259984955
452,1791285998.7477238,2.4488595703125,-0.7866681152343751,-0.446671142578125,2.610608172102733,1.8200492349894537,-7.370063183825592,-0.7134520318977823,7.624921268654923
453,1791285998.7677238,2.5015500000000004,-0.7818780761718751,-0.365240478515625,2.646221142619142,1.8506650198481938,-7.376580108552169,-0.7207184417582203,7.639262411114547
454,1791285998.77728,2.63567109375,-0.9495294433593752,-0.40356079101562503,2.8304115584629814,1.866781361724843,-7.380467848882842,-0.724220659037252,7.64726577829311
455,1791285998.79728,2.8608029296875004,-1.232141748046875,-0.417930908203125,3.14277471891004,1.9036959201056753,-7.390656373146121,-0.7316830972189334,7.666891152019067
456,1791285998.8230195,2.970973828125,-1.3950030761718752,-0.389190673828125,3.3051760090088247,1.9553357439959091,-7.406873464719064,-0.741404572706743,7.696414303722085
457,1791285998.8430195,3.0140841796875,-1.4716437011718753,-0.446671142578125,3.383778026858939,1.998419599151236,-7.42188424602097,-0.74907905485759,7.722639839202162
458,1791285998.8681083,3.2056857421875002,-1.6057647949218752,-0.552052001953125,3.6276249898708066,2.056062300118444,-7.4436804923523585,-0.7591414156523781,7.759643493302646
459,1791285998.8881083,3.2823263671875003,-1.8117364746093751,-0.6143225097656251,3.799137741668369,2.104852593438611,-7.463575720949099,-0.7677091599003263,7.792608314078219
460,1791285998.8980725,3.2919064453125,-2.060818505859375,-0.724493408203125,3.95076089599361,2.1304273472029647,-7.474894980412634,-0.7723379489175547,7.810843844121225
461,1791285998.9180725,3.3829171875000004,-2.353010888671875,-0.762813720703125,4.190784379109031,2.1840726988696915,-7.500827523742865,-0.782466091369944,7.851422818765413
462,1791285998.942662,3.4643478515625,-2.3482208496093753,-0.7149133300781251,4.245815382784476,2.2527629477962248,-7.536598577694694,-0.7957758182924161,7.906232868645611
463,1791285998.962662,3.4595578125000004,-2.2428399902343754,-0.623902587890625,4.169907183499525,2.3106378175657794,-7.568215489692905,-0.8069857233689554,7.954128411090312
464,1791285998.9879332,3.4260275390625003,-2.357800927734375,-0.667012939453125,4.2121011591173385,2.385847449482995,-7.61089264801171,-0.8214721751790677,8.018277339077057
465,1791285999.0079331,3.354176953125,-2.396121240234375,-0.781973876953125,4.195638589656446,2.4466114528814384,-7.646732554958161,-0.8333907254763786,8.071738751330944
466,1791285999.0179799,3.26795625,-2.3482208496093753,-0.825084228515625,4.107851408534572,2.4775466374856796,-7.665610575414369,-0.8396907047067289,8.0996853836672
467,1791285999.0379798,3.3589669921875003,-2.429651513671875,-0.849034423828125,4.231633867117798,2.539832217106349,-7.704720740289041,-0.8528620300106006,8.157257076930042
468,1791285999.0632322,3.4499777343750004,-2.592512841796875,-0.6765930175781251,4.368208707697063,2.619574328856516,-7.756206375178273,-0.8698872580608608,8.232715884839996
469,1791285999.0832322,3.3685470703125002,-2.592512841796875,-0.542471923828125,4.285149704261733,2.6834848338326376,-7.798644253854974,-0.8831773093938606,8.29457323865569
470,1791285999.107278,3.2440060546875,-2.6739435058593752,-0.39398071289062503,4.222412812303706,2.760723785973912,-7.851511565567561,-0.8984479668365913,8.371083468452344
471,1791285999.127278,3.2440060546875,-2.755374169921875,0.15687377929687502,4.259139758419851,2.8250621318959888,-7.897031627098042,-0.9095996649590412,8.43631768717567
472,1791285999.1378362,3.411657421875,-2.199729638671875,0.286204833984375,4.069413969416518,2.8592024424920037,-7.921381175959394,-0.9142528087233053,8.471078829774548
473,1791285999.1578362,3.603258984375,-1.5578644042968752,-0.22632934570312502,3.932129420985634,2.924695224834925,-7.966223557435213,-0.9216551727768272,8.536041716317595
474,1791285999.1835544,3.5553585937500003,-1.6153448730468751,-0.719703369140625,3.970879843130886,3.010088490448004,-8.021358099239471,-0.9315709124274133,8.618041705714997
475,1791285999.2035544,3.3254367187500002,-1.7734161621093751,-0.9304650878906251,3.881919568232297,3.0768554375241557,-8.06288569453102,-0.9406005613421565,8.681122883734115
476,1791285999.2285173,3.0571945312500004,-1.8452667480468752,-0.652642822265625,3.630067551273287,3.15963979234599,-8.11371829359374,-0.9531442583246171,8.75923696119423
477,1791285999.2485173,2.970973828125,-1.6824054199218752,-0.31255004882812504,3.428536279144306,3.225059002607095,-8.153627300707829,-0.9631344282519335,8.82101307424659
