imu_index,t_imu,ax,ay,az,mag,vx,vy,vz,velocity
0,1790648664.4692717,0.574660986328125,-0.6756350097656251,-0.346032421874999,0.9520800137684263,0.0,0.0,0.0,0.0
1,1790648664.4892716,0.517180517578125,-0.7762258300781251,-0.307712109374999,0.982185812002425,0.0023704527527856696,-0.003039222998785117,-0.0014218067788237196,0.004108218251972823
2,1790648664.4998484,0.45970004882812504,-0.7379055175781251,-0.0011496093749989544,0.8693848453743234,0.004210912696082579,-0.0056064792185485345,-0.0023059308188799806,0.007381172800003164
3,1790648664.5198483,0.45970004882812504,-0.6708449707031251,0.3772634765625011,0.8964847128413748,0.008548185175587149,-0.01184595717953571,-0.0031628142696846174,0.014946623879660654
4,1790648664.544282,0.5459207519531251,-0.6900051269531251,0.5401248046875011,1.0324104548450557,0.014894958218057879,-0.02081900170898413,-0.0023714940978636105,0.025708259309657196
5,1790648664.564282,0.579451025390625,-0.5319338378906251,0.4682742187500011,0.9154222209806906,0.020998858938885128,-0.028895013454872068,-0.00030832635533062196,0.03572070750186543
6,1790648664.5893264,0.378269384765625,-0.3834426269531251,0.26709257812500103,0.6012107957323601,0.029294706344340574,-0.03921041962120272,0.003268952066693833,0.04905428497375422
7,1790648664.6093264,0.23935825195312502,-0.4600832519531251,0.11860136718750106,0.5320105786585102,0.03585230754511665,-0.04747772959893041,0.00627572289876064,0.059823970631184366
8,1790648664.6194067,0.215408056640625,-0.598994384765625,0.022800585937501047,0.6369574323026098,0.039005495487554234,-0.05182025666715539,0.0076707713392361425,0.06531162539868629
9,1790648664.6394067,0.387849462890625,-0.718745361328125,0.046750781250001046,0.8180511816767511,0.04522807426193589,-0.06112031855920955,0.010127777534990463,0.07670621826175959
10,1790648664.664635,0.263308447265625,-0.7474855957031251,0.18566191406250104,0.8139633901585758,0.053132005309891414,-0.07386614936382765,0.013201937500475887,0.09194296690805717
11,1790648664.684635,0.148347509765625,-0.5942043457031251,0.19045195312500104,0.6413717600232091,0.059075527364734155,-0.08446741976101696,0.0158376206435792,0.10428563257781591
12,1790648664.7097096,0.129187353515625,-0.4744533691406251,0.08507109375000105,0.49903152484495683,0.06593133311575292,-0.09777466790272553,0.01916455633200369,0.11947429258761562
13,1790648664.7297096,0.100447119140625,-0.5558840332031251,0.06591093750000104,0.5687186771998551,0.07092383579408573,-0.10834212768130869,0.02164660178353689,0.131288927495941
14,1790648664.739094,-0.05762416992187501,-0.5846242675781251,0.21440214843750105,0.6253593850379641,0.07294517120140845,-0.11335954624120893,0.022833826250612414,0.1367214992122992
15,1790648664.759094,-0.08157436523437502,-0.4217629394531251,0.23356230468750105,0.4889679992908214,0.07639805599107863,-0.1239582619988461,0.025656448971942254,0.14785319425308482
16,1790648664.7840621,0.057336767578124996,-0.37865258789062506,0.10423125000000105,0.39689978673355086,0.08001668767064357,-0.13670392726207642,0.029284223312302144,0.16108444918632334
17,1790648664.8040621,0.129187353515625,-0.40739282226562507,-0.03946992187499895,0.4292040990889308,0.08276027993845562,-0.1465610952118669,0.03185139649950028,0.17130070059448627
18,1790648664.8292031,0.186667822265625,-0.4457131347656251,-0.015519726562498955,0.4834727875326242,0.0862873592233444,-0.15870201090785543,0.03449071738429831,0.1839060798712731
19,1790648664.849203,0.23935825195312502,-0.4217629394531251,0.02759062500000105,0.4857340758708275,0.08931135810379336,-0.16821273667986636,0.03629349460754367,0.1938795018007367
20,1790648664.859788,0.296838720703125,-0.3834426269531251,0.16171171875000107,0.511167442482853,0.09109738799311569,-0.1731304137954701,0.0372547643214412,0.19915017385080308
21,1790648664.879788,0.378269384765625,-0.3355422363281251,0.20003203125000105,0.5437730531545721,0.09497853886484947,-0.1821070255502443,0.03934124623085935,0.2091210779779412
22,1790648664.904677,0.43095981445312503,-0.35949243164062505,0.16171171875000107,0.584047814876009,0.10059452243223375,-0.1928997379331729,0.042223549509942365,0.2216131651578365
23,1790648664.924677,0.435749853515625,-0.4026027832031251,0.14734160156250106,0.6112908337549271,0.10573048344421042,-0.20141465001462028,0.044655835069254614,0.23182092221279532
24,1790648664.94929,0.426169775390625,-0.4552932128906251,0.14255156250000106,0.6397136352556162,0.11269409569009892,-0.21190541867042698,0.047735289187166526,0.24470905888233996
25,1790648664.96929,0.45011997070312504,-0.522353759765625,0.06591093750000104,0.6926800777048489,0.11881820736566757,-0.22061772806159585,0.050174922387250145,0.2555532648455457
26,1790648664.994764,0.45011997070312504,-0.6085744628906251,-0.0011496093749989544,0.7569492628374177,0.12716842943189097,-0.23221080271396122,0.05293991910852154,0.26999315061025686
27,1790648665.014764,0.325578955078125,-0.6085744628906251,0.041960742187501045,0.6914660054965122,0.13390445222717492,-0.2417731000053589,0.054846341351033744,0.2817672006675993
28,1790648665.024346,0.363899267578125,-0.6277346191406251,0.018010546875001046,0.725808382984282,0.13714310704125912,-0.2465557006878582,0.05566580597148089,0.2875702128264775
29,1790648665.044346,0.483650244140625,-0.642104736328125,-0.015519726562498955,0.8040254429959738,0.14416029046152679,-0.25694551027389506,0.05712339558923508,0.3001104245432143
30,1790648665.0690506,0.45011997070312504,-0.6133645019531251,0.018010546875001046,0.761017989327929,0.15325803620775272,-0.2701803674304802,0.05865839288580531,0.31611115713158816
31,1790648665.0890505,0.325578955078125,-0.5127736816406251,0.08028105468750105,0.6126855248125114,0.1606820543964439,-0.28097693227306875,0.059862114439238966,0.32916596394491177
32,1790648665.1147974,0.33036899414062504,-0.49840356445312506,0.10902128906250105,0.6078119995672331,0.1700723625860106,-0.29474357118479844,0.06154482094426658,0.34581229916736284
33,1790648665.1347973,0.416589697265625,-0.4744533691406251,0.08028105468750105,0.6364731126280928,0.17739298553358038,-0.3052926230515203,0.06293982326955018,0.3586548178393773
34,1790648665.14467,0.402219580078125,-0.4409230957031251,0.08507109375000105,0.602852268731297,0.1810709268567546,-0.3103966811453918,0.06364758611998628,0.36494355102911363
35,1790648665.16467,0.344739111328125,-0.38823266601562506,0.07549101562500105,0.5246604152030143,0.18852449473794478,-0.3204292074551974,0.06510714202258062,0.37743251323768034
36,1790648665.1896996,0.344739111328125,-0.3834426269531251,0.07070097656250104,0.5204535821097883,0.19774761891146073,-0.33255003075132133,0.06693419662921539,0.3926497554007331
37,1790648665.2096996,0.359109228515625,-0.38823266601562506,0.06112089843750105,0.5323718673939246,0.20506767710404933,-0.34193992790594696,0.06837285300504625,0.4045374068207098
38,1790648665.234342,0.363899267578125,-0.38823266601562506,0.08028105468750105,0.5381378333171096,0.21407027050196725,-0.3532090739192224,0.07014090324631225,0.4189301575679038
39,1790648665.254342,0.325578955078125,-0.36907250976562506,0.07549101562500105,0.4979107017272829,0.22131506384717875,-0.3621192236479862,0.0715942776787839,0.4303910201403462
40,1790648665.2646234,0.359109228515625,-0.37865258789062506,0.046750781250001046,0.523949287497216,0.2250086874612071,-0.36658914361906814,0.072323599946777,0.43617337465924994
41,1790648665.2846234,0.373479345703125,-0.40739282226562507,0.09944121093750105,0.5615552401439258,0.23221490906802006,-0.37515914237921416,0.07374880889576728,0.4473332459338571
42,1790648665.309823,0.349529150390625,-0.39781274414062506,0.13297148437500106,0.5459917783541962,0.24129914027462007,-0.3858593104391664,0.07571444196314761,0.4613516655130342
43,1790648665.329823,0.363899267578125,-0.38823266601562506,0.10902128906250105,0.5431693302961288,0.2484976119453164,-0.39425683765224984,0.07740347014670067,0.4724201671910596
44,1790648665.3546906,0.43095981445312503,-0.4457131347656251,0.05154082031250105,0.6221278135034293,0.2575879334856371,-0.40468730577342316,0.07948801422678736,0.4862527155063209
45,1790648665.3746905,0.41179965820312503,-0.48882348632812506,0.013220507812501047,0.6392981629169707,0.2650664116342155,-0.4132196026616236,0.0810101954831702,0.49756737671665224
46,1790648665.3842878,0.363899267578125,-0.5079836425781251,0.05154082031250105,0.6269980177235983,0.268675122177737,-0.41741730395799626,0.08167768650282285,0.5030852526095727
47,1790648665.4042878,0.387849462890625,-0.503193603515625,0.08507109375000105,0.6409899371093183,0.27619495984757464,-0.4263695807596641,0.08306495075084212,0.5147567010594567
48,1790648665.4294002,0.426169775390625,-0.4505031738281251,0.07549101562500105,0.6247180808379119,0.28575386193503804,-0.4377203658352436,0.08484795420812495,0.5295786661215048
49,1790648665.4494002,0.387849462890625,-0.40739282226562507,0.07549101562500105,0.5675341495788528,0.29344584588346806,-0.4466911908228394,0.08628144195243242,0.541375998406266
50,1790648665.4740603,0.30162875976562503,-0.41697290039062507,0.08507109375000105,0.52161614178411,0.3027826691491373,-0.45761778627100036,0.0880807778976708,0.5557423921959758
51,1790648665.4940603,0.30162875976562503,-0.42655297851562507,0.07070097656250104,0.5271868551900661,0.31012409686373427,-0.46641556023023606,0.08955484716978805,0.5672217387689191
52,1790648665.504122,0.41179965820312503,-0.4026027832031251,0.06591093750000104,0.5796656029308986,0.31380184533931293,-0.47080340927848124,0.09028828667646598,0.5729567374920823
53,1790648665.524122,0.43095981445312503,-0.36907250976562506,0.08986113281250105,0.5744701056874199,0.3212797852319443,-0.47937448538758387,0.09176113963252422,0.5843292773650441
54,1790648665.550244,0.349529150390625,-0.35949243164062505,0.07549101562500105,0.507054561975115,0.3311108198804553,-0.4903173816404219,0.09372023710238779,0.5990233656737892
55,1790648665.570244,0.32078891601562504,-0.4026027832031251,0.05154082031250105,0.5173499645693115,0.3385142300747453,-0.49858204527573374,0.09518574472352602,0.6101116830818795
56,1790648665.5943816,0.359109228515625,-0.40739282226562507,0.06112089843750105,0.5465017052713064,0.34733980638809564,-0.5085266508095775,0.09689308069284835,0.6234040140803366
57,1790648665.6143816,0.368689306640625,-0.3451223144531251,0.07070097656250104,0.5099410209539118,0.3546473363226459,-0.5166593853267577,0.09829328612746498,0.6343289554361418
58,1790648665.6392305,0.282468603515625,-0.30680200195312507,0.10902128906250105,0.43104712253228433,0.363578222595355,-0.5264631827029913,0.10010695936087897,0.6475909279783353
59,1790648665.6592305,0.253728369140625,-0.3259621582031251,0.10423125000000105,0.42602061847258416,0.3704924332086997,-0.5341194314374326,0.10166763196106436,0.6579396001857005
60,1790648665.6692255,0.258518408203125,-0.3930227050781251,0.07549101562500105,0.47644255427795135,0.37381349381610807,-0.5379106761334334,0.10246530980581314,0.663010982843372
61,1790648665.6892254,0.263308447265625,-0.41697290039062507,0.09465117187500105,0.5021519515036416,0.38024486453922807,-0.5455740129200072,0.10407725446744806,0.6731041787714425
62,1790648665.714325,0.105237158203125,-0.4026027832031251,0.3581033203125011,0.5490007727940006,0.38779917720602197,-0.5552915490390897,0.10664905880523531,0.6856463578404993
63,1790648665.734325,-0.07199428710937501,-0.16310083007812506,0.4778542968750011,0.5100292022918513,0.39296560201140773,-0.5627218224780972,0.10964488548021997,0.6950538214909906
64,1790648665.7593365,-0.18695522460937503,0.13388159179687495,0.5880251953125011,0.6313874935038799,0.39797171291411537,-0.5706749509061475,0.11482887011706594,0.7051503763622983
65,1790648665.7793365,-0.019303857421875008,0.22010229492187497,0.5497048828125011,0.5924467210890323,0.40106490619544,-0.5755496026354102,0.12005894343589307,0.7117053842526967
66,1790648665.7897663,0.5650809082031251,-0.22537133789062508,0.15213164062500106,0.6270986436259717,0.4028629525730602,-0.5777145084166718,0.122926279298918,0.7149569790786549
67,1790648665.8097663,0.277678564453125,-0.4121828613281251,0.02759062500000105,0.49775630474889954,0.40705778779834134,-0.5821994927012419,0.12786943112710875,0.7218052946090333
68,1790648665.8345828,-0.12468471679687501,-0.4552932128906251,-0.13527070312499895,0.49105636278427,0.4117668503383519,-0.5885443980827599,0.13288256895039824,0.7304753415982104
69,1790648665.8545828,0.023806494140624995,-0.33075219726562505,-0.20712128906249896,0.39097697316110297,0.4148413685686718,-0.5940698971589838,0.13580311667910305,0.7371939299032326
70,1790648665.87971,0.148347509765625,-0.4936135253906251,-0.22149140624999897,0.5609988762420346,0.4184490953189515,-0.601524158414757,0.13811424979530804,0.7456584369041576
71,1790648665.89971,0.038176611328125,-0.27806176757812506,-0.298132031249999,0.4094612415094014,0.4211697168008258,-0.6077249086269034,0.13889843045101619,0.7523338812637789
72,1790648665.9099226,-0.07678432617187501,-0.5175637207031251,-0.09695039062499895,0.5321347723801474,0.4223209995913677,-0.6110256816160765,0.13893618183416356,0.7556524815766165
73,1790648665.9299226,-0.13905483398437501,-0.4840334472656251,0.21440214843750105,0.5473508072350702,0.42391366539106656,-0.6180225394936391,0.1391752002191192,0.7622495597791367
74,1790648665.95422,-0.095944482421875,-0.23495141601562505,0.45390410156250105,0.5200350420983283,0.42513007994086116,-0.6265580145487366,0.14063988267115562,0.7701234362513156
75,1790648665.97422,-0.033673974609375004,-0.12478051757812506,0.7508865234375011,0.7619282677608926,0.4257867296383433,-0.6330695465775105,0.14347184732445248,0.7763089339397437
76,1790648665.9998384,-0.11989467773437501,-0.04334985351562506,0.913747851562501,0.9225990894120492,0.4262066135564949,-0.640482209867374,0.14975361669405662,0.7837701731431483
77,1790648666.0198383,-0.033673974609375004,-0.005029541015625054,0.8658474609375011,0.866516623303176,0.42625489035908304,-0.6454737267994617,0.1565915083831203,0.7892087582136433
78,1790648666.0297492,0.210618017578125,-0.19184106445312507,0.7652566406250011,0.8165663900502577,0.4264067496145852,-0.6477225415222838,0.16068411768959062,0.7919511301782733
79,1790648666.0497491,0.407009619140625,-0.39781274414062506,0.6790359375000011,0.8860031681039275,0.42759367361564254,-0.6524644021576921,0.16987058698222554,0.7983747003261069
80,1790648666.0743463,0.536340673828125,-0.4840334472656251,0.5497048828125011,0.9078133919821614,0.43057474190302003,-0.6590482703597248,0.181740709916552,0.8079411591631964
81,1790648666.0943463,0.5842410644531251,-0.5558840332031251,0.41558378906250104,0.9072235476965085,0.43431593597468354,-0.6651584922236721,0.1913925086592665,0.8171274346084101
82,1790648666.119601,0.636931494140625,-0.699585205078125,0.29583281250000104,0.991271022649241,0.4406444886100447,-0.6740947476005941,0.2030995412175424,0.8305544640346548
83,1790648666.139601,0.7806326660156251,-0.8576564941406251,0.26230253906250106,1.1890183527561236,0.44703083906655505,-0.6824459649707119,0.21181722334003436,0.8428734200844372
84,1790648666.1493723,0.9243338378906251,-0.8672365722656251,0.23356230468750105,1.2888148301115954,0.4509324660350409,-0.6871781702709477,0.21580092049515856,0.849778773509864
85,1790648666.1693723,0.9434939941406251,-0.9342971191406251,0.27188261718750106,1.355364224606296,0.46052217353531977,-0.6981134593431632,0.2234898395612687,0.8656736006260646
86,1790648666.1942377,0.977024267578125,-0.9917775878906251,0.27667265625000104,1.4194178250237488,0.47423796746702646,-0.7132615992533068,0.23263833873391057,0.8875609023641786
87,1790648666.2142377,1.068035009765625,-0.9103469238281251,0.16650175781250107,1.4132066866396584,0.48668277557497935,-0.7264712725640333,0.2395577510529282,0.9066468717156136
88,1790648666.2398312,1.2692166503906253,-0.838496337890625,0.09465117187500105,1.5241213398617903,0.5047056991331771,-0.7441967014630491,0.2475854596847614,0.932660245241163
89,1790648666.2598312,1.3698074707031251,-0.8145461425781251,0.10902128906250105,1.597417780873822,0.520635598422413,-0.758450024818268,0.25322321315310875,0.9541644838134985
90,1790648666.2696843,1.3171170410156252,-0.7474855957031251,0.09944121093750105,1.5177023983476237,0.5292919694596947,-0.765573037791619,0.2557381191473228,0.9652222804686081
91,1790648666.2896843,1.4224979003906253,-0.7666457519531251,0.03717070312500105,1.6163624738202496,0.548336565674543,-0.7801338473382466,0.2602821031378958,0.9884475617008791
92,1790648666.3147953,1.3266971191406252,-0.8337062988281251,0.20482207031250105,1.5802352733466065,0.5738388985121986,-0.7986873663968016,0.26558726958782025,1.0186899373482914
93,1790648666.3347952,1.3171170410156252,-0.718745361328125,0.18087187500000104,1.511326182308263,0.5950695570427149,-0.813576673482497,0.26975737887912377,1.043448046053848
94,1790648666.3599079,1.3650174316406252,-0.7618557128906251,0.09465117187500105,1.5660956421253978,0.6227804373498106,-0.8322564824096877,0.27472701853510234,1.0751656897296131
95,1790648666.3799078,1.4895584472656251,-0.9103469238281251,-0.015519726562498955,1.7457825613335372,0.6458211660643006,-0.8474100729113904,0.278209911102587,1.1011764458269393
96,1790648666.405014,1.3889676269531253,-0.9726174316406251,-0.09216035156249897,1.6981487765961867,0.6758261119506926,-0.8671247233793131,0.2817234490463344,1.1349071861754172
97,1790648666.425014,1.4608182128906253,-0.9630373535156251,-0.22149140624999897,1.7636579142288171,0.700417830374555,-0.8833774491892121,0.28363206976962835,1.1624921530248888
98,1790648666.434451,1.5278787597656251,-1.140268798828125,-0.17838105468749896,1.9147966572968798,0.7123963336407177,-0.8913847157312448,0.28411455035837435,1.1759236052351998
99,1790648666.454451,1.4608182128906253,-1.2695998535156252,-0.21191132812499897,1.9469925655090616,0.7384574763916536,-0.9094238224468228,0.28439825391357676,1.205509643305109
100,1790648666.4793384,1.3793875488281253,-1.3893508300781252,-0.30292207031249896,1.981102601982858,0.771324050333584,-0.9334670690546618,0.2837373687444357,1.2437075436188856
101,1790648666.4993384,1.4656082519531253,-1.489941650390625,-0.36519257812499895,2.1216265667829997,0.7980419744951943,-0.9542094171469807,0.28228376158915486,1.2755668257230162
102,1790648666.5249455,1.4416580566406252,-1.379770751953125,-0.355612499999999,2.0269695435251034,0.8327026775551537,-0.9822947582851094,0.2793174662402299,1.3176930554225388
103,1790648666.5449455,1.5182986816406252,-1.3270803222656251,-0.317292187499999,2.041334710591291,0.8601530696434979,-1.0050002573445616,0.27633885340372993,1.3513889086344668
104,1790648666.5548654,1.5949393066406252,-1.5186818847656252,-0.31250214843749896,2.224383881383922,0.8740422495811119,-1.016690012694749,0.2746145225909229,1.3685837833263625
105,1790648666.5748653,1.417707861328125,-1.609692626953125,-0.475363476562499,2.197038089835587,0.9023634989568317,-1.0414156364113092,0.270477690493571,1.4042665676666677
106,1790648666.5990913,1.2787967285156252,-1.739023681640625,-0.628644726562499,2.2482701417765654,0.9364225707880601,-1.0729576718074143,0.2642124685837752,1.4484245320785059
107,1790648666.6190913,1.3985477050781252,-1.968945556640625,-0.6861251953124989,2.5106672563358066,0.9643387263557135,-1.100653492717395,0.25784384527483695,1.4858905540875056
108,1790648666.6448586,1.5374588378906253,-2.1653371582031253,-0.647804882812499,2.7335171214204776,1.0005840327900273,-1.1389732359215616,0.24829160095182035,1.5362542621334547
109,1790648666.6648586,1.5182986816406252,-2.203657470703125,-0.647804882812499,2.7533594572908693,1.0290804918679504,-1.170808157656893,0.24004609858842219,1.5771558357456732
110,1790648666.6747746,1.4416580566406252,-2.194077392578125,-0.628644726562499,2.699545841272952,1.0432911820907458,-1.18749506989265,0.2356218676906825,1.598161035747556
111,1790648666.6947746,1.5518289550781252,-2.3186184082031254,-0.590324414062499,2.851779679869308,1.0721440412521002,-1.2228719446954606,0.2262085685660655,1.6419741029651933
112,1790648666.7197766,1.5853592285156253,-2.601230712890625,-0.484943554687499,3.0846288847052694,1.1086853882345238,-1.2696883772226193,0.21418983853942145,1.6991671937371229
113,1790648666.7397766,1.5901492675781252,-2.807202392578125,-0.417883007812499,3.253242409396204,1.1382947482996075,-1.3096336128362065,0.20466352601693888,1.7472098593925596
114,1790648666.7649155,1.5853592285156253,-2.697031494140625,-0.437043164062499,3.15885255924993,1.1759166069082354,-1.3626889569691338,0.19287370139891516,1.810221346835663
115,1790648666.7849154,1.5566189941406252,-2.811992431640625,-0.427463085937499,3.2423893687160303,1.2060711018659152,-1.4068308092206776,0.18360415263350144,1.8621200050997884
116,1790648666.7948782,1.4991385253906253,-2.8694729003906247,-0.417883007812499,3.26434024767716,1.221122388435983,-1.4297665671678277,0.17904759606365048,1.888764243040048
117,1790648666.8148782,1.5997293457031252,-3.027544189453125,-0.36519257812499895,3.4436206843542903,1.2514533955383818,-1.4777484340086318,0.17009791958028586,1.94391598009406
118,1790648666.8398807,1.4751883300781252,-2.9892238769531247,-0.36519257812499895,3.353357364621752,1.289449360107494,-1.5400168315703147,0.15921832812618558,2.0148652485495884
119,1790648666.8598807,1.4224979003906253,-3.094604736328125,-0.326872265624999,3.421538283982078,1.3196305542372286,-1.5914808365484014,0.1507828504052183,2.072913775523135
120,1790648666.8844874,1.4416580566406252,-3.195195556640625,-0.24544160156249897,3.513957053982075,1.3564794309310237,-1.6569090141494212,0.14090493946844418,2.145981856790771
121,1790648666.9044874,1.4320779785156252,-3.300576416015625,-0.20233124999999896,3.603552406894412,1.3862477389941672,-1.7118548941383454,0.13340894869347805,2.206791317737893
122,1790648666.9142907,1.3219070800781252,-3.310156494140625,-0.17359101562499896,3.568572289413197,1.400675279606062,-1.739608092219489,0.13000942002543345,2.2371924375677654
123,1790648666.9342906,1.163835791015625,-3.190405517578125,-0.09216035156249897,3.3973069695631026,1.429422820533481,-1.7974860006521656,0.12371563958832463,2.2998937109964794
124,1790648666.9597924,1.1686258300781251,-3.089814697265625,-0.09695039062499895,3.304851066599945,1.4650412441650658,-1.8722272295401914,0.11653258749953968,2.3801597614626213
125,1790648666.9797924,1.187785986328125,-3.056284423828125,-0.11132050781249896,3.280869135474855,1.4923198425696345,-1.9312704314099634,0.11143180911766348,2.4432030287818325
126,1790648667.0049243,1.106355322265625,-2.917373291015625,-0.12090058593749896,3.1224519163498488,1.5257805622873861,-2.0055946983763433,0.10554591183965428,2.522212591736742
127,1790648667.0249243,1.0871951660156252,-2.831152587890625,-0.08737031249999896,3.033982840497598,1.5517046996081407,-2.0644925986451286,0.10125211179686085,2.5846023204334223
128,1790648667.0495589,0.972234228515625,-2.720981689453125,-0.03467988281249896,2.889668396842178,1.5826515235627043,-2.1364151161587013,0.09653112626155773,2.660521312059738
129,1790648667.0695589,0.8860135253906251,-2.610810791015625,-0.010729687499998955,2.7570760018274076,1.6067948517234598,-2.1940454946489916,0.09320512758951127,2.7210866439574337
130,1790648667.0801861,0.9051736816406251,-2.5533303222656247,-0.044259960937498954,2.709389981652348,1.619127069932203,-2.224190850571232,0.09165907980484554,2.7526348823014453
131,1790648667.100186,0.866853369140625,-2.433579345703125,0.008430468750001046,2.583372653766128,1.6415124240806136,-2.279893430038763,0.08913218984237124,2.8107688695463784
132,1790648667.124801,0.871643408203125,-2.270718017578125,0.05633085937500105,2.43291917501092,1.6681398826877096,-2.346850249541139,0.08660828986517588,2.880607185622164
133,1790648667.144801,0.8860135253906251,-2.237187744140625,0.06591093750000104,2.4071504359699403,1.6891663652231932,-2.3998551888184627,0.08504854500234624,2.9359531998496244
134,1790648667.1698802,0.857273291015625,-2.2850881347656253,0.05154082031250105,2.4411476266899323,1.714856868897538,-2.4648576653611025,0.08360698121494359,3.003872087590004
135,1790648667.1898801,0.809372900390625,-2.194077392578125,-0.029889843749998955,2.338793171545649,1.7347711580035727,-2.5156383721193,0.08266229283381822,3.0569102774822556
136,1790648667.1999445,0.838113134765625,-2.179707275390625,0.018010546875001046,2.3353547509653048,1.7445327808684818,-2.540660553083865,0.08224924892352677,3.083036751073463
137,1790648667.2199445,0.9003836425781251,-2.313828369140625,0.15692167968750106,2.4877935684493933,1.7636291401182567,-2.589666480888828,0.0818139635686937,3.1342389428293767
138,1790648667.2445066,0.929123876953125,-2.2084475097656253,0.10423125000000105,2.3982026052006034,1.786933903654071,-2.6491540848234174,0.08184065828304375,3.196536881456739
139,1790648667.2645066,0.986604345703125,-2.246767822265625,0.046750781250001046,2.454290002765769,1.8059372326683871,-2.697009580534127,0.08208560711287699,3.246845856015636
140,1790648667.2896268,0.991394384765625,-2.356938720703125,0.13776152343750106,2.56066421005065,1.829952002643089,-2.756774154211542,0.08269474217924447,3.309889195983803
141,1790648667.3096268,1.0153445800781251,-2.356938720703125,0.11860136718750106,2.5690759104671184,1.849213959408765,-2.8042902795258615,0.08349151464212806,3.3601498586421283
142,1790648667.3195791,1.0488748535156251,-2.4383693847656254,-0.005939648437498955,2.6543961637862727,1.8589020364006523,-2.827967666803475,0.08391262153054371,3.385256154779504
143,1790648667.339579,1.024924658203125,-2.505429931640625,-0.12090058593749896,2.7096617222512425,1.8785613737327134,-2.8758277712492095,0.08444167301927798,3.4360600403530537
144,1790648667.3648965,1.068035009765625,-2.615600830078125,-0.044259960937498954,2.8256017816622045,1.9036887870019576,-2.9370487027725396,0.0846973200447304,3.501065511560388
145,1790648667.3848965,1.063244970703125,-2.606020751953125,0.05154082031250105,2.8150471547550153,1.923758096178012,-2.985989361132392,0.08487990152754689,3.553052529176793
146,1790648667.4095335,1.058454931640625,-2.558120361328125,-0.0011496093749989544,2.768448653480431,1.9486925456645863,-3.046775958555219,0.08516418919321495,3.617664898560912
147,1790648667.4295335,1.096775244140625,-2.634760986328125,-0.07779023437499896,2.8549838373974374,1.9691306285205157,-3.0965091724533953,0.0852419433945221,3.6705736167769865
148,1790648667.4391823,1.082405126953125,-2.6730812988281247,-0.07300019531249896,2.8848385600436512,1.9790887484627102,-3.12074456274647,0.08516470739975976,3.696361985464876
149,1790648667.4591823,1.039294775390625,-2.567700439453125,-0.005939648437498955,2.7700639805509155,1.999816262467922,-3.1713054673579104,0.0849102175430033,3.750153756310339
150,1790648667.484873,1.039294775390625,-2.543750244140625,0.03717070312500105,2.7481231042095886,2.0264528476674766,-3.2363596778299497,0.08469252659689908,3.819385805619088
151,1790648667.504873,1.024924658203125,-2.5533303222656247,0.03238066406250105,2.7515477093808496,2.04717500188356,-3.287052638376284,0.0846528041834314,3.873345664028652
152,1790648667.529432,1.005764501953125,-2.486269775390625,0.041960742187501045,2.6823236816787963,2.072544325209865,-3.3492464651846485,0.08474827495324376,3.9395525297448475
153,1790648667.549432,1.029714697265625,-2.457529541015625,0.11381132812500105,2.6669677203031315,2.0931584237280507,-3.3997133050785093,0.08504801859472283,3.9933189090051937
154,1790648667.559676,1.0153445800781251,-2.452739501953125,0.06112089843750105,2.655294982664091,2.1037043009073395,-3.425457364089505,0.08531291576257714,4.020772094069368
155,1790648667.579676,0.996184423828125,-2.620390869140625,-0.015519726562498955,2.8034037481721943,2.1242227258070274,-3.4757899312715073,0.0858209206122863,4.074408308647793
156,1790648667.604373,0.967444189453125,-2.811992431640625,-0.05384003906249896,2.97424754267647,2.1493965935899966,-3.538682610856459,0.0862256621523168,4.141209388780984
157,1790648667.624373,0.895593603515625,-2.903003173828125,0.008430468750001046,3.0380234368282304,2.1695193336986667,-3.5905466579813643,0.08643614774888692,4.195987446367198
158,1790648667.6499903,0.890803564453125,-3.027544189453125,-0.16880097656249896,3.160387409673413,2.1948599518968313,-3.6584074357390253,0.08635719141208088,4.267178545458314
159,1790648667.6699903,0.895593603515625,-3.343686767578125,-0.24065156249999897,3.4699052259202765,2.2143558790388544,-3.712997487785222,0.08569061683027474,4.324010312793676
160,1790648667.6800554,0.871643408203125,-3.487387939453125,-0.250231640624999,3.6033668624325434,2.2240296322396187,-3.7415059177237238,0.08503492036157057,4.353436030898172
161,1790648667.7000554,0.7662625488281251,-3.511338134765625,-0.005939648437498955,3.593979558903956,2.2428255212333306,-3.800154921371995,0.08354318817197541,4.413436666523412
162,1790648667.7251616,0.6848318847656251,-3.5879787597656247,0.22398222656250105,3.659611226446985,2.265613360098236,-3.8761019996388595,0.08236205520597793,4.490429168486876
163,1790648667.7451615,0.41179965820312503,-3.429907470703125,0.23356230468750105,3.462426254269144,2.282688479280298,-3.938054344489493,0.08224859886333157,4.552549126105785
164,1790648667.7694545,0.110027197265625,-3.310156494140625,0.24314238281250106,3.320897501905053,2.301268459658665,-4.014297316941814,0.08300000281547583,4.627883800690482
165,1790648667.7894545,0.086077001953125,-3.243095947265625,0.26709257812500103,3.2552141279377333,2.314564717892219,-4.077481328743701,0.08429118021634383,4.689367635686847
166,1790648667.8150785,-0.06720424804687501,-3.132925048828125,0.29104277343750107,3.1471322928184073,2.3290809133424855,-4.158543600430312,0.08676992764783692,4.76714084099895
167,1790648667.8350785,-0.16300502929687502,-3.022754150390625,0.42516386718750104,3.0568574725102335,2.3383662090678117,-4.221556977967428,0.08948873415094574,4.8267492248381405
168,1790648667.8451526,-0.450407373046875,-2.840732666015625,0.34373320312500105,2.8966845524485056,2.3418782503899145,-4.25296645594681,0.09123374286780707,4.855969626232826
169,1790648667.8651526,-0.771339990234375,-2.433579345703125,0.13297148437500106,2.5563558492558323,2.3459721571871457,-4.313881020251291,0.09489347974534144,4.911431521631937
170,1790648667.8896194,-0.7857101074218751,-2.352148681640625,0.14734160156250106,2.4842812523946693,2.347371960008728,-4.386004140548603,0.09921338952803366,4.975643750933777
171,1790648667.9096193,-0.5893185058593751,-1.935415283203125,0.10423125000000105,2.0258313782941366,2.3462820297355593,-4.442548050488177,0.10259230718324604,5.025116687744624
172,1790648667.935097,-0.349816552734375,-1.7438137207031252,0.17608183593750104,1.7872500457480929,2.3433073306586483,-4.5108042138467335,0.1067866316686768,5.08427450933554
173,1790648667.955097,-0.41208706054687505,-1.2312795410156252,0.20003203125000105,1.3137267094490443,2.340179605648494,-4.560810836921027,0.11014946878104169,5.127335466140495
174,1790648667.965185,-0.550998193359375,-1.049258056640625,0.29583281250000104,1.2214984778796154,2.3381099600325785,-4.583976075726116,0.11196641832212294,5.1470507406538
175,1790648667.985185,-0.488727685546875,-1.0300979003906252,0.06591093750000104,1.142059843743448,2.3330626588540406,-4.626132574522324,0.11557091031616995,5.182435778908113
176,1790648668.00979,-0.16779506835937502,-0.7522756347656251,-0.10174042968749895,0.7774477028461454,2.3265730877724113,-4.6735054107655305,0.11927406278130896,5.221955712111498
177,1790648668.02979,0.45011997070312504,-0.5942043457031251,-0.09695039062499895,0.7517221366439869,2.3225128339076226,-4.708255723280413,0.12153458974179594,5.251333971094591
178,1790648668.0544937,0.43095981445312503,-0.3642824707031251,-0.020309765624998956,0.5646596910660328,2.3198823803008537,-4.746516289545329,0.12369068225550564,5.284559634465897
179,1790648668.0744936,-0.100734521484375,-0.19184106445312507,-0.11611054687499896,0.24582940614337706,2.3185675600053446,-4.773679644369985,0.12496977615422027,5.308426350843866
180,1790648668.084737,-0.349816552734375,-0.16310083007812506,-0.24065156249999897,0.45484797006563205,2.317649020140077,-4.785777777356462,0.125252539341769,5.318914749590069
181,1790648668.104737,-0.033673974609375004,-0.579834228515625,-0.14485078124999895,0.5986012178011652,2.3155493751623557,-4.806970253226331,0.12514356046377717,5.337077180905588
182,1790648668.1298685,0.589031103515625,-0.6085744628906251,-0.398722851562499,0.9361091977699922,2.3143535393831023,-4.831845671222802,0.12400260131690408,5.358949667696365
183,1790648668.1498685,0.699202001953125,-0.4648732910156251,-0.465783398437499,0.960179561589884,2.3154769733661467,-4.850282624770578,0.12193405021835522,5.376015538197678
184,1790648668.1740985,0.617771337890625,-0.6900051269531251,-0.32208222656249896,0.9805536506526443,2.3190271289930138,-4.871367262442849,0.11837215667887124,5.396491248772884
185,1790648668.1940985,0.574660986328125,-0.7283254394531251,-0.259811718749999,0.9634289408991354,2.3233065962332504,-4.8882879237804415,0.11500026071072511,5.413532804541058
186,1790648668.204632,0.890803564453125,-0.6181545410156251,-0.317292187499999,1.1297434926872407,2.3263801593090605,-4.896926661361193,0.1130348173655588,5.422611201470542
187,1790648668.224632,1.2692166503906253,-0.8672365722656251,-0.259811718749999,1.5590100407321494,2.3345805671428,-4.913096684060522,0.10899716071600393,5.440649394369339
188,1790648668.249259,1.7482205566406253,-0.9726174316406251,-0.494523632812499,2.060779805413993,2.348736776566205,-4.933419245859364,0.10337788397377576,5.464968150676184
189,1790648668.269259,2.198484228515625,-1.092368408203125,-0.719655468749999,2.5582231403796567,2.364428851527968,-4.950545374683247,0.09767763347300615,5.487072463601738
190,1790648668.2946544,2.1122635253906252,-1.173799072265625,-0.575954296874999,2.48418695247279,2.3895758755001073,-4.973345961489832,0.08905763422084452,5.5183488635326725
191,1790648668.3146544,2.088313330078125,-1.1498488769531252,-0.417883007812499,2.4202956870247845,2.412710457078853,-4.992094418946996,0.08179654782290796,5.5451662835856546
192,1790648668.324734,2.7876590332031252,-0.9630373535156251,-0.628644726562499,3.0155725860771785,2.4263070468567642,-5.001723246933725,0.07789486669081963,5.559700435707019
193,1790648668.344734,3.1900223144531252,-0.9821975097656251,-0.791506054687499,3.430369681172226,2.45820515435207,-5.0208807843334835,0.06918418603915878,5.59077837898894
194,1790648668.3698378,2.9744705566406253,-1.058838134765625,-0.652594921874999,3.2240492272936803,2.5038440727762223,-5.045163039291054,0.05717171659431432,5.6325992080906575
195,1790648668.3898377,2.926570166015625,-1.106738525390625,-0.35082246093749897,3.1484535091525143,2.543601728999082,-5.064855039919742,0.04753189819548607,5.66788546219078
196,1790648668.4151826,3.5780154785156255,-1.3606105957031251,-0.15443085937499895,3.831097081511289,2.5987913008398613,-5.0907565123448535,0.036187881751514266,5.7158400656498545
197,1790648668.4351826,3.7839871582031255,-1.384560791015625,-0.398722851562499,4.049018067361778,2.646852539672152,-5.112247603081419,0.027749185814203978,5.756880573652191
198,1790648668.4600222,3.5396951660156253,-1.293550048828125,-0.499313671874999,3.80158226795882,2.7112339241164953,-5.1399246882060465,0.01716755747640681,5.811188339465505
199,1790648668.4800222,3.472634619140625,-1.7054934082031252,-0.36040253906249897,3.8855873370239618,2.7658143398776005,-5.1633651502229885,0.008636031099698793,5.857486083486924
200,1790648668.48927,3.994748876953125,-2.2946682128906253,-0.408302929687499,4.6249575219195584,2.792445390157622,-5.175352424930198,0.004749715179703958,5.880650179957802
201,1790648668.50927,3.764827001953125,-2.653921142578125,-0.561584179687499,4.640322895718984,2.8530399981408863,-5.204811236894587,-0.0038492404420559945,5.935479092655275
202,1790648668.5347335,3.5205350097656254,-2.735351806640625,-0.700495312499999,4.512982377974908,2.9325290339853565,-5.246983922456065,-0.015565337736389476,6.0108908738570825
203,1790648668.5547335,3.6594461425781253,-2.859892822265625,-0.671755078124999,4.69273778409396,2.9963674274171517,-5.283532089496883,-0.025445606613961353,6.074090596931011
204,1790648668.5797398,3.9995389160156254,-2.974853759765625,-0.504103710937499,5.0100086810399915,3.078577074824188,-5.333317235104674,-0.03815133565381047,6.158194951469934
205,1790648668.5997398,4.042649267578125,-3.204775634765625,-0.39393281249999895,5.17385572185788,3.146528781486489,-5.37643201584085,-0.048136101944647965,6.229685519991501
206,1790648668.6100745,4.095339697265626,-3.453857666015625,-0.508893749999999,5.381441522666921,3.1826827623802285,-5.400530306308005,-0.053221460565535963,6.268814056834689
207,1790648668.6300745,4.1863504394531255,-3.669409423828125,-0.465783398437499,5.5863270308717174,3.2545763198366786,-5.450855375196775,-0.06304857130844475,6.348863399483191
208,1790648668.6701646,4.104919775390625,-3.693359619140625,-0.26460175781249895,5.528226273311275,3.4020005630823857,-5.558738799539553,-0.08198838952668187,6.517661157864566
209,1790648668.6901646,4.0139090332031255,-3.530498291015625,-0.19754121093749896,5.349290274392721,3.476693249385766,-5.615321959920251,-0.09071293101657571,6.605109045257374
210,1790648668.6992288,3.9851687988281252,-3.3484768066406247,-0.355612499999999,5.217310373163518,3.510904912144695,-5.6417958499785446,-0.09444991742907162,6.645692928646285
211,1790648668.7192287,3.841467626953125,-3.391587158203125,-0.5855343749999989,5.157769623095225,3.586809135950949,-5.701557954544252,-0.102870387930545,6.73673104728703
212,1790648668.7293088,3.7025564941406253,-3.702939697265625,-0.36040253906249897,5.248864351843287,3.625030194459108,-5.7325238313102895,-0.10719289173875697,6.78337406482349
213,1790648668.7493088,3.7169266113281254,-3.631089111328125,-0.14964082031249895,5.198340498996642,3.7006188317850275,-5.795748497694732,-0.11524781440074322,6.877395033398684
214,1790648668.7739148,3.7025564941406253,-3.051494384765625,-0.346032421874999,4.8104345967435975,3.7933583479546598,-5.874198411840806,-0.12458603426569691,6.993661145466257
215,1790648668.7939148,3.5109549316406254,-2.840732666015625,-0.513683789062499,4.545375413200264,3.8682512271801626,-5.937236851282774,-0.13232727175663705,7.087429681602603
216,1790648668.8190293,3.3001932128906253,-2.888633056640625,-0.369982617187499,4.401404697973957,3.961018962602016,-6.015313892627513,-0.14225449260746637,7.203742693183685
217,1790648668.8390293,3.4007840332031254,-2.701821533203125,-0.43225312499999896,4.36486132675961,4.033864729728124,-6.076549773341743,-0.15017756275383248,7.2951405131086275
218,1790648668.849041,3.6211258300781255,-2.658711181640625,-0.614274609374999,4.534162626148591,4.070132929092112,-6.106630519236699,-0.15433461343471042,7.340349959767385
219,1790648668.869041,3.3576736816406254,-2.879052978515625,-0.6861251953124989,4.475900623240469,4.142185111662549,-6.166014754064497,-0.16334395105107302,7.429947287361124
220,1790648668.9089794,3.2187625488281255,-3.334106689453125,-0.556794140624999,4.6676246075952745,4.284184408882451,-6.285423504750768,-0.18235929259633663,7.608813284276408
221,1790648668.9289794,3.372043798828125,-3.358056884765625,-0.43225312499999896,4.778500621179126,4.354513259080183,-6.3462886212238265,-0.19193682914976415,7.698961276286834
222,1790648668.9395573,3.491794775390625,-2.7161916503906247,-0.734025585937499,4.484319501987776,4.391575814639122,-6.378470226268741,-0.1971677846960708,7.746592521776399
223,1790648668.9595573,3.3480936035156255,-2.385678955078125,-0.868146679687499,4.201770283113694,4.461399617526952,-6.437842731026879,-0.20797781490076037,7.8353787622677284
224,1790648668.9691381,3.1804422363281253,-2.778462158203125,-0.743605664062499,4.288124784426456,4.494522099645339,-6.465729180580374,-0.21353766056580306,7.877307983904706
225,1790648668.9891381,3.295403173828125,-3.0658645019531248,-0.848986523437499,4.580391395873419,4.563007431340787,-6.523976570538162,-0.2257917756702154,7.964564585547814
226,1790648669.0138943,3.3912039550781254,-3.166455322265625,-0.872936718749999,4.721093314877798,4.647478654640773,-6.596832572058289,-0.24188193051841272,8.073150853131763
227,1790648669.0338943,3.2666629394531252,-3.147295166015625,-0.475363476562499,4.560978410042241,4.715471513567254,-6.656333128201104,-0.25495342708560326,8.161338343607282
228,1790648669.0596583,3.3864139160156252,-2.879052978515625,-0.269391796874999,4.453012149535134,4.802777426727865,-6.733129192519752,-0.270705420912312,8.27496109711458
229,1790648669.0796583,3.515744970703125,-2.730561767578125,-0.13048066406249897,4.453476784409894,4.870738160659723,-6.79221634498409,-0.2816989473695502,8.362873154826934
