imu_index,t_imu,ax,ay,az,mag,vx,vy,vz,velocity
0,1791273822.3155253,0.05352135483099498,-0.005963109853316333,-0.013245924346301821,0.055457628995981605,0.0,0.0,0.0,0.0
1,1791273822.3355253,0.015201042330994983,0.05151735889668367,0.03944450534119818,0.06664067044418315,0.00017132315976585045,6.0728350586949214e-05,2.2409296579618735e-05,0.0001831440258658738
2,1791273822.3462098,-0.013539192044005019,0.08025759327168368,0.01070427096619818,0.08209246260093096,0.0002504512121356191,0.00019390067814749234,7.277122063912824e-05,0.0003249906663268454
3,1791273822.3662097,0.010411003268494982,0.03714724170918367,-0.00845588528380182,0.03949441165013025,0.00037165877347330155,0.000581896899753825,0.0001562741415394462,0.0007079236209907696
4,1791273822.4067397,0.06310143295599499,-0.05386350047831633,-0.0036658462213018206,0.08304520427692226,0.0008039010963685797,0.0011994169685262258,0.0002632630253773595,0.0014677075518174886
5,1791273822.4267397,0.05352135483099498,0.008407007334183668,0.03944450534119818,0.06701553698116654,0.0011601358410852029,0.001390246354341873,0.0003618066302961288,0.0018465113412209468
6,1791273822.4353905,0.010411003268494982,0.06109743702168367,0.02028434909119818,0.06521304024295148,0.0013325884250591391,0.001505501470816628,0.0004367896103866369,0.00205745273408026
7,1791273822.4553905,0.043941276705994986,0.05630739795918367,-0.00845588528380182,0.07192260325808233,0.0017530100491663478,0.0019081008686316321,0.0006018842605057045,0.0026601048513912925
8,1791273822.4803739,0.09184166733099498,-0.025123266103316333,-0.027616041533801823,0.09913988152016252,0.002453835983536849,0.002394010643592374,0.0007095910920786526,0.0035008738214467546
9,1791273822.5003738,0.06310143295599499,0.003616968271683668,-0.0036658462213018206,0.06331122909165901,0.0031631281242808706,0.0026923890227296323,0.0007359575270747877,0.004218527191092844
10,1791273822.5114934,0.019991081393494984,0.05630739795918367,-0.022826002471301822,0.06396243263850351,0.0035676246654286186,0.0028833729010626793,0.0007263244572923297,0.004644279519712209
11,1791273822.5314934,0.0008309251434949813,0.04672731983418367,-0.0036658462213018206,0.04687826024927141,0.004217264071896064,0.00332990670336729,0.0006718593965643153,0.005415255299059089
12,1791273822.556141,0.039151237643494985,-0.0011730707908163321,0.03944450534119818,0.05558834865067946,0.004971682919718069,0.0038818689805908955,0.0006809452478930348,0.006344306444940872
13,1791273822.5761409,0.02478112045599498,0.05630739795918367,0.05381462252869818,0.08173518577635144,0.005587923045521772,0.004345272676777538,0.0008271005467869892,0.007126736554182292
14,1791273822.6160305,-0.018329231106505018,0.11857790577168367,0.01549431002869818,0.12098245365927814,0.006651942411273626,0.0056540924288310075,0.0012822316541815087,0.008823900331012923
15,1791273822.6360304,-0.02790930923150502,0.09462771045918367,-0.013245924346301821,0.09954289346967377,0.0070360443088800725,0.006531688268286815,0.0014795702376751842,0.009713804570754627
16,1791273822.6452847,0.0008309251434949813,0.013197046396683669,-0.00845588528380182,0.01569568304098709,0.007168319160085594,0.006951688280818633,0.0015421219166725354,0.010103905657734693
17,1791273822.6652846,0.015201042330994983,-0.010753148915816333,-0.00845588528380182,0.020450034119463945,0.007435355802597409,0.007726893551434093,0.0016316616306973949,0.010846737737379973
18,1791273822.6902456,0.010411003268494982,0.02756716358418367,0.0059142319036981795,0.030055209800373656,0.007766587492398315,0.00858074194891294,0.0017218910705239351,0.011701022285666423
19,1791273822.7102456,0.05831139389349498,0.03714724170918367,-0.00845588528380182,0.06965370212943212,0.008095260291044681,0.009259337120555386,0.0017795304325034574,0.012427199670563986
20,1791273822.7057672,0.07747155014349498,0.04193728077168367,-0.00845588528380182,0.08849903161104025,0.008095260291044681,0.009259337120555386,0.0017795304325034574,0.012427199670563986
21,1791273822.7257671,0.07268151108099498,0.03714724170918367,0.0059142319036981795,0.08183824141944909,0.008731078853651701,0.009969081472658523,0.001795799908189286,0.013373078204640844
22,1791273822.7510135,0.08226158920599498,0.032357202646683667,0.0059142319036981795,0.08859421968066057,0.00970667597568977,0.010862222645891083,0.0018356535475588937,0.014682542806088038
23,1791273822.7710135,0.05831139389349498,0.008407007334183668,-0.0036658462213018206,0.05902825474836246,0.010574466425196523,0.011524777278984093,0.001865862096020948,0.015751865694868156
24,1791273822.7960012,-0.003959113919005019,0.013197046396683669,-0.00845588528380182,0.016165970819987795,0.011597901305951758,0.012268883496809673,0.001875225852664203,0.016986856358943713
25,1791273822.8160012,-0.003959113919005019,0.003616968271683668,-0.027616041533801823,0.02813188213573157,0.012282301666169136,0.012800345359407017,0.0018274884973731645,0.017833773850391428
26,1791273822.8403075,0.029571159518494983,-0.020333227040816332,-0.01803596340880182,0.04016453128377448,0.0130359900317711,0.01331888208290357,0.0016949525801202882,0.01871369873369724
27,1791273822.8603075,0.039151237643494985,0.02756716358418367,0.02028434909119818,0.05200214164001473,0.013666208116459737,0.01369240096349221,0.0016056286654378056,0.01941198423239386
28,1791273822.8702898,0.015201042330994983,0.08983767139668367,0.025074388153698182,0.09450187210425799,0.013974270498736303,0.013938764602615861,0.0016016919799548292,0.01980239409307976
29,1791273822.8902898,0.0056209642059949815,0.09462771045918367,-0.01803596340880182,0.09649505065771931,0.014530135135821857,0.014635020824589095,0.0016055454134795107,0.02068541606243748
30,1791273822.915892,0.0056209642059949815,0.04672731983418367,-0.022826002471301822,0.05230739953688243,0.015156552377633713,0.015664034470663557,0.0015312768802095058,0.021850122762995052
31,1791273822.9358919,0.0056209642059949815,0.03714724170918367,0.034654466278698184,0.051112081138093186,0.015589360899520139,0.016473118805116295,0.0014997047079097817,0.022729736704015957
32,1791273822.9602811,0.07268151108099498,0.05630739795918367,0.04902458346619818,0.10419469709147827,0.016181216835327743,0.017482717754513488,0.0016200440370814561,0.02387680340912406
33,1791273822.980281,0.05831139389349498,0.05630739795918367,0.03944450534119818,0.09014771613495273,0.016790245723245778,0.01835535777087881,0.0018366273359264314,0.02494403155696782
34,1791273823.0056317,0.029571159518494983,0.02756716358418367,0.01070427096619818,0.04182084887066751,0.017613504084556537,0.01945501047005561,0.0021653217504016588,0.02633289913415205
35,1791273823.0256317,0.02478112045599498,0.01798708545918367,0.0059142319036981795,0.031186813132816744,0.01824710594702833,0.02026076415426053,0.002410670543163329,0.027372737751717866
36,1791273823.0508456,0.07268151108099498,-0.0011730707908163321,-0.00845588528380182,0.07318114609672274,0.0191103764137764,0.021156001206692643,0.002668778497964195,0.028633987713991182
37,1791273823.0708456,0.05831139389349498,-0.010753148915816333,0.01070427096619818,0.06025305209137408,0.019888907666188612,0.021741706779288765,0.0028461749710726077,0.029603566910031423
38,1791273823.0808446,0.05352135483099498,-0.010753148915816333,0.01549431002869818,0.05674715215600171,0.020303618376313,0.021974479738553182,0.0029412083251912167,0.03006269092019564
39,1791273823.1008446,0.05352135483099498,-0.025123266103316333,-0.09467658840880183,0.11162154951161081,0.021169257736190383,0.02231641693996173,0.002984007131625775,0.030904113588664222
40,1791273823.1549065,0.039151237643494985,-0.04428342235331634,-0.027616041533801823,0.06524175545106281,0.02353393302389166,0.022820643712389607,0.002586490260446528,0.032883395732318015
41,1791273823.1749065,0.039151237643494985,0.07546755420918368,0.07776481784119818,0.1152195210943364,0.024394968505042112,0.023025976050193624,0.00253671253634123,0.03364141750756228
42,1791273823.1561563,0.039151237643494985,0.11378786670918367,-0.013245924346301821,0.12106177155085877,0.024394968505042112,0.023025976050193624,0.00253671253634123,0.03364141750756228
43,1791273823.1761563,0.015201042330994983,-0.09218381297831633,-0.19047736965880183,0.2121569122496501,0.0251984305431637,0.023448035145497155,0.0022774249918512345,0.034495766676747794
44,1791273823.2161837,-0.09017981704400502,-0.19277463329081634,-0.06593635403380183,0.22280498519056927,0.02634016196672496,0.023310566920369022,0.0010665663092644382,0.035189831290791444
45,1791273823.2361836,-0.061439582669005025,-0.010753148915816333,0.05381462252869818,0.08238001048830654,0.026597636560001796,0.022946891562062435,0.0005341212925273252,0.03513231259814997
46,1791273823.246173,0.0056209642059949815,0.16647829639668368,0.10650505221619819,0.19771177141819918,0.026665126851155525,0.022909163805014475,0.0004281855806716833,0.03515739067571278
47,1791273823.266173,0.08226158920599498,0.12336794483418367,0.1352452865911982,0.2006935634654021,0.026911807278530483,0.02327972667954238,0.0006105266088250587,0.03558881549041843
48,1791273823.29023,0.05831139389349498,0.09462771045918367,0.1687755600286982,0.20208862389444424,0.02741765460905909,0.02405192778356678,0.001345498148720592,0.036497032477117664
49,1791273823.31023,0.029571159518494983,0.06588747608418367,0.1256652084661982,0.1449391513665828,0.027906935304762754,0.02483837620603998,0.002306526482873707,0.03743076321788249
50,1791273823.3652794,0.06789147201849499,0.01798708545918367,0.07297477877869818,0.10128230622351568,0.029454052266929463,0.027024646388975906,0.005375077027307174,0.04033316452302852
51,1791273823.3852794,0.12537194076849498,0.08504763233418368,0.01070427096619818,0.15187430564327625,0.030221717148991776,0.027854347267492294,0.006448204195850282,0.041602838682992534
52,1791273823.366279,0.13016197983099498,0.11857790577168367,-0.027616041533801823,0.17822880373474795,0.030221717148991776,0.027854347267492294,0.006448204195850282,0.041602838682992534
53,1791273823.3862789,0.15411217514349498,0.08025759327168368,-0.09946662747130182,0.20021352048684676,0.03152857129013786,0.029011681429838586,0.007011352266498154,0.04341529140278429
54,1791273823.4410722,0.14453209701849498,-0.010753148915816333,-0.10904670559630182,0.18137348560794625,0.035799147759042485,0.031992417200579444,0.007465880476203335,0.04858840509725177
55,1791273823.4610722,0.10621178451849499,-0.05386350047831633,-0.09467658840880183,0.15213768845066125,0.03750023642350861,0.03282028433325916,0.00730131606154469,0.05036613953605725
56,1791273823.4410722,0.029571159518494983,-0.025123266103316333,-0.061146314971301824,0.07241894648181489,0.03750023642350861,0.03282028433325916,0.00730131606154469,0.05036613953605725
57,1791273823.4610722,0.06310143295599499,-0.04428342235331634,-0.09946662747130182,0.12584284769877413,0.039041404828271876,0.03321360037187354,0.006742825075709422,0.05169951866922114
58,1791273823.4854312,0.16369225326849499,-0.039493383290816336,-0.13299690090880184,0.21457645899589753,0.04105124654893249,0.03346773007119572,0.005739949612900662,0.053275142617343584
59,1791273823.5054312,0.13974205795599498,-0.04428342235331634,-0.09946662747130182,0.17715099276496757,0.04290905342831432,0.03351942049514295,0.004691354199582121,0.054651141073815454
60,1791273823.5308993,0.019991081393494984,-0.015543187978316332,-0.037196119658801825,0.044997614886597294,0.045225043301143505,0.033461094683787884,0.003295318327890659,0.0563543123630291
61,1791273823.5508993,0.019991081393494984,0.04672731983418367,-0.00845588528380182,0.0515226916037997,0.046830941516927946,0.033468938312836725,0.002294985363241926,0.05760706443629887
62,1791273823.5601642,0.08705162826849498,0.022777124521683668,0.01549431002869818,0.09130639095341539,0.047537661798754516,0.033520323443953795,0.001905984471934723,0.05819857515341161
63,1791273823.5801642,0.13495201889349498,0.013197046396683669,0.06818473971619818,0.15177406948221472,0.049167407737485076,0.03366856975289853,0.0013177363428809948,0.05960489075486382
64,1791273823.606044,0.05831139389349498,-0.029913305165816334,0.1544054428411982,0.16773808530781584,0.051335079556629505,0.03379917905841092,0.0011027703165488113,0.061472684994874474
65,1791273823.626044,0.06310143295599499,0.02756716358418367,0.1400353256536982,0.15605009381642285,0.052941100680261845,0.033881454598002465,0.0014032239869544811,0.06287035982457623
66,1791273823.6359324,0.10142174545599499,0.05151735889668367,0.034654466278698184,0.11891736942975059,0.0537380591198462,0.03397468305646508,0.0016590473293385713,0.06359882486961789
67,1791273823.6559324,0.06789147201849499,0.022777124521683668,-0.027616041533801823,0.07675086399716319,0.055362145818103635,0.034246401422669895,0.002109412005557881,0.06513242525038361
68,1791273823.696026,0.0008309251434949813,0.022777124521683668,0.0011241928411981795,0.022819983514774433,0.05833621056092981,0.03484638742357416,0.002797163754119033,0.0680088840090052
69,1791273823.716026,0.0056209642059949815,0.008407007334183668,0.025074388153698182,0.027036973798937162,0.059606911998035125,0.035147561708470984,0.0031280729918317478,0.0692684624676664
70,1791273823.755343,0.09663170639349498,-0.0011730707908163321,-0.06593635403380183,0.1169900233304949,0.062031734676547615,0.035672145954750434,0.00356051983090233,0.07164576334623608
71,1791273823.775343,0.08705162826849498,-0.05386350047831633,-0.11862678372130182,0.15668942684187195,0.06335571323476985,0.035816412857711935,0.0034706583557251496,0.07286156256149486
72,1791273823.7563438,0.039151237643494985,-0.034703344228316335,-0.04677619778380182,0.07017944277889204,0.06335571323476985,0.035816412857711935,0.0034706583557251496,0.07286156256149486
73,1791273823.7763438,0.05831139389349498,0.003616968271683668,0.034654466278698184,0.0679281469667922,0.06461939005155282,0.03576109355632663,0.003176662259692484,0.07392301783674164
74,1791273823.8156645,0.08226158920599498,0.03714724170918367,0.01070427096619818,0.0908926181942966,0.06714571756602668,0.03578886353839436,0.002819121399580406,0.0761402494498935
75,1791273823.8356645,0.09663170639349498,0.01798708545918367,-0.04677619778380182,0.10885418964350405,0.06850629413616698,0.03588357107318473,0.0026104337164056827,0.07737930843205484
76,1791273823.859868,0.06789147201849499,-0.05386350047831633,-0.022826002471301822,0.08961894356348744,0.07020450634419106,0.03591586689445036,0.002269420375202743,0.07889088968094367
77,1791273823.879868,0.06310143295599499,-0.06823361766581633,0.025074388153698182,0.09626184271115452,0.07159377893861814,0.03575540520025552,0.0020332733787227354,0.08005156078665052
78,1791273823.8748877,0.06310143295599499,-0.010753148915816333,0.02986442721619818,0.07063501302935571,0.07159377893861814,0.03575540520025552,0.0020332733787227354,0.08005156078665052
79,1791273823.8948877,0.07268151108099498,0.03714724170918367,-0.027616041533801823,0.08616939926455318,0.07296211111049146,0.03557835469628391,0.001936076671867786,0.08119752073477145
80,1791273823.920459,0.07747155014349498,-0.015543187978316332,-0.05156623684630182,0.09435310570751887,0.07473716279435942,0.03542737252898046,0.0016785851090712247,0.08272581141836045
81,1791273823.940459,0.029571159518494983,-0.039493383290816336,0.034654466278698184,0.060291896902361905,0.07607779167038996,0.03524444390392546,0.0014820355480554522,0.08385819960448652
82,1791273823.9798162,0.07747155014349498,-0.005963109853316333,0.01070427096619818,0.07843456621717602,0.07863620490646654,0.03480428451842257,0.0012871600577340715,0.08600376575444431
83,1791273823.9998162,0.10142174545599499,0.01798708545918367,-0.032406080596301824,0.10798175658077908,0.08000962828155102,0.034632197559542055,0.0011704326513336859,0.08719116720256948
84,1791273823.9944043,0.13016197983099498,-0.0011730707908163321,-0.07551643215880183,0.1504867057736315,0.08000962828155102,0.034632197559542055,0.0011704326513336859,0.08719116720256948
85,1791273824.0144043,0.09663170639349498,-0.029913305165816334,0.01070427096619818,0.1017205678482954,0.08163738584310552,0.03448267306054278,0.000851277878599019,0.08862529087525164
86,1791273824.0403395,0.05352135483099498,-0.025123266103316333,0.02028434909119818,0.06250734949345481,0.08372364337175799,0.034210806568867685,0.0005597679789879815,0.09044523804891054
87,1791273824.0603395,0.07268151108099498,0.02756716358418367,-0.00845588528380182,0.07819240728502196,0.08528044729879936,0.03403626939961872,0.0003864317873705662,0.09182250081354246
88,1791273824.08543,0.10142174545599499,-0.010753148915816333,-0.032406080596301824,0.10701474067884467,0.08726816275837353,0.0338817928396807,0.00012470213544807384,0.0936147620190085
89,1791273824.10543,0.06310143295599499,0.013197046396683669,0.025074388153698182,0.06917136557838419,0.08886171956831307,0.03378079342588103,-6.36297479829917e-05,0.0950660363003759
90,1791273824.1305802,0.039151237643494985,0.008407007334183668,0.07297477877869818,0.08323950696114421,0.09075793087647002,0.03371358742167755,-7.998813526117992e-05,0.0968174281414198
91,1791273824.1505802,0.08226158920599498,0.003616968271683668,0.0059142319036981795,0.08255319289515674,0.0922217667689249,0.033686196433653386,2.7288050749250505e-05,0.09818154022414997
92,1791273824.1600206,0.06310143295599499,-0.015543187978316332,-0.037196119658801825,0.0748794554687807,0.09291200616766315,0.0336667625263833,4.818065514852292e-05,0.0988235503839206
93,1791273824.1800206,0.0056209642059949815,0.032357202646683667,0.0011241928411981795,0.03286103484779246,0.0942580487739012,0.0336569876198613,3.1695492064935985e-05,0.10008683019713858
94,1791273824.2047935,0.0008309251434949813,0.06588747608418367,-0.013245924346301821,0.06721089534536732,0.09568721511675086,0.033829231415007446,-8.182654538614034e-06,0.10149118238490139
95,1791273824.2247934,0.02478112045599498,0.04193728077168367,-0.07551643215880183,0.08986418071496831,0.09670637508259429,0.03410916787200729,-0.00016869178557836408,0.10254553511223542
96,1791273824.2498891,-0.02790930923150502,-0.020333227040816332,-0.061146314971301824,0.07022279899180042,0.09778749100724857,0.03444840189416495,-0.0005971092998580132,0.10367951740855377
97,1791273824.269889,-0.06622962173150503,0.04193728077168367,-0.0036658462213018206,0.07847634510946279,0.09837863738390765,0.034710607176276526,-0.0009845401325264962,0.10432713867126196
98,1791273824.2794325,0.019991081393494984,0.08025759327168368,0.0059142319036981795,0.0829210633799101,0.09858530827414966,0.034904418273573795,-0.0011400711117142892,0.10458815030712361
99,1791273824.2994325,0.029571159518494983,0.09462771045918367,-0.00845588528380182,0.0995005480283812,0.09902780073904656,0.035511987611144574,-0.001420935675740394,0.10521228845292259
100,1791273824.3261957,0.015201042330994983,0.06588747608418367,0.0059142319036981795,0.06787642692204193,0.09962097664962273,0.03652525203905818,-0.0017455031642004172,0.10612011970610302
101,1791273824.3461957,0.039151237643494985,0.06109743702168367,0.025074388153698182,0.07677526399119929,0.10007929030063893,0.0373593547411253,-0.0019051855309219076,0.10684201170728694
102,1791273824.3702679,0.07268151108099498,0.02756716358418367,0.02986442721619818,0.08327325245266655,0.10075008070052044,0.038372774902957235,-0.0019693642454710024,0.10782822919090225
103,1791273824.3902678,0.06789147201849499,0.022777124521683668,0.025074388153698182,0.07587340980604926,0.10143465820558002,0.03916397772330356,-0.0019322796881684375,0.10874989995943705
104,1791273824.4153483,0.05352135483099498,0.008407007334183668,0.03944450534119818,0.06701553698116654,0.10239274449242353,0.0400659948777343,-0.001771388343993654,0.10996679447405291
105,1791273824.4353483,0.08226158920599498,-0.005963109853316333,0.05860466159119818,0.10117822936796951,0.10324582716824852,0.040681064488358155,-0.0015152596304491865,0.11098173654844957
106,1791273824.4448948,0.07268151108099498,-0.005963109853316333,-0.00845588528380182,0.07341432236336674,0.10370288373373247,0.040922076051376474,-0.001375435223493457,0.11149348063945577
107,1791273824.4648948,0.043941276705994986,0.022777124521683668,-0.061146314971301824,0.078667051772637,0.1046917222463315,0.04137647892737767,-0.0012308457999591982,0.11257834914722292
108,1791273824.5047524,0.019991081393494984,-0.0011730707908163321,-0.05156623684630182,0.05531813638265938,0.10655788035675459,0.0422107964777835,-0.001322852546889493,0.11462147767444851
109,1791273824.5247524,0.029571159518494983,0.05630739795918367,-0.0036658462213018206,0.06370569023815997,0.10742817315141528,0.04264934910981436,-0.0014449431004936036,0.11559354318777909
110,1791273824.5353026,0.05352135483099498,0.08983767139668367,0.02986442721619818,0.10875305346460569,0.1078841492678934,0.04296163033179284,-0.0014789567174428987,0.11613302138924482
111,1791273824.5553026,0.06310143295599499,0.06588747608418367,0.03944450534119818,0.09939224993658016,0.10879381268164652,0.043698406892615685,-0.0014298006838202697,0.11725053847534025
112,1791273824.5658214,0.05352135483099498,0.06109743702168367,0.04902458346619818,0.09487276752365827,0.10929248156477178,0.044127961661963526,-0.0013380314517624614,0.11787244739629194
113,1791273824.5858214,0.043941276705994986,0.07067751514668368,0.04423454440369818,0.0942488295124415,0.1102446011017152,0.04501985057670962,-0.0010498296784167292,0.11908719981752551
114,1791273824.625288,0.043941276705994986,0.07067751514668368,0.06339470065369818,0.10461852138524287,0.11210175459960228,0.04693425561108613,-0.0002478371695063354,0.12153060996036683
115,1791273824.645288,0.034361198580994984,0.02756716358418367,0.11608513034119819,0.12416278815463466,0.11301916471470264,0.04790623972129189,0.0003668352580583836,0.12275371263285492
116,1791273824.6403286,-0.08059973891900503,-0.0011730707908163321,0.27415641940369817,0.2857611525542765,0.11301916471470264,0.04790623972129189,0.0003668352580583836,0.12275371263285492
117,1791273824.6603286,-0.14766028579400503,0.12336794483418367,0.3028966537786982,0.35884480306075217,0.1132806497296138,0.048825442813397485,0.0021740723726829253,0.12337404937736891
118,1791273824.7304733,-0.14287024673150503,0.2766491948341837,0.2597863022161982,0.4055066056461832,0.11253173867987984,0.053670155440186426,0.010521908463655827,0.12511829743489994
119,1791273824.7504733,-0.13329016860650503,0.3916101323341837,0.3891173569036982,0.567923482731316,0.11193599529949293,0.05584668907571506,0.013518411924095504,0.12582236361377583
120,1791273824.7309842,-0.09975989516900502,0.6023718510841837,0.6477794662786982,0.8901809482318929,0.11193599529949293,0.05584668907571506,0.013518411924095504,0.12582236361377583
121,1791273824.7509842,-0.013539192044005019,0.7748132573341837,0.6813097397161982,1.031843910140563,0.1110384836904794,0.060752336140174126,0.018999059770736827,0.1279896694227374
122,1791273824.7601414,0.0056209642059949815,1.0143152104591837,0.6334093490911982,1.195857159080297,0.11068375147647118,0.06389027154739652,0.022034955367491702,0.12968576983367394
123,1791273824.7801414,-0.04227942641900502,1.0813757573341838,0.6238292709661982,1.2491293118659164,0.10997021596721433,0.07285927162622133,0.029556844807898677,0.13518701467514352
124,1791273824.8052132,-0.05664954360650502,1.1053259526466837,0.6094591537786982,1.2634852957236071,0.10902387961810221,0.0865280856849143,0.03989089454892594,0.14479157229338951
125,1791273824.8252132,-0.08538977798150502,1.1292761479591837,0.5711388412786982,1.2683673003315865,0.10816915711697965,0.09914813021748908,0.048668796215298585,0.15459485761844816
126,1791273824.8654134,-0.05185950454400502,1.0478454838966837,0.4753380600286982,1.1517881044906095,0.10629504486060251,0.12727368192073468,0.06682108878995979,0.17877998931271233
127,1791273824.8854134,-0.03269934829400502,1.1053259526466837,0.4418077865911982,1.1908017590118707,0.105375677026913,0.14239724560357694,0.07587309697857551,0.19271153496738594
128,1791273824.9106178,-0.05664954360650502,1.2586072026466837,0.5040782944036982,1.3569805408456959,0.10422196140563311,0.16306605609996838,0.08735754571073685,0.21233015961902066
129,1791273824.9306178,-0.03748938735650502,1.2346570073341838,0.4753380600286982,1.3235292407935744,0.10330259015548401,0.18074673550776071,0.0965727483607267,0.2294931442450701
130,1791273824.9401777,0.15411217514349498,1.1196960698341838,0.20709587252869818,1.149068558332356,0.10301267174870346,0.18961835270063068,0.10080613622645997,0.23817768015205476
131,1791273824.9601777,0.326553581393495,1.1675964604591837,0.05381462252869818,1.213595793333035,0.10321811788030105,0.20882537640685242,0.10872558794464382,0.25706666676977746
132,1791273824.9697251,0.288233268893495,1.2154968510841837,0.08734489596619818,1.2522540250060856,0.10374170585327037,0.21832540973356168,0.11204012635078268,0.26642318964642214
133,1791273824.989725,0.364873893893495,1.0813757573341838,-0.01803596340880182,1.1414165685546904,0.10565365297982805,0.23868623106276365,0.11804587173129961,0.2864762452974616
134,1791273825.0148723,0.566055534518495,0.8801941167091837,-0.20963752590880183,1.067290233965271,0.10945282997513886,0.2641466006473438,0.12403515286679258,0.31166980567549785
135,1791273825.0348723,0.604375847018495,0.7269128667091838,-0.32938850247130186,1.001084045326352,0.11377679106134259,0.2837689514380991,0.127275482210685,0.33116313858347374
136,1791273825.0750732,0.393614128268495,0.5784216557716837,-0.17131721340880182,0.7203147100041623,0.1241734707524873,0.32123023738216333,0.1313020574654443,0.36857583553724554
137,1791273825.0950732,0.436724479830995,0.5353113042091837,-0.15694709622130182,0.7084623170713379,0.12981547536661003,0.33874228360420905,0.13251240024262562,0.38620969506747904
138,1791273825.090941,0.819927604830995,0.3772400151466837,-0.6167908462213019,1.093170734228717,0.12981547536661003,0.33874228360420905,0.13251240024262562,0.38620969506747904
139,1791273825.110941,0.786397331393495,0.2526989995216837,-0.5784705337213019,1.008417426250597,0.13790353868672128,0.3535031464430805,0.13060746760326086,0.40129810754751244
140,1791273825.135099,0.532525261080995,0.2910193120216837,-0.49703986965880187,0.7844259210973301,0.14859737285583127,0.3696434968406683,0.12670297914594877,0.41805638244226195
141,1791273825.155099,0.34092369858099497,0.17126833545918368,-0.49224983059630184,0.6227934703472673,0.15743279549630704,0.38169489123775824,0.1224714577222562,0.4306684723211121
142,1791273825.1652758,0.570845573580995,0.12815798389668367,-0.5162000259088019,0.7802253549210802,0.16195020322223105,0.3871358850238845,0.11987152948888224,0.43643011511461055
143,1791273825.1852758,0.704966667330995,0.3676599370216837,-0.25274787747130184,0.8342861145343402,0.17141001732963332,0.3969685118409822,0.11437506216434823,0.4472661939821606
144,1791273825.2250187,0.657066276705995,0.5209411870216837,-0.01803596340880182,0.838713960952078,0.19144821046638025,0.41622524612578604,0.10428397541145135,0.4698627675511934
145,1791273825.2450187,0.546895378268495,0.1856384526466837,-0.31022834622130185,0.6555896709617222,0.20182545726666312,0.4255221528025457,0.09947513270674957,0.4813501010217367
146,1791273825.2695897,0.455884636080995,-0.13529416454081633,-0.3964490493463018,0.6191180510218428,0.21451000727351488,0.43532337210127076,0.09315114194418829,0.49416405855101514
147,1791273825.2895896,0.666646354830995,-0.09697385204081634,-0.5353601821588019,0.860483477488204,0.2249699062662743,0.4417561743887388,0.08737802775567231,0.503383448347779
148,1791273825.2853298,0.6331160813934951,0.07546755420918368,-0.34854865872130186,0.7266481210006597,0.2249699062662743,0.4417561743887388,0.08737802775567231,0.503383448347779
149,1791273825.3053298,0.628326042330995,0.09462771045918367,-0.47787971340880186,0.7950578843994675,0.2360765401953822,0.44663159619152876,0.08084032868114298,0.5116122303937719
150,1791273825.330736,0.556475456393495,-0.38916623485331636,-0.48266975247130184,0.8331178679328411,0.25032664371149715,0.45133465647178506,0.07195088694537975,0.5210981969039942
151,1791273825.350736,0.757657097018495,-0.6047179926658164,-0.5401502212213019,1.1097253663865168,0.2618330041457463,0.452990787544322,0.06446847146561746,0.527174885093291
152,1791273825.3757691,0.944468620455995,-0.3364758051658163,-0.5976306899713019,1.1672186530738828,0.2772705051925938,0.4529856833394493,0.05437165311673897,0.5338831698254881
153,1791273825.3957691,0.925308464205995,-0.24546506297831636,-0.5353601821588019,1.0968406336908345,0.29055872177870035,0.452109306621809,0.045815453966868785,0.539375798268624
154,1791273825.4053226,0.8342977220184951,-0.4466467036033164,-0.5497302993463018,1.0944173650049296,0.29721479122742656,0.4512575758100812,0.04156397975021957,0.541938738477912
155,1791273825.4253225,0.8534578782684951,-0.5855578364158164,-0.5736804946588019,1.1833755277672853,0.3115906544448352,0.448193646637309,0.032313522235962955,0.5468184749463973
156,1791273825.4502835,0.882198112643495,-0.5520275629783163,-0.7078015884088018,1.2585670537534133,0.3300904699403587,0.44281365320542815,0.02010120641410282,0.5526732382790814
157,1791273825.4702835,0.934888542330995,-0.46101682079081635,-0.7652820571588018,1.2931394830578224,0.3454156177760032,0.43762997925062025,0.009574239401251475,0.5576052490809145
158,1791273825.4949644,0.8534578782684951,-0.6478283442283164,-0.5976306899713019,1.2268799269528121,0.3648010797937647,0.4301400872273798,-0.003990727084824895,0.564017950389294
159,1791273825.5149643,0.886988151705995,-0.7005187739158164,-0.6024207290338018,1.280775260787369,0.3807643051720034,0.4229585878095249,-0.015134248258808228,0.5693017377149883
160,1791273825.539787,1.0211092454559951,-0.8442199457908164,-0.7173816665338019,1.506654526925657,0.4011572808104022,0.41250650288045876,-0.029347367758291165,0.5761510625349937
161,1791273825.559787,1.078589714205995,-0.9735510004783163,-0.7365418227838019,1.6290031242551335,0.41827307844328876,0.40262167574267266,-0.04126219141017139,0.5820301971274626
162,1791273825.5703223,1.0594295579559951,-0.9735510004783163,-0.7509119399713019,1.6229791373873634,0.427625985891276,0.39665727379147575,-0.04777233266948437,0.5852206185959749
163,1791273825.5903223,1.0211092454559951,-1.2801135004783164,-0.7892322524713019,1.8177574683118443,0.4458389268822345,0.3836524399732125,-0.06058750858230383,0.591297209207952
164,1791273825.630701,1.073799675143495,-1.4717150629783164,-0.7844422134088018,1.9835172182547964,0.4834384179928748,0.3530011644259144,-0.08734537756128292,0.6049394523907563
165,1791273825.650701,1.231870964205995,-1.4621349848533165,-0.5114099868463019,1.9791121648436076,0.50272677684607,0.3356958230450147,-0.10055455163545786,0.6128108318416998
166,1791273825.6600037,1.2606111985809951,-1.3950744379783164,-0.5928406509088019,1.9715053433501772,0.5120916478888624,0.32686049206114515,-0.10654738281543555,0.616788441763303
167,1791273825.6800036,1.2222908860809951,-1.4286047114158165,-0.8419226821588018,2.0600340371968624,0.5329297484623268,0.30647892968872925,-0.11965107225162397,0.6263064986332421
168,1791273825.6910584,1.169600456393495,-1.6010461176658164,-0.8467127212213018,2.1559768854898786,0.5447031940677972,0.29439120770676197,-0.12720760465861294,0.632099301918368
169,1791273825.7110584,1.251031120455995,-1.4812951411033164,-0.5114099868463019,2.0052068058062766,0.5664393241879293,0.27117922029064095,-0.1408652104815895,0.6436106626120643
170,1791273825.7352443,1.332461784518495,-1.3807043207908165,-0.32459846340880183,1.9460634601934228,0.5934682329670405,0.24212808070435968,-0.15642035577265528,0.6597710805322119
171,1791273825.7552443,1.2606111985809951,-1.3375939692283163,-0.48266975247130184,1.9003337365985173,0.6163561430565483,0.21763093041583004,-0.1685647869063131,0.6750349652736329
172,1791273825.779533,1.164810417330995,-1.2657433832908165,-0.5976306899713019,1.821003037411762,0.6444008854292624,0.1876009195677022,-0.18306903247994338,0.6956729668585717
173,1791273825.799533,1.231870964205995,-1.1603625239158164,-0.5018299087213018,1.7651573631405562,0.6676248287238904,0.1629433211350284,-0.1948699550497985,0.7143162725377517
174,1791273825.8555434,1.231870964205995,-1.2130529536033163,-0.45871955715880186,1.7886942647695567,0.733257868534382,0.09427698212740052,-0.22699649912887623,0.7733580423991213
175,1791273825.8755434,1.174390495455995,-1.2130529536033163,-0.6503211196588019,1.8093114885882378,0.7567878242750349,0.06979661002163756,-0.23841092451535922,0.7965168841083797
176,1791273825.856054,1.1839705735809951,-1.1555724848533164,-0.7317517837213019,1.8090314424672351,0.7567878242750349,0.06979661002163756,-0.23841092451535922,0.7965168841083797
177,1791273825.876054,1.145650261080995,-1.1795226801658163,-0.5784705337213019,1.7431053990290748,0.7802895527125092,0.04558690721413734,-0.2503853197302682,0.8207452470273994
178,1791273825.9006534,1.006739128268495,-1.2657433832908165,-0.46829963528380186,1.6837263830973945,0.8088309954097156,0.015764954866704782,-0.2648354497032977,0.8512308314182284
179,1791273825.9206533,0.963628776705995,-1.2609533442283163,-0.4251892837213018,1.6429758618457853,0.8315108370988742,-0.008634308146147383,-0.2761618130391082,0.8762135415930756
180,1791273825.9757082,1.030689323580995,-1.1938927973533164,-0.44913947903380186,1.6399471835832797,0.8928127125393427,-0.07586092132800701,-0.3062738477004369,0.9469282384858018
181,1791273825.9957082,1.069009636080995,-1.2226330317283165,-0.32938850247130186,1.6571390761995455,0.9148911967485145,-0.10024409998713106,-0.3167397041785105,0.9733441434935792
182,1791273825.9902966,0.977998893893495,-1.3088537348533165,-0.14736701809630182,1.6405172884547639,0.9148911967485145,-0.10024409998713106,-0.3167397041785105,0.9733441434935792
183,1791273826.0102966,0.944468620455995,-1.4669250239158165,-0.17610725247130182,1.753540351742571,0.9363365334977422,-0.12525225328498737,-0.32539435913605647,0.9991474965554885
184,1791273826.0203717,0.977998893893495,-1.4525549067283163,-0.29106818997130185,1.7751389480067685,0.9469719293494263,-0.13816659249094845,-0.3294532243739469,1.01211919718318
185,1791273826.0403717,1.136070182955995,-1.3280138911033164,-0.3677088149713018,1.7859132476614414,0.968088429485018,-0.16412816582943568,-0.3372900252668592,1.0382185816415646
186,1791273826.0502667,1.150440300143495,-1.4238146723533165,-0.37249885403380184,1.868024759380703,0.9786656869591752,-0.17708830517871177,-0.341135057211681,1.051437074636975
187,1791273826.0702667,1.073799675143495,-1.4621349848533165,-0.5305701430963018,1.8900764886679888,1.0001740131739743,-0.20368304034555784,-0.349095511938592,1.0787504410235997
188,1791273826.0958447,1.092959831393495,-1.3471740473533165,-0.5641004165338018,1.8241843072550594,1.0277116108967357,-0.23798254118830303,-0.35984902242759975,1.114593272913714
189,1791273826.1158447,1.107329948580995,-1.1459924067283165,-0.46350959622130183,1.6596142193571923,1.0493144238455463,-0.2645188490610955,-0.3685375681493981,1.1431758048246077
190,1791273826.1399615,1.030689323580995,-1.2274230707908165,-0.5257801040338018,1.68681136890027,1.0753236652357947,-0.2960105148692144,-0.379232390694419,1.1780324342228805
191,1791273826.1599615,0.915728386080995,-1.2513732661033163,-0.6024207290338018,1.6635517013192596,1.0965772933437452,-0.3219272901146201,-0.388463507779029,1.2070720099785368
192,1791273826.1696336,0.958838737643495,-1.0645617426658165,-0.5114099868463019,1.521250670796758,1.1066738011894761,-0.33426083945760066,-0.39306610566531514,1.221047982045325
193,1791273826.1896336,0.9923690110809951,-1.0789318598533164,-0.2958582290338018,1.495467252749931,1.1273464271327294,-0.35915376123004755,-0.40236662173636123,1.2497200843637555
194,1791273826.2299056,0.987578972018495,-1.1172521723533164,-0.33896858059630186,1.5292038259279839,1.1687091328064412,-0.408392882186188,-0.42020245797113737,1.3073774852774966
195,1791273826.2499056,0.9732088548309951,-1.0310314692283165,-0.3772888930963018,1.4671428950563712,1.1891107152567506,-0.4324005725266559,-0.4288058694287629,1.33597493311677
196,1791273826.2602987,0.9732088548309951,-0.9783410395408164,-0.25274787747130184,1.4029141649928232,1.1996394823295733,-0.44457126222487314,-0.43309717823460886,1.3506856261006719
197,1791273826.2802987,0.920518425143495,-1.0645617426658165,-0.31022834622130185,1.4411410415970896,1.2197018940739872,-0.46754311725219005,-0.44096090265932836,1.3786644967401231
198,1791273826.3054633,0.819927604830995,-1.1268322504783164,-0.28148811184630185,1.4217129650505111,1.244443399845526,-0.49624735753267724,-0.45048790324912363,1.413449739556044
199,1791273826.3254633,0.7911873704559951,-1.0358215082908164,-0.15694709622130182,1.312835116539481,1.2635742290610257,-0.518882525011033,-0.4575815340954459,1.4405692511830637
200,1791273826.3502166,0.848667839205995,-1.1124621332908164,-0.20005744778380183,1.4134468796959776,1.2867445895144092,-0.5466834083986825,-0.46570693763346305,1.4735865564746933
201,1791273826.3702166,0.762447136080995,-1.2609533442283163,-0.48745979153380187,1.5520779684026391,1.3050740971791819,-0.569336495753719,-0.4723185411549183,1.500149075540125
202,1791273826.3807738,0.6139559251434951,-1.1603625239158164,-0.46350959622130183,1.3922012105713466,1.3143880066948064,-0.5814176600535721,-0.47603800399541524,1.5140259273913563
203,1791273826.4007738,0.738496940768495,-1.2034728754783164,-0.22879768215880184,1.430410106542076,1.3314146655762182,-0.6044174401729052,-0.4830658322799543,1.539914949603687
204,1791273826.425287,0.8726180345184951,-1.1028820551658163,-0.31980842434630186,1.4422511882666489,1.3521152994675145,-0.6326191487708018,-0.49139613008231275,1.5715892997553442
205,1791273826.445287,0.786397331393495,-1.1507824457908165,-0.5928406509088019,1.5146554188108514,1.3689597508194422,-0.6555575831667562,-0.49854218044394466,1.5976078523507795
206,1791273826.4855292,0.738496940768495,-1.2178429926658163,-0.5641004165338018,1.531903576026659,1.4023711124291836,-0.7019379726113344,-0.5142558727187393,1.6504001808638076
207,1791273826.5055292,0.882198112643495,-1.2657433832908165,-0.44913947903380186,1.6068933050837515,1.418916507135481,-0.7252563620274858,-0.522413850953143,1.6769725926653034
208,1791273826.5005395,0.9540486985809951,-1.1555724848533164,-0.40123908840880185,1.5513057381062203,1.418916507135481,-0.7252563620274858,-0.522413850953143,1.6769725926653034
209,1791273826.5205395,0.819927604830995,-1.0166613520408163,-0.43955940090880186,1.3780762129957318,1.4358727291797604,-0.7484494208163126,-0.5306534183981886,1.7039659856875342
210,1791273826.5457237,0.7337069017059951,-1.0358215082908164,-0.42039924465880185,1.337156512738342,1.4569559642724228,-0.7771503448864695,-0.5410967545983902,1.7376619458982965
211,1791273826.5657237,0.743286979830995,-1.1316222895408163,-0.23358772122130184,1.3739023852069119,1.47340320551558,-0.7997754056088286,-0.5491272678181651,1.7641140727577103
212,1791273826.5752702,0.7911873704559951,-1.0885119379783164,-0.17610725247130182,1.3571475449129962,1.4811749687647646,-0.8105446044342013,-0.5526788042372759,1.7766022921649747
213,1791273826.5952702,0.738496940768495,-1.0549816645408163,-0.3150183852838018,1.325745310045844,1.4973090777723466,-0.8329371165841408,-0.5597398983859307,1.8025058858178715
214,1791273826.6201186,0.623536003268495,-1.0980920161033163,-0.26232795559630184,1.2897360890853717,1.5168860064113754,-0.8605975091145998,-0.5682728043611679,1.8342587629114413
215,1791273826.6401186,0.599585807955995,-1.0597717036033163,-0.2671179946588018,1.246583823066487,1.5321141714840043,-0.8827580579604664,-0.5749047289341818,1.8593415691333144
216,1791273826.6661751,0.7528670579559951,-0.9831310786033164,-0.3868689712213018,1.2973138115216627,1.5516209117408026,-0.911291048843983,-0.5835269926490857,1.8916877598072608
217,1791273826.686175,0.762447136080995,-1.1028820551658163,-0.3772888930963018,1.3928464997187302,1.5666206058887016,-0.9330357606649866,-0.5902986264427197,1.9165876765373753
218,1791273826.695457,0.681016472018495,-1.1843127192283165,-0.22400764309630183,1.3843985973165558,1.5735425388828028,-0.9432058237480297,-0.5933884874877784,1.9281553995228107
219,1791273826.715457,0.671436393893495,-1.0454015864158164,-0.21921760403380183,1.2616448255526302,1.5882489096139978,-0.965177116863812,-0.5997124824928436,1.952884156181652
220,1791273826.7403061,0.748077018893495,-1.0262414301658165,-0.44434943997130183,1.3454505282574192,1.606425705891912,-0.99224169858754,-0.6076278788200026,1.9835218113460487
221,1791273826.7603061,0.795977409518495,-1.0741418207908164,-0.45392951809630183,1.4118826775035966,1.6211770160542984,-1.0139078720626642,-0.6143904295375174,2.0084072521081606
222,1791273826.785743,0.757657097018495,-1.1220422114158164,-0.29106818997130185,1.3848262317253233,1.6400881615395668,-1.0415202915040684,-0.6231224903122834,2.040327261291663
223,1791273826.805743,0.743286979830995,-1.0262414301658165,-0.26232795559630184,1.2940104186838675,1.654978279206764,-1.0631966561997206,-0.6297883978043174,2.0654233610592714
224,1791273826.830766,0.810347526705995,-0.9591808832908164,-0.4060291274713018,1.319678268845926,1.673729331813108,-1.0899750784080748,-0.6381317641619907,2.0968137008696637
225,1791273826.850766,0.829507682955995,-1.0406115473533164,-0.45871955715880186,1.40761465632042,1.6889281044030355,-1.1111673487214369,-0.6450971585831301,2.12210305186131
226,1791273826.8909712,0.800767448580995,-1.1364123286033163,-0.32938850247130186,1.4286911047769617,1.7198145373184777,-1.153943679426619,-0.6593755531104644,2.1735050444156654
227,1791273826.9109712,0.800767448580995,-1.1076720942283165,-0.34854865872130186,1.4105502977687394,1.7352765493798308,-1.1753969209468076,-0.66642979216947,2.199288815160449
228,1791273826.9054976,0.867827995455995,-0.9879211176658164,-0.47308967434630184,1.3974717901984055,1.7352765493798308,-1.1753969209468076,-0.66642979216947,2.199288815160449
229,1791273826.9254975,0.882198112643495,-1.0597717036033163,-0.4347693618463018,1.4458263975008412,1.7512003469151192,-1.19664030304486,-0.6739358550207902,2.2254977435597483
230,1791273826.9508302,0.848667839205995,-1.1699426020408163,-0.21442756497130183,1.4611577512343183,1.7716331111126886,-1.2237481342517738,-0.6832506277438004,2.2589986269999853
231,1791273826.9708302,0.824717643893495,-1.1316222895408163,-0.21442756497130183,1.4165829940227148,1.7878549826467747,-1.2453917048910832,-0.6901447655276224,2.2855471412709023
232,1791273826.980817,0.829507682955995,-1.0885119379783164,-0.2862781509088018,1.3981761029613173,1.795979278455493,-1.2562410759976887,-0.693445968451861,2.2988150253614323
233,1791273827.000817,0.8534578782684951,-1.1747326411033163,-0.22400764309630183,1.4692060958959074,1.8123331618535086,-1.2781040878561636,-0.699830810140632,2.32548160856427
234,1791273827.0402827,0.906148307955995,-1.3328039301658163,-0.20005744778380183,1.624036346480807,1.8449717083642143,-1.322196871444032,-0.7117952573972421,2.378818542885093
235,1791273827.0602827,0.848667839205995,-1.5244054926658164,-0.31980842434630186,1.773788779887602,1.8616631065776086,-1.3454758136381237,-0.7177287860571369,2.4064973089144344
236,1791273827.0707726,0.781607292330995,-1.5675158442283164,-0.3677088149713018,1.7897557525929062,1.87038712587822,-1.3582866545618044,-0.7209149901537978,2.4213651231567983
237,1791273827.0907726,0.805557487643495,-1.5866760004783165,-0.2958582290338018,1.8038835018036457,1.8869060047973032,-1.3837791694969535,-0.727073897871493,2.450284782191622
238,1791273827.1164956,0.795977409518495,-1.7064269770408165,-0.37249885403380184,1.9194344116673874,1.9080546198522301,-1.4180014250940318,-0.735096396691299,2.48832618166041
239,1791273827.1364956,0.819927604830995,-1.8213879145408165,-0.44913947903380186,2.0473059087556975,1.924455320127741,-1.4459101867176083,-0.7416308183098047,2.5187697032258796
240,1791273827.1460364,0.795977409518495,-1.8549181879783165,-0.41081916653380185,2.059872303845086,1.9322618219686092,-1.4598573659646161,-0.7448957749875931,2.533710518822733
241,1791273827.1660364,0.728916862643495,-1.8357580317283164,-0.22879768215880184,1.9883852048992665,1.9484589440729905,-1.490244741098219,-0.7516727651924682,2.565605891605533
242,1791273827.1909387,0.5947957688934951,-1.8070177973533164,-0.16173713528380182,1.9092548880584401,1.9680734442965264,-1.529208762563938,-0.7595745893889724,2.6055222275952565
243,1791273827.2109387,0.393614128268495,-1.6681066645408165,-0.2671179946588018,1.7346077220307174,1.9829462104444147,-1.561020857572303,-0.7656121783108009,2.637237910934363
244,1791273827.2191606,0.259493034518495,-1.8118078364158163,-0.31980842434630186,1.8580262913490333,1.9885459268221528,-1.574282798630273,-0.7680838127105717,2.650025278462858
245,1791273827.2391605,0.336133659518495,-1.6872668207908164,-0.2575379165338018,1.739592176360717,2.0010176503914243,-1.6069525310115311,-0.7740603198625796,2.680585281778616
246,1791273827.2947812,0.293023307955995,-1.5052453364158165,-0.18089729153380182,1.5441340653878806,2.033123877487751,-1.6974976072275176,-0.7900170245413927,2.76391348034254
247,1791273827.3147812,0.254702995455995,-1.3232238520408164,-0.35333869778380184,1.3930697089002926,2.0437584608066555,-1.729414637728056,-0.7956954085356417,2.793018943450179
248,1791273827.3103058,0.206802604830995,-1.3854943598533165,-0.6120008071588019,1.5286945170678348,2.0437584608066555,-1.729414637728056,-0.7956954085356417,2.793018943450179
249,1791273827.3303058,0.355293815768495,-1.2034728754783164,-0.6120008071588019,1.3961109001431116,2.0528735101605826,-1.7598117518406853,-0.8028648483370266,2.820606143248442
250,1791273827.3853538,0.599585807955995,-0.9352306879783164,-0.2671179946588018,1.1425898668853922,2.0781408639789034,-1.8397569194121792,-0.8232675812941542,2.8950206361050177
251,1791273827.4053538,0.647486198580995,-0.8538000239158163,-0.46350959622130183,1.1674990381069916,2.087814563722148,-1.8671292223100495,-0.8306643172951702,2.9214969439179437
252,1791273827.3853538,0.412774284518495,-1.0070812739158164,-0.7173816665338019,1.3035458402796865,2.087814563722148,-1.8671292223100495,-0.8306643172951702,2.9214969439179437
253,1791273827.4053538,0.369663932955995,-0.9975011957908164,-0.8083924087213019,1.336098179555242,2.0973292988203114,-1.8922852033827675,-0.8398027529102756,2.9469988365160815
254,1791273827.4299588,0.7337069017059951,-0.7053088129783164,-0.7604920180963018,1.2704859105334771,2.1093151361198226,-1.9217335181727087,-0.8522541365834818,2.978020680192852
255,1791273827.4499588,0.9923690110809951,-0.7148888911033163,-0.8706629165338019,1.5013048641111997,2.1201854401008218,-1.9442100897129355,-0.8633037121204861,3.0034034815052917
256,1791273827.4749203,0.968418815768495,-0.8106896723533163,-0.9520935805963019,1.5816241442920211,2.135388160621175,-1.9709107166985425,-0.878438205417366,3.0357907257344223
257,1791273827.4949203,0.896568229830995,-1.0118713129783163,-0.5832605727838018,1.4723827765003346,2.148539435243004,-1.9918289893205627,-0.8910485650940679,3.062282151084106
258,1791273827.5208046,1.025899284518495,-0.7723693598533163,-0.47308967434630184,1.3685165727856101,2.166739132027474,-2.0183047206318507,-0.9069717892677059,3.0969194755613922
259,1791273827.5408046,1.136070182955995,-0.6286681879783164,-0.7365418227838019,1.4927735956558492,2.1819350227934353,-2.0377946316071474,-0.9192440649300644,3.1238529183059573
260,1791273827.5661767,0.968418815768495,-0.7292590082908164,-0.7844422134088018,1.4439540470823369,2.202325574292264,-2.0613948435862905,-0.9353716936633923,3.1582442656724035
261,1791273827.5861766,0.685806511080995,-0.8729601801658163,-0.4060291274713018,1.1820531710339126,2.2184691619090096,-2.0796109862807266,-0.9479633709345118,3.1851250884752207
262,1791273827.5797005,0.863037956393495,-0.7723693598533163,-0.25274787747130184,1.1854410283866212,2.2184691619090096,-2.0796109862807266,-0.9479633709345118,3.1851250884752207
263,1791273827.5997005,1.107329948580995,-0.41790646922831637,-0.42039924465880185,1.2560099350550369,2.235063227813672,-2.096655354581287,-0.958910517363418,3.211071579477703
264,1791273827.6401868,0.9923690110809951,-0.28857541454081637,-0.7030115493463018,1.2499189023874964,2.2699918380829027,-2.1281283180105754,-0.9811581627715706,3.2625855426723755
265,1791273827.6601868,0.767237175143495,-0.49454709422831633,-0.49224983059630184,1.0370822566479136,2.2872975710816936,-2.142518320293388,-0.9922927138228965,3.2873636490925406
266,1791273827.6850944,0.901358268893495,-0.39874631297831636,-0.09467658840880183,0.9901560520489734,2.3087340138387664,-2.159419929830024,-1.0051758740982568,3.3171864159061606
267,1791273827.7050943,1.251031120455995,0.12815798389668367,-0.28148811184630185,1.2886965858170965,2.326593444097643,-2.1713615365939005,-1.0145331642156818,3.340228363152891
268,1791273827.7151487,1.236661003268495,0.4107702885841837,-0.45392951809630183,1.3798966172825105,2.3361008717397005,-2.1760579148960817,-1.0190861914222982,3.351288110185765
269,1791273827.7351487,0.939678581393495,0.4395105229591837,-0.41081916653380185,1.1157677732006217,2.3554406207983307,-2.182723172889893,-1.0280816119060068,3.3718441198128657
270,1791273827.7455227,0.839087761080995,0.6119519292091837,-0.18089729153380182,1.05417136393616,2.365351462867396,-2.1848437784029966,-1.0325080661251633,3.381494164645081
271,1791273827.7655227,1.1408602220184951,0.8322937260841837,-0.15694709622130182,1.4208825720922482,2.384562275628358,-2.18615244753859,-1.0402684612875328,3.398169837100317
272,1791273827.790885,1.289351432955995,1.0526355229591837,-0.16652717434630182,1.6727821022646658,2.4098922222550887,-2.183977603832722,-1.0492486690368035,3.4173471387033527
273,1791273827.810885,1.001949089205995,1.0670056401466836,-0.15215705715880182,1.471582407991066,2.430307498885509,-2.179340376070121,-1.0557460097346418,3.4308189475661948
274,1791273827.8347409,0.7720272142059951,1.0670056401466836,0.02028434909119818,1.3171706458912442,2.45418008225108,-2.170820633045268,-1.0625694648883193,3.444490668398744
275,1791273827.8547409,0.863037956393495,1.2202868901466837,-0.06593635403380183,1.496088971693527,2.4736445326632897,-2.1613184386757918,-1.0675004090270532,3.4539501719926236
276,1791273827.8656054,0.9540486985809951,1.3448279057716837,-0.07072639309630183,1.6503857846233272,2.484112707614167,-2.154840729905198,-1.0698885886114486,3.45815212323425
277,1791273827.8856053,0.7528670579559951,1.5028991948341837,0.03944450534119818,1.681389504484361,2.5030529275056645,-2.1404332896502654,-1.0736723633749854,3.4640295854990852
278,1791273827.9106808,0.566055534518495,1.5124792729591838,0.0011241928411981795,1.614934575485863,2.5257180949056375,-2.1194082846201954,-1.0776284629105801,3.4687788162299285
279,1791273827.9306808,0.47025475326849503,1.5891198979591838,-0.037196119658801825,1.6576565188177834,2.5426384924281527,-2.100501910836569,-1.0803646229750068,3.4704908153143577
280,1791273828.0146513,0.527735222018495,1.6849206792091838,-0.17610725247130182,1.7743945232553662,2.6093083211099724,-2.0124105351120463,-1.0914726387480123,3.4712531739386634
281,1791273828.0346513,0.465464714205995,1.5364294682716837,-0.5209900649713018,1.6878102852344747,2.6242955428085426,-1.9897442616854633,-1.0947671209136216,3.4705222045030215
282,1791273828.0157702,0.283443229830995,1.4310486088966838,-0.5928406509088019,1.5747063926116933,2.6242955428085426,-1.9897442616854633,-1.0947671209136216,3.4705222045030215
283,1791273828.0357702,0.264283073580995,1.2729773198341838,-0.48745979153380187,1.388500575497114,2.6369002558753727,-1.9655283131696708,-1.1001879662049578,3.467990494550038
284,1791273828.0292933,0.225962761080995,1.3352478276466837,-0.5066199477838018,1.4458940839919765,2.6369002558753727,-1.9655283131696708,-1.1001879662049578,3.467990494550038
285,1791273828.0492933,0.225962761080995,1.5124792729591838,-0.7317517837213019,1.6953210296300212,2.6473101115460027,-1.9404352198982018,-1.1072295332125948,3.46402899937822
286,1791273828.0753152,0.331343620455995,1.6226501713966837,-0.8658728774713018,1.8688279785713304,2.659910392627047,-1.9065652433963187,-1.1181350423637186,3.4583724925308363
287,1791273828.0953152,0.374453972018495,1.7280310307716837,-0.5928406509088019,1.8648772232616944,2.6692007736869487,-1.879412180268177,-1.1274476122330133,3.453688033381317
288,1791273828.1201067,0.451094597018495,1.8908923588966837,-0.2766980727838018,1.9635483370356366,2.6805244730190285,-1.8440737728259746,-1.138876484132099,3.4471523285441936
289,1791273828.1401067,0.580425651705995,2.0154333745216837,-0.10425666653380182,2.099936922102883,2.6898366256540016,-1.813982078782356,-1.1472849082420864,3.4412228517684404
290,1791273828.1504445,0.690596550143495,1.8429919682716838,0.11608513034119819,1.971552370004501,2.694913466875245,-1.79776946618144,-1.1509700470786663,3.437915894368581
291,1791273828.1704445,0.7911873704559951,1.7424011479591837,0.4705480209661982,1.9706229105574102,2.7054847226770815,-1.765730645069057,-1.1561501033333847,3.431345997857527
292,1791273828.1960132,0.963628776705995,1.6753406010841838,0.5280284897161982,2.0035370310750373,2.7203373388580605,-1.7243609148168433,-1.1598641998343187,3.423293847128908
293,1791273828.2160132,0.987578972018495,1.6226501713966837,0.5471886459661982,1.976795694800329,2.7331392684606386,-1.6919082685479596,-1.1607207824760235,3.417583442266518
294,1791273828.2252645,0.901358268893495,1.4454187260841838,0.4849181381536982,1.771109150596866,2.7394834120126115,-1.6770196545475733,-1.1603414471612294,3.4151949520388056
295,1791273828.2452645,0.7911873704559951,1.2154968510841837,0.4465978256536982,1.5175176005711595,2.753680014873631,-1.645669463945306,-1.158247120611916,3.4106477392545638
296,1791273828.269845,0.685806511080995,1.1292761479591837,0.3651671615911982,1.37074514221105,2.7712336902481547,-1.6085961451284012,-1.154562719793484,3.4059261292672343
297,1791273828.289845,0.604375847018495,0.9233044682716837,0.20230583346619818,1.1219130785601141,2.7853091729098014,-1.5798771817074677,-1.1511633608091116,3.402812980644799
298,1791273828.3148973,0.513365104830995,0.6598523198341837,-0.01803596340880182,0.8362261122595825,2.802395828595809,-1.5463247778231541,-1.1471977522760253,3.4000890255209764
299,1791273828.3348973,0.47025475326849503,0.3964001713966837,-0.061146314971301824,0.6180707893837913,2.8154659115534266,-1.521972426545845,-1.144625544853852,3.3990316274223153
300,1791273828.360595,0.475044792330995,0.1952185307716837,-0.11862678372130182,0.5271149241802147,2.831562352578871,-1.4942356741719713,-1.14216278090889,3.3992677777138542
301,1791273828.380595,0.455884636080995,0.15210817920918368,-0.10904670559630182,0.4928071464563404,2.843607136097879,-1.4753657976801042,-1.1408750814368973,3.400647252049921
302,1791273828.4056957,0.431934440768495,0.09941774952168367,-0.16173713528380182,0.47181580195215966,2.8581276501581008,-1.4547622590170555,-1.1400111529270258,3.403652791290069
303,1791273828.4256957,0.360083854830995,0.13294802295918368,-0.10425666653380182,0.39774993631105093,2.8691500008044453,-1.4404595296720692,-1.1398250294485972,3.406779488240576
304,1791273828.4347584,0.364873893893495,0.16168825733418368,-0.013245924346301821,0.39931379329614275,2.87388821642266,-1.4347503100038193,-1.139833208042459,3.408366423186544
305,1791273828.4547584,0.388824089205995,0.22395876514668367,-0.0036658462213018206,0.448726129461409,2.8839067309092417,-1.4234624571709025,-1.1398739171214498,3.4121072589372763
306,1791273828.4810827,0.355293815768495,0.23832888233418367,0.06339470065369818,0.4324965199270052,2.8965843980995296,-1.4099210995126044,-1.1398015378355812,3.4171956671833708
307,1791273828.5010827,0.245122917330995,0.2670691167091837,0.1591954819036982,0.3959221630058516,2.9056721484808747,-1.400418113376808,-1.139420910972959,3.4208743822440733
308,1791273828.5106618,0.173272331393495,0.3676599370216837,0.1400353256536982,0.4298918730893419,2.9096725048216947,-1.396093285517338,-1.1390509728658347,3.4223833312427985
309,1791273828.5306618,0.15411217514349498,0.3676599370216837,0.025074388153698182,0.399441005355647,2.917262934197077,-1.3873151205033258,-1.1381467867072796,3.4249736318560764
310,1791273828.5547378,0.10621178451849499,0.20958864795918367,0.01549431002869818,0.23547487799599187,2.9254997584805533,-1.377290698644445,-1.1371483411475545,3.427620873903197
311,1791273828.5747378,0.05352135483099498,0.12336794483418367,0.07776481784119818,0.1553433362891057,2.9315553559168235,-1.3697130487649756,-1.1363034530487484,3.4294775372018647
312,1791273828.6300836,-0.061439582669005025,0.022777124521683668,0.09213493502869818,0.11305956824948618,2.9457664497930356,-1.351282280317602,-1.1336108667735387,3.4334497775697344
313,1791273828.6500835,-0.07101966079400503,-0.10176389110331634,0.03944450534119818,0.13021348145793113,2.9499328345341653,-1.3457395735308402,-1.1325864441715001,3.4345117238918816
314,1791273828.631596,-0.08538977798150502,-0.22630490672831635,0.1496154037786982,0.28441183878472004,2.9499328345341653,-1.3457395735308402,-1.1325864441715001,3.4345117238918816
315,1791273828.651596,-0.05185950454400502,-0.30294553172831634,0.27415641940369817,0.4118581621213284,2.952537751937925,-1.342947130096316,-1.1309695905587207,3.4351242169128535
316,1791273828.675227,0.09184166733099498,-0.28378537547831634,0.3124767319036982,0.43198465154993854,2.955224763747174,-1.3411825161112771,-1.1283060660973336,3.435869398649948
317,1791273828.695227,0.08226158920599498,-0.21193478954081635,0.4897081772161982,0.5399050128576482,2.9574189484160764,-1.3406566364614907,-1.1251866565913462,3.4365290724086566
318,1791273828.720832,0.0056209642059949815,-0.09697385204081634,0.7148400131536982,0.7214095699558044,2.9599754774763976,-1.340677587704973,-1.1194788437389926,3.436874176197791
319,1791273828.740832,-0.08059973891900503,0.02756716358418367,0.8154308334661983,0.819868105605571,2.961560357993609,-1.3407956077338041,-1.1133938688119873,3.4363088514953977
320,1791273828.764677,-0.20993079360650502,0.22874880420918367,0.7387902084661983,0.8013787654142809,2.9626469177680006,-1.3404568223573723,-1.1044477592227047,3.434225692178182
321,1791273828.784677,-0.24346106704400503,0.5832116948341837,0.6238292709661982,0.8880158396514022,2.962741480723589,-1.3389973496938834,-1.096025807629405,3.4310382619663593
322,1791273828.810541,-0.34405188735650505,0.7700232182716837,0.5280284897161982,0.9950485133012478,2.961705773255717,-1.3347680801993287,-1.0845338981924357,3.424838783298234
323,1791273828.830541,-0.583553840481505,0.9185144292091837,0.3507970444036982,1.1433557660538372,2.9596336094238396,-1.3294554342754445,-1.0756621838779807,3.4181767051427934
324,1791273828.8405097,-0.7559952467315051,1.0909558354591837,0.2597863022161982,1.3524800814881677,2.957754167365002,-1.3257022175940918,-1.0714469747740616,3.41376547291278
325,1791273828.8605096,-0.8134757154815051,1.3496179448341838,0.3460070053411982,1.6133605252521137,2.952194901340905,-1.3156409015908468,-1.063349979062615,3.402510675282956
326,1791273828.870002,-0.664984504544005,1.7855114995216839,0.3939073959661982,1.9456152607349377,2.948899581937712,-1.3093499002671787,-1.059556663074413,3.3960368413707576
327,1791273828.890002,-0.602713996731505,2.2549353276466837,0.3220568100286982,2.356208412388637,2.941096431314025,-1.2920226487645463,-1.0516892484261164,3.3801510348597943
328,1791273828.9151092,-0.5212833326690051,2.460907007334184,0.1256652084661982,2.518648716332599,2.930653515497942,-1.264653423320059,-1.0424512100684729,3.357794340692833
329,1791273828.9351091,-0.5404434889190051,2.566287866709184,0.02986442721619818,2.6227475028196428,2.9219900552304803,-1.238581005746858,-1.0359628637248617,3.3384618981920013
330,1791273828.960568,-0.49254309829400506,2.7578894292091842,-0.032406080596301824,2.8017142897662555,2.9106437903593445,-1.200204592566565,-1.0289473223292132,3.312260697847279
331,1791273828.980568,-0.27220130141900506,2.858480249521684,-0.04677619778380182,2.8717922797582105,2.901920268167857,-1.1661544048076684,-1.0243815060052222,3.290959557408942
332,1791273828.990284,-0.24346106704400503,2.700408960459184,-0.05156623684630182,2.7118519357953423,2.8979422836520423,-1.1480432215424807,-1.022567797469842,3.2805056955186616
333,1791273829.010284,-0.23867102798150502,2.633348413584184,-0.24795783840880184,2.6557429876688845,2.8902588725230713,-1.108353755472135,-1.019843667344744,3.259160245107733
334,1791273829.034927,-0.439852668606505,2.413006616709184,-0.4347693618463018,2.491002950693316,2.8809577736300387,-1.0574591619901392,-1.0182524453042423,3.2334154720796873
335,1791273829.0549269,-0.16682044204400504,2.1974548588966836,-0.5162000259088019,2.2634264696518525,2.873631383403125,-1.0154337406086382,-1.0185811903602926,3.213467076321399
336,1791273829.1100812,0.09663170639349498,1.9435827885841839,-0.5688904555963018,2.0274338690151548,2.8561675369749713,-0.8997938800869222,-1.0238403461856393,3.164738706495227
337,1791273829.1300812,0.15890221420599498,1.7615613042091838,-0.6024207290338018,1.86849106953615,2.851168029998772,-0.8585929843345422,-1.0272183186345265,3.149844206016214
338,1791273829.1256003,0.039151237643494985,1.3783581792091837,-0.4347693618463018,1.4458314174211715,2.851168029998772,-0.8585929843345422,-1.0272183186345265,3.149844206016214
339,1791273829.1456003,0.14453209701849498,1.0382654057716838,-0.33896858059630186,1.1017187837748228,2.8480839288579873,-0.8211970117095629,-1.032141925640387,3.138672259495169
340,1791273829.155015,0.498994987643495,0.5784216557716837,-0.31980842434630186,0.8281576165452155,2.847304300814654,-0.805092442905844,-1.0345771416093692,3.134591757311044
341,1791273829.175015,0.695386589205995,0.31496950733418366,-0.36291877590880184,0.8452682041251929,2.847688104647592,-0.7746724931799622,-1.039998477375109,3.1290640527134626
342,1791273829.200782,0.762447136080995,0.2622790776466837,-0.4060291274713018,0.9027599914951997,2.8509257188354646,-0.7402439856981465,-1.0474214106602269,3.1261526233038026
343,1791273829.220782,0.7720272142059951,0.20958864795918367,-0.37249885403380184,0.8824447954883771,2.85536346266222,-0.7168217798638463,-1.0534865242513574,3.126782343683801
344,1791273829.2458224,0.877408073580995,0.13294802295918368,-0.3964490493463018,0.9719526496293196,2.863183874827532,-0.6912521644658479,-1.0613852308771263,3.130844944144505
345,1791273829.2658224,1.193550651705995,-0.10655393016581634,-0.5497302993463018,1.3183779049426465,2.8715996078540855,-0.6738532958102144,-1.0681669507580558,3.1370596434868414
346,1791273829.2905188,1.356411979830995,-0.34126584422831635,-0.5449402602838018,1.5010915104496736,2.8851558343083,-0.6564209784951416,-1.0773125935588945,3.148906971234992
347,1791273829.3105187,1.528853386080995,-0.30773557079081637,-0.47787971340880186,1.631092541258451,2.8988152945960692,-0.6453947667534039,-1.0851423183027298,3.1618346522404046
348,1791273829.3210711,1.6198641282684951,-0.41790646922831637,-0.5257801040338018,1.7535821420371858,2.9074332488662042,-0.641024051939935,-1.0894481021799165,3.1703276012301327
349,1791273829.3410711,1.7731453782684952,-0.5041271723533164,-0.6359510024713019,1.9500313884458702,2.9264063293323446,-0.6353658558186133,-1.0981273383520798,3.1895810737983674
350,1791273829.3656144,2.089287956393495,-0.49933713329081636,-0.6551111587213019,2.2458032789394458,2.9533067319223827,-0.6313109678123265,-1.1095570862468942,3.217404407055305
351,1791273829.3856144,2.280889518893495,-0.5424474848533164,-0.8610828384088018,2.497632864498713,2.9784946403257377,-0.6300650123211521,-1.1197482258937177,3.243801524691751
352,1791273829.425023,2.280889518893495,-0.7723693598533163,-1.119744947783802,2.655718391231602,3.0341641571088105,-0.6318643381223769,-1.1426717028458844,3.3031959213100515
353,1791273829.445023,2.3192098313934952,-0.8058996332908164,-1.0239441665338018,2.6602011422351355,3.065078826101523,-0.635007926390257,-1.155775884864457,3.3367291128931282
354,1791273829.439956,2.5395516282684953,-0.5711877192283163,-1.043104322783802,2.8042190555391113,3.065078826101523,-0.635007926390257,-1.155775884864457,3.3367291128931282
355,1791273829.459956,2.6784627610809952,-0.6190881098533164,-1.2251258071588018,3.009711961903645,3.1014366035214844,-0.6408203656547332,-1.1712814826335443,3.376604812272378
356,1791273829.485363,2.6257723313934953,-0.8298498286033164,-1.397567213408802,3.0881264854827157,3.1508031781405883,-0.6498576434832608,-1.193022076357393,3.4312063911765134
357,1791273829.505363,2.4964412767059954,-0.6957287348533163,-1.129325025908802,2.8269475648985734,3.1915178787045755,-0.6581928906243903,-1.2113591359019868,3.476549324760495
358,1791273829.5155356,2.5491317063934953,-0.6334582270408163,-1.047894361846302,2.8279717777120013,3.212969812225833,-0.6628106163513523,-1.220948009113117,3.500458108359511
359,1791273829.5355356,2.7598934251434954,-0.6526183832908163,-1.3448767837213018,3.1387284106389273,3.2567828129043623,-0.6724566572467789,-1.240561640001582,3.5493415486464777
360,1791273829.559961,2.6401424485809954,-0.5568176020408163,-1.282606275908802,2.987553656378808,3.312156828483627,-0.6846856493014464,-1.2657355767770402,3.6112690075857223
361,1791273829.579961,2.4964412767059954,-0.45143674266581635,-1.0287342055963018,2.73757342302157,3.35840162888676,-0.6947093233338353,-1.286723470215995,3.6629414182649565
362,1791273829.6056378,2.6066121751434954,-0.26462521922831633,-0.9425135024713018,2.784382380456869,3.4186940483754804,-0.7070267369911654,-1.3134228989894776,3.7299377360497896
363,1791273829.6256378,2.6736727220184955,-0.06823361766581633,-0.9712537368463019,2.845437659198223,3.4665327234051073,-0.7156811073894795,-1.3339706385513106,3.782661263506111
364,1791273829.6500683,2.6593026048309953,0.28622927295918366,-0.9808338149713018,2.8488335355634273,3.5259750642521577,-0.7242674902786889,-1.3588820990961574,3.8475478048292757
365,1791273829.6700683,2.7311531907684956,0.5065710698341837,-0.8371326430963019,2.9011382356542894,3.5754237200005363,-0.7290531293159602,-1.3789436972710176,3.9008536198057127
366,1791273829.6806436,2.841324089205995,0.7556531010841837,-0.6120008071588019,3.003111582516282,3.6020682344365698,-0.7302029074847738,-1.3891097674660047,3.9290861275499753
367,1791273829.7006435,2.6832528001434954,1.0765857182716838,-0.5209900649713018,2.937739444890113,3.6531866474020256,-0.7293028417980685,-1.4071514002218033,3.9821765881182833
368,1791273829.7253404,2.5156014329559953,1.1771765385841837,-0.6167908462213019,2.845070494814792,3.716470999238295,-0.7241835600903587,-1.4281956576264783,4.046769248838827
369,1791273829.7453403,2.491651237643495,1.2538171635841837,-0.7604920180963018,2.8911470871155682,3.767543457274538,-0.7170132314189626,-1.4447473288971036,4.0982662823244365
370,1791273829.7698667,2.4868611985809954,0.9951550542091837,-0.9281433852838019,2.834830214769813,3.8299377745940077,-0.7054021550866513,-1.465106519934507,4.160835573826199
371,1791273829.7898667,2.3527401048309953,0.5544714604591837,-0.9473035415338019,2.5961911719182753,3.880444617859846,-0.6950297182232404,-1.482031278220951,4.211571375521985
372,1791273829.8004303,2.027017448580995,0.24311892139668367,-0.6934314712213019,2.156096879101918,3.906589818467513,-0.6897410642033588,-1.490929621697938,4.2379308491596195
373,1791273829.8204303,2.041387565768495,0.5736316167091837,-0.45392951809630183,2.1684945083540685,3.9547677999838062,-0.6800049271637083,-1.506970734548793,4.286438597197235
374,1791273829.8455052,2.3192098313934952,0.9903650151466837,-0.7700720962213019,2.6367722955608826,4.014311072274266,-0.6666879684415209,-1.5263674204696664,4.3461435473899925
375,1791273829.8655052,2.5778719407684956,0.9520447026466837,-1.239495924346302,3.0146580246041568,4.062025035951879,-0.6547459038284245,-1.5425320742304993,4.394103411540267
376,1791273829.8900683,2.601822136080995,0.8083435307716837,-1.1341150649713019,2.951120917911763,4.12137734327049,-0.6390361636700161,-1.56377960652547,4.454158178812958
377,1791273829.9100683,2.601822136080995,0.8179236088966837,-0.9185633071588019,2.877887420843658,4.1702602446417485,-0.625724130746854,-1.581563934614711,4.503770162332035
378,1791273829.9205728,2.644932487643495,0.4969909917091837,-0.8610828384088018,2.8256205627497555,4.196217159991773,-0.618745155941946,-1.590905657747499,4.530128567012645
379,1791273829.9405727,2.644932487643495,0.08504763233418368,-0.9616736587213018,2.815620214062272,4.246159451893762,-0.6065776405345872,-1.6087580136018615,4.581037968761168
380,1791273829.9653158,2.611402214205995,-0.4753869379783164,-1.129325025908802,2.884577833809358,4.308432205848411,-0.5945068662114712,-1.6314115591492804,4.645162016732062
381,1791273829.9853158,2.6066121751434954,-0.8298498286033164,-0.8658728774713018,2.869287996974108,4.359044346220691,-0.5881713717524398,-1.6499687010353594,4.69783033849287
