imu_index,t_imu,ax,ay,az,mag,vx,vy,vz,velocity
0,1790596799.118251,-0.07525151367187517,0.04478686523437511,-0.0044547363281253055,0.08768408226801266,0.0,0.0,0.0,0.0
1,1790596799.138251,-0.08004155273437517,0.06394702148437512,0.014705419921874695,0.10349937727315833,-0.00032888496589157217,0.000220203873248975,9.696227325212538e-06,0.0003959155003377532
2,1790596799.179531,-0.10399174804687518,0.09747729492187511,0.024285498046874698,0.14458869977462188,-0.00147564926639422,0.0011063002703141302,0.00014742329090889071,0.0018501823348549527
3,1790596799.199531,-0.10878178710937518,0.07831713867187512,0.024285498046874698,0.13622348120586222,-0.002267070887333881,0.0017349047747877181,0.00027699861281035685,0.0028681410734615054
4,1790596799.194053,-0.09441166992187518,0.04957690429687511,0.019495458984374697,0.1084043623573796,-0.002267070887333881,0.0017349047747877181,0.00027699861281035685,0.0028681410734615054
5,1790596799.214053,-0.08962163085937518,0.04478686523437511,0.024285498046874698,0.10309066607021676,-0.003373994107017771,0.0024936817978526505,0.0004921088227819346,0.004224269905746092
6,1790596799.2389824,-0.07046147460937517,0.07352709960937512,0.005125341796874695,0.10196726391165639,-0.004846095296827285,0.0035188237299245326,0.0007750091954688519,0.006038824332705234
7,1790596799.2589824,-0.060881396484375176,0.06873706054687512,0.029075537109374695,0.09631570374923859,-0.006046967206624082,0.0044312863271265285,0.0010192263766470593,0.007565773808264338
8,1790596799.2836962,-0.060881396484375176,0.054366943359375114,0.014705419921874695,0.08293707460001143,-0.007533976878221053,0.005617855414550348,0.001356885757229187,0.00949538024612672
9,1790596799.3036962,-0.08004155273437517,0.054366943359375114,0.014705419921874695,0.09787064968339554,-0.008768238468265013,0.006597167770855875,0.001633269555303578,0.011093790960418508
10,1790596799.3134503,-0.07525151367187517,0.04478686523437511,0.0673958496093747,0.11050273368564212,-0.009393512166579101,0.00707568204231705,0.0018079076088334453,0.011898398090067227
11,1790596799.3334503,-0.08962163085937518,0.059156982421875115,0.057815771484374695,0.12196002918780229,-0.010730574117171546,0.00806557182793177,0.002300091174288712,0.013619437918125674
12,1790596799.3595798,-0.08962163085937518,0.07352709960937512,0.00033530273437469506,0.1159240420395388,-0.012566651991963503,0.009424871026246163,0.002960622377700721,0.01598481219820355
13,1790596799.3795798,-0.08962163085937518,0.04478686523437511,0.00033530273437469506,0.10018988194094185,-0.014030078828178423,0.010486709217623598,0.0033913734599069598,0.01784140118052541
14,1790596799.4046261,-0.10878178710937518,0.006466552734375109,-0.018824853515625305,0.11058783215553432,-0.01596055009369752,0.011713283320845933,0.0038151632416382002,0.020161736929346703
15,1790596799.424626,-0.12794194335937517,-0.017483642578124892,-0.04756508789062531,0.1376127036810777,-0.017625925356594456,0.012529283840699923,0.004003221926630398,0.02199277117670527
16,1790596799.4341896,-0.11836186523437518,0.001676513671875109,-0.07151528320312531,0.13829959353329854,-0.018479475365963283,0.012849606880295544,0.003994246382934065,0.022859514669978542
17,1790596799.4541895,-0.10399174804687518,0.06873706054687512,-0.05714516601562531,0.13713000092402436,-0.02033027615171647,0.013524633446355721,0.0037853009647124797,0.024709600192167995
18,1790596799.4794586,-0.10399174804687518,0.11663745117187511,-0.023614892578125306,0.1580387352176444,-0.022712081255777353,0.014600885588298532,0.0034078525604246007,0.027214664319171918
19,1790596799.4994586,-0.051301318359375174,0.10705737304687511,-0.009244775390625305,0.1190738101394713,-0.024547402905570066,0.01566048647564522,0.0031046310643044416,0.029282495797108905
20,1790596799.524551,-0.022561083984375174,0.09747729492187511,0.024285498046874698,0.10295926840853623,-0.02664364214285969,0.017175392264245092,0.0028095731835400778,0.03182407056837837
21,1790596799.544551,-0.022561083984375174,0.1262175292968751,0.014705419921874695,0.12905857812418445,-0.028131519695416694,0.01853727727464253,0.0026681588768676123,0.0337954452688939
22,1790596799.5537574,-0.027351123046875175,0.12142749023437512,0.00033530273437469506,0.12447020424369942,-0.02874815739411311,0.019241149389049087,0.0026232120322557035,0.03469235686335789
23,1790596799.5737574,-0.03693120117187518,0.11663745117187511,-0.028404931640625308,0.12559876105032908,-0.029983210323481925,0.02089795547939814,0.002498112695577578,0.03663274507269235
24,1790596799.598859,-0.060881396484375176,0.10226733398437511,-0.061935205078125305,0.1341682587880936,-0.03148493591880444,0.023077587607348047,0.0021945774500811074,0.03909849625970864
25,1790596799.618859,-0.11357182617187518,0.09268725585937511,-0.028404931640625308,0.14931954741514752,-0.03276365218777843,0.024846164948406368,0.0018534995390169428,0.04116095574529668
26,1790596799.6441703,-0.15189213867187518,0.07831713867187512,0.014705419921874695,0.17152564057640055,-0.03464314504722892,0.02707329865551958,0.0014605859903336505,0.04399141177877176
27,1790596799.6641703,-0.14710209960937518,0.10226733398437511,0.019495458984374697,0.18021572692406648,-0.036353974713658734,0.028840002630187586,0.0012479916082407214,0.04642105893067073
28,1790596799.6743972,-0.13752202148437517,0.09268725585937511,0.024285498046874698,0.16760972289003692,-0.037315893780090675,0.029757428728447555,0.001189169193587627,0.04774300594334864
29,1790596799.6943972,-0.13273198242187517,0.09268725585937511,0.005125341796874695,0.16197214478087593,-0.03932024424165431,0.03156050071754167,0.0011355066371986217,0.05043249139283543
30,1790596799.7194576,-0.12794194335937517,0.08789721679687511,0.009915380859374696,0.15554220124711135,-0.041944959873395145,0.03382031033385126,0.001106621836602658,0.053892649422235504
31,1790596799.7394576,-0.10878178710937518,0.059156982421875115,0.0386556152343747,0.1297200152833767,-0.04408054727735059,0.03557385591749494,0.001159883967369039,0.05665632536555111
32,1790596799.7789001,-0.08483159179687517,0.0831071777343751,0.0769759277343747,0.14152206686002133,-0.04823319801009999,0.03893418554354945,0.0015912279090810387,0.06200680769463694
33,1790596799.7989001,-0.09920170898437518,0.07831713867187512,0.1057161621093747,0.16477396701635236,-0.050299066420052156,0.04062464510263734,0.002051177748666986,0.0646882153301564
34,1790596799.8096113,-0.13273198242187517,0.07831713867187512,0.0721858886718747,0.17018271325472217,-0.051425825213916934,0.0415200169820728,0.0024034746800511366,0.06613852129932749
35,1790596799.8296113,-0.16147221679687518,0.0831071777343751,0.0482356933593747,0.18790093640567546,-0.053655436192599756,0.043183218770360056,0.0031432455383632093,0.06894618342520027
36,1790596799.8388731,-0.14231206054687517,0.059156982421875115,0.009915380859374696,0.15443634910197132,-0.05474409565767017,0.04393672514481786,0.0034748346675583957,0.07028105222458096
37,1790596799.8588731,-0.12794194335937517,0.04957690429687511,-0.014034814453125306,0.13792746763052213,-0.05714769479325785,0.04548287574260374,0.004077282517112133,0.07315172751702334
38,1790596799.883552,-0.11357182617187518,0.04957690429687511,0.005125341796874695,0.12402700620514444,-0.06011574750217634,0.04728809121942055,0.004692672941437527,0.076629549445739
39,1790596799.903552,-0.08004155273437517,0.06394702148437512,0.009915380859374696,0.1029280646783925,-0.062450697431519014,0.04870189173798791,0.005139143008405168,0.07936229998810941
40,1790596799.9290516,-0.060881396484375176,0.059156982421875115,0.00033530273437469506,0.08488937174389624,-0.06525067110465721,0.05046950696333014,0.005642601590132823,0.08268409862503641
41,1790596799.9490516,-0.051301318359375174,0.02083666992187511,-0.014034814453125306,0.05712239574437328,-0.06728562292929505,0.051767925657372885,0.005957696574653995,0.08510444952131589
42,1790596799.9594653,-0.04172124023437518,0.01604663085937511,-0.0044547363281253055,0.0449221651791698,-0.06825890554005505,0.05237138705585876,0.006082710667357843,0.0862498680389919
43,1790596799.9794652,-0.051301318359375174,0.06394702148437512,0.024285498046874698,0.08550340482997068,-0.06998729558727435,0.053476511090036837,0.006316538753120374,0.08830547799430687
44,1790596800.0040753,-0.051301318359375174,0.08789721679687511,0.033865576171874696,0.10725960672825477,-0.0719844459429559,0.05491265803496187,0.006668438580936722,0.09078341557402832
45,1790596800.0240753,-0.04172124023437518,0.0831071777343751,0.033865576171874696,0.09896636866693911,-0.07350355969395092,0.05616121771600456,0.007013118553446577,0.09276874201406078
46,1790596800.0485406,-0.017771044921875177,0.059156982421875115,0.014705419921874695,0.06349494453856949,-0.07519226187850588,0.0577204819940496,0.007460631810588933,0.09508517926072592
47,1790596800.0685406,-0.012981005859375176,0.03520678710937511,-0.028404931640625308,0.047062347085484284,-0.07641180218701597,0.05894549851412664,0.007751041803706855,0.09681639302096198
48,1790596800.0791006,0.030129345703124828,-0.007903564453124892,-0.009244775390625305,0.03249168625335129,-0.0769455527190098,0.05951691253706328,0.007851559704818522,0.09759368806934537
49,1790596800.0991006,0.04928950195312483,-0.007903564453124892,0.0673958496093747,0.08386967198231579,-0.07768567832158403,0.06041308787775963,0.008100604122303309,0.09874424332768375
50,1790596800.1231828,0.039709423828124826,0.03520678710937511,0.1009261230468747,0.11402823559364322,-0.07828244564213642,0.061379631865040765,0.008659516588541267,0.09985283036123309
51,1790596800.1431828,0.04449946289062483,0.011256591796875109,0.0961360839843747,0.10653196562669028,-0.07857739965822574,0.06213162512627464,0.009349654519289333,0.10060895893264439
52,1790596800.168709,0.07323969726562483,-0.046223876953124896,-0.014034814453125306,0.08773640107088768,-0.07867197762394326,0.0628804948007678,0.010255543713926254,0.1012344450595738
53,1790596800.188709,0.08760981445312482,-0.017483642578124892,-0.10983559570312532,0.14158042036161278,-0.07849369057705066,0.06328366549779045,0.010673041949677954,0.10139031316502375
54,1790596800.1987066,0.12593012695312483,-0.017483642578124892,-0.11462563476562532,0.17118151412361177,-0.07825782002818794,0.06342875300532881,0.010682130770105564,0.1012995608142745
55,1790596800.2187066,0.13072016601562483,-0.012693603515624891,-0.04756508789062531,0.1396829515703592,-0.07747176939885378,0.06363019476189967,0.010454299597550036,0.1007966721638259
56,1790596800.243891,0.14988032226562484,-0.017483642578124892,-0.05235512695312531,0.1597211572664218,-0.07610042328878708,0.06378880580065306,0.010021711053303777,0.09980341107718667
57,1790596800.263891,0.14988032226562484,0.001676513671875109,-0.10983559570312532,0.185824594131132,-0.0747250958897406,0.06387216084695245,0.009486419026734402,0.09875973386426617
58,1790596800.2891407,0.12593012695312483,-0.007903564453124892,-0.0667252441406253,0.14273444367468172,-0.07272690241742624,0.06394981797657469,0.008577631223888115,0.09722323442410201
59,1790596800.3091407,0.11635004882812483,-0.007903564453124892,-0.018824853515625305,0.11812779225591445,-0.07101815046714147,0.06397839184460449,0.00783744285447344,0.09590744407652847
60,1790596800.3186986,0.10676997070312483,0.01604663085937511,-0.014034814453125306,0.10887744037502368,-0.07016408890390365,0.06399583627803657,0.007513212771150655,0.09526234722483347
61,1790596800.3386986,0.10197993164062483,0.006466552734375109,-0.009244775390625305,0.10260208883700213,-0.06833191331132345,0.06406063304063989,0.006901611286079702,0.09391830130862615
62,1790596800.3632262,0.11156000976562483,-0.012693603515624891,0.005125341796874695,0.11239676364403463,-0.06602919256035865,0.06411672352998603,0.006256486558583054,0.09224940178912445
63,1790596800.3832262,0.11156000976562483,-0.022273681640624893,0.014705419921874695,0.11470833469200435,-0.06409850281895599,0.06410314883107925,0.005839098327006214,0.09084011681500444
64,1790596800.4087694,0.10197993164062483,-0.022273681640624893,-0.023614892578125306,0.10702189730485448,-0.06159348279497761,0.0640030710977004,0.005368918603693924,0.08898862578849943
65,1790596800.4287694,0.10676997070312483,-0.022273681640624893,-0.023614892578125306,0.11159572881275717,-0.05961317173627537,0.06386964456252699,0.004985151429404648,0.08750950505960074
66,1790596800.453783,0.10676997070312483,-0.041433837890624894,-0.023614892578125306,0.11693696044351895,-0.05710733087015213,0.06360828414179964,0.0044885708867261126,0.08560028223774799
67,1790596800.473783,0.07323969726562483,-0.0510139160156249,-0.0044547363281253055,0.0893661991950129,-0.0551342787201502,0.06329198496158689,0.0041089767814507785,0.08403896560857617
68,1790596800.4835994,0.07802973632812484,-0.046223876953124896,-0.0044547363281253055,0.0908027049584286,-0.05419975662563236,0.06308843621718899,0.003944051550377825,0.08326655958570726
69,1790596800.5035994,0.10676997070312483,-0.017483642578124892,0.0386556152343747,0.114890212772428,-0.05230415880716892,0.06264037080352239,0.003709736511947639,0.08169028845533846
70,1790596800.5285275,0.12114008789062483,-0.007903564453124892,0.0386556152343747,0.12740346861196922,-0.049869775015803405,0.06211820605954799,0.0036060342406701437,0.07974126577330083
71,1790596800.5485275,0.11156000976562483,-0.012693603515624891,0.005125341796874695,0.11239676364403463,-0.047860570730776084,0.06173121441758958,0.0036009847231642904,0.07819427188178493
72,1790596800.5736852,0.12114008789062483,0.001676513671875109,0.019495458984374697,0.12271024616246082,-0.045273259019754805,0.061296654512486407,0.003642040950281986,0.07629031589249359
73,1790596800.5936852,0.13072016601562483,0.04478686523437511,0.0769759277343747,0.15817369740649762,-0.04314712656168859,0.06107270127690972,0.003814491107017511,0.07487389207323564
74,1790596800.6036835,0.16904047851562484,0.04957690429687511,0.0961360839843747,0.20068557362277858,-0.04201888832469769,0.061048297984866294,0.004017582408392123,0.07422009587234894
75,1790596800.6236835,0.20257075195312482,0.054366943359375114,0.0865560058593747,0.22689781009834367,-0.0395431468523479,0.0611627210863658,0.004636933124504527,0.07297972363935105
76,1790596800.648417,0.22173090820312483,0.1405876464843751,0.14882651367187472,0.30179266586238124,-0.036153619092526894,0.061644643808407666,0.005724618384610752,0.07169321822461594
77,1790596800.668417,0.24568110351562483,0.21722827148437512,0.1344563964843747,0.3544373698022091,-0.033122794429038205,0.06251260472933313,0.006897135663189442,0.07108105050708387
78,1790596800.6946816,0.21694086914062483,0.1310075683593751,-0.037985009765625306,0.25625999422036344,-0.028828342192475282,0.06416743800700583,0.00839599157870813,0.07084508514031955
79,1790596800.7146816,0.20257075195312482,-0.007903564453124892,-0.04756508789062531,0.20823019344936994,-0.025419462088961686,0.06542319587450089,0.009237811189140748,0.07079322543076905
80,1790596800.72339,0.25526118164062483,0.1262175292968751,0.019495458984374697,0.28542811437450766,-0.023858772923316028,0.0659652402886549,0.00953104429353934,0.07079191180545802
81,1790596800.74339,0.23610102539062483,0.26512866210937514,0.2015169433593747,0.40822295393977676,-0.020075079282241583,0.06761039423651795,0.01043498850670712,0.07129560436759601
82,1790596800.769301,0.25047114257812486,0.4471501464843751,0.3164778808593747,0.6023597727592954,-0.014962866536887848,0.07080623953179957,0.012437049679589222,0.07343085956440837
83,1790596800.789301,0.25526118164062483,0.6866520996093751,0.5511897949218747,0.9167658189399022,-0.010850171195819186,0.0746037196212266,0.015052092417097247,0.0768765678372416
84,1790596800.81386,0.24089106445312483,0.9165739746093752,0.6134603027343747,1.1289242219456264,-0.005643630817481471,0.08152039982569045,0.01992676778882206,0.08411006022500575
85,1790596800.83386,0.28400141601562484,1.1464958496093751,0.37395834960937474,1.2389327603679587,-0.0012522769532401822,0.08940279227059517,0.02478219019104671,0.09278245746913594
86,1790596800.8430371,0.29358149414062484,1.2518767089843752,0.3068978027343747,1.3219575067007938,0.0008580351878087417,0.0941279525502221,0.02714458577880079,0.09796752631756635
87,1790596800.863037,0.23610102539062483,1.3668376464843752,0.2015169433593747,1.401641153968574,0.0055617288844491105,0.10680897097471043,0.032283340622617215,0.1117197529115446
88,1790596800.8891666,0.14030024414062484,1.3620476074218753,0.1775667480468747,1.3807200271602915,0.011522838017930215,0.12623912169561294,0.03873284373219195,0.1325493297834796
89,1790596800.9091666,0.11156000976562483,1.189606201171875,0.2254671386718747,1.2159128177079015,0.01577895789529623,0.14270795995061036,0.04353347560598478,0.15003233266154137
90,1790596800.9333503,0.15946040039062484,1.112965576171875,0.0434456542968747,1.1251699951179004,0.020645013747221188,0.1638111640968267,0.048955363773336015,0.1722119093371887
91,1790596800.9533503,0.3366918457031248,1.0027946777343753,-0.34933754882812534,1.1139996802856853,0.02480983871141336,0.18181931330663864,0.05230784638199107,0.19081378771280114
92,1790596800.9633994,0.18341059570312485,0.8686735839843751,-0.3828678222656253,0.9668614230875368,0.026980575087545734,0.19092085968735772,0.053187798685356065,0.20001916914338083
93,1790596800.9833994,0.0013891113281248259,0.6962321777343752,-0.24395668945312532,0.7377371085095022,0.030929990400745688,0.20866522365351745,0.053736170541380295,0.21768191448307087
94,1790596801.009311,0.07802973632812484,0.3609294433593751,-0.30143715820312533,0.47667920363775157,0.035433595437721975,0.23026052973596395,0.05328016027850275,0.2389858295364682
95,1790596801.029311,0.16425043945312484,0.17890795898437512,-0.3158072753906253,0.3983974144471193,0.038751726852789825,0.24523846781424136,0.05205511668446649,0.253679596347407
96,1790596801.0535562,0.22173090820312483,0.06873706054687512,-0.2870670410156253,0.3691840532616137,0.04287267758999738,0.26112242040658934,0.049696538161650684,0.26924474150479494
97,1790596801.0735562,0.31274165039062485,-0.1468146972656249,-0.3158072753906253,0.4680770560622462,0.04656386135963898,0.27214261142353974,0.0471384695324066,0.2800925372925902
98,1790596801.0986226,0.4181225097656249,-0.4773273925781249,-0.2726969238281253,0.6906746594044542,0.05187016925221785,0.2827092896782848,0.04330692773023264,0.29067257682500025
99,1790596801.1186225,0.5522436035156248,-0.692879150390625,-0.2726969238281253,0.9270480715342001,0.05692444822310201,0.2881202891419375,0.039890291015890374,0.2963864523524493
100,1790596801.1432607,0.7630053222656249,-0.831790283203125,-0.4451383300781253,1.2133426267718228,0.06464730247860159,0.2909688931804763,0.034986189152144215,0.30011031962900053
101,1790596801.1632607,0.9258666503906249,-1.2102033691406249,-0.45950844726562534,1.5915304779027455,0.07250926535921325,0.28987140106161163,0.03024546117823426,0.3003295034428662
102,1790596801.1742532,1.1222582519531248,-1.286843994140625,-0.3732877441406253,1.7477914032453292,0.07787079465521306,0.2873000070293354,0.02734408430671117,0.2989194768593426
103,1790596801.1942532,1.246799267578125,-1.176673095703125,-0.3253873535156253,1.7449770536063869,0.08971600248688992,0.2796280645108426,0.02180908256712246,0.29447657232236174
104,1790596801.219042,1.213268994140625,-1.219783447265625,-0.5169889160156254,1.796432812450615,0.10676892450535902,0.26709005650594736,0.014411690705637494,0.28800069158489217
105,1790596801.239042,1.2276391113281249,-1.325164306640625,-0.7373307128906254,1.9511060472021078,0.12212502987261054,0.25467418086770355,0.007457145580366133,0.2825403870993111
106,1790596801.2491279,1.179738720703125,-1.3299543457031249,-0.6894303222656254,1.9067973620812875,0.13052841944308174,0.24734371410439657,0.003396840811582501,0.279692902514107
107,1790596801.2691278,1.1845287597656249,-1.234153564453125,-0.5792594238281253,1.8060412186486594,0.1482390072181378,0.23114181270522957,-0.005349969430667335,0.2746451583672787
108,1790596801.294226,1.261169384765625,-0.970701416015625,-0.5888395019531253,1.6969211576220178,0.17173402919426567,0.20970941336549245,-0.01687870491820409,0.27157964856946054
109,1790596801.314226,1.1509984863281248,-1.0138117675781249,-0.7038004394531253,1.687586108672363,0.19126643937821844,0.1922155852489347,-0.026626558091241717,0.27246771485957466
110,1790596801.3383875,1.050407666015625,-1.219783447265625,-0.5696793457031253,1.7075603883811388,0.21531285493712574,0.1702041940145906,-0.03894401270694736,0.2772106226086061
111,1790596801.3583875,1.0791479003906248,-1.358694580078125,-0.4738785644531253,1.7986584018927332,0.23542614176575935,0.1508493586648847,-0.04917585717448575,0.2839000918724118
112,1790596801.3683753,1.050407666015625,-1.3730646972656249,-0.3972379394531253,1.7738266285752111,0.24555911777028144,0.1405872294196826,-0.0541716458738882,0.2880948049040582
113,1790596801.3883753,1.0264574707031249,-1.555086181640625,-0.2535367675781253,1.8804757015196552,0.2659214429958353,0.11872814899294189,-0.06365098711455051,0.2980973588761467
114,1790596801.414087,1.0695678222656249,-1.804168212890625,-0.2774869628906253,2.115655284162627,0.292214343641399,0.08836367723172257,-0.07503356840499553,0.31436825296341997
115,1790596801.434087,1.055197705078125,-1.947869384765625,-0.28227700195312533,2.2332303156506272,0.3127856985682809,0.0626593953258577,-0.08339909220854835,0.32972185495150236
116,1790596801.4581923,1.103098095703125,-1.933499267578125,-0.28227700195312533,2.2438638845305774,0.33776255104841685,0.029308838453413623,-0.09299003239796484,0.35155326058450553
117,1790596801.4781923,1.170158642578125,-1.923919189453125,-0.3732877441406253,2.282559974298999,0.3587870613602403,2.6322967134895237e-06,-0.10073727519589913,0.3726609102392417
118,1790596801.488868,1.2372191894531248,-1.957449462890625,-0.36849770507812535,2.3448049558907216,0.37025375312135334,-0.016401788127654537,-0.1048462551237036,0.3851617810319416
119,1790596801.508868,1.2372191894531248,-1.804168212890625,-0.3445475097656253,2.2145986655919603,0.39222501965891815,-0.04816668352075225,-0.11245898039324859,0.41086192050239473
120,1790596801.5337758,1.1174682128906248,-1.511975830078125,-0.35891762695312535,1.914060600006976,0.41988220474336063,-0.08798732891452818,-0.12183182118558493,0.4459661742364045
121,1790596801.5537758,1.059987744140625,-1.315584228515625,-0.34933754882812534,1.7252166829325022,0.44202484921226437,-0.11940688150164516,-0.1292913141372846,0.47577328065205493
122,1790596801.5791357,1.0839379394531248,-1.2102033691406249,-0.3062271972656253,1.653266084939253,0.46996781649110086,-0.1580747558466704,-0.13857799948461116,0.5148409841053395
123,1790596801.5991356,1.050407666015625,-1.085662353515625,-0.2679068847656253,1.5342076487784502,0.49190089511458934,-0.18743955400640333,-0.14566452769810123,0.5461851624221996
124,1790596801.609368,1.016877392578125,-0.9850715332031249,-0.30143715820312533,1.4475047210317544,0.5030256450300128,-0.201798852990736,-0.1491832471707913,0.5621505295404947
125,1790596801.629368,1.088727978515625,-0.951541259765625,-0.1625260253906253,1.455051232489202,0.5246664853160545,-0.22856001926793845,-0.15572512087922377,0.5930977292946845
126,1790596801.6541748,1.1509984863281248,-0.855740478515625,-0.0667252441406253,1.4358069300241627,0.5516491728768521,-0.2601364361078797,-0.16304865889295198,0.6313260967942116
127,1790596801.6741748,1.1605785644531248,-0.8796906738281249,0.00033530273437469506,1.4562961231549647,0.5736076907722661,-0.2843788050078918,-0.16816704255433002,0.6619495765179385
128,1790596801.6991985,1.093518017578125,-0.937171142578125,0.014705419921874695,1.4402387491746844,0.6011911924571958,-0.313570608663472,-0.17358225752967352,0.6999201216101615
129,1790596801.7191985,1.0360375488281248,-1.085662353515625,-0.10025551757812531,1.504023841974499,0.6231245223411436,-0.3364364641509174,-0.17738943784602496,0.7300278607098352
130,1790596801.7437675,1.055197705078125,-1.1287727050781249,-0.24395668945312532,1.5643161070769738,0.649880447989696,-0.3643931365339968,-0.18199911041379668,0.7669749870913558
131,1790596801.7637675,0.9929271972656248,-0.9994416503906249,-0.2200064941406253,1.4259000277261216,0.6714657856604226,-0.3869294376195427,-0.18588461244947183,0.7969528092394396
132,1790596801.774408,0.9785570800781249,-0.8988508300781249,-0.1816861816406253,1.3410878577864727,0.6828005908280038,-0.3986358834953937,-0.18796231019413687,0.812685083226425
133,1790596801.794408,1.050407666015625,-0.870110595703125,-0.2200064941406253,1.3816119466200663,0.7039530815682041,-0.4199921212422507,-0.19188428152714707,0.8418805737467313
134,1790596801.8193207,1.0743578613281248,-0.692879150390625,-0.1768961425781253,1.2905884613239795,0.7303190564379094,-0.44552417368670677,-0.19677840177804412,0.8778265506020552
135,1790596801.8393207,1.0360375488281248,-0.5252277832031249,-0.10025551757812531,1.1658855842813718,0.7514763945577807,-0.4647740241424616,-0.20053380353911843,0.9060604126971913
136,1790596801.8639708,1.021667431640625,-0.5874982910156249,-0.061935205078125305,1.1801671713996709,0.7774456562050365,-0.4869979076447719,-0.2047679268028441,0.9399567087103535
137,1790596801.8839707,1.0360375488281248,-0.6258186035156249,-0.1673160644531253,1.2218909085970475,0.7984419588718387,-0.5041446225968145,-0.20803187412574398,0.9669274134249441
138,1790596801.8935049,1.0743578613281248,-0.6449787597656249,-0.2774869628906253,1.2834490365108422,0.8084587287452605,-0.5120011753890493,-0.2096724876729028,0.9796495657994824
139,1790596801.9135048,1.1078881347656249,-0.6066584472656249,-0.3158072753906253,1.3019926366853403,0.8295926748762839,-0.5278873960549425,-0.21348775344141746,1.006213759591628
140,1790596801.9387133,1.088727978515625,-0.534807861328125,-0.2966471191406253,1.2487383925528655,0.8563877637298555,-0.5470653721402475,-0.21873320891230327,1.0394829195048103
141,1790596801.9587133,1.016877392578125,-0.5443879394531249,-0.2056363769531253,1.171616054723096,0.8776161277275596,-0.5616173268842337,-0.2230240415639962,1.0655345196752886
142,1790596801.9835618,1.0264574707031249,-0.6258186035156249,-0.1768961425781253,1.215136251178247,0.9038425961993236,-0.5791659104171655,-0.22826832172844366,1.0974839484923677
143,1790596802.0035617,1.050407666015625,-0.6210285644531249,-0.2583268066406253,1.2473032837767424,0.9249006333878852,-0.5930419786074098,-0.23250901061779625,1.1230317938733387
144,1790596802.014113,1.0456176269531248,-0.616238525390625,-0.24874672851562532,1.238927389687516,0.9360022973929594,-0.6002434829389897,-0.23481191826179662,1.1364546521940115
145,1790596802.034113,0.9354467285156248,-0.6832990722656249,-0.1816861816406253,1.1725903260085335,0.9568607526608681,-0.6137957607790369,-0.23916798287460492,1.1616923258614336
146,1790596802.0587776,0.9450268066406249,-0.7599396972656249,-0.1768961425781253,1.2255106095046941,0.9822041814901521,-0.6306716842697802,-0.24439754264845268,1.1925611038135628
147,1790596802.0787776,1.0695678222656249,-0.7790998535156249,-0.1912662597656253,1.3369946485677613,1.0026939059534659,-0.6446118898100406,-0.24855423443542796,1.2176611864457498
148,1790596802.104324,1.127048291015625,-0.735989501953125,-0.2056363769531253,1.3616918582384407,1.0291489004450234,-0.6626500794307036,-0.2538277390926759,1.2500724411767574
149,1790596802.124324,1.0791479003906248,-0.716829345703125,-0.2056363769531253,1.3117510515738386,1.0500627003743797,-0.676832841212725,-0.25795390783050326,1.2756467333186927
150,1790596802.1336477,1.0408275878906248,-0.735989501953125,-0.22479653320312531,1.2944250059542148,1.059832296309388,-0.6834687189446738,-0.25988990431930964,1.2876011604698885
151,1790596802.1536477,1.0791479003906248,-0.7216193847656249,-0.2152164550781253,1.3159076145092434,1.0808254431279274,-0.6977545178413649,-0.264079881522439,1.313310012718102
152,1790596802.1798797,1.0791479003906248,-0.6497687988281249,-0.1721061035156253,1.2713694166981402,1.1084761206596514,-0.7163792708582146,-0.2695131432265445,1.3470545290224405
153,1790596802.1998796,1.0408275878906248,-0.6066584472656249,-0.14815590820312532,1.2137984645271422,1.1295754539574678,-0.7303339178994445,-0.2735146301064932,1.3726392791625424
154,1790596802.2234507,1.0360375488281248,-0.6306086425781249,-0.22958657226562532,1.2344031176405434,1.154383649755026,-0.7465005246835937,-0.2781909788956274,1.4025886299672912
155,1790596802.2434506,1.098308056640625,-0.7024592285156249,-0.31101723632812533,1.340321333226349,1.1754774339416796,-0.7601598711056687,-0.28237457930922844,1.428049589610097
156,1790596802.2542818,1.098308056640625,-0.712039306640625,-0.28227700195312533,1.3390148868905876,1.1869717722211028,-0.7675966265872032,-0.2847823395204811,1.4419457514416132
157,1790596802.2742817,1.0360375488281248,-0.7072492675781249,-0.1816861816406253,1.2675114191480616,1.208214229524449,-0.7813979191205582,-0.2892573843633953,1.4676628246433339
158,1790596802.2986894,1.0360375488281248,-0.7695197753906249,-0.22479653320312531,1.3099877742327104,1.2340426452529387,-0.7984176776264685,-0.2946435563559864,1.4990486528299931
159,1790596802.3186893,1.0264574707031249,-0.755149658203125,-0.31101723632812533,1.311715543378113,1.255125953463484,-0.8125589921852814,-0.29919876110997035,1.524832178794939
160,1790596802.3442643,0.9785570800781249,-0.7695197753906249,-0.29185708007812533,1.278638024962496,1.281888001138597,-0.830854183098501,-0.3053063585040639,1.5578085548546705
161,1790596802.3642642,0.9306566894531249,-0.7695197753906249,-0.1673160644531253,1.2191296993204497,1.3025409003581399,-0.8453237916657349,-0.3100549170191239,1.5834516605914006
162,1790596802.373381,0.9546068847656248,-0.7455695800781249,-0.10504555664062531,1.2158054417338908,1.3118320775033856,-0.851966097364197,-0.3120810108134037,1.5950373625514687
163,1790596802.3933809,1.0025072753906248,-0.6832990722656249,-0.14815590820312532,1.2222391879275065,1.3320931743948368,-0.866495427574499,-0.3162389069113132,1.6202757782307582
164,1790596802.4191954,0.9833471191406249,-0.673718994140625,-0.2104264160156253,1.2104330284427978,1.3581667956735726,-0.8850631366714887,-0.32149486015867473,1.6526683714143742
165,1790596802.4391954,0.9210766113281249,-0.716829345703125,-0.1960562988281253,1.1834967288113032,1.3781940329874072,-0.8993765946536247,-0.32556585560756796,1.6775846261546188
166,1790596802.4637618,0.9450268066406249,-0.7072492675781249,-0.2008463378906253,1.197337230358785,1.4025422007365966,-0.9169447345328886,-0.33054755961925264,1.7079736415427753
167,1790596802.4837618,1.050407666015625,-0.697669189453125,-0.2774869628906253,1.2911613289247925,1.4223843081391847,-0.9312092821011236,-0.3347124034771973,1.7327320162544926
168,1790596802.5092561,1.0791479003906248,-0.654558837890625,-0.30143715820312533,1.2976408684700846,1.4479553076185216,-0.9492506289475462,-0.34033200144373627,1.7645048032308268
169,1790596802.529256,1.016877392578125,-0.6449787597656249,-0.30143715820312533,1.2413305733892426,1.4681504459157237,-0.9632301581937192,-0.3449835392937526,1.7894948202998744
170,1790596802.5542438,1.007297314453125,-0.712039306640625,-0.23437661132812532,1.2556194685665696,1.493390701652807,-0.9806192697331579,-0.3509275273380533,1.8207086723028083
171,1790596802.5742438,1.055197705078125,-0.735989501953125,-0.23916665039062532,1.3085577673325781,1.51365624894161,-0.9946217171396092,-0.35568173955449695,1.8457890182841168
172,1790596802.5843961,1.0695678222656249,-0.7072492675781249,-0.30143715820312533,1.3172096314791362,1.524018173739002,-1.0017623399509847,-0.35814469212162925,1.8586088346195204
173,1790596802.604396,0.9929271972656248,-0.697669189453125,-0.2535367675781253,1.2397288451495811,1.5444628446978232,-1.015826611554209,-0.36310133974140313,1.8839086406500183
174,1790596802.6292098,0.9737670410156248,-0.697669189453125,-0.1673160644531253,1.2095285087605783,1.5696834756733566,-1.0332552862986777,-0.3691117444023311,1.9151412951325246
175,1790596802.6492097,1.021667431640625,-0.6641389160156249,-0.1577359863281253,1.2287251450281576,1.5899554320580342,-1.0472384874785932,-0.37371708676790916,1.9401884409844306
176,1790596802.6587713,1.021667431640625,-0.6449787597656249,-0.2008463378906253,1.2248025117822179,1.5996585683720133,-1.0538595704114144,-0.37584568522794876,1.952123845614872
177,1790596802.6787713,0.9833471191406249,-0.635398681640625,-0.1960562988281253,1.1870724972228923,1.61991782528404,-1.0675521210392376,-0.3802255905017495,1.9769604931512295
178,1790596802.703692,0.9689770019531249,-0.6258186035156249,-0.1816861816406253,1.1677222372719736,1.6450240257303175,-1.0844116052527075,-0.38557050385567343,2.007664610506509
179,1790596802.723692,0.9737670410156248,-0.635398681640625,-0.2104264160156253,1.1816230411413577,1.665064663015088,-1.0978043477098747,-0.38980477495484467,2.0321324957910223
180,1790596802.7493534,0.9689770019531249,-0.6497687988281249,-0.24395668945312532,1.191902172400713,1.6906602764967953,-1.1148840991491893,-0.3952972383045692,2.063385235885713
181,1790596802.7693534,0.9498168457031249,-0.6497687988281249,-0.2583268066406253,1.1794423560908438,1.710494821254205,-1.1281482470868913,-0.3996892616063112,2.0876452061559885
182,1790596802.7788103,0.9593969238281249,-0.6210285644531249,-0.2679068847656253,1.1738368856968162,1.7198208109670747,-1.1343806727332664,-0.40182773194485816,2.099063757646769
183,1790596802.7988102,0.9546068847656248,-0.6401887207031249,-0.23437661132812532,1.1730508507712227,1.7394565177638623,-1.1474761088347816,-0.4064253406226622,2.1231090304169595
184,1790596802.8243375,0.9593969238281249,-0.654558837890625,-0.22958657226562532,1.1838917703389418,1.76442390904357,-1.1641623109659929,-0.41230160363543356,2.15370801861316
185,1790596802.8443375,0.9354467285156248,-0.6114484863281249,-0.22479653320312531,1.1399400487147051,1.7838933225008224,-1.1771735742875062,-0.41689650240828297,2.1775710559667405
186,1790596802.8687437,0.9402367675781249,-0.6258186035156249,-0.2056363769531253,1.1480332848565042,1.8075216215527374,-1.1929344663632462,-0.42245051890469243,2.206511158897875
187,1790596802.8887436,0.9593969238281249,-0.6258186035156249,-0.2056363769531253,1.1637773418844017,1.8268292147720746,-1.2057900721682198,-0.426936043247676,2.2301365570538896
188,1790596802.9136715,0.9689770019531249,-0.635398681640625,-0.2008463378906253,1.1760047476046964,1.8508896183314811,-1.221767706772752,-0.4324481196085446,2.2595397948947413
189,1790596802.9336715,0.9546068847656248,-0.6401887207031249,-0.1673160644531253,1.161512190199275,1.8701834019214159,-1.234577311750635,-0.4367594189903746,2.2830956803403124
190,1790596802.9439912,0.9354467285156248,-0.6114484863281249,-0.2008463378906253,1.135459856079296,1.8801082858524387,-1.2411641918067562,-0.4389352532108078,2.295203667229893
191,1790596802.9639912,0.9689770019531249,-0.616238525390625,-0.2008463378906253,1.165763956353838,1.8993144934263213,-1.25385649608169,-0.4431221120685527,2.3186006262204
192,1790596802.9900136,0.9593969238281249,-0.577918212890625,-0.1912662597656253,1.136228278281391,1.924319259081487,-1.270224222122014,-0.44851786682509903,2.3489662539506044
193,1790596803.0100136,0.9019164550781249,-0.577918212890625,-0.1721061035156253,1.084925464536028,1.9434463858699407,-1.28265071333518,-0.45258787346016166,2.3721324774079067
194,1790596803.0190527,0.9114965332031248,-0.6018684082031249,-0.2056363769531253,1.1114665223751394,1.9520237353183312,-1.2882243554020643,-0.4544075125278013,2.3825206904744602
195,1790596803.0390527,0.9450268066406249,-0.6114484863281249,-0.2200064941406253,1.146886120836058,1.9709399661320433,-1.300526695417061,-0.45846817722267513,2.4054453028732294
196,1790596803.0641165,0.9067064941406249,-0.577918212890625,-0.2200064941406253,1.0975012459088718,1.994570588238788,-1.3158670269680723,-0.46362076825765897,2.4340834169947505
197,1790596803.0841165,0.8731762207031248,-0.577918212890625,-0.2152164550781253,1.0689921869351902,2.0132683442347274,-1.3280056617094536,-0.46776844832597353,2.4567571684395864
198,1790596803.1091905,0.9019164550781249,-0.6210285644531249,-0.2104264160156253,1.1150825289477821,2.036531688713324,-1.3431958319327864,-0.4729888508362396,2.485026119595233
199,1790596803.1291904,0.9306566894531249,-0.6210285644531249,-0.1864762207031253,1.1342714544491896,2.055052915518894,-1.355357735133289,-0.4771235972159918,2.5075653536425873
200,1790596803.1394205,0.9354467285156248,-0.5874982910156249,-0.1768961425781253,1.1187077675138781,2.0645373171288472,-1.3615727129894262,-0.4792000938036777,2.519092558140018
201,1790596803.1594205,0.9067064941406249,-0.5922883300781249,-0.1625260253906253,1.0951423840728616,2.083061410283485,-1.3736702365669644,-0.48315988015080097,2.541566097434709
202,1790596803.1837077,0.9067064941406249,-0.6114484863281249,-0.1673160644531253,1.1063365597203325,2.1054853349006306,-1.3883500540530185,-0.4878480244324934,2.5687701460063193
203,1790596803.2037077,0.9354467285156248,-0.6114484863281249,-0.1721061035156253,1.1307300049927353,2.123944318758686,-1.4004596215246587,-0.4916386510981801,2.591164831492186
204,1790596803.2287862,0.9546068847656248,-0.6258186035156249,-0.2200064941406253,1.1624655205261905,2.1471736023643815,-1.4156936313295072,-0.4964163686283269,2.619345747991184
205,1790596803.2487862,0.9019164550781249,-0.577918212890625,-0.2152164550781253,1.0925936459946028,2.165704816614566,-1.427825911365532,-0.5003078732807507,2.641831212235379
206,1790596803.2733905,0.8396459472656249,-0.6066584472656249,-0.2152164550781253,1.0579971223659932,2.1882963693058115,-1.442698377787486,-0.5051714480393886,2.669310360580398
207,1790596803.2933905,0.8971264160156248,-0.6114484863281249,-0.2104264160156253,1.1058862212285567,2.206510817607381,-1.4548014425727198,-0.5091703252855893,2.691540756830833
208,1790596803.3043046,0.9546068847656248,-0.597078369140625,-0.1816861816406253,1.140520386462561,2.2164753224308407,-1.4614046864850174,-0.511346167440913,2.7036903327825437
209,1790596803.3243046,0.9450268066406249,-0.5300178222656249,-0.1768961425781253,1.0978555471680203,2.2348456668552954,-1.473380663738367,-0.5152731723098933,2.725966283181489
210,1790596803.3488736,0.9019164550781249,-0.5443879394531249,-0.14815590820312532,1.0638428895744914,2.257431025275217,-1.4878655825543678,-0.5199726578833905,2.7532000273447776
211,1790596803.3688736,0.9019164550781249,-0.616238525390625,-0.2104264160156253,1.112421902280553,2.275764196319645,-1.4996290301966733,-0.5237622328441048,2.7753048088476437
212,1790596803.3933744,0.9354467285156248,-0.5683381347656249,-0.28227700195312533,1.1303756557671876,2.2982305602662474,-1.5140548899730895,-0.5286136417527395,2.802437920853953
213,1790596803.4133744,0.9546068847656248,-0.5443879394531249,-0.28227700195312533,1.1345980957570811,2.3166539898869933,-1.525733402215547,-0.5328266361189289,2.8246508364138334
214,1790596803.423425,0.9210766113281249,-0.6018684082031249,-0.24874672851562532,1.1280525872830094,2.325937395555045,-1.5315858938878633,-0.5350264893351406,2.8358408740068537
215,1790596803.443425,0.9162865722656248,-0.577918212890625,-0.1673160644531253,1.0961592989748634,2.3443958597798664,-1.54325477267647,-0.5393715259696404,2.8581023221306303
216,1790596803.4689388,0.9402367675781249,-0.558758056640625,-0.10504555664062531,1.0987676341868229,2.367963668488405,-1.5580828965514342,-0.5446042037001999,2.886428240316239
217,1790596803.4889388,0.9354467285156248,-0.534807861328125,-0.13378579101562532,1.0858078413359449,2.386480496452682,-1.5696032696503253,-0.54844900008418,2.9085632002312356
218,1790596803.5137315,0.8923363769531248,-0.577918212890625,-0.2056363769531253,1.082838856871571,2.409390156143933,-1.5838112250555232,-0.5531313604486476,2.9359109698774817
219,1790596803.5337315,0.8731762207031248,-0.5874982910156249,-0.2056363769531253,1.0723233065983784,2.427747251956029,-1.5953015420998162,-0.5569588972300472,2.957895695052449
