imu_index,t_imu,ax,ay,az,mag,vx,vy,vz,velocity
0,1790566041.1012578,0.0033812040441178392,-0.0248894186580882,-0.0008922621783091012,0.025133878206922002,0.0,0.0,0.0,0.0
1,1790566041.1212578,0.04649155560661784,-0.0440495749080882,0.0230579331341909,0.06806980294320919,7.912009917747532e-05,-0.00013514237025639658,3.211084153316454e-05,0.0001598579259102861
2,1790566041.1458342,0.03212143841911784,-0.010519301470588199,0.0134778550091909,0.03638811736255492,0.000306662949777197,-0.0003768815465251138,0.000132994516837334,0.0005037553040772962
3,1790566041.1658342,-0.03972914751838216,0.09486155790441181,-0.015262379365809101,0.1039714410523165,0.0004526471404614831,-0.0004175838960678097,0.0002001009013205779,0.0006475385044400345
4,1790566041.1913886,-0.05888930376838216,0.0661213235294118,0.0182678940716909,0.09040849228595982,0.00042218500027141516,-0.00015325245045401105,0.00027874303147475273,0.0005286058698312656
5,1790566041.2113886,-0.010988913143382162,-0.000939223345588198,0.0374280503216909,0.03901919147610213,0.00029710294715773423,0.00012036613711682918,0.00041460325877577114,0.0005240744511629315
6,1790566041.2364395,0.02254136029411784,-0.015309340533088198,0.008687815946690899,0.028600121982097666,0.00018563759040174737,0.0003811497599115456,0.0006458918861617884,0.0007726013092536333
7,1790566041.2564394,0.01775132123161784,-0.0344694967830882,-0.0344225356158091,0.05184753197760777,0.00017043412774673917,0.00048345410547829214,0.000764246531115211,0.0009202436766021489
8,1790566041.2663183,0.0033812040441178392,-0.0775798483455882,-0.0296324965533091,0.08311528296344962,0.0001797083316754416,0.000443387743906545,0.0007664786606297506,0.0009035360054369072
9,1790566041.2863183,0.01296128216911784,-0.09674000459558821,-0.020052418428309102,0.09964297671911408,0.00022018147987972874,0.00011296032473893502,0.0006957925020821261,0.0007384897595775167
10,1790566041.3110175,0.051281594669117844,-0.0871599264705882,0.027847972196690902,0.10489120215553689,0.0003816729791176964,-0.0005745588526407546,0.0006360328084294904,0.000938258957609861
11,1790566041.3310175,0.02254136029411784,0.027801011029411803,0.0326380112591909,0.048438093656973956,0.0006035587453891672,-0.0011368031397365652,0.0006856302691125631,0.001458318690675678
12,1790566041.3409104,-0.020568991268382162,0.0325910500919118,0.0038977768841908992,0.03873567622400852,0.000698314138318545,-0.0013283898298865145,0.0007335920183877682,0.0016704548558293141
13,1790566041.3609104,-0.020568991268382162,-0.010519301470588199,-0.005682301240809102,0.023791335662782815,0.0007994344576024331,-0.0016245039314582604,0.0008133324852068207,0.0019848471494848525
14,1790566041.386663,0.027331399356617842,-0.0488396139705882,-0.005682301240809102,0.056254793848865045,0.0009231702385197393,-0.002063244364294862,0.0008786571074664884,0.0024251306992787995
15,1790566041.406663,-0.010988913143382162,-0.010519301470588199,-0.015262379365809101,0.021548831509104888,0.0010293654372339413,-0.002441907635939535,0.0008903627494494844,0.002795577208992604
16,1790566041.4311523,-0.05888930376838216,-0.0296794577205882,-0.0008922621783091012,0.06595162197177422,0.0010115477799568081,-0.0029098538705397757,0.000872874674515327,0.003201935142447626
17,1790566041.4511523,-0.03014906939338216,-0.09194996553308821,-0.020052418428309102,0.09882237616879627,0.00086562173706044,-0.0034171354142809624,0.0008293178615739596,0.0036213096452430388
18,1790566041.4612055,0.056071633731617845,-0.09674000459558821,-0.0008922621783091012,0.11181883888809602,0.000822818704518112,-0.003776146084434154,0.0007949157810284602,0.003945655961994195
19,1790566041.4812055,0.06565171185661785,-0.0440495749080882,0.06616828469669091,0.10309584966908217,0.0009330232207923007,-0.004594420650120937,0.0008346554817717226,0.004761920118402547
20,1790566041.5066676,-0.010988913143382162,0.09486155790441181,0.056588206571690905,0.11100313735712714,0.0011566676348553043,-0.005382876601031744,0.0011120828180003232,0.005616935882983566
21,1790566041.5266676,-0.03972914751838216,0.06133128446691181,0.027847972196690902,0.07820128625774835,0.0012299083813165058,-0.0056750057180828565,0.0014239632762562831,0.00597879887091314
22,1790566041.5514677,0.03212143841911784,-0.0296794577205882,-0.0008922621783091012,0.043743035428467955,0.0012929540208518387,-0.0059240383277301585,0.0018028241632792796,0.00632583078908664
23,1790566041.5714676,0.08481186810661784,-0.0775798483455882,-0.024842457490809104,0.11759606088318376,0.0015115704328331394,-0.006255634379848177,0.0020239242491763973,0.006746412086002314
24,1790566041.5806372,0.00817124310661784,-0.0248894186580882,-0.020052418428309102,0.03299017823336256,0.0016607130751605434,-0.0064553298345799825,0.0020792135702346346,0.006982290473897191
25,1790566041.6006372,-0.05888930376838216,0.023010971966911802,-0.015262379365809101,0.06504148793725945,0.0018611397681126335,-0.0068283738404186205,0.0021287453239147124,0.0073906756927261015
26,1790566041.6416638,-0.020568991268382162,0.003850815716911802,-0.005682301240809102,0.02168411240691436,0.001966117399883754,-0.007396171673571901,0.002150663801072893,0.007949486011077594
27,1790566041.6616638,0.00817124310661784,-0.0296794577205882,-0.024842457490809104,0.03955739019043457,0.0019910198514783415,-0.00767019014721297,0.0021139589563692663,0.008201512019902038
28,1790566041.6709597,-0.044519186580882164,-0.0440495749080882,-0.0344225356158091,0.07146491434003345,0.0019755166346454916,-0.007829852326899442,0.002058138397193209,0.008333377892356416
29,1790566041.6909597,-0.05888930376838216,-0.0584196920955882,-0.015262379365809101,0.08434305393317221,0.0017920524845927571,-0.008275538854979034,0.001881529051348679,0.008673877277139206
30,1790566041.7313726,-0.025359030330882163,-0.0536296530330882,0.0326380112591909,0.06770863964611236,0.001221589651660182,-0.009380645702282087,0.0016308586471710908,0.009599400762330915
31,1790566041.7513726,-0.010988913143382162,-0.0296794577205882,0.008687815946690899,0.03281927129880486,0.0009270984164957503,-0.009970480544569837,0.0015874009860265977,0.01013853222384546
32,1790566041.7465622,-0.0014088350183821608,0.0325910500919118,0.0038977768841908992,0.032853523811631785,0.0009270984164957503,-0.009970480544569837,0.0015874009860265977,0.01013853222384546
33,1790566041.7665622,0.06086167279411784,-0.005729262408088198,0.0134778550091909,0.06259888368563588,0.0007877005568736888,-0.010352631298289967,0.001598112864389848,0.01050482801824763
34,1790566041.791338,0.10397202435661784,-0.0632097311580882,0.0470081284466909,0.13044315275993412,0.0009472095832351937,-0.01088312572807229,0.001721786042833913,0.011059121971698262
35,1790566041.811338,0.08960190716911784,-0.0727898092830882,0.0613782456341909,0.13074458742503506,0.0013470180134772945,-0.011451125896719502,0.001969224336383972,0.011697033227197366
36,1790566041.8364196,0.07523178998161785,0.003850815716911802,0.0422180893841909,0.08635402756545524,0.0020832743904274824,-0.012186280009331385,0.002427863659810461,0.012599205316299477
37,1790566041.8564196,0.08481186810661784,0.008640854779411802,0.0134778550091909,0.0863097324680247,0.0028223640029056314,-0.012665819776275546,0.002822266864998817,0.013279831302665725
38,1790566041.8670297,0.09918198529411784,-0.015309340533088198,-0.05358269186580911,0.113765315373478,0.0033020560972625377,-0.01288736506282231,0.00296820130102041,0.013630772967638373
39,1790566041.8870296,0.00817124310661784,-0.0727898092830882,-0.005682301240809102,0.07346709533367372,0.004231669970670496,-0.013374483454364379,0.003113126593660999,0.01436925174112766
40,1790566041.911391,-0.05888930376838216,-0.0488396139705882,0.0134778550091909,0.07768468682288444,0.005101487221560282,-0.01410105548175356,0.003277419621681184,0.01534947611313871
41,1790566041.931391,-0.06846938189338217,0.023010971966911802,-0.0344225356158091,0.08001544879550108,0.00551742993311905,-0.014646818812455045,0.0033606504762414904,0.01600828866603883
42,1790566041.9559748,-0.025359030330882163,-0.0488396139705882,-0.044002613740809104,0.07046004774438858,0.005779012832782531,-0.015264662038543103,0.0033030119604147306,0.016652831125158474
43,1790566041.9759748,-0.07325942095588217,-0.09674000459558821,-0.010472340303309102,0.12180000475933442,0.005811972794531711,-0.015910276751719618,0.003181441929625598,0.017234776088834645
44,1790566041.9864123,-0.08762953814338216,-0.0488396139705882,0.051798167509190904,0.11290391492472147,0.00570064787527374,-0.016310628782712833,0.003159864570118623,0.017564701579782512
45,1790566042.0064123,-0.06367934283088217,0.0661213235294118,0.0613782456341909,0.11042815386388222,0.005292365115404131,-0.01693677671002287,0.0032944850601263793,0.01804763601282217
46,1790566042.0464993,0.056071633731617845,0.09965159696691181,-0.005682301240809102,0.11448474760761729,0.004573901642545957,-0.017505143738106133,0.003691288968249061,0.018465542173858807
47,1790566042.0664992,0.06086167279411784,0.018220932904411805,-0.015262379365809101,0.06533824175099309,0.004444617321203248,-0.0175693667173349,0.003828147542710271,0.018522742334462626
48,1790566042.0913405,-0.01577895220588216,-0.0679997702205882,0.0374280503216909,0.07920734204384929,0.0043921180758926225,-0.01772991341238622,0.004013933709416637,0.018701662884002764
49,1790566042.1113405,0.01296128216911784,-0.0871599264705882,0.0134778550091909,0.08914314439974959,0.004351964066630431,-0.01807252179500835,0.0042174340181564424,0.019061542040606196
50,1790566042.1058645,0.15666245404411785,-0.0488396139705882,-0.06316276999080911,0.17583505882739445,0.004351964066630431,-0.01807252179500835,0.0042174340181564424,0.019061542040606196
51,1790566042.1258645,0.12313218060661785,-0.0584196920955882,-0.06795280905330911,0.15228912825188662,0.004958914404085645,-0.018654344405812366,0.0041044416040291656,0.019733774047520577
52,1790566042.151666,0.02254136029411784,-0.0727898092830882,0.008687815946690899,0.07669385506871565,0.005906366536936247,-0.019546252986302668,0.003865854409341667,0.02078186713910501
53,1790566042.171666,-0.020568991268382162,-0.0296794577205882,0.0853284409466909,0.09265471626841172,0.006533580293983664,-0.020287615531246243,0.003849678846834875,0.021658602046885744
54,1790566042.1966324,0.07523178998161785,0.0325910500919118,0.008687815946690899,0.08244681264824819,0.007301457291314321,-0.021068805872717516,0.004008559453300282,0.0226555602086946
55,1790566042.2166324,0.09918198529411784,-0.0440495749080882,-0.0392125746783091,0.11539088902234808,0.008085934646086755,-0.02161791580553883,0.004070956128179142,0.023436921868575468
56,1790566042.2414,0.01775132123161784,-0.0727898092830882,-0.024842457490809104,0.07893423487384353,0.009128907711135753,-0.02241296063229741,0.004017649579633361,0.024532004982228326
57,1790566042.2614,-0.044519186580882164,-0.015309340533088198,0.0230579331341909,0.05242139030779586,0.009804630663863721,-0.023090811230232912,0.003978384305122307,0.02539968282093835
58,1790566042.2715683,-0.03493910845588216,0.018220932904411805,0.0374280503216909,0.05434705738567636,0.010036050109176022,-0.02338152646342698,0.004007543704588766,0.02575807617230016
59,1790566042.2915683,0.00817124310661784,-0.0392595358455882,0.0038977768841908992,0.04028986266242921,0.010382798953234048,-0.02389911911801805,0.004118282780805523,0.026380497754651507
60,1790566042.3166537,-0.03493910845588216,-0.0488396139705882,-0.005682301240809102,0.06031863509628903,0.010702117908339418,-0.02461669203118811,0.004232987901365253,0.02717416127234591
61,1790566042.3366537,-0.06367934283088217,-0.0248894186580882,0.0230579331341909,0.07215407226852433,0.010770587416543688,-0.025213572476495753,0.004336785040531068,0.027758557145728727
62,1790566042.3613837,0.01296128216911784,-0.0392595358455882,0.0422180893841909,0.059090380448344124,0.01074848135641492,-0.025959888625811927,0.004566948929486477,0.028465816191676225
63,1790566042.3813837,0.01775132123161784,0.056541245404411807,0.0470081284466909,0.07564248791129623,0.010779353971584981,-0.02644700204692139,0.004859008410980525,0.028969783431233458
64,1790566042.39166,-0.049309225643382165,0.0757014016544118,0.056588206571690905,0.10660359782386766,0.010768514969749888,-0.026557823311121276,0.00506640777518985,0.029102360409818447
65,1790566042.41166,-0.010988913143382162,0.051751206341911805,0.0805384018841909,0.09636066494153812,0.010660137022534643,-0.026549974813999226,0.005615195668273988,0.02915596176352634
66,1790566042.4367616,0.12313218060661785,-0.10153004365808821,0.06616828469669091,0.1727661007427568,0.010755640760251144,-0.026635316732429682,0.006476848088756935,0.029446111233323472
67,1790566042.4567616,0.07044175091911785,-0.0775798483455882,0.0422180893841909,0.1129736261838445,0.011110680843423731,-0.026961778732096067,0.007222977594588462,0.030042572235660144
68,1790566042.481836,-0.010988913143382162,-0.0584196920955882,0.0182678940716909,0.06218788137917747,0.011600841349276775,-0.02756543720038358,0.00813185191603913,0.0309929002134968
69,1790566042.501836,-0.03972914751838216,-0.0727898092830882,0.0038977768841908992,0.08301779425306756,0.011857083086802382,-0.028171519308209794,0.008781298514087224,0.03180151133285465
70,1790566042.5116448,-0.01577895220588216,-0.13027027803308822,0.0182678940716909,0.13248787350300456,0.01192306847525428,-0.028573561735148138,0.009068341949409413,0.03226209568222968
71,1790566042.5316448,-0.006198874080882161,-0.1494304342830882,-0.005682301240809102,0.14966686098563795,0.012004463662971709,-0.029689908090832072,0.009584706691258387,0.033428496715154826
72,1790566042.5570424,-0.054099264705882166,-0.0727898092830882,-0.0008922621783091012,0.09069665324023982,0.011977464513566743,-0.03131817692608578,0.01012954562691126,0.03502706891469852
73,1790566042.5770423,-0.03972914751838216,-0.1446403952205882,-0.0008922621783091012,0.15000015074625814,0.011818649998944287,-0.032734212704128095,0.010491559808549863,0.03634944286193429
74,1790566042.6014147,0.0033812040441178392,-0.13985035615808822,-0.010472340303309102,0.1402826595476447,0.011587704559170462,-0.03472100642162704,0.01084576964915702,0.03817661461109224
75,1790566042.6214147,0.07523178998161785,-0.13506031709558822,-0.05358269186580911,0.16362217559177406,0.011544536867204592,-0.03651918324996587,0.010996752584423244,0.03984790639576756
76,1790566042.6312048,0.027331399356617842,-0.0536296530330882,-0.0008922621783091012,0.06019917945483308,0.011601883941163356,-0.03740592249272392,0.011019575058653263,0.04068461359026514
77,1790566042.6512048,-0.0014088350183821608,-0.020099379595588197,0.051798167509190904,0.05557895315267073,0.011740347034838946,-0.039056278177150884,0.01113556351438969,0.042275635871414766
78,1790566042.6759357,0.01296128216911784,-0.020099379595588197,0.1332288315716909,0.1353584184953157,0.011907308464384115,-0.04086547092379197,0.011600666540788424,0.04411741348809842
79,1790566042.6959357,0.08481186810661784,-0.0296794577205882,0.15717902688419091,0.18105018551380644,0.012168736991182885,-0.0421837744596452,0.012355988771157407,0.045609422777927865
80,1790566042.7214582,0.21414292279411784,-0.1111101217830882,0.1236487534466909,0.27109346132723444,0.01302456495230631,-0.043883243595290784,0.0137128477536265,0.047785149933369624
81,1790566042.7414582,0.30036362591911786,-0.1877507467830882,0.1092786362591909,0.3706891838664242,0.014366373144869672,-0.04546351531794635,0.014966013894875226,0.04997304747865967
82,1790566042.76609,0.09918198529411784,0.003850815716911802,0.1044885971966909,0.14411718125435477,0.016509157636637604,-0.04745755572753814,0.016672800131082636,0.05294104405576799
83,1790566042.78609,-0.025359030330882163,0.0421711282169118,0.1188587143841909,0.12864244423778837,0.018098768551080384,-0.048764741385590026,0.018185786278734514,0.055102524879036725
84,1790566042.7968042,-0.06846938189338217,-0.10153004365808821,0.0853284409466909,0.14925598432380532,0.018747212506662166,-0.04940767781693374,0.019038815491591542,0.05616985934960798
85,1790566042.8168042,0.03212143841911784,-0.2931316061580882,-0.05358269186580911,0.29971491488165874,0.019721553417635117,-0.05101979391004341,0.020439904936247304,0.05839305398444891
86,1790566042.8417234,0.10397202435661784,-0.4607829733455882,-0.0583727309283091,0.4759606140113308,0.021007799938253226,-0.054136162932598715,0.021714518232895576,0.06199654907651959
87,1790566042.8617234,0.21893296185661784,-0.47515309053308824,-0.0344225356158091,0.5242966833660863,0.02236963726339004,-0.057666059738977433,0.022444869561655867,0.0657992954882855
88,1790566042.8719382,0.14708237591911785,-0.3314519186580882,-0.0392125746783091,0.36473445916315966,0.02324125939186535,-0.05981644111419399,0.02270552410466475,0.06807131253733337
89,1790566042.8919382,-0.0014088350183821608,-0.2548112936580882,0.0470081284466909,0.2591149249500655,0.024910366072853424,-0.06427460594256032,0.023151011583105494,0.07271671502671213
90,1790566042.916702,0.04649155560661784,-0.1781706686580882,0.0422180893841909,0.1889143165142468,0.026750771406276696,-0.06977083316974778,0.02378558954400947,0.0784176459860135
91,1790566042.936702,0.04649155560661784,-0.0727898092830882,-0.0919030043658091,0.12611892518434145,0.028153655931029378,-0.07392034909162767,0.024146690265026433,0.08270374237521545
92,1790566042.961537,-0.03014906939338216,-0.12548023897058821,-0.0392125746783091,0.1348772878223197,0.029664816514704307,-0.07866939359157613,0.024283608060782075,0.08751324726786837
93,1790566042.9815369,-0.054099264705882166,-0.2260710592830882,0.18591926125919092,0.2976589088105007,0.03057286485325791,-0.08244753936005669,0.024597390947869297,0.0913089724687886
94,1790566043.0061378,-0.03493910845588216,-0.1685905905330882,0.2290296128216909,0.2865276462494343,0.031357985859130424,-0.08712593214653151,0.025691075628195798,0.09609517519874301
95,1790566043.0261378,0.00817124310661784,-0.0344694967830882,0.1284387925091909,0.13323452571914599,0.03186037520648685,-0.09066342542838601,0.02698304517065235,0.09981495351593417
96,1790566043.036785,0.056071633731617845,0.023010971966911802,0.17633918313419092,0.18646458229011864,0.03213900642080895,-0.09227329258317568,0.02781103609758159,0.10159099362974126
97,1790566043.0567849,0.08960190716911784,-0.0392595358455882,0.2529798081341909,0.2712353152647462,0.032802402417091,-0.09486811390709762,0.029777053513118455,0.10470257664711956
98,1790566043.0813658,-0.08283949908088216,-0.0296794577205882,0.25776984719669094,0.2723757458775745,0.03350791362930358,-0.09770599593639202,0.032772538994357364,0.10836642113610562
99,1790566043.1013658,-0.14990004595588216,-0.015309340533088198,0.2769300034466909,0.3152691334306577,0.033646730314088664,-0.09973613460892071,0.035646240777662166,0.11113079451320786
100,1790566043.1268988,-0.03493910845588216,0.09486155790441181,0.2529798081341909,0.2724302475705589,0.03344340568199215,-0.10178680311729336,0.03977940613676846,0.11428655137435427
101,1790566043.1468987,0.01775132123161784,0.12839183134191182,0.2098694565716909,0.2466673074456663,0.033282249383377656,-0.10281726956327425,0.04322556327558369,0.11639393611763386
102,1790566043.1564426,0.02254136029411784,0.008640854779411802,0.17154914407169092,0.1732393896518857,0.03324572300372444,-0.1031371562698346,0.044896396045784596,0.11729551346649453
103,1790566043.1764426,0.07044175091911785,-0.0679997702205882,0.1092786362591909,0.14672364964542148,0.03332013523173395,-0.10379599005712208,0.04829379409938774,0.1192314116007744
104,1790566043.201426,0.12792221966911785,-0.0679997702205882,0.056588206571690905,0.15553227368661204,0.0337708313926728,-0.10475036686667517,0.052211930884800715,0.12181623101366494
105,1790566043.221426,0.19498276654411784,0.027801011029411803,0.0805384018841909,0.21278536049624014,0.03456186506611259,-0.10546007160796828,0.055083720717977736,0.12389739911936061
106,1790566043.2460842,0.22372300091911784,0.0373810891544118,0.0996985581341909,0.2477682979330938,0.03616518817890313,-0.10608327866323967,0.058426607580076534,0.12639324080533063
107,1790566043.2660842,0.26204331341911785,-0.0248894186580882,0.051798167509190904,0.26827081732107544,0.03799920812897318,-0.10649419575247174,0.06095852251116125,0.12845580957721822
108,1790566043.2761452,0.38179428998161785,0.056541245404411807,-0.010472340303309102,0.3861003266068004,0.03926924904599052,-0.10664601769494873,0.062072337651101504,0.1294929423262121
109,1790566043.2961452,0.4967552274816179,-0.0392595358455882,-0.0583727309283091,0.5017115136222745,0.04273304364080724,-0.10687662671168734,0.06385106905988444,0.13162706931390147
110,1790566043.321232,0.5159153837316178,-0.0871599264705882,-0.0344225356158091,0.5243571749404431,0.04833147453247662,-0.10736036076304643,0.065572944980943,0.1347664261124732
111,1790566043.341232,0.5063353056066179,0.11402171415441181,-0.0871129653033091,0.5262747017731263,0.053658594496853194,-0.10764786779527574,0.06655746149425716,0.1374671010998865
112,1790566043.3664699,0.48238511029411785,0.23856272977941181,-0.12064323874080911,0.5515091674008191,0.0612439876610727,-0.10728886584362646,0.06722021306401327,0.14064239689017194
113,1790566043.3864698,0.5159153837316178,0.11402171415441181,-0.1685436293658091,0.5545958794198277,0.067850898476347,-0.10651816877559155,0.0672328574488697,0.1430738334710194
114,1790566043.397045,0.6117161649816178,-0.0775798483455882,-0.21644401999080912,0.6535008134340188,0.0717146680480983,-0.10614288333690736,0.06693319539660278,0.14453151193535985
115,1790566043.4170449,0.7170970243566179,-0.30750172334558823,-0.1924938246783091,0.8036412910875761,0.0799191078487418,-0.10611721317732997,0.06583806599783833,0.14826522743447781
116,1790566043.44162,0.8607981962316179,-0.1925407858455882,-0.1972838637408091,0.9038619428552934,0.09139650777638919,-0.10701205162499475,0.06397584400292909,0.15458916340609788
117,1790566043.46162,0.8224778837316179,-0.020099379595588197,-0.2835045668658091,0.8702003756156039,0.1018609417319856,-0.10795001846987734,0.061966464975395076,0.16083749786576726
118,1790566043.4863226,0.6835667509191179,-0.13506031709558822,-0.43678581686580914,0.8223664888790231,0.11563736098542285,-0.109222214716483,0.058522424013661554,0.16948854107485053
119,1790566043.5063226,0.7218870634191179,-0.45599293428308824,-0.49426628561580915,0.9865848415338779,0.12722629830725846,-0.1109843032180874,0.05475570148099481,0.17748868523499658
120,1790566043.5166805,0.9134886259191178,-0.6667546530330882,-0.46552605124080915,1.2230035737514149,0.1335982806952117,-0.11263218542052453,0.05235195070699144,0.18241501182782974
121,1790566043.5366805,0.9470188993566179,-0.48473316865808824,-0.3745153090533091,1.127862029350765,0.1468471485520703,-0.11706402625689426,0.047146698775940014,0.19362562456146615
122,1790566043.561993,0.8512181181066178,-0.3793523092830882,-0.4319957778033091,1.0271810021565184,0.1645138331076761,-0.12347211503844122,0.04001589160812804,0.2095505572816255
123,1790566043.5819929,0.8081077665441179,-0.4607829733455882,-0.6044371840533092,1.1093707316945123,0.17886787659827455,-0.12903602969854164,0.03367214847271038,0.22310945256063613
124,1790566043.6059403,0.9086985868566179,-0.6236443014705882,-0.5900670668658091,1.2501377843708155,0.19656046220171386,-0.1366465055288894,0.025070282642076357,0.24070064778882874
125,1790566043.6259403,0.9757591337316179,-0.7242351217830882,-0.46552605124080915,1.3012827913519422,0.21194686852187664,-0.1440708945343333,0.017380548592132592,0.25686568707695495
126,1790566043.6515157,0.9661790556066179,-0.6954948874080882,-0.3840953871783091,1.2508974267921973,0.23239614602685169,-0.15486413723174974,0.00739244421613028,0.27936627913933454
127,1790566043.6715157,0.9805491727941179,-0.5230534811580883,-0.4990563246783091,1.218244162563583,0.24890888298108943,-0.16386623313330448,-0.0005713812402805014,0.29800688056605995
128,1790566043.6811316,0.9709690946691178,-0.43683277803308823,-0.6235973403033092,1.2338871510798841,0.2570646633301817,-0.16823743685792858,-0.0046356552992877715,0.30725814162303167
129,1790566043.7011316,0.9805491727941179,-0.49431324678308824,-0.6140172621783091,1.2581094803177557,0.27441057380724077,-0.17736202266532075,-0.013677321382623054,0.32702525777278496
130,1790566043.7260597,0.9613890165441179,-0.5996941061580883,-0.5709069106158091,1.2687933490845946,0.2964182724339158,-0.18907438289453798,-0.025471811448264714,0.3525077696705612
131,1790566043.7460597,0.8560081571691179,-0.6428044577205883,-0.5565367934283091,1.2065159503483547,0.31415275474448945,-0.19892550025354683,-0.035206356016241495,0.3735007302116256
132,1790566043.7713857,0.9039085477941179,-0.6332243795955882,-0.6762877699908091,1.2943681568737042,0.33658425745616505,-0.2119525697431772,-0.048025887210504395,0.40064864910593484
133,1790566043.7913857,0.8895384306066179,-0.6428044577205883,-0.6810778090533092,1.2916435934019879,0.3543314804864934,-0.2226109786816718,-0.0586669919070319,0.42254971522032975
134,1790566043.8007193,0.8991185087316179,-0.9110466452205882,-0.5948571059283091,1.4114797409048634,0.3626235251272756,-0.22792667190347546,-0.06378127379296976,0.43302937501673044
135,1790566043.8207192,0.8847483915441179,-0.9302068014705882,-0.6571276137408091,1.4421792921071694,0.38040222698802545,-0.24037040816450883,-0.07497426268988401,0.45618518990045426
136,1790566043.8462899,0.9134886259191178,-0.8823064108455883,-0.6954479262408091,1.4479550719602676,0.4031719361400268,-0.25736970706767287,-0.08973224108551738,0.4866607147666914
137,1790566043.8662899,0.9326487821691178,-0.9589470358455883,-0.4319957778033091,1.4057145942468068,0.4210790017163569,-0.27143313619417736,-0.1012348716756159,0.5111085719823422
138,1790566043.8913794,0.9422288602941179,-0.9014665670955883,-0.3122448012408091,1.3408706174214458,0.44370137390254266,-0.28992980296378595,-0.11490062957801597,0.5423397039928463
139,1790566043.9113793,0.8991185087316179,-0.8439860983455882,-0.2835045668658091,1.2653463819753654,0.461791713915323,-0.3050808320905656,-0.12505380921262904,0.5674190306541648
140,1790566043.9214373,0.9230687040441179,-0.8248259420955882,-0.22123405905330912,1.257512694180367,0.47089920856144946,-0.3128161845204028,-0.12977465721713172,0.5800357674984589
141,1790566043.9414372,0.9709690946691178,-0.8583562155330883,-0.23560417624080912,1.317218927668807,0.4891338196899386,-0.32841530721552864,-0.13843912733688613,0.6052056671543469
142,1790566043.9663937,1.023659524356618,-0.8200359030330883,-0.3218248793658091,1.3505217351261427,0.5122077898311411,-0.34810203365487996,-0.14867246358420014,0.6368950833744604
143,1790566043.9863937,1.0523997587316178,-0.8631462545955882,-0.21644401999080912,1.3781925564994688,0.5310395313901998,-0.3640371185410966,-0.15645066719285888,0.6625728781348645
144,1790566044.0108874,1.1242503446691179,-0.9302068014705882,-0.1014830824908091,1.4627106162951744,0.5546416193956837,-0.3839197091382558,-0.1651316856202296,0.6944711244007541
145,1790566044.0308874,1.1003001493566178,-0.7769255514705883,-0.12064323874080911,1.3523418658963218,0.5743596014660686,-0.40028002702177073,-0.17148998356066414,0.7207786527710484
146,1790566044.041548,1.066769875919118,-0.7242351217830882,-0.2739244887408091,1.3181612592261118,0.5850260629471494,-0.40889277786532846,-0.17468626447528798,0.7348224881658135
147,1790566044.061548,1.033239602481618,-0.8344060202205882,-0.39846550436580913,1.38657572490154,0.6051853278537268,-0.42496504505260446,-0.18079179213782073,0.7612688373172711
148,1790566044.0859969,1.0188694852941178,-0.8870964499080882,-0.4607360121783091,1.427344671906896,0.6298952585809693,-0.4448220443165867,-0.18871139988838728,0.7938807721192197
149,1790566044.1059968,0.9997093290441179,-0.9206267233455883,-0.5661168715533091,1.4722298117390438,0.6501046294015619,-0.46134075308948475,-0.19575840237010056,0.8208487508238099
150,1790566044.131576,0.9518089384191178,-0.9110466452205882,-0.5613268324908092,1.4321431694828495,0.6758184655980279,-0.48281249011143923,-0.2055822573392988,0.8556299220945952
151,1790566044.151576,1.0476097196691179,-0.9110466452205882,-0.5804869887408092,1.5048113697770458,0.6959070445609439,-0.49981577584672104,-0.21382392508256456,0.8830759284413325
152,1790566044.1608448,1.023659524356618,-0.9349968405330883,-0.6571276137408091,1.5342472468130959,0.7052602493377301,-0.5077970462967738,-0.21793084164803808,0.8959596593960396
153,1790566044.1808448,1.038029641544118,-1.0547478170955882,-0.7193981215533092,1.64545803704821,0.7255076442056225,-0.5254202375802729,-0.22752819033965838,0.9242277020620744
154,1790566044.2060149,1.114670266544118,-1.0403776999080883,-0.5230065199908092,1.611958864715994,0.7512306583313626,-0.5482273766197809,-0.24014011732276241,0.9605040522768082
155,1790566044.2260149,1.162570657169118,-0.8918864889705882,-0.4224156996783091,1.5249482173023559,0.7720199490166353,-0.5665298083279448,-0.2500763981368102,0.9897014854534808
156,1790566044.2516017,1.114670266544118,-0.8918864889705882,-0.48468620749080915,1.507604733362708,0.798997150008796,-0.5898557231730672,-0.26262226666891747,1.0272763381060233
157,1790566044.2716017,1.186520852481618,-1.0451677389705882,-0.5613268324908092,1.6778841285478452,0.8203726753243219,-0.6082591170310725,-0.27252680144936964,1.0570058360190966
158,1790566044.2811043,1.2440013212316179,-1.0930681295955882,-0.4798961684283091,1.7241338566468036,0.8307376886813053,-0.6172154844494196,-0.2772689546654963,1.071428081982634
159,1790566044.3011043,1.2583714384191178,-1.0786980124080883,-0.4319957778033091,1.712807178593681,0.8530339740977039,-0.6364958307505642,-0.28712037571936116,1.102375622771567
160,1790566044.3258147,1.263161477481618,-1.1074382467830883,-0.42720573874080914,1.7333496853908692,0.8811225026144445,-0.6607954546244059,-0.29905861826548646,1.1412552539308105
161,1790566044.3458147,1.306271829044118,-1.1265984030330882,-0.41762566061580914,1.7748186514333686,0.9043006665137312,-0.6808638776781617,-0.3085389967562585,1.1732568465189026
162,1790566044.3707187,1.277531594669118,-1.1122282858455883,-0.39846550436580913,1.7400900819734402,0.9336589651265927,-0.7062864116971121,-0.32009752949091175,1.2136811718468026
163,1790566044.3907187,1.162570657169118,-1.1409685202205881,-0.39846550436580913,1.6769479584097093,0.9573596846544884,-0.7270201406453792,-0.329183013566611,1.2463776743533896
164,1790566044.4165614,1.1721507352941178,-1.1170183249080883,-0.4224156996783091,1.6733506230810469,0.9879156827012754,-0.7541687233766795,-0.34075276331464743,1.2887436925755662
165,1790566044.4365613,1.3350120634191178,-0.9972673483455883,-0.3793053481158091,1.7089973436667674,1.0117769601082465,-0.7751991985091474,-0.3495662285211784,1.3216743027303017
166,1790566044.4461205,1.306271829044118,-0.9397868795955883,-0.3793053481158091,1.6533051797909342,1.023364582011637,-0.7851318780586551,-0.3536907019167875,1.3374618672254375
167,1790566044.4661205,1.119460305606618,-0.9493669577205882,-0.3553551528033091,1.5102206066877681,1.0476105834213738,-0.8056298661806747,-0.3621276479442187,1.370278748716616
168,1790566044.5059783,1.0476097196691179,-0.9541569967830883,-0.3218248793658091,1.4530908272486436,1.095160469355768,-0.8460429355682779,-0.37844382546324123,1.434707228494994
169,1790566044.5259783,1.0044993681066179,-0.9158366842830883,-0.31703484030330914,1.3958104823977289,1.1185193777176117,-0.8660847105604201,-0.3863612113512767,1.4664458086929588
170,1790566044.5362036,1.0619798368566178,-0.9014665670955883,-0.3601451918658091,1.438800787011591,1.1302553640083022,-0.8761880596324519,-0.39032124071677826,1.482407964990308
171,1790566044.5562036,1.1721507352941178,-0.9062566061580882,-0.3314049574908091,1.518244917101718,1.1531181264356352,-0.8956968836739722,-0.39794227997325726,1.513377804491664
172,1790566044.5663035,1.119460305606618,-0.9254167624080882,-0.3745153090533091,1.4999497580552577,1.1646677436799495,-0.9054584385615633,-0.4017483065325668,1.528956388826272
173,1790566044.5863035,1.0044993681066179,-0.8870964499080882,-0.4703160903033091,1.420266283752564,1.1872938272966176,-0.9246077124749414,-0.4094218007673576,1.5595487376957413
174,1790566044.6113055,1.038029641544118,-0.9254167624080882,-0.4703160903033091,1.4680255262318391,1.2151660385851384,-0.9483541998310632,-0.41933937592570164,1.597451001398688
175,1790566044.6313055,1.0571897977941178,-0.9685271139705882,-0.3601451918658091,1.4783097098646905,1.2372604321636758,-0.9673414154805438,-0.42732847113213335,1.6276278485396698
176,1790566044.6555753,1.038029641544118,-0.8631462545955882,-0.33619499655330914,1.391241916150488,1.2638638935793554,-0.9902602051902277,-0.43683647338969467,1.6639691463367057
177,1790566044.6755753,1.119460305606618,-0.8104558249080882,-0.3697252699908091,1.4306385969999862,1.2857347270117667,-1.0088242505398526,-0.44455530695986084,1.6936556845083637
178,1790566044.686094,1.191310891544118,-0.9349968405330883,-0.3840953871783091,1.5623603933056398,1.2973350492467692,-1.0185002915755759,-0.448600699615663,1.709287471913169
179,1790566044.706094,1.162570657169118,-1.0403776999080883,-0.3601451918658091,1.6011436071135965,1.319613775824122,-1.0371013233516266,-0.45625503709532345,1.7392896053036555
180,1790566044.7311072,1.1338304227941178,-1.0260075827205883,-0.3840953871783091,1.5766395446979273,1.3476054786149267,-1.060751899709133,-0.4657882635921392,1.777130784503403
181,1790566044.7511072,1.1290403837316179,-0.9349968405330883,-0.38888542624080913,1.5166354719068758,1.3700240701244693,-1.0797672877197326,-0.4734268983688979,1.8074834373927853
182,1790566044.7755985,1.1673606962316179,-0.9302068014705882,-0.39846550436580913,1.5449240909436321,1.3975773114811711,-1.1029861526625695,-0.4828240574989138,1.8447004811166583
183,1790566044.7955985,1.162570657169118,-0.9541569967830883,-0.42720573874080914,1.5634867606199414,1.4201975461286025,-1.121929445877593,-0.49058534828780576,1.875196185872714
184,1790566044.8059876,1.0907200712316178,-0.9924773092830882,-0.3457750746783091,1.5146755050168648,1.431940933473628,-1.131810387453728,-0.4946145357498468,1.8910560882957754
185,1790566044.8259876,1.114670266544118,-0.9349968405330883,-0.3314049574908091,1.492158885901189,1.454465078297081,-1.150870081642287,-0.5022233870215763,1.9215095470167414
186,1790566044.8510668,1.1673606962316179,-0.8104558249080882,-0.3936754653033091,1.4746355519977112,1.4827652414584425,-1.1744683201219988,-0.5116972624106277,1.9595414475346098
187,1790566044.8710668,1.1338304227941178,-0.8296159811580882,-0.4511559340533091,1.4755933656254692,1.5054003061827839,-1.1929245045622712,-0.5193863800023583,1.9897389696068963
188,1790566044.8962653,1.042819680606618,-0.8679362936580882,-0.42720573874080914,1.422424352759228,1.5337546190259466,-1.2158980663807188,-0.5292809315070878,2.0275476920824347
189,1790566044.9162652,0.9901292509191179,-0.8391960592830883,-0.3745153090533091,1.3508766324713792,1.5559331000135865,-1.233957732812433,-0.537158809456715,2.057211482726665
190,1790566044.9263442,1.028449563419118,-0.7577653952205883,-0.41762566061580914,1.3439970576960276,1.5669592202077351,-1.2429008343328525,-0.541132123283818,2.0719526193011717
191,1790566044.9463441,1.0955101102941178,-0.8056657858455882,-0.48468620749080915,1.4436621765394573,1.5887427947273474,-1.2603302117775501,-0.5491873353869525,2.1009861112979134
192,1790566044.9713914,1.0859300321691179,-0.8775163717830883,-0.4224156996783091,1.4586685849941692,1.6160295965726768,-1.2820459199943963,-0.5594662343559995,2.137333821694124
193,1790566044.9913914,1.023659524356618,-0.8152458639705883,-0.3505651137408091,1.3547695521745662,1.6377139440092447,-1.299323841334642,-0.5676021490435489,2.1662228894233806
194,1790566045.0165527,1.0044993681066179,-0.7721355124080882,-0.3122448012408091,1.3048789391932907,1.6647295343182915,-1.3207956095406863,-0.5775531140416313,2.202133752557445
195,1790566045.0365527,0.9661790556066179,-0.8008757467830883,-0.3218248793658091,1.2955597949369542,1.6859383902794853,-1.3376623316723206,-0.5852274978529197,2.2302959430614586
196,1790566045.0466862,1.0092894071691179,-0.8439860983455882,-0.38888542624080913,1.371936411196559,1.69657388235421,-1.3461765127233027,-0.5890728072231173,2.244451138676009
197,1790566045.0666862,1.109880227481618,-0.8775163717830883,-0.4224156996783091,1.4765852923000145,1.7175947520946506,-1.3630421675584667,-0.5967406548305473,2.2724689419424764
198,1790566045.0912616,1.0859300321691179,-0.8870964499080882,-0.4224156996783091,1.4644518324414326,1.7435974097386278,-1.3839101094255555,-0.6063065636032966,2.3071512233241114
199,1790566045.1112616,1.033239602481618,-0.7960857077205883,-0.4511559340533091,1.3801732525320418,1.7647633949576684,-1.4008701950745954,-0.6142340987075278,2.3354037491718427
200,1790566045.151052,1.033239602481618,-0.8535661764705882,-0.40804558249080913,1.4009498531857787,1.8067240014124037,-1.4344743038902754,-0.6302043973467643,2.3914693659414366
201,1790566045.171052,1.0619798368566178,-0.8583562155330883,-0.31703484030330914,1.4018158426128728,1.8277940103685566,-1.4513991510572624,-0.6381151419453873,2.419624221735453
202,1790566045.1816034,1.0523997587316178,-0.7817155905330883,-0.27871452780330913,1.3402635206068558,1.8389158186574708,-1.4602867670328947,-0.6421340654171159,2.4344167654798086
203,1790566045.2016034,0.9949192899816179,-0.7098650045955882,-0.2835045668658091,1.254650372717751,1.8599057071860752,-1.4768434274285267,-0.6494524859473075,2.462134090634649
204,1790566045.2261238,0.9805491727941179,-0.8008757467830883,-0.31703484030330914,1.3051397365871376,1.8854125905506323,-1.4968757164100308,-0.6581835526523913,2.4957209651655794
205,1790566045.2461238,1.0140794462316178,-0.8248259420955882,-0.3649352309283091,1.3571561003790233,1.9060884449757467,-1.5132026463746535,-0.66525975263066,2.5229993950723655
206,1790566045.2561817,1.042819680606618,-0.7769255514705883,-0.3793053481158091,1.354606491161777,1.916478203115121,-1.5213900652939492,-0.6688459748981299,2.5367048255419706
207,1790566045.2761817,1.0188694852941178,-0.7338151999080882,-0.3122448012408091,1.2938611175785293,1.937131582622511,-1.5374946123659967,-0.6759447594505268,2.563838873501354
208,1790566045.3008344,0.9805491727941179,-0.7433952780330882,-0.29787468405330914,1.2660341808454385,1.9624678201058563,-1.5570993100922934,-0.6845105340181394,2.5969968959593936
209,1790566045.3208344,0.9422288602941179,-0.7769255514705883,-0.3793053481158091,1.2787810933886554,1.9828233074569217,-1.5728987659844504,-0.6914330765386706,2.6236765227370435
210,1790566045.3313882,0.9853392118566179,-0.8439860983455882,-0.3697252699908091,1.3490376836443845,1.9934792699892063,-1.5812684428952462,-0.6951309893454862,2.6377218543132046
211,1790566045.3513882,0.9997093290441179,-0.8008757467830883,-0.29787468405330914,1.3151235804148098,2.0136213265202625,-1.5972175005746216,-0.7020889384199404,2.6643392179320378
212,1790566045.3765185,0.9565989774816179,-0.7673454733455882,-0.3314049574908091,1.2703267001178582,2.0388209917057014,-1.617207430384865,-0.7107063371125633,2.6976386723806796
213,1790566045.3965185,0.9422288602941179,-0.7865056295955882,-0.3793053481158091,1.284624021909119,2.058716157301835,-1.633060879138633,-0.7176018505383928,2.7239956804673544
214,1790566045.4216301,0.9901292509191179,-0.8870964499080882,-0.3409850356158091,1.372430996254129,2.0835885736087945,-1.6531324495878195,-0.726317645413995,2.757122696216671
215,1790566045.4416301,1.0476097196691179,-0.8296159811580882,-0.29787468405330914,1.3691158199137003,2.10348319053505,-1.6692954731196157,-0.7331763118931961,2.783655225375884
216,1790566045.450681,1.033239602481618,-0.7529753561580882,-0.29787468405330914,1.3127396126108295,2.1125483887867476,-1.6765870474823816,-0.7362189783246245,2.7956793819743577
217,1790566045.470681,0.9039085477941179,-0.7529753561580882,-0.3457750746783091,1.2262067329881454,2.1324810493258335,-1.6925415579290493,-0.7428994182931399,2.8220687264400537
218,1790566045.4966338,0.8991185087316179,-0.8870964499080882,-0.3840953871783091,1.3201831201143865,2.1579762110432616,-1.713331650999606,-0.7516885796038724,2.8561166633127146
219,1790566045.5166337,0.9661790556066179,-0.9062566061580882,-0.3505651137408091,1.3702915392974515,2.177474359265636,-1.7296399013745245,-0.7585477711329555,2.882437075597131
220,1790566045.5412116,0.9997093290441179,-0.7865056295955882,-0.3601451918658091,1.3220115003990902,2.2014651417429114,-1.7497951804044967,-0.7670226875753832,2.9148852030451056
221,1790566045.5612116,0.9565989774816179,-0.7050749655330882,-0.3409850356158091,1.2363183672720701,2.2209935187948817,-1.7659735298516426,-0.7739363025688644,2.941165095519037
222,1790566045.57127,0.9805491727941179,-0.7721355124080882,-0.2595543715533091,1.2747699406486501,2.230802905197217,-1.7740038700731284,-0.777344787291761,2.9542911588400442
223,1790566045.59127,1.0476097196691179,-0.8391960592830883,-0.1254332778033091,1.3481356229407908,2.2504242545908113,-1.7899931641643834,-0.7836830420617807,2.980376480215383
224,1790566045.6459062,1.0859300321691179,-0.7769255514705883,-0.1541735121783091,1.3441081872944955,2.3047285043621994,-1.8337433938407202,-0.7995464882493222,3.051829434969446
225,1790566045.6659062,1.0092894071691179,-0.8008757467830883,-0.30745476217830914,1.3246114524626758,2.324768016050192,-1.849722911600582,-0.8051748173890748,3.0780395814069075
226,1790566045.6761005,0.8991185087316179,-0.9397868795955883,-0.2595543715533091,1.3262661661959918,2.3349094158834744,-1.8579770321894615,-0.8080468569771168,3.0914107387397527
227,1790566045.6961005,0.9230687040441179,-1.0882780905330882,-0.24997429342830912,1.4487553907043846,2.354554459062827,-1.874783671057085,-0.8136005530052355,3.117801528931139
228,1790566045.6913197,0.8081077665441179,-1.2128191061580882,-0.4511559340533091,1.525617915286308,2.354554459062827,-1.874783671057085,-0.8136005530052355,3.117801528931139
229,1790566045.7113197,0.5446556181066179,-1.3613103170955883,-0.5134264418658091,1.55351930563253,2.3729843937967443,-1.893721554219299,-0.8199539107570942,3.1447671891387308
230,1790566045.73639,0.34347397748161784,-1.6056023092830882,-0.1781237074908091,1.6515632606571569,2.394291317377161,-1.9194783925802248,-0.8280236862713304,3.1784668374982905
231,1790566045.75639,0.2572532743566179,-1.6199724264705884,0.2817200425091909,1.664288464192307,2.4096403993952937,-1.9417821806453939,-0.8333403184922663,3.2048932865065387
232,1790566045.7815247,0.37221421185661785,-1.4810612936580883,0.3152503159466909,1.559316753191827,2.4272231995396236,-1.9714532670150104,-0.8378943069769959,3.2372993859190697
233,1790566045.8015246,0.20935288373161784,-1.2271892233455883,0.2242395737591909,1.2649527288645992,2.4399878313886987,-1.9955839400159265,-0.8401652032126555,3.26217311736575
234,1790566045.8262756,0.16145249310661786,-0.9445769186580882,0.2865100815716909,1.0001902267239808,2.4541034894250537,-2.0249988833680663,-0.841605880598293,3.2911312451355945
235,1790566045.8462756,0.35305405560661784,-0.8248259420955882,0.33920051125919093,0.959188192052348,2.4645704714276664,-2.0478563955615363,-0.8416568329448884,3.313036318834778
236,1790566045.8563244,0.31473374310661784,-1.0403776999080883,0.5164319565716909,1.203388986689014,2.4695439693149943,-2.05902405706091,-0.8410337333130817,3.323486907527419
237,1790566045.8763244,-0.03972914751838216,-1.2798796530330883,0.5020618393841909,1.3754040940670755,2.4783702989432403,-2.081397124706538,-0.838451876790439,3.343282051983359
238,1790566045.9010997,-0.23133071001838218,-0.9828972311580882,0.3008801987591909,1.0536269541071999,2.4871603127652233,-2.1091594101802973,-0.834241328654281,3.3660776035886877
239,1790566045.9210997,0.23330307904411784,-0.3027116842830882,0.008687815946690899,0.38228283853567574,2.49319469348358,-2.1301374008643017,-0.8308878356151457,3.382880388300601
240,1790566045.946202,0.5877659696691179,-0.13985035615808822,0.0853284409466909,0.6101703860832771,2.501178293703195,-2.1533510149005712,-0.8271331523703989,3.402493600584069
241,1790566045.966202,0.2572532743566179,-0.020099379595588197,0.07095832375919091,0.2676159859538346,2.507852523468179,-2.169311803608021,-0.8243559531129133,3.416840751069839
242,1790566045.9763758,-0.010988913143382162,-0.1685905905330882,-0.0296324965533091,0.1715273397460302,2.5109262806726185,-2.1763570151505367,-0.8231235957382231,3.4232752004810254
243,1790566045.9963758,0.06086167279411784,-0.10153004365808821,-0.21165398092830912,0.24250752694156238,2.516137207507058,-2.1885344450390245,-0.8214263082663112,3.4344389125497203
244,1790566046.0209262,0.42011460248161786,0.0373810891544118,-0.1972838637408091,0.4656334909960408,2.522459873827707,-2.2013584260808097,-0.8204083379095202,3.4470063208615285
245,1790566046.0409262,0.4967552274816179,0.31041331571691183,-0.32661491842830914,0.670670923437577,2.528213316065082,-2.2097167179044503,-0.8204892903895856,3.456575360173596
246,1790566046.0667858,0.17582261029411786,0.7606769875919118,-0.47510612936580915,0.9139304699502604,2.5358409878488843,-2.2168254161376892,-0.8221331734825427,3.46708918204146
247,1790566046.0867858,0.23809311810661785,0.8660578469669118,-0.49426628561580915,1.0252042178410812,2.541476258791231,-2.219058543221151,-0.824667912246261,3.473240498112801
248,1790566046.0958338,0.47280503216911784,0.7319367532169119,-0.3697252699908091,0.9465583893368289,2.54412565906105,-2.218832871965293,-0.8262289237150312,3.4754062952682054
249,1790566046.1158338,0.36263413373161785,0.7367267922794118,-0.4032555434283091,0.9148141421705578,2.5503566941478373,-2.216205871893613,-0.8303213307690296,3.4792702174925227
250,1790566046.1418338,0.10397202435661784,1.0576594094669118,-0.3649352309283091,1.1236686927450672,2.558151883355557,-2.20980397531696,-0.8363414221858879,3.48236150365038
251,1790566046.1618338,-0.17385024126838217,1.3067414407169118,-0.23081413717830912,1.3383094803509958,2.5631439112645547,-2.202071529646828,-0.8411712517855702,3.4822973460582287
252,1790566046.1865993,0.09918198529411784,1.3019514016544118,-0.1877037856158091,1.3191464018869459,2.568259502619845,-2.189087447617195,-0.8470321737003289,3.4792993877210114
253,1790566046.2065992,0.4967552274816179,1.1103498391544118,-0.3026647231158091,1.2534944977778368,2.572664945815189,-2.176556227008113,-0.851790887490391,3.47585236291269
254,1790566046.2159157,0.42969468060661786,0.8708478860294119,-0.3505651137408091,1.0324289118944827,2.5750566192372313,-2.170210170541479,-0.8541315301744412,3.474229331439893
255,1790566046.2359157,0.11834214154411785,0.7750471047794119,-0.1541735121783091,0.7990446476571831,2.5802428289014303,-2.1561614988290736,-0.8591596753523127,3.470567794018953
256,1790566046.2613533,0.06086167279411784,0.7463068704044118,-0.1254332778033091,0.7592177521690386,2.5861915222357257,-2.1380710285637865,-0.8651290361232801,3.4652824649675162
257,1790566046.2813532,0.3578440946691179,0.7654670266544118,-0.2547643324908091,0.8825514319824053,2.590795101415722,-2.1237134801001027,-0.8696886652030993,3.4610311436711085
258,1790566046.3064284,0.8224778837316179,0.7223566750919118,-0.4415758559283091,1.1803636184736894,2.597920881947679,-2.1056146247807863,-0.8758574128370281,3.4568673773478946
259,1790566046.3264284,0.6691966337316179,0.9618586282169118,-0.5517467543658091,1.2951527462914376,2.60498938663483,-2.090818002059471,-0.8815295602352095,3.4546467240203516
260,1790566046.351498,0.39137436810661785,0.7654670266544118,-0.4224156996783091,0.9578876177510156,2.614514648064956,-2.071805149399286,-0.8894046013391558,3.4524055333791366
261,1790566046.3714979,0.49196518841911785,0.4349543313419118,-0.29787468405330914,0.721071663823511,2.622298877510343,-2.0571116210537124,-0.8958252183239438,3.4511827604824665
262,1790566046.3815598,1.028449563419118,0.3535236672794118,-0.3745153090533091,1.1501952897395096,2.626775061424924,-2.050233137300585,-0.8990783139005935,3.4513395884983047
263,1790566046.4015598,1.143410500919118,0.31041331571691183,-0.4894762465533091,1.2819247232682547,2.637595481148721,-2.0376158500566786,-0.9058704921931915,3.4538948483132326
264,1790566046.4265797,0.8464280790441179,0.5355451516544119,-0.5613268324908092,1.148188536490862,2.6528352469405867,-2.0226118733042373,-0.9150647512591158,3.459167116003288
265,1790566046.4465797,0.8703782743566179,0.6505060891544119,-0.6188073012408092,1.2504555124305323,2.665765249035159,-2.0106382120886934,-0.9230820722359931,3.464253295438744
266,1790566046.4714887,1.157780618106618,0.5020148782169118,-0.6427574965533092,1.416196348318255,2.683242351931524,-1.995809370644191,-0.9339263091718186,3.4720689673613157
267,1790566046.4914887,1.4978733915441178,0.3056232766544118,-0.7720885512408091,1.7126444509255239,2.6991536557821667,-1.984477481506981,-0.9434495842085572,3.48047100980224
268,1790566046.5006225,1.517033547794118,0.008640854779411802,-0.9445299574908091,1.7870652730389331,2.7073955460258765,-1.9798633010357487,-0.9483223467098976,3.485565177514013
269,1790566046.5206225,1.282321633731618,-0.1829607077205882,-0.9349498793658092,1.597483855890846,2.726934494507471,-1.9715368042787063,-0.9602108165019454,3.499304776678868
270,1790566046.5459867,1.4978733915441178,-0.33624195772058824,-0.9157897231158092,1.7875553608747847,2.7532858466714116,-1.9635487106809228,-0.9765470078480964,3.519907747546077
271,1790566046.5659866,1.7325853056066178,-0.35540211397058824,-0.9636901137408092,2.0141651221140022,2.7757931656505725,-1.9592322646592126,-0.9903153350823038,3.538974883812157
272,1790566046.591615,1.905026711856618,-0.31708180147058823,-1.2223522231158093,2.285566144102426,2.8073001934824773,-1.9558233679958361,-1.0095137116493662,3.5672534753131027
273,1790566046.611615,2.211589211856618,-0.5470036764705882,-1.2319323012408092,2.589980127127116,2.8343746003407913,-1.954858278900469,-1.0259299526731411,3.5927263371198532
274,1790566046.6209126,2.278649758731618,-0.9733171530330883,-1.1505016371783092,2.7318940353729073,2.848204155580387,-1.9555370763128608,-1.0340781306773692,3.60634298827009
275,1790566046.6409125,2.527731789981618,-1.1457585592830883,-1.212772144990809,3.0286972370839154,2.8807000292106673,-1.9599568171875763,-1.0525213724842102,3.639734141811794
276,1790566046.6666663,2.681013039981618,-1.1792888327205882,-1.3468932387408092,3.223767123738418,2.9263287433516765,-1.9692852769209923,-1.0776522143806584,3.6881999283151026
277,1790566046.6866663,2.910934914981618,-1.2607194967830884,-1.298992848115809,3.4278766238422387,2.964836069307362,-1.9791029813044687,-1.0982098521832873,3.7300357113446787
278,1790566046.7114282,3.016315774356618,-1.3229900045955882,-1.332523121553309,3.5530383156344616,3.0163682573347126,-1.994233280274725,-1.1247314515387732,3.7868805999255186
279,1790566046.7314281,2.906144875919118,-1.1888689108455883,-1.610345387178309,3.528781601773136,3.060630720262717,-2.008388582944341,-1.1473538230660392,3.8363401701649598
280,1790566046.7412465,2.728913430606618,-1.2511394186580882,-1.5528649184283092,3.3798976037079345,3.0832500165121903,-2.0160920486255884,-1.1591229640267846,3.8619456053378047
281,1790566046.7612464,3.049846047794118,-1.4858513327205882,-1.370843434053309,3.6590335908378893,3.1310824694176502,-2.0335357446693836,-1.1838862750949495,3.9166990907524144
282,1790566046.7865977,3.083376321231618,-1.6678728170955883,-1.3564733168658092,3.758860084082291,3.194280002213084,-2.058326440155916,-1.2157526001805148,3.9897602498933478
283,1790566046.8065977,2.776813821231618,-1.5481218405330883,-1.3421031996783093,3.4508864411199123,3.245449077330814,-2.0797744923897765,-1.241169278882918,4.049555880783142
284,1790566046.8316982,2.484621438419118,-1.3181999655330883,-1.1505016371783092,3.038856505090902,3.3099395986583984,-2.108050603730339,-1.2729754703937732,4.12553560678841
285,1790566046.8516982,2.743283547794118,-1.2080290670955882,-1.016380543428309,3.165117416401064,3.3614594289901927,-2.1309907182219208,-1.2977674090635671,4.186255030683465
286,1790566046.8762338,2.6618528837316178,-1.2511394186580882,-1.1457115981158092,3.156495792109901,3.425128968222833,-2.159437196612342,-1.327598235213003,4.261125969648499
287,1790566046.8962338,2.336130227481618,-1.1792888327205882,-1.2367223403033092,2.894427186463342,3.4767405555326043,-2.18279250506197,-1.3518407232529643,4.32201126232741
288,1790566046.906459,2.364870461856618,-1.1936589499080883,-0.9541100356158092,2.8156278074561656,3.5027748709248274,-2.1947619568135974,-1.3640560577187317,4.352822161777099
289,1790566046.926459,2.575632180606618,-0.9445769186580882,-0.7289781996783091,2.838576386262001,3.5534687598151824,-2.217869023450034,-1.3868891938882557,4.412430721074912
290,1790566046.966613,2.484621438419118,-0.6907048483455882,-0.8630992934283092,2.7194406171300076,3.655219401687999,-2.262227021082934,-1.4306496048694755,4.530458945990718
291,1790566046.986613,2.139738625919118,-0.6907048483455882,-0.7912487074908091,2.3836168089448044,3.705234087103907,-2.283078971561207,-1.45165796225462,4.587866614233563
292,1790566046.981636,1.8858665556066179,-0.9781071920955883,-0.6044371840533092,2.2087396076158408,3.705234087103907,-2.283078971561207,-1.45165796225462,4.587866614233563
293,1790566047.001636,2.005617532169118,-0.9493669577205882,-0.6858678481158091,2.322544727413188,3.7523395595933238,-2.303163447571606,-1.4705514539825002,4.641889229131711
294,1790566047.026555,2.0295677274816177,-0.8583562155330883,-0.7625084731158092,2.331810396398598,3.809768545881099,-2.3278126145334297,-1.4932677040255742,4.707748546540241
295,1790566047.046555,2.125368508731618,-0.6763347311580883,-0.8678893324908091,2.3932930994615114,3.8551795044648713,-2.3469305275234116,-1.5112105242235139,4.759648008119008
296,1790566047.071866,2.197219094669118,-0.5661638327205882,-0.9589000746783092,2.4632910077125505,3.9122345746633465,-2.369854680625605,-1.5339797821964096,4.8244050976946085
297,1790566047.091866,2.379240579044118,-0.4176726217830882,-1.1552916762408092,2.6776734321325755,3.9574199691423653,-2.3867273101933812,-1.552443908664308,4.8752150880693055
298,1790566047.1013772,2.144528664981618,-0.3745622702205882,-1.0882311293658091,2.433833823440176,3.9789121565416563,-2.3941128302355157,-1.561508021180108,4.899165795682271
299,1790566047.1213772,1.742165383731618,-0.4799431295955882,-0.9349498793658092,2.0346048532442076,4.023156439851381,-2.4085951604995772,-1.5807436100212495,4.948319790325059
300,1790566047.1463196,1.6846849149816179,-0.6715446920955882,-1.0259606215533092,2.083682013462331,4.076468261785348,-2.4261012621860942,-1.6048025880850683,5.007888993423152
301,1790566047.1663196,1.909816750919118,-0.7625554342830883,-1.3085729262408092,2.4374687517456217,4.118195733797533,-2.4401840395124723,-1.6247022565092397,5.055065941297484
302,1790566047.1917484,2.211589211856618,-1.1457585592830883,-1.4091637465533091,2.861753305715081,4.171151779495585,-2.459043088800006,-1.6513914555333824,5.115905962737481
303,1790566047.2117484,2.427140969669118,-1.6151823874080882,-1.212772144990809,3.157632611135318,4.213512754252098,-2.475792400910205,-1.673166977009675,5.165532448412797
