imu_index,t_imu,ax,ay,az,mag,vx,vy,vz,velocity
0,1791341238.6511106,-0.01944755859375001,0.012022998046875,-0.00239501953125,0.022989043821950685,0.0,0.0,0.0,0.0
1,1791341238.6711106,0.01408271484374999,-0.045457470703125,-0.01676513671875,0.05045566677088138,-3.2842871510598383e-05,-3.482235326539376e-05,-3.17938539563329e-05,5.746389862686119e-05
2,1791341238.6661346,0.01887275390624999,-0.06940766601562501,-0.026345214843750003,0.07660075252179815,-3.2842871510598383e-05,-3.482235326539376e-05,-3.17938539563329e-05,5.746389862686119e-05
3,1791341238.6861346,-0.04339775390625001,-0.040667431640625,0.00239501953125,0.05952261048465041,-5.134112850916163e-05,-0.00037154690216822006,-0.00014565581797031704,0.00040236628747448175
4,1791341238.7106225,-0.06255791015625001,-0.016717236328125003,0.00718505859375,0.06515046569721088,-0.00026519095322159226,-0.0008273821082137869,-0.00024656174561672837,0.0009031500922130471
5,1791341238.7306225,0.04282294921874999,-0.011927197265625002,-0.03113525390625,0.05427215722828261,-0.00044325169992272945,-0.001186797586094657,-0.0003525376853639276,0.0013150069959685575
6,1791341238.7558126,0.16257392578125,-0.002347119140625001,-0.04071533203125,0.1676112423872653,-0.00024583231844596613,-0.0015985488099055588,-0.0006017378421622552,0.0017256535739055751
7,1791341238.7758126,0.04761298828124999,0.021603076171875,0.01676513671875,0.054906824369623325,0.00020267962835722128,-0.0018475423207348113,-0.0008058401270420154,0.002025801068468542
8,1791341238.7853422,-0.07213798828125001,0.055133349609375,0.06945556640625,0.11431382811028742,0.0003668020583687148,-0.0018935416771656093,-0.0008268795823942322,0.002098517018507864
9,1791341238.8053422,0.00929267578124999,0.016813037109375,0.050295410156250005,0.0538392080439717,0.0005653147159057582,-0.0018676811620171442,-0.0006847858980356294,0.002068029346291242
10,1791341238.8455987,0.13862373046874998,-0.045457470703125,-0.01676513671875,0.14684682530104792,0.0013515453591121504,-0.00190992068045751,-0.0003404415429669899,0.002364396816855118
11,1791341238.8655987,0.14820380859374999,-0.059827587890625006,-0.03592529296875,0.1638118915994619,0.002113804890578379,-0.0020856855135441537,-0.0002740633673126974,0.0029821746941022403
12,1791341238.8758395,0.03803291015624999,-0.026297314453125,-0.02155517578125,0.05101643465943605,0.0025886071321233493,-0.002228333416029285,-0.0002893217395966012,0.003427836601484356
13,1791341238.8958395,-0.0002874023437500109,-0.002347119140625001,-0.01676513671875,0.016931077271274287,0.003433409441285619,-0.0025080992631148387,-0.00037213144938247854,0.004268178079786026
14,1791341238.9209182,0.01887275390624999,-0.040667431640625,0.00718505859375,0.045405351041990664,0.004368798381578208,-0.002887193793949591,-0.0004784133323569013,0.005258437659540925
15,1791341238.9409182,0.04761298828124999,-0.031087353515625003,0.011975097656250001,0.05811043938529992,0.005102592868764194,-0.0032518001935004414,-0.0005217177286716461,0.006073125049858847
16,1791341238.9505963,0.06677314453125,0.007232958984374999,0.00239501953125,0.06720643306124735,0.005487445996428122,-0.0034190852972249977,-0.0005290990394938366,0.006487075891879829
17,1791341238.9705963,0.01887275390624999,0.031183154296875,0.01676513671875,0.0401203160643952,0.006291923418808669,-0.0036553036299552593,-0.0005133243769241255,0.0072947273322079426
18,1791341238.9952803,-0.005077441406250011,0.021603076171875,0.00239501953125,0.02232060549977989,0.00716141493607383,-0.0038053899942961013,-0.00046130453907258377,0.008122786392185824
19,1791341239.0152802,0.03803291015624999,-0.002347119140625001,-0.01676513671875,0.041630289842998346,0.007809672036388899,-0.0038798714520296637,-0.00044703332466934984,0.00873179354964342
20,1791341239.0253363,0.061983105468749994,-0.040667431640625,-0.01676513671875,0.07600536276469887,0.0081621571591328,-0.003944145062341155,-0.00046622265539854525,0.009077139049699515
21,1791341239.0453362,-0.00986748046875001,0.012022998046875,0.00718505859375,0.017133146816389094,0.008836216575367364,-0.004095768024911295,-0.0005130328643374848,0.009752806867798267
22,1791341239.070858,-0.08171806640625001,0.045553271484375005,0.03113525390625,0.09860196223155053,0.009392045604979932,-0.00415002119824072,-0.0004904566346014546,0.010279773553065008
23,1791341239.090858,0.03803291015624999,0.002442919921874999,-0.02155517578125,0.04378465159914675,0.009696754400422947,-0.004114164896604017,-0.00046104855523424983,0.010543527136060974
24,1791341239.115558,0.08114326171875,-0.055037548828125005,-0.01676513671875,0.09947075204583598,0.010237395010387623,-0.004173956079892234,-0.0005011656538057549,0.011066947771094491
25,1791341239.135558,0.033242871093749994,0.012022998046875,0.00239501953125,0.035431300839030844,0.01078107562491345,-0.004279629754502614,-0.0005503318235300822,0.011612479820508495
26,1791341239.1611397,-0.04818779296875001,0.016813037109375,0.02155517578125,0.05540187010382339,0.0113435071169822,-0.004339195342602802,-0.0005578349649171756,0.012157917164645258
27,1791341239.1811397,0.02845283203124999,-0.011927197265625002,0.00718505859375,0.03167722765974444,0.011687659190583373,-0.004371449909970944,-0.0005197107421921744,0.012489237403707358
28,1791341239.19073,0.13862373046874998,-0.064617626953125,-0.00718505859375,0.15311303481128408,0.011948107442525129,-0.004439653697292521,-0.0005041716196896568,0.012756252797436559
29,1791341239.21073,0.11467353515624999,-0.045457470703125,0.011975097656250001,0.1239346774386971,0.012789725265828132,-0.004725664669042083,-0.00046944181702929927,0.013642923240976285
30,1791341239.2359226,0.023662792968749992,-0.011927197265625002,0.026345214843750003,0.03736651108758218,0.013952208355511517,-0.005140316275601314,-0.000359853401244153,0.014873347433553891
31,1791341239.2559226,0.004502636718749989,0.007232958984374999,-0.00718505859375,0.011145155902288107,0.014778903987239642,-0.00542716593528123,-0.00025716256001336783,0.01574599205307171
32,1791341239.2803383,0.11467353515624999,-0.021507275390625,-0.050295410156250005,0.12705200054601778,0.01585497389778239,-0.005750959940517265,-0.0002558604749589235,0.016867697001056236
33,1791341239.3003383,0.11467353515624999,-0.050247509765625004,-0.03592529296875,0.13025152044321325,0.016948231243321274,-0.006084040630785667,-0.0003842848012812264,0.018011267792208244
34,1791341239.311252,0.01408271484374999,-0.026297314453125,0.04071533203125,0.05047385330279278,0.017560718627755174,-0.006301191349902467,-0.0004399321827149502,0.018662191497159746
35,1791341239.331252,0.01887275390624999,0.031183154296875,0.04071533203125,0.054647124483576635,0.01856419427807964,-0.006632107953650407,-0.00040446558489625086,0.01971744804766893
36,1791341239.3558307,0.061983105468749994,0.026393115234375,0.00718505859375,0.06775047573501461,0.019761464298865956,-0.006871644536992188,-0.0002791182841056764,0.020923978514963408
37,1791341239.3758307,0.10988349609374999,-0.021507275390625,-0.02155517578125,0.11402443251985049,0.02084736623509966,-0.007029993356780343,-0.00021397588260317326,0.02200180154476185
38,1791341239.4005456,0.07156318359375,0.007232958984374999,-0.03113525390625,0.07837734990128892,0.022324316062183536,-0.007222779950700317,-0.0002432192878088315,0.023464926879972727
39,1791341239.4205456,0.033242871093749994,0.007232958984374999,-0.011975097656250001,0.03606670400940533,0.023497433439191615,-0.0073336878527991275,-0.0003279996021806083,0.02461747224006893
40,1791341239.430571,0.061983105468749994,-0.055037548828125005,-0.026345214843750003,0.08697762637438305,0.024068881840489352,-0.007416888831741637,-0.00039293668098146526,0.02518880132577
41,1791341239.450571,0.01408271484374999,-0.07419770507812501,-0.00718505859375,0.07586334663871884,0.025151970771362022,-0.007751823280918408,-0.0005533441721483833,0.026325246202740224
42,1791341239.4761941,0.023662792968749992,-0.026297314453125,0.00718505859375,0.036098498383230315,0.026403971919570095,-0.008309685308854729,-0.0007280250540681301,0.027690262251213748
43,1791341239.4961941,0.13383369140624998,-0.007137158203125001,0.011975097656250001,0.1345577903598172,0.027470873649952435,-0.008729958137247881,-0.0008151792594700517,0.02883618534749043
44,1791341239.5206637,0.13383369140624998,-0.007137158203125001,0.02155517578125,0.13574616600700137,0.029071637149847156,-0.009193221420690472,-0.000844280647315864,0.030502265759671816
45,1791341239.5406637,0.023662792968749992,0.040763232421875004,0.045505371093750004,0.06551570565094772,0.030419993738930232,-0.009464629212040216,-0.0007639077784749465,0.031867519205171495
46,1791341239.5511296,-0.00986748046875001,0.002442919921874999,0.04071533203125,0.041965143761945926,0.03103057054787657,-0.00955143704234962,-0.0006604799294493947,0.03247402795832261
47,1791341239.5711296,0.09072333984375,-0.064617626953125,-0.01676513671875,0.11263761323224211,0.03214363086354966,-0.009785703351502634,-0.0004565539813584853,0.03360329502762559
48,1791341239.5958078,0.11467353515624999,-0.059827587890625006,-0.03113525390625,0.13303670160466555,0.03369119957912495,-0.01026173947289575,-0.00033132845358141595,0.0352208745580539
49,1791341239.6158078,0.023662792968749992,-0.007137158203125001,0.00718505859375,0.025738917329483368,0.03496477071737035,-0.010690111402214108,-0.00028099015459658006,0.03656354234175085
50,1791341239.6399388,-0.04818779296875001,0.035973193359375,0.03113525390625,0.06771660112170981,0.03622652229196364,-0.011077248929399151,-0.0001600114233158582,0.03788260768307278
51,1791341239.6599388,0.00929267578124999,0.012022998046875,0.026345214843750003,0.03041342878358071,0.0370570654740254,-0.011277987520119912,1.1436970441715868e-05,0.038735245382654784
52,1791341239.6706164,0.01887275390624999,-0.007137158203125001,0.00718505859375,0.0214183317328388,0.03745651921238152,-0.01136516950429516,0.00011609146181075715,0.039142960881828705
53,1791341239.6906164,-0.04818779296875001,-0.002347119140625001,0.01676513671875,0.05107486826862876,0.038048525033367135,-0.01151820009867925,0.00031863924287051294,0.03975500876235694
54,1791341239.715087,-0.06255791015625001,-0.055037548828125005,0.026345214843750003,0.08738818140509069,0.03846096039080253,-0.01178266959028071,0.0006084090675648295,0.040229925906594736
55,1791341239.735087,-0.01944755859375001,-0.031087353515625003,0.03113525390625,0.04810441892040105,0.038624475873824574,-0.012095586806920322,0.0008959361061018457,0.04048402225863456
56,1791341239.761191,-0.04339775390625001,-0.007137158203125001,0.04071533203125,0.05993364942783649,0.03868284478168672,-0.012517579275327996,0.0013555932659641886,0.040680338056866196
57,1791341239.7811909,0.033242871093749994,0.035973193359375,0.045505371093750004,0.0668572951696863,0.038705624711456374,-0.012749144158828914,0.0017842718923596656,0.04079031364518504
58,1791341239.8052936,0.07156318359375,0.007232958984374999,0.026345214843750003,0.07660075252179814,0.03891841775045376,-0.012908247339139017,0.0023532797817535536,0.04107071968322973
59,1791341239.8252935,0.02845283203124999,0.026393115234375,0.07903564453125,0.08804994769358827,0.03921852772236501,-0.01297002611254037,0.0029126806373429453,0.04141012198201117
60,1791341239.8358524,0.00929267578124999,0.045553271484375005,0.11256591796875001,0.12178891679562619,0.03938309362540692,-0.012940774117834291,0.003315444308240055,0.041587063724641805
61,1791341239.8558524,0.033242871093749994,-0.09335786132812501,0.00718505859375,0.09935997090032142,0.03971185181614258,-0.012965384542413087,0.0041435294791544956,0.041979771408912334
62,1791341239.880875,0.04761298828124999,-0.15083833007812503,0.01676513671875,0.15906058054410033,0.0402132181944119,-0.013449841363091524,0.00506911876912764,0.042704766892458626
63,1791341239.900875,-0.00986748046875001,0.059923388671875,0.10777587890625001,0.12370860824832049,0.04061045531732945,-0.013915344524020545,0.005884758120295035,0.0433298542859006
64,1791341239.9257178,0.08593330078125,0.34732573242187503,0.23710693359375,0.4292311667898589,0.04117159144079441,-0.01364804209490987,0.00738851188474094,0.04399953525508065
65,1791341239.9457178,0.15778388671875,0.155724169921875,0.26584716796875,0.34615096233137516,0.041921154523119473,-0.01271055186057795,0.00917196691540402,0.04475562872141299
66,1791341239.9556649,0.26316474609375,-0.22268891601562502,0.13651611328125002,0.37078657754592614,0.0425520728515077,-0.012364185061642174,0.010226098378409805,0.045476643062603794
67,1791341239.9756649,0.07635322265625,-0.270589306640625,0.17962646484375,0.33363760931662373,0.044139617640918075,-0.012512144965526347,0.012501870747352048,0.047551618156570545
68,1791341240.0008078,-0.26373955078125,0.012022998046875,0.18441650390625,0.32204432931094223,0.04548266990815371,-0.013157834332616556,0.015620185744126486,0.0498577182488295
69,1791341240.0208077,-0.15356865234375003,0.261105029296875,0.09819580078125001,0.3184361515247106,0.04576479197026955,-0.013184715441927295,0.018152503675942115,0.05096828715065611
70,1791341240.0453095,0.16257392578125,0.304215380859375,0.11256591796875001,0.36283379829267465,0.046075121842413386,-0.012173854886020474,0.02117677913691063,0.052149550047844294
71,1791341240.0653095,0.15299384765625,0.44312651367187506,0.19399658203125,0.507348892163432,0.046763787953707996,-0.010351481879225277,0.02373494308924,0.05345420997755702
72,1791341240.075945,-0.08650810546875001,0.40480620117187505,0.27063720703125,0.4945666897888217,0.04712810029363814,-0.008851405912661396,0.025261859826146062,0.054199324587985084
73,1791341240.095945,-0.15356865234375003,0.261105029296875,0.28500732421875,0.41591867253722714,0.047350316006209044,-0.0054547623417474725,0.028536006799813468,0.055552772587619814
74,1791341240.1212673,0.08593330078125,0.47665678710937504,0.18920654296875,0.5199859044077814,0.04746101368459762,-0.000398134319122119,0.03296027768844452,0.05778482704140421
75,1791341240.1412673,0.15299384765625,0.553297412109375,0.19399658203125,0.6059536430350121,0.0478937199267963,0.0045415159051777525,0.036505275120293695,0.06039096693009412
76,1791341240.1661146,0.06677314453125,0.586827685546875,0.17483642578125,0.6159489923158051,0.04876020773942638,0.01188251028197093,0.040936164626619025,0.06476512552084505
77,1791341240.1861145,-0.014657519531250012,0.605987841796875,0.24189697265625001,0.6526486441146584,0.04943121401017967,0.0186942872669009,0.04459278640912846,0.06914794208555848
78,1791341240.1951725,-0.10087822265625002,0.639518115234375,0.27063720703125,0.7017152794038953,0.04961103895243517,0.02216271945246571,0.04634864899077214,0.07141875511893599
79,1791341240.2151725,-0.038607714843750016,0.625147998046875,0.17483642578125,0.650283285105372,0.049739304345535515,0.03056924426564097,0.050312248496492254,0.07707009433316543
80,1791341240.2405407,0.08114326171875,0.510187060546875,0.14609619140625002,0.5368604686650246,0.04995852250609567,0.04179284658001949,0.05519621527364864,0.0853763326501442
81,1791341240.2605407,0.04282294921874999,0.5197671386718751,0.17004638671875,0.548550323178323,0.05029137616222701,0.05085904140221911,0.05894331802815428,0.09268322042749373
82,1791341240.285467,0.00929267578124999,0.572457568359375,0.07903564453125,0.5779625026777897,0.05074141758969433,0.06250531557772762,0.06337851328140327,0.10246190453160664
83,1791341240.305467,0.16257392578125,0.5341372558593751,-0.03592529296875,0.5594850454800391,0.05130615137124163,0.07210811716348925,0.06646803977418375,0.11067927557051828
84,1791341240.3159533,0.33022529296875003,0.47665678710937504,-0.09819580078125001,0.5881265612985013,0.05194541220234711,0.07718277308718431,0.06773946865994795,0.11508319566570788
85,1791341240.3359532,0.33501533203125,0.37127592773437507,-0.05987548828125,0.5036528182269485,0.053979610750075235,0.08668145626791078,0.06956354061206213,0.12355791929270007
86,1791341240.360654,0.33501533203125,0.309005419921875,-0.07903564453125,0.46256486609293307,0.057356364825254094,0.09791332981543291,0.07122108815199557,0.13397468469478743
87,1791341240.380654,0.42123603515625,0.155724169921875,-0.15567626953125,0.4753155954807089,0.060814737526908774,0.10634058002455639,0.07200980107663334,0.14209912987602066
88,1791341240.4057117,0.36854560546875,0.035973193359375,-0.15567626953125,0.40169022249236397,0.06598197112867328,0.11567541548248512,0.07226460861034019,0.1515143422870465
89,1791341240.4257116,0.37333564453125,-0.011927197265625002,-0.18441650390625,0.4165707724087,0.07060043685082308,0.1220445866234115,0.07192734091602103,0.15828090592000024
90,1791341240.4345782,0.38291572265625,-0.016717236328125003,-0.18441650390625,0.42533911595433177,0.07284370761578197,0.12442562463319157,0.07155497809610967,0.1609597983811739
91,1791341240.4545782,0.37333564453125,-0.16999848632812503,-0.24189697265625001,0.47622802753688925,0.07827914464260194,0.1287107558476232,0.07020157094548257,0.1661997103488977
92,1791341240.4796352,0.6032575195312501,-0.23705903320312502,-0.33769775390625,0.7308600365921802,0.08590278001976064,0.13250913155941565,0.06767107014747521,0.17180608632018374
93,1791341240.4996352,0.69905830078125,-0.29932954101562503,-0.34727783203125,0.8359919704375864,0.09302851023583521,0.13428155892537744,0.06492678851048851,0.17578773748590718
94,1791341240.5262935,0.65115791015625,-0.24184907226562502,-0.19878662109375,0.7225051684525645,0.10380139550365106,0.13520766385398195,0.060725789798212984,0.18095155047684316
95,1791341240.5462935,0.58888740234375,-0.189158642578125,-0.12214599609375,0.6304672942055781,0.11253132580678638,0.1351517295962895,0.057565416335051,0.18504882182421323
96,1791341240.5698154,0.59846748046875,-0.29932954101562503,-0.20836669921875,0.7008410523410822,0.1233531406953188,0.13423405036995165,0.05382297728735734,0.19008337771145906
97,1791341240.5898154,0.67031806640625,-0.443030712890625,-0.28979736328125,0.8541574998088783,0.13307756787647415,0.13245727670975205,0.05037095879446065,0.1944011386673305
98,1791341240.600083,0.65594794921875,-0.505301220703125,-0.32811767578125,0.8906504616786776,0.13834243603651236,0.13095163821897252,0.048388725886780004,0.19654116605356525
99,1791341240.620083,0.66552802734375,-0.495721142578125,-0.34248779296875004,0.8977554760131683,0.14904153430662326,0.12695726507430813,0.04410089435838565,0.20068984774230605
100,1791341240.6600833,0.63678779296875,-0.6298422363281251,-0.32332763671875003,0.9522293298375961,0.17113707679983056,0.11679008321109968,0.03481408102252211,0.2100948424628492
101,1791341240.6800833,0.61283759765625,-0.7639633300781251,-0.29937744140625,1.0241273081155948,0.1824020626856871,0.11037835031883131,0.029933152153593007,0.21529023732847274
102,1791341240.6903577,0.65594794921875,-0.7448031738281251,-0.26584716796875,1.027460070535949,0.18829876529184,0.10641595829585503,0.02736628061952894,0.21801306040098473
103,1791341240.7103577,0.6224176757812501,-0.7735434082031251,-0.34727783203125,1.0518436481339635,0.19997296423265984,0.09758228812223763,0.02219946219913313,0.22361642493586822
104,1791341240.7206748,0.80443916015625,-0.9268246582031251,-0.49576904296875,1.3235985998075033,0.20619590303791255,0.0923932168378895,0.01928159899876592,0.22677089100504658
105,1791341240.7406747,0.75653876953125,-1.080105908203125,-0.44786865234375,1.392683026568272,0.21879121716504477,0.0808325299416474,0.013058233756410744,0.23361081326463928
106,1791341240.7652597,0.52661689453125,-0.955564892578125,-0.35206787109375004,1.1464647414508946,0.23431758521762458,0.06499966215987021,0.005080680834900276,0.24321903737343864
107,1791341240.7852597,0.5840973632812501,-0.9316146972656251,-0.37601806640625,1.1620952027339781,0.246719791383753,0.05122082139644852,-0.0015277465121282434,0.25198524165985353
108,1791341240.8101714,0.67989814453125,-1.070525830078125,-0.34727783203125,1.3148722114417888,0.2622121903220288,0.032891786023660496,-0.009875777836505981,0.2644515708578381
109,1791341240.8301713,0.77090888671875,-0.9268246582031251,-0.35685791015625,1.257239844546922,0.2749605854840603,0.017387823959008206,-0.01662877059176827,0.27601118818475523
110,1791341240.8397179,0.71821845703125,-0.8980844238281251,-0.28021728515625,1.1836025985284857,0.2811991575192178,0.00979082689659752,-0.01982478364315468,0.2820670993351314
111,1791341240.8597178,0.7230084960937501,-0.9986752441406251,-0.28500732421875,1.26543380053696,0.29447034694438096,-0.006582679344349888,-0.026363927113715463,0.2957214458739033
112,1791341240.8848403,0.67989814453125,-1.0992660644531251,-0.42391845703125003,1.3602772605638362,0.3112833673263119,-0.028017623928755044,-0.03468153546940785,0.31446006253121644
113,1791341240.9048402,0.5840973632812501,-1.1327963378906252,-0.46702880859375,1.3573920513201105,0.3245564974005049,-0.045870445215861574,-0.04164636575990149,0.3304170660395628
114,1791341240.9306893,0.49787666015625004,-1.070525830078125,-0.39038818359375,1.2435069985659222,0.3412358027762421,-0.06975488259430215,-0.05096010406317586,0.35200077975513205
115,1791341240.9506893,0.53140693359375,-1.0992660644531251,-0.42391845703125003,1.2924728499049913,0.3537490787373425,-0.08871746379718545,-0.05830685836659596,0.369335739974763
116,1791341240.9605103,0.5026666992187501,-1.434568798828125,-0.52929931640625,1.609602191668105,0.35973366632730963,-0.09849860829564054,-0.06207543406924847,0.378105337228069
117,1791341240.9805102,0.56014716796875,-1.6118002441406252,-0.51971923828125,1.783752495004515,0.37168717011408836,-0.11999925879101671,-0.07017234188694985,0.39683161681462786
118,1791341241.0055556,0.55535712890625,-1.587850048828125,-0.29458740234375,1.7077678577049373,0.386506210137003,-0.1488954404947238,-0.0803205332440009,0.42191028754367627
119,1791341241.0255556,0.51703681640625,-1.5351596191406252,-0.17004638671875,1.6287903178112284,0.3981734726289827,-0.1731937207450542,-0.08790573913787307,0.44301873344624476
120,1791341241.0503974,0.56972724609375,-1.5399496582031251,-0.23231689453125,1.658313970340398,0.41251628568461973,-0.20457662380707398,-0.0966636808812809,0.47049457825234714
121,1791341241.0703974,0.61762763671875,-1.5255795410156252,-0.16525634765625,1.654136177599933,0.42411253631902235,-0.23065118129097215,-0.10325336412849795,0.493692888441516
122,1791341241.080462,0.6224176757812501,-1.5734799316406252,-0.13651611328125002,1.6976099397641788,0.4300088281911823,-0.24414377864815634,-0.10629986617990132,0.5057800297805546
123,1791341241.100462,0.7613288085937501,-1.789031689453125,-0.35206787109375004,1.975906811192969,0.4420437932872588,-0.27197770611118455,-0.11217854712441284,0.5309977535171263
124,1791341241.1253028,0.8810797851562501,-2.009373486328125,-0.44307861328125003,2.2383480633977957,0.4578094531546696,-0.30843966107125753,-0.11986629182871754,0.5648826850207901
125,1791341241.1453028,0.77569892578125,-2.090804150390625,-0.32811767578125,2.254070102705091,0.4710839500929197,-0.3395428962335306,-0.1262842429422476,0.5942702890379925
126,1791341241.1700695,0.67989814453125,-2.023743603515625,-0.32332763671875003,2.1592453358462014,0.48776026059919997,-0.3799244744274882,-0.13424974286815863,0.6326734319923426
127,1791341241.1900694,0.78527900390625,-1.947102978515625,-0.39517822265625,2.1363611470400232,0.5014047327585266,-0.41359886940814466,-0.14079506229023822,0.6650518629202214
128,1791341241.2153423,0.83317939453125,-2.090804150390625,-0.46702880859375,2.2986443410885955,0.5191279479847438,-0.4574221411000796,-0.14945965210045303,0.7078608826269611
129,1791341241.2353423,0.8427594726562501,-2.172234814453125,-0.45744873046875,2.3744698269048428,0.5335635175132568,-0.4932947705020672,-0.15667467328547982,0.7433550370280129
130,1791341241.245398,0.89544990234375,-2.186604931640625,-0.43828857421875,2.403158032459214,0.5410437912650536,-0.5119130598436947,-0.16043371496881703,0.7619201676053028
131,1791341241.265398,0.93377021484375,-2.143494580078125,-0.50055908203125,2.391036432921424,0.556433532648041,-0.5498836930361567,-0.16819690189065997,0.8001753244932494
132,1791341241.2904487,1.01999091796875,-2.119544384765625,-0.6634204101562501,2.443967371374281,0.576488992888403,-0.598318639039128,-0.17864888619450037,0.8498471493637283
133,1791341241.3104486,0.96730048828125,-2.1913949707031253,-0.69216064453125,2.4933849502413405,0.5930800583728331,-0.6376541938836352,-0.18777523082560485,0.890845869905968
134,1791341241.3356547,0.8188092773437501,-2.205765087890625,-0.56282958984375,2.419219998847772,0.6142299630793423,-0.6881054332852167,-0.19992442166273738,0.9437888054211419
135,1791341241.3556547,0.8235993164062501,-2.124334423828125,-0.40954833984375,2.3149173680532935,0.6309579062123626,-0.7286268884617415,-0.20957688218508572,0.9863708691702877
136,1791341241.3648372,0.9002399414062501,-2.052483837890625,-0.39517822265625,2.2758048432515277,0.6386732439843391,-0.7473170818628514,-0.2138980019044676,1.0060510367989342
137,1791341241.3848372,1.00083076171875,-2.076434033203125,-0.5053491210937501,2.359791991264687,0.6558086791907652,-0.7881126423330197,-0.22324871974796706,1.049307653444011
138,1791341241.4107556,0.83796943359375,-2.143494580078125,-0.49097900390625004,2.3532577777919914,0.67825840685679,-0.8412535070182473,-0.23548562634757894,1.105981649829111
139,1791341241.4307556,0.89544990234375,-1.8944125488281252,-0.41433837890625,2.1359554595074224,0.6955833533308252,-0.8821655582258066,-0.24486981191656415,1.1497884580821194
140,1791341241.4703426,0.91461005859375,-1.827352001953125,-0.45265869140625004,2.0929946940278126,0.73010582549076,-0.9620480562605659,-0.26323237218280887,1.236075345897355
141,1791341241.4903426,1.00083076171875,-1.8896225097656252,-0.51971923828125,2.2005552775731667,0.7478040820579396,-1.0019277149852541,-0.27257643197037074,1.279596812462343
142,1791341241.4845285,0.85712958984375,-1.9375229003906251,-0.32332763671875003,2.143176820514338,0.7478040820579396,-1.0019277149852541,-0.27257643197037074,1.279596812462343
143,1791341241.5045285,0.77569892578125,-1.7746615722656252,-0.19399658203125,1.9464755825271205,0.765409210054468,-1.0411886455568933,-0.281178384495506,1.3224924719560054
144,1791341241.5303912,0.8619196289062501,-1.7315512207031252,-0.22752685546875,1.9475480858176182,0.7879366520144705,-1.0911439153671147,-0.29145098410686027,1.377092185646011
145,1791341241.5503912,0.92419013671875,-1.832142041015625,-0.32332763671875003,2.077357125756487,0.8054234807513385,-1.1293258895475073,-0.2990296176268155,1.41897944324994
146,1791341241.5748494,0.97209052734375,-1.7219711425781252,-0.34727783203125,2.0076719109066574,0.8270790374197077,-1.175534561768701,-0.3081375378555164,1.4699965926108474
147,1791341241.5948493,0.92419013671875,-1.6980209472656251,-0.33769775390625,1.962509189571962,0.8449754450064635,-1.2127825113439745,-0.31549558412996864,1.5114107271324955
148,1791341241.6049325,0.8619196289062501,-1.8081918457031252,-0.33769775390625,2.031379573234527,0.8539954335917308,-1.2313961495667907,-0.319159535426335,1.5321577878328982
149,1791341241.6249325,0.85712958984375,-1.8608822753906251,-0.37122802734375004,2.0821537467089786,0.8717814472215462,-1.268281816115623,-0.32640023996859935,1.5732383079053205
150,1791341241.6511753,0.89544990234375,-1.7650814941406252,-0.37122802734375004,2.0137411593476124,0.8950679301066697,-1.3165576749801862,-0.3359372281028137,1.6270600887121758
151,1791341241.6711752,0.8427594726562501,-1.8034018066406252,-0.40954833984375,2.0322970864554435,0.9127601732516997,-1.3531833883053501,-0.3432864311354198,1.6679574305304419
152,1791341241.6956725,0.86670966796875,-1.903992626953125,-0.47660888671875,2.1455837440989454,0.9343209862968267,-1.3981272784269425,-0.3525660760832677,1.7181438909826374
153,1791341241.7156725,0.8810797851562501,-1.832142041015625,-0.51971923828125,2.0983693985825105,0.9519048847242594,-1.4349204763566252,-0.3605002154229246,1.7592839703553844
154,1791341241.7258484,0.79006904296875,-1.827352001953125,-0.39996826171875,2.030615434315904,0.9607849477399089,-1.453625635538734,-0.3646334577769722,1.7801945856083707
155,1791341241.7458484,0.61283759765625,-1.8465121582031252,-0.31853759765625,1.9714571445034412,0.9777243850316438,-1.4903853624827386,-0.372616231655326,1.8209987253925592
156,1791341241.7699711,0.76611884765625,-1.7315512207031252,-0.29458740234375,1.9162435795775707,0.9975857863573524,-1.534545481355736,-0.3819095700464524,1.8697224807934976
157,1791341241.789971,0.94814033203125,-1.712391064453125,-0.36643798828125,1.9913638658213233,1.0141540839089471,-1.5708323190313285,-0.3894503949433761,1.909893790383143
158,1791341241.8150682,1.02478095703125,-1.8513021972656252,-0.45744873046875,2.164891493008804,1.035539912386346,-1.6162448025553304,-0.39904444784814136,1.9605679389632658
159,1791341241.8350682,0.87149970703125,-2.0381137207031252,-0.39996826171875,2.252419563104576,1.0528703978954268,-1.652839865664518,-0.4068292726625189,2.001480890088509
160,1791341241.845543,0.84754951171875,-2.014163525390625,-0.35685791015625,2.2141685685308086,1.0619359734661828,-1.672314524670313,-0.41088944090719964,2.0231594138411078
161,1791341241.865543,0.90982001953125,-1.8800424316406252,-0.35685791015625,2.118886401096134,1.079285086693086,-1.7097624096930064,-0.41854950199396684,2.064782671754278
162,1791341241.890501,0.9816706054687501,-1.827352001953125,-0.36164794921875004,2.1056309638342623,1.101228273152767,-1.756423917166507,-0.4280196373615308,2.116820610338216
163,1791341241.910501,0.9577204101562501,-1.832142041015625,-0.33769775390625,2.094758366848091,1.1190837394552666,-1.7936961733197903,-0.4355191431480325,2.158557690251442
164,1791341241.9350772,0.97209052734375,-1.832142041015625,-0.37122802734375004,2.107015590852114,1.1412906312975801,-1.8393806928352905,-0.4446589960169548,2.2098839926570055
165,1791341241.9550772,0.94814033203125,-1.8177719238281251,-0.39996826171875,2.088836869328108,1.1595320558420747,-1.876456721381119,-0.4521380617871771,2.2516734316188907
166,1791341241.98015,0.93377021484375,-1.8034018066406252,-0.48618896484375,2.0881964945521414,1.1825088963770813,-1.9227742490524593,-0.46177410522552875,2.3040450141190885
167,1791341242.00015,0.92419013671875,-1.8560922363281251,-0.51492919921875,2.1364357885913225,1.200874697138974,-1.9596679076095618,-0.4698092554448549,2.34587277635534
168,1791341242.02573,0.95293037109375,-1.8034018066406252,-0.45744873046875,2.0903573161914246,1.2244422870825533,-2.006797495916912,-0.4804101551164435,2.3994351462695023
169,1791341242.0457299,0.9577204101562501,-1.8034018066406252,-0.45265869140625004,2.091503371053976,1.2429708779366928,-2.043529214939846,-0.48882049165880354,2.4412975502336725
170,1791341242.0544326,0.9577204101562501,-1.832142041015625,-0.46702880859375,2.1194548238977053,1.2510742212963837,-2.0594880253380543,-0.49253148742047353,2.459525340345941
171,1791341242.0744326,0.95293037109375,-1.7746615722656252,-0.46223876953125004,2.0666796240072958,1.269769286344014,-2.0960722065776496,-0.5011744560544082,2.501401321485882
172,1791341242.1007092,0.95293037109375,-1.793821728515625,-0.38559814453125,2.0675005719258217,1.2944030776605013,-2.143960380707715,-0.5124974133954442,2.556305740759186
173,1791341242.1207092,0.99604072265625,-1.9183627441406252,-0.31374755859375003,2.184181830759489,1.3132636861389004,-2.1805105349214378,-0.5208719668222428,2.5981907759161524
174,1791341242.13016,1.08226142578125,-1.793821728515625,-0.25626708984375,2.1106300028109692,1.3223124555398273,-2.1978226868218758,-0.5246397617085848,2.618049211216309
175,1791341242.15016,1.13495185546875,-1.745921337890625,-0.21794677734375,2.093766422046231,1.3419148946277746,-2.234272813466119,-0.5321284646655169,2.660050994309124
176,1791341242.1755252,1.0535211914062501,-2.042903759765625,-0.26584716796875,2.3138792944152415,1.367209999457177,-2.2807745186179824,-0.5411217857619469,2.713670645899937
177,1791341242.1955252,1.05831123046875,-2.177024853515625,-0.34248779296875004,2.4447408373268558,1.387330807783756,-2.3182703693942615,-0.548061711911518,2.756707441115346
178,1791341242.220643,1.01520087890625,-2.220135205078125,-0.27063720703125,2.4561916967510875,1.4127161515613293,-2.3665811386214357,-0.5566251868638437,2.811815216050335
179,1791341242.240643,1.05831123046875,-2.1051742675781253,-0.30895751953125,2.376391404269145,1.43300742619336,-2.4057662225569243,-0.5632904083971156,2.8563118676561428
180,1791341242.2507143,1.1301618164062501,-2.1482846191406253,-0.48618896484375,2.4756357255530737,1.4433457484995866,-2.4257514349484444,-0.5667439317913389,2.879012965946589
181,1791341242.2707143,1.0918415039062501,-2.196185009765625,-0.60114990234375,2.525218341423054,1.4641294966968215,-2.4660025112290183,-0.5742043718951902,2.924816956527205
182,1791341242.2950861,0.91461005859375,-2.253665478515625,-0.55324951171875,2.494314469057773,1.489324982020659,-2.515828618732335,-0.5840420488802889,2.981373451240849
183,1791341242.3150861,0.85233955078125,-2.382996533203125,-0.51971923828125,2.583653086953382,1.5095498852820555,-2.5575385616916604,-0.5925135262946827,3.0283356203593215
184,1791341242.340447,0.95293037109375,-2.349466259765625,-0.44307861328125003,2.5737883859162127,1.5347827487239427,-2.6114964756541674,-0.6034756904739054,3.0886331664876803
185,1791341242.360447,0.8619196289062501,-2.2009750488281252,-0.41912841796875,2.4005968514115072,1.554419230689438,-2.6544914492023812,-0.6121172083093257,3.1364361105136678
186,1791341242.3700905,0.73258857421875,-2.0620639160156253,-0.40954833984375,2.226325101030469,1.563620526121321,-2.675196315806777,-0.6162583012771353,3.15932884830102
187,1791341242.3900905,0.5840973632812501,-2.1147543457031253,-0.44786865234375,2.2391833337658102,1.5818159073842735,-2.717960775109552,-0.624844484033557,3.2062256578592856
188,1791341242.4153628,0.43081611328125,-2.119544384765625,-0.43349853515625003,2.205899340957531,1.603282837988544,-2.771918892545834,-0.635737270857588,3.2646917286320583
189,1791341242.4353628,0.41644599609375,-2.0620639160156253,-0.26105712890625,2.1198315230104927,1.61899390635162,-2.8144873465941385,-0.6441063624940041,3.3101893146990022
190,1791341242.46096,0.32064521484375,-1.951893017578125,-0.15088623046875002,1.9838009881078047,1.6375006801879661,-2.868502536959478,-0.6540017512952948,3.367110567364298
191,1791341242.48096,0.08593330078125,-1.827352001953125,-0.045505371093750004,1.8299373240697712,1.6504015846698015,-2.910044897342044,-0.6608682344063156,3.4101222145950105
192,1791341242.4903393,0.08593330078125,-1.7219711425781252,0.03592529296875,1.7244882645961572,1.6556650992426059,-2.9291014782715026,-0.663612120735625,3.429466931995345
193,1791341242.5103393,-0.00986748046875001,-1.5686898925781252,0.03113525390625,1.5690298755228906,1.6653192310604013,-2.9685772031868445,-0.6684847786469166,3.468805363796425
194,1791341242.5350554,0.04761298828124999,-1.4106186035156252,-0.01676513671875,1.4115214879861522,1.6755302566239296,-3.0155667365720786,-0.6735765602941486,3.5149323985191985
195,1791341242.5550554,0.07156318359375,-1.2094369628906252,0.01676513671875,1.2116683235363426,1.6827322564261813,-3.051816642134878,-0.6770787337531158,3.5501560917414987
196,1791341242.5806618,0.04761298828124999,-0.9938852050781251,0.09340576171875001,0.9993995366461388,1.6907988721354852,-3.0954978625885397,-0.6806784728257668,3.5922459585436606
197,1791341242.6006618,0.023662792968749992,-0.8837143066406251,0.16525634765625,0.8993445190654614,1.6962611800367564,-3.1273140490243767,-0.68268033259428,3.6226299270883255
198,1791341242.6257355,-0.01944755859375001,-0.7735434082031251,0.07903564453125,0.7778137598527259,1.702089939418431,-3.1643350528973273,-0.6843541876019367,3.6576586968923817
199,1791341242.6457355,0.11946357421875,-0.591521923828125,0.06945556640625,0.6074486049364652,1.7061918551761655,-3.1914828452138333,-0.6852663226877037,3.6832381583293796
200,1791341242.6557775,0.30148505859375,-0.438240673828125,-0.00239501953125,0.5319340794413918,1.708259520569262,-3.2038446335828477,-0.6856051003658095,3.694972987641554
201,1791341242.6757774,-0.029027636718750013,-0.328069775390625,0.09819580078125001,0.3436783329065156,1.712168549442274,-3.225921324169023,-0.6860349148147209,3.7160104192228154
202,1791341242.7008705,-0.014657519531250012,-0.08377778320312501,0.03113525390625,0.09057021515401985,1.716255145462974,-3.2502402514865123,-0.6862498948072994,3.7390550055908873
203,1791341242.7208705,0.54577705078125,0.14135405273437499,-0.19878662109375,0.5978040465819731,1.7198203988397271,-3.266629401249518,-0.6866470156201234,3.755014510415778
204,1791341242.7455635,0.80922919921875,0.270685107421875,-0.19878662109375,0.8761497845540348,1.7260714072750967,-3.2830659737661736,-0.6878000717240372,3.7723883190596186
205,1791341242.7655635,0.22484443359375,0.44312651367187506,0.050295410156250005,0.4994454471910522,1.7319260431309162,-3.2933110686312337,-0.6888166335156565,3.7841688609590287
206,1791341242.7751439,0.033242871093749994,0.605987841796875,0.09819580078125001,0.61479164614954,1.7344952963569156,-3.2967287076533,-0.6891238480942953,3.7883750847773707
207,1791341242.7951438,0.82838935546875,0.653888232421875,-0.06466552734375,1.057345910844876,1.7403467788696734,-3.300903356856677,-0.6896186925131597,3.7947784946019296
208,1791341242.8204296,1.24033271484375,0.816749560546875,-0.34727783203125,1.525158018300237,1.750558225034062,-3.302600658992749,-0.6909316955365381,3.80118558083011
209,1791341242.8404295,0.77569892578125,0.998771044921875,-0.37122802734375004,1.3179767342096944,1.760447583850728,-3.301018503333273,-0.6928922056727062,3.8047336915369643
210,1791341242.865717,0.27753486328125,1.147262255859375,-0.38559814453125,1.2417416048123808,1.7730733419962952,-3.29524806823421,-0.6964345573781033,3.806240927740865
211,1791341242.885717,0.34459541015625,1.286173388671875,-0.49097900390625004,1.4191717178358725,1.7824944700619192,-3.28771862093544,-0.7001308428690767,3.8048079404069157
212,1791341242.89577,1.23075263671875,1.137682177734375,-0.53408935546875,1.7590691373421372,1.7877075292935705,-3.2826740369989644,-0.7024830044305004,3.8033313575066927
213,1791341242.91577,1.73849677734375,1.156842333984375,-0.5484594726562501,2.1590421542154736,1.8009767310387774,-3.270701814940451,-0.7080843533031045,3.8003145921608326
214,1791341242.940986,1.24033271484375,2.1435903808593753,0.47181884765625004,2.521114434020832,1.8208305381250893,-3.251629736145076,-0.714232122224363,3.794554955982179
215,1791341242.960986,1.8774079101562502,-1.065735791015625,-2.42136474609375,3.2439883586404266,1.8388921468440145,-3.2371549776666027,-0.721301129547313,3.7922252038404154
216,1791341242.9853663,1.20201240234375,0.874230029296875,-1.50167724609375,2.112852695042491,1.8632378654529402,-3.2225068429999686,-0.7357992356628447,3.7944177697825103
217,1791341243.0053663,0.29669501953125,1.314913623046875,-0.85981201171875,1.598844103152259,1.8824616938953211,-3.209009287265684,-0.7494506977321332,3.7951388621593067
218,1791341243.0155444,2.8449958007812506,1.482564990234375,-0.73048095703125,3.2902283333101505,1.8931755606978236,-3.2010351863630824,-0.756569860542546,3.795146627185756
219,1791341243.0355444,1.85824775390625,0.696998583984375,-0.7831713867187501,2.133600047325838,1.9181252873272385,-3.1844470782712424,-0.7707311398393988,3.7965687537713038
220,1791341243.0603507,1.82471748046875,0.45749663085937503,-0.72090087890625,2.0145955246608946,1.9512810080629526,-3.1648108784218807,-0.788459191400182,3.8006832760844564
221,1791341243.0803506,2.37557197265625,1.123312060546875,-0.7448510742187501,2.73129553607895,1.980303389919413,-3.148982779554647,-0.8028070318348887,3.8055476862629867
222,1791341243.105051,2.7539850585937504,0.09824370117187499,-1.16637451171875,2.992409569120632,2.0202728211961873,-3.1301039766936225,-0.8214095407635472,3.8149399484965176
223,1791341243.125051,2.43305244140625,0.217994677734375,-0.8837622070312501,2.5977493144509105,2.0555622198950005,-3.11663633603521,-0.8372878679211484,3.82620034299337
224,1791341243.1509967,2.1743903320312503,0.47186674804687506,-0.69216064453125,2.330175508793537,2.1034412856116345,-3.100443261383125,-0.857863395550031,3.8435846893877836
225,1791341243.1709967,2.5623834960937506,-0.055037548828125005,-0.85502197265625,2.7018328753939658,2.141917514071488,-3.0892080753258284,-0.8736655583534394,3.8593145346806756
226,1791341243.1802125,2.5336432617187503,0.002442919921874999,-0.99393310546875,2.72162766807977,2.1605099318803487,-3.0848439065335445,-0.8811328168113385,3.867875403149984
227,1791341243.2002125,2.17918037109375,-0.352019970703125,-1.0322534179687501,2.436861150833648,2.2018756635698384,-3.077317907771149,-0.8979465717998749,3.889016583805894
228,1791341243.2253685,2.31809150390625,-0.438240673828125,-1.02267333984375,2.571276700144665,2.2545860975639487,-3.0707626082957256,-0.9197997274735352,3.919027048451719
229,1791341243.2453685,2.8162555664062503,-0.6442123535156251,-1.1520043945312501,3.110212066203146,2.297908368142567,-3.067956333543321,-0.9378297080609679,3.9461707380991426
230,1791341243.2559254,3.0270172851562505,-1.0130453613281252,-1.2286450195312502,3.420330851359572,2.321972310205333,-3.0680094089404375,-0.94780415071147,3.962646823880881
231,1791341243.2759254,2.6581842773437505,-0.9316146972656251,-1.1472143554687502,3.041373106653049,2.3692506106900924,-3.071011864309166,-0.9674299224579113,3.9975471206541084
232,1791341243.3008704,2.6773444335937504,-1.190276806640625,-1.22385498046875,3.175335117076654,2.4293554968234843,-3.0781647576306903,-0.9926724448058136,4.04502966463076
233,1791341243.3208704,3.0940778320312505,-1.6597006347656251,-1.46335693359375,3.803858218020951,2.4789739866848652,-3.0873144028071793,-1.0139059894398785,4.087153973593724
234,1791341243.3458712,3.1707184570312505,-1.8992025878906251,-1.56873779296875,4.015141873794443,2.5434422657934443,-3.103709385209698,-1.0421527456107047,4.145864548251327
235,1791341243.3658712,3.0365973632812504,-1.8944125488281252,-1.52562744140625,3.890663380686627,2.5965901972200953,-3.1205480184094725,-1.0660014421233919,4.197196643249864
236,1791341243.3906846,3.1659284179687504,-2.014163525390625,-1.6262182617187502,4.089565171196525,2.6641814067346123,-3.145579437695197,-1.0970171917026426,4.26567454053077
237,1791341243.4106846,3.6257721679687505,-2.368626416015625,-1.8705102539062501,4.717565423248761,2.7206765411828955,-3.1693029585665675,-1.123511562143432,4.325371696766845
238,1791341243.4203565,3.5730817382812505,-2.349466259765625,-1.7938696289062501,4.637334693520437,2.7491212857547014,-3.1824771626659394,-1.1370603866460924,4.356459004462178
239,1791341243.4403565,3.4245905273437502,-2.057273876953125,-1.6310083007812501,4.315134315636493,2.809614048758905,-3.2122430728214186,-1.166011961179706,4.424027639548236
240,1791341243.4652781,3.8748541992187504,-2.1387045410156253,-1.7555493164062501,4.761355435303953,2.8873298203501747,-3.2516130775170673,-1.2030065369089007,4.511860572447794
241,1791341243.4852781,3.9658649414062506,-2.435686962890625,-1.93278076171875,5.039473899876918,2.9521036922661295,-3.285330395697415,-1.2337743961945065,4.58590354014231
242,1791341243.511304,3.7167829101562506,-2.699139111328125,-2.07169189453125,5.039021179693258,3.038745849945928,-3.332647834891648,-1.2756230755819087,4.6869747346159905
243,1791341243.531304,3.5108112304687507,-2.8332602050781253,-2.06690185546875,4.962382710533823,3.10618171994613,-3.371854085338413,-1.3091664363879942,4.767775331148237
244,1791341243.5403574,3.6736725585937506,-2.6272885253906253,-1.8273999023437502,4.872156141432656,3.137007545017133,-3.3906473516137683,-1.3247172792382738,4.8054325164767775
245,1791341243.5603573,4.10956611328125,-2.220135205078125,-1.6357983398437501,4.949077709724552,3.2065650160612704,-3.4332071892146407,-1.3591123798358011,4.890414835913825
246,1791341243.5856485,4.301167675781251,-1.990213330078125,-1.61184814453125,5.005901209116594,3.2972845758610796,-3.4869401478181747,-1.4022431565940803,4.999712295611873
247,1791341243.6056485,4.24368720703125,-2.133914501953125,-1.67890869140625,5.037976439687466,3.371080794145326,-3.529244005596055,-1.4361704926408865,5.0874683935748966
248,1791341243.6310017,4.21015693359375,-2.569808056640625,-1.68369873046875,5.211926349100175,3.466671981707284,-3.5837709881273097,-1.4791215583030264,5.200868168713188
249,1791341243.6510017,4.0185553710937505,-2.459637158203125,-1.73159912109375,5.019665102049401,3.54311144710339,-3.6278769265422017,-1.5130443208627442,5.2919214693367636
250,1791341243.661052,3.9035944335937502,-2.109964306640625,-1.6693286132812502,4.740955272558587,3.5817331458045056,-3.650160688593302,-1.530097547497597,5.337947534883115
251,1791341243.681052,4.00897529296875,-2.076434033203125,-1.69806884765625,4.823577407408188,3.6589302341921734,-3.694133056930475,-1.5639940135473207,5.429591768761621
252,1791341243.7052078,4.066455761718751,-2.153074658203125,-1.6262182617187502,4.880202739698391,3.7528128522140762,-3.746938736799835,-1.6048155418944907,5.540630571025323
253,1791341243.7252078,3.8125836914062505,-2.244085400390625,-1.6741186523437501,4.730157180300514,3.8307024612583267,-3.7906971251598813,-1.638494701287677,5.632790687353276
254,1791341243.7507966,3.6114020507812503,-2.248875439453125,-2.1243823242187503,4.755277675805648,3.929656987594222,-3.846908070820209,-1.68241147711961,5.750775088962665
255,1791341243.7707965,3.4006403320312506,-2.5937582519531253,-2.2537133789062502,4.834372816785397,4.005915856466311,-3.891515969627662,-1.718154891199346,5.843228099356346
256,1791341243.780387,3.4437506835937506,-2.699139111328125,-2.1674926757812503,4.88290847882888,4.041921377046455,-3.9135048558564933,-1.7359036963941583,5.887784839665285
257,1791341243.800387,3.7886334960937504,-2.359046337890625,-2.23455322265625,4.991199404644354,4.116593565952651,-3.96006977138528,-1.7739684079610754,5.981258989036186
258,1791341243.8247843,3.7263629882812506,-2.2009750488281252,-2.14833251953125,4.831708279736249,4.207771326394769,-4.0166963771406,-1.8214571194249418,6.095645606436468
259,1791341243.8447843,3.7551032226562504,-2.172234814453125,-2.06690185546875,4.805360296800409,4.282525782873412,-4.0627133588725215,-1.8608698930565841,6.189386373156971
260,1791341243.8705847,3.8700641601562507,-2.287195751953125,-1.9471508789062502,4.898985359919307,4.3792505704870806,-4.121801094062959,-1.9118541545227994,6.310488580632732
261,1791341243.8905847,3.9323346679687505,-2.210555126953125,-1.7938696289062501,4.854665606992916,4.454686331515046,-4.1674807517983385,-1.9510593212373089,6.404588870785042
262,1791341243.9001334,4.00897529296875,-1.8992025878906251,-1.7938696289062501,4.785062341808785,4.490986734868698,-4.188961609244393,-1.9695388663132818,6.449453043662586
263,1791341243.9201334,3.9419147460937505,-1.947102978515625,-1.92799072265625,4.800734329356744,4.567540556440238,-4.232974550894858,-2.008021747658949,6.543137750523155
264,1791341243.9453623,3.6736725585937506,-2.124334423828125,-1.92799072265625,4.6610959053289704,4.664034066927195,-4.287870524822405,-2.056580530896625,6.660973719747079
265,1791341243.9653623,3.5156012695312504,-2.1482846191406253,-1.83697998046875,4.510994850341651,4.739837968023901,-4.331269875354675,-2.094948234991875,6.753870801516077
266,1791341243.9898934,3.4389606445312504,-1.908782666015625,-1.81781982421875,4.332940167373558,4.831664375658193,-4.383981235500377,-2.141673626569405,6.866661345586138
267,1791341244.0098934,3.5060211914062505,-1.7411312988281251,-1.93278076171875,4.365703181300663,4.90571721500373,-4.425984887841409,-2.1796800535988305,6.957471434151999
268,1791341244.0348828,3.5922418945312504,-1.717181103515625,-1.8705102539062501,4.399059147256949,4.997668548023877,-4.477076406320196,-2.2271728823471313,7.069738546212192
269,1791341244.0548828,3.3766901367187505,-1.583060009765625,-1.57831787109375,4.0495928901738685,5.07067538933231,-4.516783746193387,-2.264654954550171,7.158334050393694
270,1791341244.065209,3.2281989257812502,-1.2908676269531252,-1.45856689453125,3.7702818091693553,5.1078305227798895,-4.536435520618344,-2.2834563482365793,7.203009980311816
271,1791341244.085209,3.0653375976562502,-1.223807080078125,-1.6262182617187502,3.679481511246101,5.178439486930986,-4.572560336382308,-2.319036343108348,7.2871443728198555
272,1791341244.110681,2.9407965820312505,-1.2956576660156252,-1.79865966796875,3.6826878669755865,5.266352685348807,-4.616481122727577,-2.364097036278092,7.3915711022704444
273,1791341244.130681,3.0461774414062504,-1.113636181640625,-1.7507592773437501,3.685721177299858,5.33400592819473,-4.649407553929768,-2.399494421109353,7.471692132408202
274,1791341244.155704,3.1036579101562505,-0.7400131347656251,-1.47772705078125,3.5162464503375985,5.41749519324625,-4.687902870771239,-2.4431977316122735,7.569339644274579
275,1791341244.175704,2.9407965820312505,-0.385550244140625,-1.2717553710937501,3.2271187228779454,5.483282366889492,-4.715743961397552,-2.4770128779952363,7.644620292876092
276,1791341244.1853447,2.6102838867187503,-0.22268891601562502,-1.19990478515625,2.8814829196128557,5.514251057065164,-4.727591076438413,-2.492655092457916,7.679219460096239
277,1791341244.2053447,2.1743903320312503,-0.064617626953125,-0.97477294921875,2.383764052139524,5.576036915353905,-4.748912728009001,-2.523499912904109,7.746767815680449
278,1791341244.2305236,2.1408600585937503,0.299425341796875,-0.76880126953125,2.294339276965173,5.650303247957601,-4.771285711676789,-2.559799696464681,7.8258334139152215
279,1791341244.2505236,2.25582099609375,0.591617724609375,-0.62989013671875,2.4156782655860733,5.707040484864729,-4.785054662060663,-2.58640616935442,7.883942927727732
280,1791341244.2752721,2.11690986328125,0.859859912109375,-0.25626708984375,2.2992040490237415,5.774833970250261,-4.796842901087891,-2.616036089554026,7.949971951115475
281,1791341244.295272,1.8486676757812501,1.262223193359375,-0.050295410156250005,2.2390420258707904,5.827350211080198,-4.801757213895787,-2.636848958914679,7.997990701164017
282,1791341244.305396,1.78639716796875,1.391554248046875,-0.16525634765625,2.270450996481703,5.852706420472587,-4.801856683759724,-2.6459677604936878,8.019547708267654
283,1791341244.325396,1.6905963867187501,1.310123583984375,-0.18441650390625,2.146753221730798,5.900499593086148,-4.79797119886919,-2.6618043956130064,8.057395715347036
284,1791341244.3498821,1.42235419921875,1.434664599609375,-0.12214599609375,2.0239253014301872,5.955952769670635,-4.788887055393088,-2.678847916734458,8.098335556449321
285,1791341244.369882,1.1253717773437502,1.621476123046875,-0.08382568359375,1.9755184636147836,5.9982739304161505,-4.777995984250938,-2.690989709647792,8.12711273376089
286,1791341244.3957803,1.02478095703125,1.6502163574218751,-0.28500732421875,1.9633184181520171,6.049032171959804,-4.759653625602964,-2.7050702902908914,8.15858432134734
287,1791341244.4157803,1.4463043945312501,1.631056201171875,-0.6059399414062501,2.2625878868262874,6.08605727721275,-4.742691518624335,-2.7156494169311864,8.17972907729982
288,1791341244.4252288,2.05942939453125,1.477774951171875,-0.75443115234375,2.64466152862651,6.103409485320715,-4.733677125921901,-2.7208616138769055,8.189163229527663
289,1791341244.4452288,1.89656806640625,1.324493701171875,-0.6825805664062501,2.411881055232905,6.140563920716586,-4.713254848720901,-2.7323950198873908,8.20897551939965
290,1791341244.470736,1.67622626953125,1.147262255859375,-0.62989013671875,2.126665647139145,6.187676367804973,-4.686387355149798,-2.7474087056290273,8.233943154465315
291,1791341244.490736,1.93967841796875,0.797589404296875,-0.59635986328125,2.180400492917122,6.224499607671182,-4.665563499324254,-2.759254363268044,8.25380898575556
292,1791341244.5149727,2.34204169921875,0.505397021484375,-0.74006103515625,2.5076434766452085,6.270212849079338,-4.641745176871165,-2.7738853798494043,8.279843450229517
293,1791341244.5349727,2.3803620117187503,0.40480620117187505,-0.81191162109375,2.5473892218913115,6.30936042663675,-4.6236733313967555,-2.7864757592783613,8.303663723063774
294,1791341244.5455346,2.2270807617187502,0.074293505859375,-0.8071215820312501,2.3699901882521104,6.330582875117282,-4.615181670255328,-2.793409876903999,8.317410662494293
295,1791341244.5655346,2.31809150390625,-0.409500439453125,-0.91250244140625,2.5246583008334036,6.3715592357328115,-4.60201672027703,-2.8071501249819804,8.345982075966123
296,1791341244.5898628,2.4857428710937506,-0.8501840332031251,-1.01788330078125,2.81741316201871,6.4226919378505904,-4.590703251403698,-2.8248790813837354,8.384835710699338
297,1791341244.6098628,2.32767158203125,-0.9890951660156251,-0.9460327148437501,2.7002485327810057,6.465642356176329,-4.585556587383039,-2.840213521308176,8.42013498351987
298,1791341244.6348572,2.16960029296875,-1.070525830078125,-0.81191162109375,2.5519387658369914,6.519697435173099,-4.583950402594547,-2.85979811605487,8.467437700050729
299,1791341244.6548572,2.2941413085937503,-1.161536572265625,-0.77359130859375,2.685273741211241,6.563158734602592,-4.5862060425157996,-2.8754968779175045,8.507456772438637
300,1791341244.6652567,2.6294440429687502,-1.238177197265625,-0.89813232421875,3.0419895494131763,6.586208112970831,-4.589074697198345,-2.883739348830785,8.529577745458674
301,1791341244.6852567,2.59591376953125,-1.396248486328125,-0.99872314453125,3.1121899128809463,6.631724496388938,-4.597715663936522,-2.9000584303653185,8.574910962916485
302,1791341244.7102177,2.2941413085937503,-1.5255795410156252,-1.04662353515625,2.947184776037067,6.68916479412514,-4.612352255544005,-2.921199460041921,8.634357257928022
303,1791341244.7302177,2.40910224609375,-1.6165902832031251,-1.05141357421875,3.0858723693523293,6.735340054027331,-4.627033931435867,-2.9387448636430116,8.683920198829094
304,1791341244.7550297,2.5096930664062502,-1.7794516113281251,-1.05141357421875,3.2512271265904067,6.793185720600316,-4.648835599764783,-2.961159820620002,8.748000465904349
305,1791341244.7750297,2.4617926757812505,-1.908782666015625,-1.11847412109375,3.309812502872083,6.840276025423666,-4.669305406022769,-2.9797723052180665,8.801751647805329
306,1791341244.8005161,2.4809528320312504,-2.033323681640625,-1.1951147460937501,3.4231318124511647,6.900731097215836,-4.699013086334939,-3.0043552922728187,8.872821669786696
307,1791341244.820516,2.5384333007812505,-2.047693798828125,-1.18553466796875,3.4701852926364216,6.948584908982041,-4.724950222539013,-3.024323606102959,8.930538624138862
308,1791341244.830065,2.43305244140625,-2.090804150390625,-1.14242431640625,3.405339850387897,6.971565778747534,-4.738440116451352,-3.0340945308243352,8.958865651776309
309,1791341244.850065,2.4857428710937506,-2.253665478515625,-1.24301513671875,3.5781297265971785,7.019856981957261,-4.768972975440452,-3.055067938208332,9.019697078875986
310,1791341244.8898225,2.6342340820312504,-2.4117367675781254,-1.33402587890625,3.8125173416805334,7.116721191318003,-4.834475544165043,-3.0981908498166026,9.144323968668868
311,1791341244.9098225,2.59591376953125,-2.3877865722656253,-1.18553466796875,3.7209925372795016,7.165984764322265,-4.869683195119604,-3.1204091980290007,9.208805874079065
312,1791341244.9200482,2.40910224609375,-2.196185009765625,-1.0322534179687501,3.4194369928632047,7.191233016086732,-4.888499889889972,-3.1317660927676045,9.242252015873566
313,1791341244.9400482,2.4713727539062504,-2.248875439453125,-1.2669653320312502,3.5735591758770004,7.240528042434884,-4.92644956021304,-3.154095351299888,9.30824736927961
314,1791341244.9501042,2.42826240234375,-2.6272885253906253,-1.2334350585937501,3.784239069357756,7.265291122089666,-4.9463461459008595,-3.165524262287034,9.341913034219012
315,1791341244.9701042,2.2606110351562503,-2.7997299316406252,-1.0322534179687501,3.7435807806567767,7.314187110941551,-4.9881224057574896,-3.1882436885080825,9.4097606795282
316,1791341244.9954755,2.4953229492187505,-2.7470395019531253,-1.18553466796875,3.8959408485171347,7.375960589281887,-5.0437236496872,-3.2169617477939503,9.496988246587604
317,1791341245.0154755,2.5096930664062502,-2.732669384765625,-1.17595458984375,3.8921601266363037,7.424859268138252,-5.08919867720823,-3.2397464408601238,9.56684040469069
318,1791341245.0403852,2.4713727539062504,-2.359046337890625,-0.9604028320312501,3.548965555318758,7.485932352172505,-5.146853981785817,-3.2678589991672924,9.654438954676039
319,1791341245.0603852,2.63902412109375,-1.793821728515625,-0.89813232421875,3.3149489252801465,7.535278088512494,-5.192430916683837,-3.289832593098541,9.72444102179473
320,1791341245.070278,2.7827252929687503,-1.8034018066406252,-0.96998291015625,3.4549507924596954,7.560047703145496,-5.214262263707939,-3.3004572292748584,9.75888672702152
321,1791341245.090278,2.6533942382812503,-1.9997934082031252,-1.1472143554687502,3.5150782973684085,7.610766893082017,-5.257482842186844,-3.32189078841227,9.828522622798436
322,1791341245.115808,2.36599189453125,-1.990213330078125,-0.9460327148437501,3.23324057901092,7.6754096570928505,-5.312018373808402,-3.3491549095737696,9.916969860607338
323,1791341245.135808,2.5480133789062505,-2.2153451660156254,-0.81191162109375,3.4726541526822285,7.7258249839186925,-5.354640827227174,-3.369946457509093,9.985844440868707
324,1791341245.1599832,2.7108747070312504,-2.119544384765625,-0.65384033203125,3.5026871478914576,7.787159076037325,-5.4062928295782,-3.3939662514332243,10.069104009321128
325,1791341245.1799831,2.7108747070312504,-1.9566830566406253,-0.8406518554687501,3.447338945254632,7.83842184194932,-5.448728866410584,-3.4130987129178325,10.137985305578495
326,1791341245.190493,2.7779352539062505,-1.8513021972656252,-1.28133544921875,3.575760707027294,7.865646130803437,-5.470685578354313,-3.4233173384909388,10.174275962064801
327,1791341245.210493,2.7444049804687505,-2.0955941894531254,-1.36755615234375,3.7139579337284676,7.917965207652806,-5.512121130468178,-3.443819406759921,10.243902795952838
