imu_index,t_imu,ax,ay,az,mag,vx,vy,vz,velocity
0,1790597151.8303103,-0.012837304687499761,0.03242856445312491,-4.790039062495644e-05,0.03487707669197065,0.0,0.0,0.0,0.0
1,1790597151.8503103,-0.0032572265624997605,0.037218603515624914,-4.790039062495644e-05,0.037360892213384886,-4.0509321718824935e-05,0.00014581703256876752,-2.0477397463382225e-07,0.0001513395323954087
2,1790597151.8608887,0.0015328125000002397,0.013268408203124913,0.019112255859375045,0.023316914342149244,-6.008970536926167e-05,0.00025142913304240945,1.4828432968830362e-05,0.0002589348645086895
3,1790597151.8808887,-0.008047265624999762,0.003688330078124913,-0.004837939453124956,0.010088008770644816,-0.00010132798651252392,0.0004465879007909039,6.039896800360315e-05,0.0004619049137207882
4,1790597151.9054637,-0.01762734374999976,0.008478369140624914,-0.02878813476562496,0.03480463610281166,-0.00019172033101324176,0.0006728439325101918,4.601753393737036e-05,0.000701137116596521
5,1790597151.9254637,-0.031997460937499764,-0.010681787109375087,-4.790039062495644e-05,0.03373337185554176,-0.00032868722091612007,0.0008260535451173622,-7.184969725895867e-06,0.000889073322276901
6,1790597151.9663398,-0.031997460937499764,-0.010681787109375087,0.028692333984375044,0.04428530356413692,-0.0007628212644759551,0.0010267205617912197,-1.1794820171096575e-05,0.0012791366273093901
7,1790597151.9863398,-0.02241738281249976,0.018058447265624913,0.043062451171875044,0.051797888670655656,-0.0010249954777917004,0.0011212409554296838,9.392006402279425e-05,0.001522044016463503
8,1790597151.9808862,-0.012837304687499761,0.037218603515624914,0.028692333984375044,0.048716227981689154,-0.0010249954777917004,0.0011212409554296838,9.392006402279425e-05,0.001522044016463503
9,1790597152.0008862,-0.008047265624999762,0.022848486328124914,-0.009627978515624957,0.026067408421689135,-0.001290692856200558,0.001350110661205244,0.0002903828376093081,0.0018902404711901735
10,1790597152.0255613,-0.008047265624999762,-0.005891748046875088,-0.02878813476562496,0.03046683249651896,-0.0015991132187930174,0.0016215056925754832,0.0004253179848443306,0.0023167518610773367
11,1790597152.0455613,-0.02241738281249976,-0.0011017089843750872,-0.019208056640624957,0.02954153440087141,-0.0018572970115434866,0.001797993700145977,0.00044628762258820806,0.0026232625062941033
12,1790597152.070864,-0.01762734374999976,0.008478369140624914,0.009532177734375044,0.02175932911017874,-0.0022109312846244106,0.0020017811552782753,0.0004504757052366192,0.003016334414478375
13,1790597152.090864,-0.008047265624999762,0.013268408203124913,0.03348237304687505,0.03690363728867603,-0.0024870379298967127,0.0021713191083842483,0.0005178112993054062,0.0033418726601813905
14,1790597152.1013691,0.0015328125000002397,0.03242856445312491,0.019112255859375045,0.03767279695861258,-0.00261544432301555,0.002283017141783465,0.0005893134963010723,0.003521364319889949
15,1790597152.1213691,-0.008047265624999762,0.018058447265624913,0.009532177734375044,0.02194831232793023,-0.002833008964406512,0.002539502342830587,0.0007479881603340368,0.0038774344906973724
16,1790597152.1459029,-0.027207421874999763,0.008478369140624914,0.009532177734375044,0.030049774720097847,-0.003124730143259484,0.0028557642631855534,0.0009485149096118597,0.00433808811907252
17,1790597152.1659029,-0.036787499999999765,0.003688330078124913,-4.790039062495644e-05,0.036971965453064644,-0.003422862571626583,0.003093159261016552,0.0011016907868655781,0.00474313661917081
18,1790597152.1911342,-0.027207421874999763,0.003688330078124913,0.009532177734375044,0.02906389506258808,-0.003863661000864543,0.0033616851989045717,0.0012838940620914768,0.0052798851946618515
19,1790597152.2111342,-0.027207421874999763,0.037218603515624914,0.009532177734375044,0.047077921206200454,-0.0042422773157206875,0.003603968659439936,0.001435252581419653,0.005748517799761551
20,1790597152.2211926,-0.031997460937499764,0.018058447265624913,0.019112255859375045,0.04141525501703925,-0.004448792170983539,0.0037492405216058757,0.001521564499372359,0.006013627424043344
21,1790597152.2411926,-0.031997460937499764,-0.010681787109375087,0.019112255859375045,0.03877133485361383,-0.004893820903330795,0.00400583347405746,0.001724779360486758,0.006555230636531243
22,1790597152.28056,-0.031997460937499764,-0.005891748046875088,0.004742138671875044,0.032879143551466976,-0.005827355050979988,0.004386209359735924,0.002135213216861911,0.007599739134936066
23,1790597152.30056,-0.041577539062499766,-0.005891748046875088,0.014322216796875044,0.04436812305606628,-0.006340844152427973,0.004532791303426114,0.0023410467839703668,0.008138366028296677
24,1790597152.3105,-0.031997460937499764,-0.005891748046875088,0.023902294921875046,0.04037164727908651,-0.006612615504128196,0.004585929821671399,0.0024564965736466114,0.00841378699225677
25,1790597152.3305,-0.02241738281249976,-0.010681787109375087,0.03348237304687505,0.04168583611806625,-0.007159041603245906,0.004651951053770249,0.002740024451709064,0.008966619166644884
26,1790597152.3550856,-0.012837304687499761,0.003688330078124913,0.023902294921875046,0.027381013000566615,-0.007795006249334566,0.004708040820047933,0.00314209437451233,0.009633303060152556
27,1790597152.3750856,-0.012837304687499761,-0.010681787109375087,0.009532177734375044,0.019229128421471176,-0.008273260666976888,0.0047363343354854415,0.0034702603094525744,0.010145068339671598
28,1790597152.3854785,-0.031997460937499764,-0.029841943359375088,0.004742138671875044,0.04400985081881404,-0.008519452351862184,0.004717244604915162,0.003626337196883979,0.010391524743932224
29,1790597152.4054785,-0.04636757812499976,-0.025051904296875087,-0.04794829101562496,0.07125018471131711,-0.009039702886756148,0.004603678269787221,0.003816827654230909,0.010838738636697553
30,1790597152.4305778,-0.05115761718749976,-0.005891748046875088,-4.790039062495644e-05,0.051495793865111446,-0.009778250594585624,0.0044242850047025335,0.003929677464599691,0.011429385262083541
31,1790597152.4505777,-0.05115761718749976,-0.02026186523437509,0.08138276367187505,0.09823848126854881,-0.010431948816685058,0.004263549825950946,0.004128113912921536,0.012001863926505728
32,1790597152.4762821,-0.041577539062499766,0.013268408203124913,0.06701264648437505,0.07997147741275179,-0.011324850677652008,0.004074474524548614,0.00463097424557152,0.012895716652650891
33,1790597152.496282,-0.041577539062499766,0.046798681640624916,0.009532177734375044,0.06332196119952362,-0.012040117352810905,0.004039527257528299,0.005078365673824012,0.013677426813945903
34,1790597152.506307,-0.041577539062499766,0.018058447265624913,-0.03357817382812496,0.05641181640198112,-0.01240738033543085,0.004073401254043402,0.005250899299528868,0.014075071154998517
35,1790597152.5263069,-0.06552773437499976,-0.029841943359375088,-0.019208056640624957,0.07452097017413375,-0.013190840888672305,0.004113169386830456,0.005464301720468308,0.014858500565243496
36,1790597152.5507176,-0.06073769531249976,-0.05379213867187509,0.023902294921875046,0.08458121255515665,-0.014234814654332191,0.004001309465057324,0.005694291742202771,0.015845042888034934
37,1790597152.5707176,-0.04636757812499976,-0.03463198242187509,0.03827241210937504,0.06938374475564763,-0.015122510930311106,0.0037907725329508085,0.0059477221110374665,0.016686392406511274
38,1790597152.595801,-0.036787499999999765,-0.010681787109375087,0.028692333984375044,0.047860952367989054,-0.016225277709116036,0.003481082073308084,0.00634387042350886,0.017765760920639317
39,1790597152.615801,-0.01762734374999976,0.008478369140624914,0.023902294921875046,0.03088568751861694,-0.017054283079792967,0.003267889015006259,0.006691245702958851,0.018609149336750366
40,1790597152.6256554,-0.008047265624999762,0.013268408203124913,0.019112255859375045,0.024618843683615017,-0.017420453303640723,0.0031946743457299635,0.006868520473108279,0.018996176219679046
41,1790597152.6456554,-0.012837304687499761,-0.005891748046875088,0.03348237304687505,0.03633976322897089,-0.01808347160528241,0.0030794344554594916,0.007253234480576259,0.019725726153800947
42,1790597152.6705627,-0.01762734374999976,-0.02026186523437509,0.023902294921875046,0.035952553914693285,-0.01884222804371956,0.0029085894334953837,0.007767676154282091,0.020587040656247203
43,1790597152.6905627,-0.012837304687499761,-0.02026186523437509,-0.019208056640624957,0.030729285939070202,-0.019405798085446686,0.0027311972499089975,0.008125838757268564,0.021214940331289282
44,1790597152.715772,-0.036787499999999765,-0.029841943359375088,0.009532177734375044,0.048318983350996214,-0.020103427334512775,0.002446410040174206,0.008491277057843825,0.02195983831342493
45,1790597152.735772,-0.036787499999999765,-0.010681787109375087,0.047852490234375045,0.061296668373827246,-0.02068424065004678,0.0021935763547655087,0.00882378972452502,0.02259444298042922
46,1790597152.746335,-0.02241738281249976,0.027638525390624915,0.07180268554687505,0.08013771140776231,-0.02099189149285965,0.0020935045238569035,0.009067860891389496,0.022962325030035476
47,1790597152.766335,-0.008047265624999762,0.05637875976562492,0.05743256835937505,0.08088153649074452,-0.021532712196005853,0.00205847781438611,0.009654514192681728,0.02368764804122672
48,1790597152.791201,0.03985312500000024,0.05158872070312492,0.06701264648437505,0.09348990568446679,-0.022044940571757467,0.0022228160182431117,0.010506580597433987,0.024521593580223388
49,1790597152.811201,0.06380332031250024,0.06116879882812492,0.08138276367187505,0.12014840762926236,-0.022239646578064303,0.002504303744962657,0.011311698008179183,0.02507644171313957
50,1790597152.8358142,0.02548300781250024,0.046798681640624916,0.052642529296875046,0.07490484751499638,-0.022278499371577516,0.0029980630846913594,0.012401307518708713,0.025673183376487423
51,1790597152.8558142,-0.008047265624999762,-0.015471826171875088,0.07659272460937505,0.07855304801355316,-0.022279180913001958,0.003386086611952174,0.013347739629528123,0.026191403893559964
52,1790597152.865617,-0.02241738281249976,-0.029841943359375088,0.16760346679687504,0.17170906416947682,-0.02230186281289615,0.003514429843098883,0.013921578158175418,0.026524227424403732
53,1790597152.885617,-0.01762734374999976,0.037218603515624914,0.23466401367187506,0.23825017735130422,-0.022401264648849405,0.0037480668201730423,0.015520125850613653,0.027508888912043655
54,1790597152.9106948,0.00632285156250024,0.008478369140624914,0.14844331054687504,0.14881961443735195,-0.02252846985787587,0.004083027596810537,0.017944433577173135,0.029089616100923654
55,1790597152.9306948,-0.008047265624999762,-0.11127260742187509,0.052642529296875046,0.12335958632094378,-0.02261728751677259,0.004155902686945261,0.01988947412961518,0.030404019519010107
56,1790597152.9562695,-0.0032572265624997605,-0.22623354492187508,-0.004837939453124956,0.22630870957819904,-0.022735508821956452,0.0035877414593095546,0.022095281597630887,0.03190574742974554
57,1790597152.9762695,-0.012837304687499761,-0.2885040527343751,-0.019208056640624957,0.2894275976400804,-0.022838234568154456,0.002437968117932735,0.02352545523095123,0.03287819475819182
58,1790597152.986332,-0.041577539062499766,-0.2693438964843751,0.004742138671875044,0.2725753367549287,-0.022923231749280806,0.0015252629983999134,0.0241261586407778,0.033314749163178475
59,1790597153.006332,-0.07989785156249976,-0.2549737792968751,0.043062451171875044,0.2706467615068855,-0.023249042872690775,-0.00080317946132146,0.025212721879411818,0.034305166321005845
60,1790597153.0458362,-0.08468789062499976,-0.2453937011718751,0.07659272460937505,0.2706594776770823,-0.024283696428228595,-0.006194980105276509,0.02739150670040538,0.03712641014212776
61,1790597153.0658362,-0.09426796874999976,-0.1831231933593751,0.09575288085937504,0.2271324901269206,-0.024997375119119924,-0.00915802244040719,0.02858762700560742,0.03906392908652088
62,1790597153.0755758,-0.07989785156249976,-0.05379213867187509,0.14844331054687504,0.17695388470817325,-0.02542001509100878,-0.010557589526285122,0.02926112172048295,0.04017279064458378
63,1790597153.0955758,-0.036787499999999765,0.008478369140624914,0.15802338867187504,0.1624702873354915,-0.026332737014725945,-0.013068424963158305,0.030896368098531753,0.04264718433125905
64,1790597153.120616,-0.031997460937499764,-0.05858217773437509,0.16281342773437504,0.17596568218026293,-0.02743324134766695,-0.015834570071740144,0.03323914449987195,0.045914671590675235
65,1790597153.140616,0.00632285156250024,-0.029841943359375088,0.20592377929687505,0.20817089833896973,-0.028218895556444565,-0.017845167025063995,0.03538278184187761,0.048648713276384425
66,1790597153.1513815,0.04943320312500024,-0.015471826171875088,0.21550385742187506,0.22164144815444178,-0.028533342614155053,-0.018801675436515033,0.0367038415956026,0.05014804709888409
67,1790597153.1713815,0.08775351562500025,-0.03942202148437509,0.28256440429687507,0.2984919058502417,-0.028824108996188213,-0.020394447429303367,0.03953704097967535,0.05300887052936786
68,1790597153.196262,0.23624472656250026,-0.02026186523437509,0.3208847167968751,0.3989851068463298,-0.028526980054572326,-0.02219004580783354,0.04365897272421644,0.05667709081561609
69,1790597153.2162619,0.26498496093750024,0.14259946289062492,0.4118954589843751,0.5101073470081491,-0.027572117586527764,-0.023233414234138768,0.0475745253902702,0.059693790893943555
70,1790597153.241339,0.22187460937500025,0.2623504394531249,0.555596630859375,0.6532562373133879,-0.025638769086097725,-0.02358379047918953,0.05356727764814817,0.06389831678730157
71,1790597153.261339,0.10212363281250024,0.21445004882812493,0.6897177246093751,0.7294714521223852,-0.023842138692978514,-0.023106113483746128,0.05949778543928219,0.06813462064147593
72,1790597153.2708945,0.09254355468750024,0.10906918945312492,0.6274472167968751,0.6435451868115438,-0.022972992885004304,-0.022680266898696767,0.06285020900828092,0.07065622181432556
73,1790597153.2908945,0.15002402343750024,0.08990903320312492,0.637027294921875,0.6606017077902371,-0.021062875978423976,-0.021624191584714857,0.07071109454481442,0.07688503949339304
74,1790597153.3158698,0.23624472656250026,0.15217954101562492,0.617867138671875,0.678770936754725,-0.018311841651595762,-0.020049751512439512,0.08140564372068115,0.08581488746110527
75,1790597153.3358698,0.15481406250000024,0.20966000976562493,0.5316464355468751,0.5920917547748605,-0.015852702375839405,-0.018435315651766343,0.09040939111472465,0.09362172310704636
76,1790597153.3610723,0.08775351562500025,0.19049985351562493,0.541226513671875,0.5804455295679639,-0.012760200648489968,-0.015949703233875942,0.1020813073575407,0.1041047984756857
77,1790597153.3810723,0.04464316406250024,0.18570981445312493,0.6657675292968751,0.6926236715185172,-0.010475604324456692,-0.013708756021643391,0.11176491589328183,0.11308874701868386
78,1790597153.3911293,0.01590292968750024,0.16654965820312492,0.6226571777343751,0.6447430905441024,-0.00945344991066062,-0.01248522667982437,0.11687572458255673,0.11792024252501189
79,1790597153.4111292,-0.027207421874999763,0.2431902832031249,0.42626557617187505,0.49151205384877483,-0.007742589592745472,-0.009802402593702481,0.1270882543148175,0.12770066239060174
80,1790597153.435713,-0.10863808593749977,0.4012615722656249,0.18676362304687505,0.45573428002163735,-0.006205530229192562,-0.00581112111507561,0.13888873497489335,0.13914869182628223
81,1790597153.455713,-0.2810794921874998,0.46832211914062494,-0.25871000976562497,0.6043692227088323,-0.005727212316472562,-0.0017467310875813715,0.14694097971289416,0.14706292377548955
82,1790597153.4808905,-0.29544960937499976,0.32941098632812493,-0.44073149414062496,0.6245368840356315,-0.006304057358497577,0.004108712668552499,0.15423647180474248,0.15441992065063068
83,1790597153.5008905,-0.27628945312499975,0.06595883789062491,-0.316190478515625,0.4250445257945726,-0.007551154345898503,0.008655397373645391,0.15802704968474401,0.158443946768931
84,1790597153.5108252,-0.34334999999999977,-0.11127260742187509,-0.34014067382812496,0.4959500918990876,-0.008539401363705389,0.010541351737153058,0.15913848897344027,0.15971568534382152
85,1790597153.5308251,-0.18048867187499976,-0.2118634277343751,-0.555692431640625,0.6214952544221322,-0.011016225744851055,0.013283852845044346,0.15969661169385538,0.1606263545081203
86,1790597153.5563908,-0.06552773437499976,-0.1927032714843751,-0.594012744140625,0.627916853583798,-0.014179111896981511,0.015487965164757608,0.15809856460343077,0.1594869286455697
87,1790597153.5763907,-0.08947792968749976,-0.2118634277343751,-0.670653369140625,0.7089910813629403,-0.016514796405544475,0.016346750695541045,0.15513893820697358,0.15686951554271444
88,1790597153.600807,0.09254355468750024,-0.4992657714843751,-0.598802783203125,0.7851085232386,-0.018932898671416953,0.015935672818934498,0.14974311602716064,0.15177417803374185
89,1790597153.620807,0.15481406250000024,-0.9255792480468751,-0.651493212890625,1.1424131235263897,-0.020245485988772953,0.013512191009568608,0.14411078869948005,0.14615190189794608
90,1790597153.6315937,0.03985312500000024,-1.5626544433593752,-0.694603564453125,1.7105412279959962,-0.020689738915985554,0.01038817360873467,0.14043971158149698,0.1423351398510955
91,1790597153.6515937,0.20750449218750025,-2.0895587402343754,-0.680233447265625,2.2072678555052483,-0.02101884675348202,-1.3601480403092545e-05,0.13259182978204231,0.13424747829585745
92,1790597153.676423,0.6194478515625003,-2.161409326171875,-0.546112353515625,2.313794420152865,-0.019826183768869292,-0.018906244512577143,0.12202664650609714,0.12506408797864524
93,1790597153.696423,0.5332271484375003,-1.9698077636718752,-0.531742236328125,2.1088441439679744,-0.017280590097614144,-0.038038325855259514,0.11317618215826926,0.12064154025838036
94,1790597153.720841,0.6194478515625003,-1.6584552246093751,-0.632333056640625,1.8799027813586546,-0.012527932102898489,-0.06453743533858416,0.10185969889036264,0.1212329489078448
95,1790597153.740841,1.0792916015625003,-1.8308966308593753,-0.589222705078125,2.2055013557636145,-0.006670974702373015,-0.08822041779864497,0.09214871192083286,0.12774478121910038
96,1790597153.7509007,1.0313912109375003,-1.9171173339843752,-0.555692431640625,2.246753386743893,-0.0025743877872580114,-0.10117374878658551,0.08713302001305777,0.1335474376115327
97,1790597153.7709007,1.1415621093750004,-2.0895587402343754,-0.445521533203125,2.4223767698271534,0.00760780882614065,-0.1290734252415468,0.07715524700538064,0.1505681241139092
98,1790597153.796249,1.0888716796875002,-2.1661993652343754,-0.373670947265625,2.4530982861674495,0.022817387453866748,-0.16722039874450473,0.06484882430489264,0.1808000689718283
99,1790597153.816249,1.1511421875000003,-1.9602276855468752,-0.43115141601562496,2.3137658607903746,0.03637784247245572,-0.19899363606623338,0.05538818149671861,0.2097371337348844
100,1790597153.8563583,1.1990425781250003,-1.8069464355468752,-0.373670947265625,2.2005427743905805,0.06656352192277218,-0.2644883462973218,0.036840017285375184,0.2752125990056453
101,1790597153.8763583,1.1032417968750003,-1.6440851074218752,-0.316190478515625,2.0050273617889403,0.08281085666125904,-0.2974241950637403,0.027943764170080147,0.30999942539669084
102,1790597153.8859205,1.1463521484375003,-1.6440851074218752,-0.297030322265625,2.02617030405119,0.09102705058733561,-0.3131673721023371,0.023888577906059576,0.3270021269693622
103,1790597153.9059205,1.0026509765625002,-1.586604638671875,-0.23954985351562497,1.8920907463904062,0.10885748109413271,-0.34600196585940163,0.015874309758811527,0.3630692844059501
104,1790597153.9165125,0.8062593750000003,-1.5578644042968752,-0.21080961914062496,1.766758720785853,0.11832101925066421,-0.36328074045386377,0.011908843870816702,0.38224936957902633
105,1790597153.9365125,0.6960884765625003,-1.6105548339843752,-0.12937895507812497,1.7593080897019282,0.13576338341876826,-0.3957655529746207,0.005034044979716536,0.41843447612198087
106,1790597153.9608777,0.5667574218750002,-1.620134912109375,-0.04794829101562496,1.7170760458690724,0.1561330358697715,-0.43530799913762597,-0.002409002402716071,0.46246770946271587
107,1790597153.9808776,0.6625582031250002,-1.6345050292968752,-0.13416899414062497,1.768782457600062,0.17218924264514618,-0.467779356938144,-0.007875312291900619,0.4985265114353173
108,1790597154.0059335,0.6673482421875002,-1.821316552734375,-0.15332915039062497,1.945779404242548,0.1917862629151113,-0.5088514813318743,-0.014236519314878817,0.5439802194738242
109,1790597154.0259335,0.45179648437500025,-1.9937579589843752,-0.15811918945312498,2.0504127731704327,0.20676121689990784,-0.5424408119678551,-0.019019660058748212,0.5808218167140651
110,1790597154.0361116,0.35120566406250026,-2.113508935546875,-0.20601958007812496,2.1523729942743737,0.21385189783959205,-0.5601058315287956,-0.021366667193096364,0.5999230877280015
111,1790597154.0561116,0.4661666015625003,-2.1422491699218753,-0.364090869140625,2.2224097208739146,0.22692118608564424,-0.5959945142799428,-0.026141927727203945,0.6382680362759793
112,1790597154.0807855,0.5236470703125002,-2.1422491699218753,-0.392831103515625,2.240034382809142,0.24245790405186332,-0.6415576031949195,-0.032550191634666326,0.6866159832321745
113,1790597154.1007855,0.5140669921875003,-1.8835870605468752,-0.325770556640625,1.9794674896775304,0.2547190456470159,-0.6789886552429519,-0.03804329342759449,0.7261919018680785
114,1790597154.126219,0.22187460937500025,-1.6776153808593752,-0.28266020507812495,1.7156685285672355,0.2693762584931481,-0.7262419201029975,-0.04514152382231374,0.7759050536809619
115,1790597154.146219,-0.20443886718749976,-1.6105548339843752,-0.25391997070312494,1.6432155899970102,0.2791994115311203,-0.7627586346088044,-0.05069090784517141,0.8138320552839998
116,1790597154.1552448,-0.28586953124999975,-1.6153448730468751,-0.28266020507812495,1.6646192475490387,0.28263563995860347,-0.778950078055921,-0.053182867419161346,0.83034604019352
117,1790597154.1752448,-0.21401894531249976,-1.3518927246093753,-0.09584868164062496,1.3720805433999423,0.28835789341696605,-0.8138972746421648,-0.05844419923596744,0.8654448409864993
118,1790597154.2008343,0.00632285156250024,-0.8824688964843751,0.03827241210937504,0.8833210680397598,0.29418253690227775,-0.8561924243011374,-0.06427667920862362,0.9076014124818268
119,1790597154.2208343,-0.10863808593749977,-0.41783510742187513,-0.019208056640624957,0.43215432446097657,0.29789858005375897,-0.8862410363305147,-0.06812280461397804,0.9374473078433286
120,1790597154.24617,-0.3193998046874998,0.022848486328124914,0.009532177734375044,0.3203578483106965,0.3010865606303193,-0.9193470891569537,-0.07228259089449547,0.9700912123506633
121,1790597154.26617,-0.42478066406249976,0.21924008789062494,0.22029389648437506,0.5263404122124158,0.30210938437861745,-0.9411976862947777,-0.07472901445114498,0.9913160900626548
122,1790597154.2755432,-0.3673001953124998,0.33899106445312494,0.23945405273437506,0.5542225352929815,0.30196001312599174,-0.9495096787798709,-0.07538037607158994,0.9992150322730323
123,1790597154.2955432,-0.25712929687499975,0.40605161132812495,0.29693452148437505,0.5649455694336873,0.300752457806525,-0.9634674282236033,-0.0757571569210207,1.012156446874309
124,1790597154.3204725,-0.19006874999999976,0.798834814453125,0.4693759277343751,0.945820782202118,0.29863693365977906,-0.9760028309072545,-0.07472358671071168,1.0234007809727346
125,1790597154.3404725,-0.3912503906249998,1.383219580078125,0.6609774902343751,1.5821708243651358,0.29632232009610854,-0.9812779976822004,-0.07232323747348542,1.0275913958383338
126,1790597154.3654587,-0.4104105468749998,1.546080908203125,0.7136679199218751,1.751606374623606,0.2923621031893102,-0.9813903675497357,-0.06719822063581127,1.026215500641703
127,1790597154.3854587,-0.24754921874999977,1.536500830078125,0.6466073730468751,1.6852941913544601,0.2886807394617947,-0.9768429527861605,-0.06167088609188149,1.0204714704172535
128,1790597154.3955042,-0.16611855468749978,1.646671728515625,0.6897177246093751,1.7929957321043555,0.2867973717435005,-0.9725032518275144,-0.05830426462256278,1.0155858873218195
129,1790597154.4155042,-0.22359902343749977,1.732892431640625,0.675347607421875,1.8732343937078488,0.2830255847325387,-0.9600898621134253,-0.05055935649464067,1.002213686533627
130,1790597154.44048,-0.25712929687499975,1.661041845703125,0.4789560058593751,1.7477340598721083,0.2781214479999865,-0.9405559416130437,-0.040176134890763056,0.981636970043391
131,1790597154.46048,-0.29544960937499976,1.479020361328125,0.4310556152343751,1.5686301808674035,0.2739545362917979,-0.9225499166491518,-0.031743686935105056,0.9628899720759609
132,1790597154.4854603,-0.3098197265624998,1.316159033203125,0.4693759277343751,1.4312849559699676,0.2683966899362435,-0.8981967344924224,-0.021104280934289107,0.9376777419216779
133,1790597154.5054603,-0.28586953124999975,1.153297705078125,0.4118954589843751,1.2575670378025632,0.2637208455251465,-0.8779193495519033,-0.01254188234449776,0.9167597108811438
134,1790597154.5312066,-0.19006874999999976,0.976066259765625,0.20113374023437505,1.014537458470651,0.25768541429136355,-0.8516196641094392,-0.0019889837067571126,0.8897537755427462
135,1790597154.5512066,-0.09905800781249977,0.8275750488281249,0.03348237304687505,0.8341546737023684,0.2532666062513425,-0.831548857641145,0.0053308845922683664,0.8692789510950452
136,1790597154.5607522,-0.14695839843749978,0.6503436035156249,0.09575288085937504,0.6735816117575308,0.25129782637068393,-0.8223483270905662,0.008392980918402604,0.8599289567958389
137,1790597154.5807521,-0.19485878906249976,0.47790219726562494,0.17718354492187505,0.5456688248537735,0.2472788416506633,-0.8042704578453346,0.01425576480427053,0.841546803048406
138,1790597154.605905,-0.22838906249999977,0.43479184570312496,0.23466401367187506,0.5443093902112591,0.2421841022138883,-0.7832234430407845,0.02130001960030336,0.8200888926993106
139,1790597154.625905,-0.21880898437499977,0.540172705078125,0.37836518554687504,0.6948554789224584,0.23806994882698243,-0.767536053284622,0.02698052901615303,0.8040627105967593
140,1790597154.6504786,-0.2810794921874998,0.3725213378906249,0.36878510742187504,0.5947943203901394,0.23285191651525303,-0.7494703856229805,0.03429013611856579,0.7855582011447116
141,1790597154.6704786,-0.4104105468749998,0.2527703613281249,0.16760346679687504,0.5103142116721016,0.2282048494240188,-0.7360346260748032,0.04015150198058444,0.7716453636179066
142,1790597154.681038,-0.4870511718749998,0.19528989257812493,0.047852490234375045,0.5269220502025106,0.22540863399502964,-0.7296501985907718,0.04295254634358336,0.764881288711167
143,1790597154.701038,-0.4966312499999998,0.2815105957031249,0.13407319335937504,0.5864012577981659,0.21943134319581803,-0.718656385987942,0.047734977527270135,0.7529247927764763
144,1790597154.725972,-0.5684818359374998,0.24798032226562491,0.23466401367187506,0.6631236968578543,0.21110539941703943,-0.7060160850584893,0.05349247012300838,0.7388407449404808
145,1790597154.745972,-0.6403324218749998,0.41563168945312495,0.3017245605468751,0.820861146735041,0.20361556926765068,-0.6964025381080875,0.05822249823784466,0.7278912380518339
146,1790597154.7712352,-0.6594925781249998,0.7700945800781249,0.28735444335937504,1.0538257441275758,0.1931109598823681,-0.6838339000351005,0.06441724644450607,0.713491574794964
147,1790597154.7912352,-0.6068021484374998,0.885055517578125,0.20592377929687505,1.0926741140082694,0.1841428420265425,-0.6728935900327754,0.06932568339951833,0.7010709095060351
148,1790597154.8008995,-0.5972220703124997,0.9329559082031249,0.11970307617187505,1.1141856911504813,0.17958663632550456,-0.6670823082891011,0.07157776212747793,0.6945311670545837
149,1790597154.8208995,-0.5493216796874998,1.0574969238281249,0.09096284179687505,1.1951268929567298,0.1698522277749232,-0.6538742955544522,0.07585528024784904,0.6798201212147337
150,1790597154.846158,-0.48226113281249977,1.316159033203125,0.06701264648437505,1.403332140190846,0.15744822630613237,-0.6351990074046627,0.08074641626375109,0.6593843391484626
151,1790597154.866158,-0.45352089843749976,1.397589697265625,-0.014418017578124958,1.4694032960536947,0.14769617758850917,-0.6185591905312204,0.08411723352931208,0.6414868214090761
152,1790597154.8912365,-0.5062113281249998,1.325739111328125,-0.03357817382812496,1.4194934285810537,0.13549691522825105,-0.59570154651257,0.08761970565218778,0.6171685016042341
153,1790597154.9112365,-0.43436074218749976,1.330529150390625,-0.10063872070312496,1.403248098697317,0.12581654584790325,-0.5762226393091852,0.0897926008910748,0.5965945393953289
154,1790597154.9207966,-0.30502968749999976,1.392799658203125,-0.16290922851562498,1.4350865530979813,0.12135321457136478,-0.566355613351055,0.09048649304126886,0.586236376288576
155,1790597154.9407966,-0.3098197265624998,1.507760595703125,-0.23954985351562497,1.557791516616284,0.11249415255371785,-0.5444590257454679,0.0911166984892434,0.5633762666442942
156,1790597154.9660378,-0.36251015624999977,1.479020361328125,-0.325770556640625,1.5572544102302357,0.10171782196270962,-0.5153152451908467,0.09072255123401135,0.5330355509094565
157,1790597154.9860377,-0.3673001953124998,1.364059423828125,-0.36888090820312497,1.4600139278951003,0.09336521538854138,-0.49142220294664984,0.08941511563105774,0.5081416218898058
158,1790597155.0106132,-0.3289798828124998,1.220358251953125,-0.455101611328125,1.343361270484924,0.08335790816898656,-0.461703414374488,0.08653082139305818,0.47708088072184013
159,1790597155.0306132,-0.4104105468749998,1.047916845703125,-0.627543017578125,1.288556080039081,0.07532630907934702,-0.43774315255722707,0.08291165706480702,0.4518489386149859
160,1790597155.0403357,-0.5253714843749998,0.9090057128906249,-0.776034228515625,1.3055786864413899,0.07132525024980715,-0.4264156832236342,0.08039273078723103,0.43975063090995625
161,1790597155.0603356,-0.4199906249999998,0.616813330078125,-0.689813525390625,1.0162152867684087,0.06291125714383758,-0.40432059379619484,0.07378955574401104,0.41578584316932216
162,1790597155.0853386,-0.5110013671874998,0.5305926269531249,-0.646703173828125,0.9802427903758753,0.05222450733891999,-0.3786901221327852,0.06426658074658,0.3876387508603769
163,1790597155.1053386,-0.5205814453124998,0.38689145507812495,-0.675443408203125,0.9364367767773611,0.04341101091878448,-0.3598872540108408,0.05580851162976574,0.3667668761472115
164,1790597155.1305888,-0.4008304687499998,0.2815105957031249,-0.756874072265625,0.901538485833757,0.03220800757685457,-0.33844345368913537,0.04401939459987399,0.3428104931270921
165,1790597155.1505888,-0.3289798828124998,0.18091977539062493,-0.756874072265625,0.8448775589934147,0.023570742859912078,-0.32331252477388905,0.033811616565619845,0.3259291242117145
166,1790597155.1758544,-0.3098197265624998,0.06595883789062491,-0.881415087890625,0.9366063145336903,0.013085629783057835,-0.3065972221925273,0.01974613751388144,0.3075109759174627
167,1790597155.1958544,-0.2810794921874998,-0.1783331542968751,-1.135287158203125,1.1830829752941183,0.005144389317015521,-0.29551891743337316,0.007257150712761411,0.29565277191141903
168,1790597155.205398,-0.6403324218749998,-0.2118634277343751,-0.42157133789062495,0.795382999218963,0.0012638529829061213,-0.2913047852075694,0.0010771856563254155,0.29130951844752473
169,1790597155.225398,0.05422324218750024,-0.9303692871093752,-0.45031157226562496,1.0350399424689225,-0.0065276552549577115,-0.28551155762500546,-0.011238923114960851,0.2858072308626365
170,1790597155.2511892,0.14044394531250023,-1.2081915527343752,-0.46947172851562496,1.3037848878358307,-0.014691575569193094,-0.2832981506948239,-0.026518097831367847,0.28491559117115095
171,1790597155.2711892,0.15481406250000024,-1.2081915527343752,0.17239350585937505,1.2302088208547932,-0.01962985325434103,-0.2854637774384111,-0.037034825917732356,0.28852465700343605
172,1790597155.295832,0.19792441406250025,-0.4848956542968751,1.044180615234375,1.168165667390211,-0.024149858197077274,-0.29086104173776595,-0.04580068764128149,0.295433688397467
173,1790597155.315832,-0.08947792968749976,0.5305926269531249,1.2645224121093752,1.374245890081208,-0.02710535312445788,-0.29451584579667467,-0.04838484192017062,0.2996921362347903
174,1790597155.3253827,0.07338339843750025,0.6120232910156249,0.5508065917968751,0.826647163836375,-0.028316546183135963,-0.2951808985506149,-0.04813343582136115,0.30041707225265873
175,1790597155.3453827,0.04464316406250024,0.20966000976562493,0.07180268554687505,0.2260662678158258,-0.03029537210103065,-0.29513213680136824,-0.046752031989833784,0.3003440364629534
176,1790597155.3712873,-0.07031777343749976,-0.1831231933593751,0.06222260742187505,0.2057919971274865,-0.032523840225420854,-0.2950268955753952,-0.04497078602383432,0.3002016670364529
177,1790597155.3912873,-0.2810794921874998,-0.3268243652343751,-0.009627978515624957,0.43117576997035945,-0.03451337244259392,-0.2957227514113183,-0.043722947801864503,0.30092327052610296
178,1790597155.4161747,-0.8031937499999998,-0.1448028808593751,-0.29224028320312495,0.8668866462640195,-0.03864157445588373,-0.29733908213894766,-0.042966546004101325,0.3029023359421053
179,1790597155.4361746,-1.2726175781249998,-0.0969024902343751,-0.589222705078125,1.4057485511093177,-0.044575172570890394,-0.298805719856582,-0.04377205777684638,0.3052667641109238
180,1790597155.4460125,-1.32051796875,-0.2070733886718751,-0.685023486328125,1.5019668008677216,-0.04896938644694991,-0.29964322085097267,-0.045049039789527616,0.3069421388419875
181,1790597155.4660125,-1.0905960937499999,-0.1879132324218751,-0.7233437988281249,1.3220958641207146,-0.060179323398847885,-0.30168291484456183,-0.049368233303027476,0.3115627617885623
182,1790597155.4898992,-0.7744535156249998,-0.2693438964843751,-0.752084033203125,1.112634160645981,-0.07490072037728611,-0.30457275799916944,-0.056396243814505254,0.3186772962491087
183,1790597155.5098991,-0.7984037109374998,-0.1256427246093751,-0.680233447265625,1.056386351040619,-0.08773711939906031,-0.307221918559506,-0.0635465039915813,0.32576259382160616
184,1790597155.5363219,-0.7505033203124998,0.20007993164062493,-0.665863330078125,1.023064605578814,-0.10522145552665171,-0.3100493271000438,-0.07424358093080934,0.33572942862931565
185,1790597155.5563219,-0.5636917968749998,0.40605161132812495,-0.536532275390625,0.8777774407343664,-0.1184418991971675,-0.3109592418090579,-0.08292950735125662,0.34293065879477475
186,1790597155.565465,-0.6068021484374998,0.525802587890625,-0.12937895507812497,0.8132749367821139,-0.12438178212666638,-0.3106738152467128,-0.08676134593681235,0.3457116983177187
187,1790597155.585465,-0.6068021484374998,0.48748227539062494,-0.03836821289062496,0.7793073436897711,-0.13724633574488082,-0.3086231898076392,-0.09413758429671744,0.35063758318192334
188,1790597155.6109538,-0.6307523437499998,0.597653173828125,0.09096284179687505,0.8736773282629647,-0.15354800309934713,-0.3043273794253481,-0.10202755264848555,0.35581141721863896
189,1790597155.6309538,-0.48226113281249977,1.263468603515625,0.5076962402343751,1.4445359755435099,-0.1660900421839258,-0.2986705761636579,-0.10639183900895495,0.35792350940710366
190,1790597155.655333,-0.6115921874999998,2.096935400390625,1.2309921386718752,2.5072943031671375,-0.18108513994744083,-0.2866651428185104,-0.10773466580914152,0.3557744935123211
191,1790597155.675333,-0.6115921874999998,2.283746923828125,1.288472607421875,2.6925279341135875,-0.1933761996521138,-0.271722574223279,-0.10489184362058943,0.3496138023484567
192,1790597155.6853974,-0.36251015624999977,1.364059423828125,0.9579599121093751,1.7058015471699273,-0.19936880559767223,-0.2625776381833289,-0.10198019813319552,0.34510128590120237
193,1790597155.7053974,-0.4583109374999998,0.841945166015625,0.5124862792968751,1.0869971317702554,-0.21072230600456582,-0.24382167998645626,-0.09485639318746043,0.33593248906265955
194,1790597155.7310536,-0.6786527343749998,0.7509344238281249,0.14844331054687504,1.022989471700886,-0.22528981986912588,-0.2203053152042324,-0.08581689195147522,0.3265799653807786
195,1790597155.7510536,-0.8319339843749998,0.722194189453125,0.023902294921875046,1.1019300891347195,-0.23720822912948686,-0.2025135250541843,-0.07956874029311733,0.32188609200841906
196,1790597155.776153,-0.8702542968749998,0.544962744140625,0.13407319335937504,1.035520427084015,-0.25312626676711536,-0.18114910393164493,-0.07260626358113745,0.31962411406824165
197,1790597155.796153,-0.7457132812499998,0.48748227539062494,0.38315522460937507,0.969811936819775,-0.26633155450209733,-0.16513024594631087,-0.06711471356545123,0.32047602067356823
198,1790597155.805325,-0.5732718749999998,0.3916814941406249,0.4981161621093751,0.8545026310508476,-0.27238641791369583,-0.1582811800279182,-0.06436783498487036,0.32154394846665096
199,1790597155.825325,-0.5301615234374998,0.2527703613281249,0.4406356933593751,0.7342505776380558,-0.2852640912918213,-0.1446199455350604,-0.05786844371173135,0.3250219795717364
200,1790597155.8505788,-0.5828519531249998,0.14738950195312492,0.37836518554687504,0.7103522212125042,-0.3011936067434351,-0.12919961285876108,-0.04934152102362481,0.33142829451164485
201,1790597155.8705788,-0.5876419921874998,0.08990903320312492,0.39273530273437507,0.7124940443593023,-0.3136725558319599,-0.11846322013527993,-0.04244483607467425,0.3379727369424637
202,1790597155.9111803,-0.4583109374999998,0.06595883789062491,0.4406356933593751,0.6391864344542268,-0.33839083797932634,-0.09946224095270483,-0.028006449615344358,0.3538155703523256
203,1790597155.9311802,-0.4056205078124998,0.09469907226562492,0.40231538085937507,0.579097208007485,-0.35003636334143146,-0.09126547922845893,-0.02069662232755587,0.3623302271904241
204,1790597155.9412293,-0.4104105468749998,0.003688330078124913,0.27777436523437504,0.4955895668255755,-0.35562504859758876,-0.0876905930325764,-0.01706211553433117,0.3666741483701151
205,1790597155.9612293,-0.5397416015624998,-0.2837140136718751,0.19634370117187505,0.6405977575678266,-0.36650460613764846,-0.08206302699326379,-0.010202475298201171,0.3757180554905771
206,1790597155.9708416,-0.6211722656249998,-0.8010382324218751,0.17239350585937505,1.0282201876279924,-0.37178609807625357,-0.08054605489888327,-0.00713431560781971,0.38047794698475174
207,1790597155.9908416,-0.6068021484374998,-1.1938214355468753,0.14844331054687504,1.3473878000656248,-0.3829687020324775,-0.08085548287854497,-0.0012268312809626996,0.39141300561293974
208,1790597156.0159073,-0.6642826171874998,-0.8968390136718751,0.19634370117187505,1.1332000974811496,-0.39727097937677147,-0.08511539777622479,0.005714535630986797,0.40632686092733517
209,1790597156.0359073,-0.6786527343749998,-0.3651446777343751,0.47416596679687506,0.9048389545221956,-0.4089854433720183,-0.0898975227540048,0.011428059620625236,0.4189048317150397
210,1790597156.0608351,-0.5876419921874998,0.23361020507812494,0.35441499023437506,0.7249184948679191,-0.4237636053284488,-0.09520978792344485,0.01903027184484954,0.4347443480528316
211,1790597156.080835,-0.6882328124999998,0.3342010253906249,0.13886323242187504,0.7775845464593909,-0.43575564018352775,-0.09798086347914765,0.02495464926842199,0.4473320490195012
212,1790597156.0903845,-0.7457132812499998,0.008478369140624914,0.30651459960937505,0.8062948470315444,-0.44164959279090665,-0.09886007358331513,0.02767803311728146,0.4534244705334214
213,1790597156.1103845,-0.8415140624999998,-0.1304327636718751,0.4406356933593751,0.9588109498157779,-0.4545229562447256,-0.10060819127829855,0.03364697637074807,0.4667389472977685
214,1790597156.136151,-0.9564749999999999,0.18091977539062493,0.44542573242187505,1.0705047752606982,-0.47209495141938795,-0.10242495758830865,0.04189576879516928,0.4848915038805891
215,1790597156.156151,-0.9421048828124998,0.616813330078125,0.718457958984375,1.3357402940726217,-0.4865362574915007,-0.10242700322734492,0.049083881408437516,0.49961790225940456
216,1790597156.181278,-0.9852152343749998,1.201198095703125,1.1974618652343751,1.9614894447475337,-0.5055901397848355,-0.09900310876646966,0.060370625401832884,0.5187172808037952
217,1790597156.201278,-0.8510941406249998,1.531710791015625,0.8429989746093751,1.9445170235079907,-0.5212357756634939,-0.09258726496276494,0.07106752055202757,0.5341439206264752
218,1790597156.2256994,-0.8894144531249998,1.110187353515625,0.17718354492187505,1.433515970585871,-0.5406625120438069,-0.08108925434945102,0.08403854004349542,0.5531309929059407
219,1790597156.2456994,-1.0331156249999998,0.3533611816406249,-0.09584868164062496,1.0960743538108375,-0.5570694226738101,-0.0708900695702614,0.09318978044000947,0.5692416699612439
220,1790597156.27136,-1.1145462890624998,-0.1016925292968751,-0.09584868164062496,1.1232727944493408,-0.5790956133941032,-0.05928276880104573,0.10280094642692121,0.5911296056832898
221,1790597156.29136,-1.1241263671875,-0.2070733886718751,-0.32098051757812496,1.1872522774738905,-0.5970458784352215,-0.05205612900761554,0.10854306050576133,0.6090609308662805
222,1790597156.3009186,-1.1432865234374998,-0.3747247558593751,-0.608382861328125,1.3482034057535492,-0.6059635794639966,-0.04953744015894022,0.11020949960670517,0.6178931553415042
223,1790597156.3209186,-1.1097562499999998,-0.6285968261718751,-0.608382861328125,1.413089738921493,-0.625203155571878,-0.0465629657728195,0.11134809300721987,0.6367460194888847
224,1790597156.3305993,-1.0953861328124999,-0.8345685058593751,-0.22038969726562496,1.3946135628162761,-0.6347199934223509,-0.04640151139959331,0.11121481160334369,0.6460582826883368
225,1790597156.3505993,-1.1959769531249997,-0.9016290527343751,0.22508393554687506,1.5145819882667673,-0.6548691823681569,-0.048722281529087454,0.1109878026814486,0.6659923416053628
226,1790597156.376173,-1.1097562499999998,-0.9207892089843751,0.4693759277343751,1.5164845740503392,-0.6811914901224104,-0.05474014330692703,0.1120730648867569,0.6925162101911868
227,1790597156.396173,-1.004375390625,-0.8680987792968752,0.4597958496093751,1.4049119684976183,-0.7018602806027665,-0.06142381021663334,0.11418824275877815,0.7137364308578208
228,1790597156.4207542,-0.5972220703124997,-0.6669171386718751,0.4502157714843751,1.0020713108436448,-0.726405690274619,-0.0712361879506007,0.11807566066784904,0.739379255172356
229,1790597156.4407542,-0.33376992187499976,-0.2549737792968751,0.6705575683593751,0.7912404447204484,-0.74477741286842,-0.07940511577997206,0.12244529879725066,0.7589409847468745
230,1790597156.451291,-0.4678910156249998,0.09469907226562492,0.7663583496093751,0.9028815186980897,-0.7536381476161149,-0.08318997739560846,0.12553765498550137,0.7685380489608759
231,1790597156.471291,-0.6499124999999998,0.10427915039062492,0.7471981933593751,0.9957738392938199,-0.769610537585088,-0.08899791075956677,0.13279711723150134,0.7860382191894827
232,1790597156.4958625,-0.8606742187499998,0.28630063476562495,1.365113232421875,1.6389820931362926,-0.7890740799142016,-0.09434327350438002,0.14427076079667828,0.8076834833453129
233,1790597156.5158625,-0.9564749999999999,1.119767431640625,1.657305615234375,2.217066852594985,-0.8052658491250883,-0.09593241652047234,0.156742540716731,0.8259687284497779
234,1790597156.5414238,-0.8319339843749998,1.570031103515625,0.9579599121093751,2.018613141137537,-0.8262844606729801,-0.0925021815895822,0.17530507998369713,0.8497261527201339
235,1790597156.5614238,-0.8223539062499998,0.956906103515625,0.10054291992187504,1.2657188142776838,-0.8427446626777949,-0.08643044536127001,0.1892381540771527,0.8680437012707286
236,1790597156.585676,-0.9612650390624998,0.21445004882812493,-0.297030322265625,1.0287109949404816,-0.8629547450690921,-0.07804159946255812,0.2032418374258891,0.8899936110805445
237,1790597156.605676,-1.0187455078124998,-0.3172442871093751,-0.42157133789062495,1.147261408887519,-0.8800913659919646,-0.07231548357803047,0.21198006079707188,0.9081441999122479
238,1790597156.6162758,-1.12891640625,-0.5184259277343751,-0.7233437988281249,1.4375131116448174,-0.8895186803249291,-0.07040025054487885,0.2150063842795483,0.9178384515832565
239,1790597156.6362758,-1.1193363281249997,-0.6285968261718751,-1.010746142578125,1.6339080604704388,-0.9080105311561286,-0.0690491428161431,0.21725885282657972,0.9361903214334146
240,1790597156.6606803,-1.0666458984374998,-0.7243976074218751,-1.025116259765625,1.6472245482410532,-0.9311912450344706,-0.07012422194940107,0.21586877895552492,0.9584538961580811
241,1790597156.6806803,-1.0810160156249997,-0.8441485839843751,-0.426361376953125,1.4363030605126272,-0.9505602217397064,-0.07322592991635463,0.21272325101451997,0.9768203281505464
242,1790597156.7061677,-1.0953861328124999,-0.8010382324218751,0.37357514648437506,1.4075124936675725,-0.9757013332060388,-0.07973061910528409,0.20921505934846177,1.0010599404137266
243,1790597156.7261677,-0.9325248046874998,-0.5423761230468751,0.49332612304687506,1.186231441957799,-0.9955121924737667,-0.08608433391331966,0.20817546369560733,1.020682155028737
244,1790597156.735708,-0.8798343749999998,-0.3555645996093751,0.38794526367187504,1.0252005850234656,-1.0048415683967846,-0.08930303439925054,0.20838451591316492,1.0300998572970428
245,1790597156.755708,-0.7361332031249997,-0.4513653808593751,0.46458588867187506,0.9805421193066807,-1.0238896190236364,-0.09624886049398615,0.2100358235094355,1.0496327177865812
246,1790597156.7807603,-0.5876419921874998,-0.6142267089843751,0.6130770996093751,1.0480749453532956,-1.0466578104223807,-0.10564641495046956,0.2138188565517917,1.0734860225113203
247,1790597156.8007603,-0.6307523437499998,-0.6573370605468751,0.49332612304687506,1.0360073329832105,-1.0639354285256595,-0.11393074675808668,0.2180455485410498,1.0920085495853507
248,1790597156.826258,-0.7984037109374998,-0.6525470214843752,0.26819428710937504,1.0654549622227145,-1.0853913694527362,-0.12541300619024492,0.22408208768306118,1.1153544858136177
249,1790597156.846258,-0.9612650390624998,-0.5184259277343751,0.2921444824218751,1.130550448445633,-1.1023361213720948,-0.13482499428184244,0.22894731759501608,1.1339045717337617
250,1790597156.8561692,-0.9133646484374998,-0.3795147949218751,0.38315522460937507,1.0606952374388277,-1.1108672704835343,-0.13945709356761352,0.23149868358925,1.143269878060915
251,1790597156.8761692,-0.9756351562499999,-0.0969024902343751,0.38794526367187504,1.0543982067179483,-1.1283335013222013,-0.14811675353955608,0.23703146813533563,1.1624366562404629
252,1790597156.9007485,-0.9947953124999999,0.11864926757812493,0.3400448730468751,1.0579819838514564,-1.150211470320064,-0.1571227243701646,0.24415314013083447,1.1862903239953926
253,1790597156.9207485,-1.0379056640624997,0.22882016601562494,0.45500581054687506,1.1561302363920145,-1.168392167109784,-0.16283039793189089,0.25027133839257076,1.2059393589542404
254,1790597156.945747,-1.0474857421875,0.31983090820312493,0.6130770996093751,1.2551421114732693,-1.1916178227847496,-0.16786576915170817,0.25877405048597074,1.2308923434793464
255,1790597156.9657469,-1.0139554687499999,0.3437811035156249,0.5124862792968751,1.186984973034624,-1.210504406590082,-0.17029461677927688,0.26624459660003336,1.2510824753375462
256,1790597156.9759278,-0.9900052734374998,0.2431902832031249,0.26819428710937504,1.0541252918493988,-1.2202066243786642,-0.17089736230660724,0.27007313838018615,1.2613681519268882
257,1790597156.9959278,-1.0618558593749998,0.14259946289062492,0.18676362304687505,1.0875445387657967,-1.2394850174516283,-0.17132513284591416,0.2771484109349196,1.2815953539692178
258,1790597157.0213773,-1.0762259765624997,0.07553891601562492,0.15323334960937504,1.089701307649592,-1.2644176172020116,-0.17137144808225113,0.2854500207258888,1.3075174179493865
259,1790597157.0413773,-1.0953861328124999,-0.03942202148437509,0.08617280273437505,1.0994774339052784,-1.284329722995827,-0.17134821083890572,0.29135450975944865,1.3280626856761697
260,1790597157.0659804,-0.9612650390624998,-0.3795147949218751,-0.023998095703124958,1.03374942006552,-1.308945500910767,-0.17209694991068786,0.2976431709061237,1.3533466450655398
261,1790597157.0859804,-0.9229447265624998,-0.6190167480468751,0.08617280273437505,1.114645438954986,-1.3287805370432393,-0.17411210081993123,0.30208169888034037,1.373763477486311
262,1790597157.0955927,-0.9516849609374998,-0.5902765136718752,0.23466401367187506,1.1442018295649714,-1.3382350924939592,-0.1758071471713027,0.3041262433916137,1.3835729426735415
263,1790597157.1155927,-0.8367240234374999,-0.6285968261718751,0.34483491210937506,1.1018857372161022,-1.3576386675900285,-0.18063324940765405,0.30861139396347864,1.4039416351869036
264,1790597157.141277,-0.8367240234374999,-0.6669171386718751,0.4118954589843751,1.1465354030223698,-1.382042950142051,-0.18839693921787726,0.31496503239174994,1.4299437381846687
265,1790597157.161277,-0.7505033203124998,-1.0117999511718752,0.43584565429687505,1.3330250595397548,-1.4005765161190011,-0.196053650046898,0.3204419944401506,1.4500809229148321
266,1790597157.185918,-0.7888236328124998,-1.0549103027343751,0.4789560058593751,1.4015981328638414,-1.422830497659755,-0.20789154400593868,0.3278683405634977,1.4748434384312599
267,1790597157.205918,-0.7888236328124998,-1.1267608886718752,0.44542573242187505,1.44576516316714,-1.4405501077132097,-0.21933107430685553,0.3343783879329104,1.4950249627701042
268,1790597157.2155259,-0.8798343749999998,-1.1602911621093752,0.40231538085937507,1.5107090302162058,-1.4489879923834708,-0.22565020940363983,0.3376475146496891,1.5048222696466516
269,1790597157.2355258,-0.9564749999999999,-1.1794513183593751,0.3400448730468751,1.5561427806246229,-1.4666724090137118,-0.24034086900356694,0.3445454320816301,1.525648466536047
270,1790597157.260634,-0.9133646484374998,-1.2369317871093752,0.3592050292968751,1.5790071184288939,-1.4890644744706583,-0.26056751067159317,0.35322292951423423,1.5524093772851237
271,1790597157.280634,-0.8415140624999998,-1.342312646484375,0.43584565429687505,1.6431404665051044,-1.5068578243201944,-0.2781312607146008,0.3602907925221191,1.5740987758326668
272,1790597157.3052714,-0.7600833984374998,-1.500383935546875,0.38315522460937507,1.7250178702763892,-1.5284485648831831,-0.30177490372166077,0.3692048606069678,1.6011044116813526
273,1790597157.3252714,-0.7505033203124998,-1.4764337402343752,0.31609467773437505,1.686128010678475,-1.5456121728819436,-0.3225543700685901,0.376404490608149,1.623157001389936
274,1790597157.3512018,-0.7169730468749997,-1.2369317871093752,0.27777436523437504,1.456437157548575,-1.567381130411005,-0.3507311406368267,0.3854937390925628,1.6517570535222346
275,1790597157.3712018,-0.7457132812499998,-1.069280419921875,0.28735444335937504,1.3349237769922742,-1.583846895173716,-0.37266315783205484,0.3923003464805628,1.6737229096853363
276,1790597157.3807623,-0.8271439453124998,-0.9495294433593752,0.28735444335937504,1.291644628445405,-1.5916651588159223,-0.3830222654730164,0.39547813442359014,1.6841932752637863
277,1790597157.4007623,-0.9612650390624998,-1.0165899902343751,0.32567475585937505,1.4365060842797082,-1.6082496758265792,-0.4043913043553454,0.40204820431506083,1.7063534526666742
278,1790597157.42568,-0.7600833984374998,-0.8393585449218751,0.40710541992187504,1.2033222188771522,-1.6290295554256047,-0.43048953177594157,0.4103753369219905,1.7342048456202195
279,1790597157.44568,-0.8942044921874998,-0.6621270996093751,0.4310556152343751,1.193240509415647,-1.645688015600029,-0.45054722081294063,0.4173137466054217,1.7565399528555223
280,1790597157.4715214,-1.1624466796875,-0.5567462402343751,0.517276318359375,1.3888208842997123,-1.667969415374177,-0.47493816421766605,0.4267719223641444,1.786007419965692
281,1790597157.4915214,-0.9708451171874998,-0.4753155761718751,0.4310556152343751,1.1637328224053394,-1.6858273152371999,-0.4925319978213613,0.43441654196643664,1.8092316705197937
282,1790597157.500576,-1.0762259765624997,-0.4992657714843751,0.38794526367187504,1.2482107958230595,-1.6940896189664592,-0.49996435534700184,0.43791455399873613,1.819800305064096
283,1790597157.520576,-0.9564749999999999,-0.7675079589843751,0.47416596679687506,1.3148179557633735,-1.712651013329961,-0.5158186489424749,0.4457751823985892,1.8433550621894519
284,1790597157.5457454,-1.0714359374999998,-0.7100274902343752,0.4693759277343751,1.3683668245728315,-1.7363342183304233,-0.5355671245720997,0.4559648183291498,1.8733906635353672
285,1790597157.5657454,-0.8942044921874998,-0.9399493652343751,0.48374604492187506,1.3845998407591869,-1.7552788675702187,-0.5513806705188884,0.4642768187118181,1.8975187775496754
286,1790597157.591235,-0.8846244140624998,-1.0980206542968751,0.41668549804687505,1.4703185081813162,-1.7792023706504592,-0.5724076299228993,0.4750026436325505,1.9284291747378426
287,1790597157.611235,-0.7936136718749998,-1.2465118652343752,0.3592050292968751,1.5207375656007087,-1.7976752391469075,-0.5899481215917342,0.48331994771254283,1.9527604111790984
288,1790597157.6214976,-0.7984037109374998,-1.308782373046875,0.27777436523437504,1.558049544660997,-1.8069578657484773,-0.5995655154081843,0.4874379617892457,1.9652407746762806
289,1790597157.6414976,-0.9229447265624998,-1.1986114746093752,0.17718354492187505,1.5231186572115354,-1.8249163536582993,-0.6192576048702837,0.494941798154954,1.989665062918893
290,1790597157.6650684,-0.7936136718749998,-1.347102685546875,0.23466401367187506,1.5810045872504979,-1.8459409753871674,-0.6434846657971885,0.5031869007699559,2.0186053742214995
291,1790597157.6850684,-0.8127738281249998,-1.265672021484375,0.22987397460937506,1.521633663486722,-1.863514171724843,-0.664877141215275,0.5098303339985023,2.043201813476816
292,1790597157.7114894,-0.8367240234374999,-1.2513019042968752,0.25382416992187506,1.5265288259089485,-1.8865156656436008,-0.693886263899671,0.5182487089452749,2.07581338955861
293,1790597157.7314894,-0.9277347656249998,-1.2177716308593751,0.33525483398437506,1.5671806992127826,-1.903962093412147,-0.7162550728548298,0.5245489216622067,2.100772370762151
294,1790597157.7409008,-0.9468949218749998,-1.069280419921875,0.38315522460937507,1.4787760261941036,-1.9122635601508782,-0.726816512425498,0.527575983921489,2.112664333259309
295,1790597157.7609007,-0.7648734374999998,-0.8585187011718751,0.40710541992187504,1.2197625008929713,-1.929826404876146,-0.7487856614033421,0.5342292493969595,2.137828526938414
296,1790597157.7860744,-0.7552933593749998,-1.021380029296875,0.4885360839843751,1.3610116562018293,-1.9514866844484353,-0.7758393482696574,0.543038450046493,2.169128334638578
297,1790597157.8060744,-0.9325248046874998,-1.0022198730468752,0.4214755371093751,1.4323717442302435,-1.968645775411684,-0.7971443239603959,0.5503523923108178,2.194058572142227
298,1790597157.8315082,-0.8606742187499998,-0.9255792480468751,0.43584565429687505,1.3369437122053465,-1.9906142523848547,-0.8238509937750356,0.5598936692147783,2.2259282294289306
299,1790597157.8515081,-0.7313431640624998,-0.8393585449218751,0.37357514648437506,1.1742844547319609,-2.007686045977091,-0.8443491844116001,0.5674852060206355,2.250726163592529
300,1790597157.8615513,-0.7169730468749997,-0.6764972167968751,0.2921444824218751,1.028128023588835,-2.0160637921935978,-0.8542403067184768,0.5712269761885419,2.2628610152066373
301,1790597157.8815513,-0.5110013671874998,-0.7196075683593751,0.47416596679687506,1.0018936140010086,-2.032086724336338,-0.8730771188869949,0.5787101178257698,2.2861639292102223
302,1790597157.906312,-0.9564749999999999,-0.4082550292968751,0.39273530273437507,1.1116463523014202,-2.0516733475330757,-0.89499419614747,0.5881947479277176,2.314379225106591
303,1790597157.926312,-1.24387734375,-0.4034649902343751,0.043062451171875044,1.308384201731399,-2.06842147195801,-0.9112593952479507,0.5953603118326174,2.337352128368773
304,1790597157.9514182,-0.9708451171874998,-0.4944757324218751,-0.04794829101562496,1.090571194435411,-2.0904622013968637,-0.9303053834266672,0.6029968701360578,2.3662429180655864
305,1790597157.9714181,-1.1576566406249997,-0.6860772949218751,0.10533295898437504,1.349802201968452,-2.1085792393304885,-0.944972690958535,0.6082538375373517,2.389362368095696
306,1790597157.9809647,-1.2486673828125,-0.5567462402343751,0.27298432617187507,1.3941510145068372,-2.1176527195419284,-0.9518134675639274,0.6106576043030894,2.4006883653053723
307,1790597158.0009646,-0.8654642578124998,-0.11606264648437509,0.22029389648437506,0.9005711078466634,-2.13698153408957,-0.965004408119451,0.6156780339574335,2.424248961271815
308,1790597158.0258374,-1.3013578124999998,-0.43699526367187513,0.39273530273437507,1.4278438411255965,-2.161456027529042,-0.9799801808077359,0.6221286813068521,2.453425647909916
309,1790597158.0458374,-1.2869876953125,-0.2789239746093751,0.40710541992187504,1.3783579848600427,-2.182066306103708,-0.9912896613553598,0.6277373131555192,2.4775234996404807
310,1790597158.071839,-1.2726175781249998,-0.43699526367187513,0.45500581054687506,1.4204051000527316,-2.2098337226376072,-1.0051835958117377,0.6356164868220863,2.5095353078439544
311,1790597158.091839,-1.12891640625,-0.42741518554687513,0.34483491210937506,1.2554071489942875,-2.231590440060264,-1.0155641061029725,0.6419676740431279,2.5344602660703592
312,1790597158.1159775,-0.9708451171874998,-0.3986749511718751,0.32567475585937505,1.0988839815297933,-2.2577117071767905,-1.0277088574488065,0.6496971424083071,2.5642843105348887
313,1790597158.1359775,-0.9421048828124998,-0.2166534667968751,0.40710541992187504,1.0489209492731209,-2.278977551167373,-1.0371850318007871,0.6562399434022953,2.58846331483239
314,1790597158.1457617,-0.8989945312499998,-0.11606264648437509,0.4406356933593751,1.0078797147421221,-2.2891715525309113,-1.0413696602590654,0.6595827216615511,2.5999627945298225
315,1790597158.1657617,-0.7648734374999998,-0.2741339355468751,0.5029062011718751,0.9555602739694713,-2.3093793239013225,-1.04922570318311,0.6668060757603926,2.6227347903579568
316,1790597158.190925,-0.9947953124999999,-0.41783510742187513,0.48374604492187506,1.1824610466073624,-2.3343111538637147,-1.0589331478171704,0.6763930375970159,2.651010282120431
317,1790597158.2109249,-0.9229447265624998,-0.4322052246093751,0.2921444824218751,1.060177684673052,-2.3540314515106893,-1.0667664578002432,0.6840337260285889,2.6734541119184665
318,1790597158.2360926,0.20750449218750025,-0.6429669433593751,0.019112255859375045,0.675891916547997,-2.3764752914930556,-1.077174659899895,0.6927939448567527,2.699611733015998
319,1790597158.2560925,-1.2726175781249998,-0.1735431152343751,0.26819428710937504,1.3120978959803637,-2.393233060077144,-1.0854298334893495,0.6991421536148628,2.7192870672726257
320,1790597158.2810032,-1.2151371093749999,-0.1591729980468751,0.44542573242187505,1.3039548768998968,-2.415622474072526,-1.0947912433025693,0.7071962931067088,2.7447998835325187
321,1790597158.3010032,-0.5253714843749998,-0.44657534179687514,0.2921444824218751,0.7488612228610397,-2.4335126064769526,-1.1020884405040583,0.7137990928587933,2.7651567191645676
322,1790597158.3115535,-0.6978128906249998,-0.4801056152343751,0.22508393554687506,0.8764171439122272,-2.4425021688820228,-1.106093659637676,0.7171689662274007,2.7755344269174054
323,1790597158.3315535,-0.5636917968749998,-0.11606264648437509,0.18197358398437505,0.6036003355211472,-2.4588796033616864,-1.1134416532489357,0.7232095403492723,2.7944361252800274
324,1790597158.3556323,-0.5205814453124998,0.05637875976562492,0.17718354492187505,0.5527907509604727,-2.4775975861746375,-1.121069020626322,0.7300397802243559,2.815713697934589
325,1790597158.3756323,-0.3577201171874998,-0.43699526367187513,0.21071381835937505,0.6027676633329612,-2.492130180738908,-1.1270249671048351,0.7354438654200822,2.8322739615742383
326,1790597158.3856814,-0.3720902343749998,-0.2597638183593751,0.23945405273437506,0.5130951444096908,-2.4988869136836707,-1.130093811914653,0.738091165686311,2.8401278844396196
327,1790597158.4056814,-0.5828519531249998,-0.1304327636718751,0.22987397460937506,0.6399774599963829,-2.5117496324823905,-1.1358706445426212,0.7432735720981295,2.8550908812835725
328,1790597158.430755,-0.4870511718749998,-0.3938849121093751,0.23466401367187506,0.6689031075759887,-2.5274684481312044,-1.1430125744628439,0.7496696494295942,2.873426366718804
329,1790597158.450755,-0.5110013671874998,-0.2453937011718751,0.23945405273437506,0.6153687587237773,-2.5396229650275903,-1.1488137574410624,0.7547173998537219,2.887742406694777
330,1790597158.4759116,-0.7696634765624998,-0.1256427246093751,0.20592377929687505,0.8065807859609905,-2.5550344175459148,-1.1557162185829666,0.7609545833384059,2.905672509186751
331,1790597158.4959116,-0.6499124999999998,-0.4322052246093751,0.3017245605468751,0.8367946727083622,-2.567578264056254,-1.1612174154022645,0.7659309109976965,2.92019420386888
332,1790597158.5064673,0.08296347656250025,-1.2513019042968752,0.26819428710937504,1.2824069439060397,-2.573654521560808,-1.1650181601641405,0.7686145827148544,2.92775225840995
333,1790597158.5264673,-0.5828519531249998,-0.2597638183593751,0.16760346679687504,0.6597609890502777,-2.5841901419797857,-1.1734058408307915,0.773590321293915,2.941659725801226
334,1790597158.5508292,-0.35293007812499977,-0.4226251464843751,0.14365327148437504,0.5690412260060087,-2.5968083115711984,-1.1833370932322496,0.779310808548638,2.958213214017093
335,1790597158.5708292,-0.8942044921874998,0.19049985351562493,0.023902294921875046,0.9145836144062013,-2.607484118347332,-1.1906154252217354,0.7835539647447692,2.9716149370126583
336,1790597158.5959241,-1.3061478515624998,0.44437192382812496,-0.10063872070312496,1.3833353783276146,-2.623011606944454,-1.1971831349110873,0.787935024266014,2.98902642195514
337,1790597158.6159241,-0.45352089843749976,-0.2885040527343751,0.4693759277343751,0.7136032197939002,-2.6361698245107803,-1.2013984674456704,0.7914559710512183,3.0031903328551506
338,1790597158.6266253,-0.6834427734374998,0.05637875976562492,0.22029389648437506,0.7202791055867999,-2.643066703189362,-1.2035019041363006,0.7936108206743344,3.0106538435129626
339,1790597158.6466253,-0.9085746093749998,0.31025083007812493,-4.790039062495644e-05,0.9600851007382348,-2.6564111664770196,-1.206293497498525,0.7973644015930061,3.02447586805033
340,1790597158.671279,-0.5397416015624998,0.20486997070312493,-0.11021879882812496,0.5877421926051134,-2.6730712299533,-1.2082660075892224,0.8010934505871501,3.040882645232018
341,1790597158.691279,-0.2810794921874998,-0.3890948730468751,0.004742138671875044,0.4800239463182331,-2.685790436552951,-1.2099024924887665,0.8035066080541148,3.053351794274032
342,1790597158.7164676,-0.19006874999999976,-0.6717071777343752,0.31609467773437505,0.7663109731945904,-2.700296673339688,-1.213658398094617,0.8066960509525635,3.068440540394654
343,1790597158.7364676,-0.4487308593749998,-0.3890948730468751,0.45500581054687506,0.7481874711716365,-2.7110452120440915,-1.2177844813181,0.8100052734026005,3.0804015529840276
344,1790597158.7609084,-0.7457132812499998,0.2623504394531249,0.23945405273437506,0.825986860842717,-2.724399564154966,-1.222302712088113,0.8147156584781402,3.0951798831917983
345,1790597158.7809083,-0.3720902343749998,0.11864926757812493,0.22029389648437506,0.44839512936955095,-2.735365001870235,-1.2248739072002761,0.8186816284457111,3.1068919180993637
346,1790597158.8060136,-0.3002396484374998,0.37731137695312494,0.05743256835937505,0.4855988278203428,-2.748330759890697,-1.22668346383479,0.8234361429960653,3.1202758480299995
347,1790597158.8260136,-0.33376992187499976,0.15217954101562492,0.014322216796875044,0.3671050249535498,-2.7580615218715665,-1.227114567465096,0.8267632892777022,3.129896333205117
348,1790597158.8357878,-0.2906595703124998,-0.04421206054687509,0.13407319335937504,0.3231304895698144,-2.7625614694315326,-1.227214502494203,0.8282541835183043,3.13429518393456
349,1790597158.8557878,-0.16611855468749978,-0.2693438964843751,0.24903413085937506,0.4026903365090029,-2.7710732583400577,-1.2278586499477844,0.8314219111125857,3.142888203805074
350,1790597158.880961,-0.24754921874999977,0.10906918945312492,0.17718354492187505,0.32337395130526364,-2.780960693632073,-1.2288503953858922,0.8356156351429531,3.1531046864102064
351,1790597158.900961,-0.3673001953124998,0.17133969726562492,0.15802338867187504,0.4350150764088746,-2.788560160268167,-1.229099529048736,0.8389505552690629,3.1607896883419686
352,1790597158.9115212,-0.3768802734374998,0.10906918945312492,0.17239350585937505,0.4285491214047378,-2.7925602989141467,-1.228989253642436,0.8407090046754283,3.1647431553259437
353,1790597158.9315212,-0.44394082031249976,0.31025083007812493,-0.009627978515624957,0.5416933888042184,-2.800230973217937,-1.2281827522947784,0.8437839136634823,3.1720179175661527
354,1790597158.95645,-0.7505033203124998,0.3006707519531249,0.052642529296875046,0.8102032897803592,-2.810591068800555,-1.226186067968259,0.8471221265802805,3.1812843831765187
355,1790597158.97645,-0.8654642578124998,-0.029841943359375088,-0.05752836914062496,0.8678873408400339,-2.8200799948675015,-1.2244182036448603,0.8493912630713163,3.189595057785656
356,1790597159.001617,-0.6882328124999998,-0.2214435058593751,-0.13895903320312497,0.7362141287680496,-2.833161972164301,-1.2230016068029135,0.8514474522698443,3.2011720439141085
357,1790597159.021617,-0.4583109374999998,-0.015471826171875088,-0.11021879882812496,0.47163171697028194,-2.84371849710798,-1.222400086130602,0.8524626157939501,3.210559043639041
358,1790597159.031339,-0.44394082031249976,0.06116879882812492,-0.019208056640624957,0.44854656762672956,-2.848738173004393,-1.222118226789329,0.8527876947557631,3.214985068536081
359,1790597159.051339,-0.23317910156249977,0.08032895507812492,0.15802338867187504,0.29291061059097956,-2.8585313110845174,-1.2214131180905665,0.8535643541180514,3.223604096056967
360,1790597159.0759163,-0.18527871093749976,0.17612973632812493,0.32567475585937505,0.41402165565310706,-2.869531976473688,-1.220203872934437,0.8552672080426942,3.2333563448346263
361,1790597159.0959163,-0.22838906249999977,-0.029841943359375088,0.22987397460937506,0.32541381294561633,-2.877761553007098,-1.2191480158996886,0.8572783812790638,3.24079614657362
362,1790597159.1204991,-0.4966312499999998,0.16654965820312492,0.7040878417968751,0.8775654255326616,-2.8876963202538284,-1.2177928353034366,0.8611015592496375,3.250123893494837
363,1790597159.140499,-0.3098197265624998,-0.8297784667968752,0.560386669921875,1.0481191662941591,-2.8957762646272833,-1.2178505186897668,0.8656421420519287,3.2585297879178468
364,1790597159.150349,-0.7936136718749998,-0.5759063964843751,0.6513974121093751,1.1772040716041245,-2.8999738051154273,-1.2189130931090915,0.8684380903003962,3.2634003609108433
365,1790597159.170349,-0.8510941406249998,0.7748846191406249,-0.19643950195312496,1.1676454458072922,-2.90968550053253,-1.2204485487978338,0.873946120820603,3.2740718065383603
366,1790597159.196303,-1.2582474609374998,0.937745947265625,-0.46947172851562496,1.6379736989476412,-2.9245038913406547,-1.2188085055922073,0.8787255041262952,3.2879135778442463
367,1790597159.2163029,-0.31460976562499976,0.2431902832031249,-0.14374907226562497,0.4228292968187768,-2.936569282846535,-1.2159628677812424,0.8809361898440491,3.2981894153243454
368,1790597159.240395,-0.29544960937499976,0.08511899414062492,-0.009627978515624957,0.30761731552961874,-2.9500255961943935,-1.2124559372215122,0.8829226145002628,3.3094187950608127
369,1790597159.260395,-0.7648734374999998,0.47790219726562494,0.23945405273437506,0.9331452882136282,-2.961111149572233,-1.2091368389919783,0.8846690181606496,3.3185584833210084
370,1790597159.2711284,-0.7313431640624998,0.42521176757812496,0.25382416992187506,0.8832296304723879,-2.967372487755141,-1.2068957620073764,0.8858627626605702,3.3236500561440154
371,1790597159.2911284,-1.2869876953125,0.05637875976562492,0.38794526367187504,1.3453688788001343,-2.9803169678201376,-1.2026238592273952,0.8887161216716243,3.3344279449972625
372,1790597159.315201,-0.27628945312499975,-0.005891748046875088,0.28735444335937504,0.3986767496626002,-2.9963827326511465,-1.1981621730161984,0.8928545792619932,3.3482967868882176
373,1790597159.335201,0.13565390625000023,-0.4848956542968751,0.5124862792968751,0.7184483031537016,-3.007939249080653,-1.1957475327805482,0.8969768973926273,3.3588805043893353
374,1790597159.3607569,-0.5157914062499998,0.13780942382812492,0.22508393554687506,0.5793919140775627,-3.021219671356967,-1.1937901888176679,0.9028679410939814,3.371657431674651
375,1790597159.3807569,-0.5253714843749998,0.698243994140625,-0.043158251953124956,0.8748842818678898,-3.0316156721741048,-1.1912340668382548,0.9070596053355969,3.3811964322409938
376,1790597159.4054284,-0.4918412109374998,0.4922723144531249,-0.05273833007812496,0.6978689990341538,-3.0443985327689944,-1.186350973804211,0.9112772978003304,3.3920815693108675
377,1790597159.4254284,-0.7840335937499998,0.31025083007812493,0.009532177734375044,0.8432408411035752,-3.0551203986909137,-1.18178248525944,0.9141186980227031,3.400879810731045
378,1790597159.4354818,-1.1049662109374998,0.10906918945312492,-0.06710844726562495,1.1123623326488272,-3.0611258423940506,-1.1795143390419653,0.9152893295981425,3.405803878066749
379,1790597159.4554818,-1.0331156249999998,0.3150408691406249,-0.14374907226562497,1.0896065526717653,-3.074487982672069,-1.1750428090721354,0.9169525456075006,3.416724151821914
380,1790597159.495807,-0.5828519531249998,0.21445004882812493,0.023902294921875046,0.6215114982094414,-3.1022756130491183,-1.1657780208503572,0.9194405372832606,3.4392620247397248
381,1790597159.515807,-0.5397416015624998,0.013268408203124913,0.28735444335937504,0.611612314486778,-3.115674004823333,-1.1615306628107782,0.9209562910167999,3.450324401407052
382,1790597159.5259607,-0.8654642578124998,0.21924008789062494,0.15802338867187504,0.9066785478087438,-3.1225259989301923,-1.1595207135326677,0.9219495626179682,3.4561029925506803
383,1790597159.5459607,-1.1193363281249997,0.3006707519531249,0.14365327148437504,1.1678839749515266,-3.136975170788753,-1.1553756837832403,0.9240650654434224,3.468342895100724
384,1790597159.555514,-1.0666458984374998,0.10427915039062492,0.29693452148437505,1.1121050867201743,-3.144408114371024,-1.153402563937032,0.9252396890102296,3.4747242115509835
385,1790597159.575514,-1.0810160156249997,-0.1783331542968751,0.22029389648437506,1.1175543569721749,-3.1608562555185284,-1.1500025502098994,0.9281057305889813,3.4892547027541556
386,1790597159.6010866,-1.1384964843749998,0.05637875976562492,0.15323334960937504,1.1501448904027063,-3.1829895458404414,-1.1465412012289933,0.9319370447732545,3.5092001696206885
387,1790597159.6210866,-0.9277347656249998,-0.1352228027343751,0.20592377929687505,0.9598862456606622,-3.2008025474774633,-1.1443584489675445,0.9350227417780683,3.525473122192793
388,1790597159.6460416,-0.8319339843749998,-0.5759063964843751,0.29693452148437505,1.0544915561154746,-3.222988282846997,-1.1433744128323906,0.9392365645227571,3.546424092438094
389,1790597159.6660416,-0.8510941406249998,-0.7243976074218751,0.20592377929687505,1.1364496173278655,-3.240626291826262,-1.1446545173335707,0.9428614110626156,3.5638294526813104
390,1790597159.6759913,-0.6786527343749998,-0.6238067871093751,0.24903413085937506,0.9548415784051665,-3.2492262725819607,-1.1462018904481592,0.9447337224081441,3.57264215257545
391,1790597159.6959913,-0.5972220703124997,-0.8920489746093752,0.28735444335937504,1.1113047064097057,-3.26583396985691,-1.1511195063880897,0.9487373269094601,3.590383009113347
392,1790597159.7211936,-0.5636917968749998,-0.9686895996093752,0.22987397460937506,1.144093539208333,-3.285816761112248,-1.1599038667126353,0.9540032283389764,3.6127677654815145
393,1790597159.7411935,-0.5732718749999998,-0.8824688964843751,0.17239350585937505,1.0663543110949816,-3.3010014300438404,-1.1686060187448644,0.9581586988404263,3.6304708455463155
394,1790597159.7803755,-0.5493216796874998,-0.8920489746093752,0.3017245605468751,1.0902033715383286,-3.3295863677270976,-1.1883118213467885,0.9664717963214438,3.665009972427285
395,1790597159.8003755,-0.4583109374999998,-1.030960107421875,0.43584565429687505,1.2094995216604776,-3.3435000439317504,-1.199746145190181,0.9711849779840755,3.682605547453086
396,1790597159.7951267,-0.16132851562499978,-0.9159991699218751,0.19155366210937505,0.9496179098557708,-3.3435000439317504,-1.199746145190181,0.9711849779840755,3.682605547453086
397,1790597159.8151267,-0.3385599609374998,-0.8249884277343751,0.37357514648437506,0.966843908351529,-3.3550925465386525,-1.2131012937842514,0.9762378775053357,3.6988242913521003
398,1790597159.8407307,-0.5541117187499998,-0.5902765136718752,0.43584565429687505,0.9194713665026081,-3.3694213749454582,-1.2303517194432534,0.9832906298369888,3.7193583073161336
399,1790597159.8607306,-0.5589017578124998,-0.6429669433593751,0.41668549804687505,0.9483693739368498,-3.3806046320077816,-1.2436551388032704,0.9892521557868525,3.7354766242011452
400,1790597159.8856213,-0.8463041015624998,-0.6956573730468751,0.3496249511718751,1.1499597468946143,-3.395058124197806,-1.2602271589997125,0.9969891285586141,3.7561389060345034
401,1790597159.9056213,-0.6642826171874998,-0.6525470214843752,0.38315522460937507,1.0069244941360125,-3.4071955411046124,-1.273567928526238,1.0033725451637825,3.7732894387102367
402,1790597159.9160652,-0.9229447265624998,0.14259946289062492,-0.354510791015625,0.9989191539122405,-3.4138262095914924,-1.2798888985926877,1.006228371905508,3.7821714025758046
403,1790597159.9360652,-1.1384964843749998,-0.3699347167968751,0.047852490234375045,1.1980466603799074,-3.4277113651074673,-1.2905187896484,1.0104169250082509,3.799419207098053
404,1790597159.9606974,-0.7169730468749997,-0.1974933105468751,0.043062451171875044,0.7449216954532303,-3.4456751444451243,-1.302695181076806,1.014969753985182,3.8209757310603796
405,1790597159.9806974,-0.6211722656249998,-0.4561554199218751,0.17718354492187505,0.7907760487627832,-3.460080106756148,-1.312079219570117,1.0184422687207362,3.8380894828435674
406,1790597160.0060022,-0.6307523437499998,-0.6669171386718751,0.5316464355468751,1.0607897630681098,-3.4779479694900863,-1.3243027626667099,1.0235220610694789,3.859727619299425
407,1790597160.0260022,-0.6594925781249998,-0.3651446777343751,0.40710541992187504,0.8567356180347971,-3.4918871226515975,-1.3340627378729843,1.0283428367694312,3.876917339311765
408,1790597160.0361435,-0.9900052734374998,-0.1783331542968751,0.39752534179687504,1.081637440516116,-3.4991496325650324,-1.3386827434292539,1.031032637809623,3.8857622082242687
409,1790597160.0561435,-1.0474857421875,0.09948911132812492,0.3208847167968751,1.1000415741383451,-3.514380012088068,-1.3465455250424592,1.0366191655558483,3.9036689171564873
410,1790597160.080193,-0.9085746093749998,-0.0825323730468751,0.4118954589843751,1.0009881530435967,-3.533475241736254,-1.3545515330201414,1.0436509127147884,3.9254890608917385
411,1790597160.100193,-0.9325248046874998,-0.1304327636718751,0.41668549804687505,1.0296805434109721,-3.5497348119988272,-1.360530220315421,1.0498643430947967,3.943840115269602
412,1790597160.1255848,-0.7840335937499998,-0.0873224121093751,0.4406356933593751,0.9036004061793225,-3.5705503704486636,-1.3673968301439743,1.058202257434035,3.9671647377739894
413,1790597160.1455848,-0.7600833984374998,0.11385922851562492,0.4118954589843751,0.8719796818908233,-3.586802693113562,-1.3719542641125106,1.0650633398691474,3.9851940956591343
414,1790597160.1702678,-1.0139554687499999,0.20486997070312493,0.25382416992187506,1.065131027968137,-3.607135986783013,-1.3761451025445317,1.0734932072488215,4.007192662751783
415,1790597160.1902678,-1.2295072265624998,-0.2214435058593751,0.21071381835937505,1.2669354994254005,-3.6245053781406202,-1.379056329524375,1.0799959373434689,4.025571614174802
416,1790597160.201158,-1.3444681640624998,-0.1016925292968751,0.07180268554687505,1.350219108272479,-3.6346468973258745,-1.380667677108562,1.0832363846554944,4.036124671995957
417,1790597160.221158,-1.4306888671874998,-0.1352228027343751,0.08138276367187505,1.4393675678215287,-3.6546408296519877,-1.3835384093125473,1.0885245933025307,4.056533484889148
418,1790597160.260561,-1.4306888671874998,0.07553891601562492,0.10054291992187504,1.4362052921756985,-3.696579224773316,-1.3885221954649452,1.0979180035793399,4.098550450452955
419,1790597160.280561,-1.1576566406249997,0.18091977539062493,0.03348237304687505,1.1721868161753928,-3.718555608570073,-1.3902877086950771,1.1021717270999243,4.120113862867746
420,1790597160.2908123,-1.1337064453124999,0.037218603515624914,0.19155366210937505,1.1503774745961737,-3.7298919847826157,-1.390889192567273,1.1041980073546314,4.131091889996152
421,1790597160.3108122,-1.2534574218749999,0.03242856445312491,0.29693452148437505,1.2885562581025194,-3.752272149610111,-1.3917821790558578,1.1082909748460512,4.152699459821571
422,1790597160.3204947,-1.0858060546875,0.11385922851562492,0.37836518554687504,1.1554648094806386,-3.7631803863887114,-1.3920434143192255,1.1104656337014873,4.163225361601539
423,1790597160.3404946,-1.2630374999999998,0.3246209472656249,0.32567475585937505,1.3441378398118047,-3.7858558755367855,-1.3918443606626483,1.115339867924355,4.184963375661289
424,1790597160.366035,-1.3636283203125,0.36773129882812494,0.3592050292968751,1.4573046205815305,-3.8155007955003133,-1.390302075689716,1.1219425887009098,4.213044190899444
425,1790597160.386035,-1.32051796875,0.25756040039062494,0.4214755371093751,1.4098747086257846,-3.839259047730733,-1.3883375744965833,1.1275084635530734,4.235406307749607
426,1790597160.4111264,-1.2774076171874997,0.3437811035156249,0.28735444335937504,1.3537090690770461,-3.869483434735777,-1.3851110201151091,1.1347777499330127,4.263702045345328
427,1790597160.4311264,-1.20555703125,0.28630063476562495,0.21550385742187506,1.2576874498965238,-3.8936855673561643,-1.3819798366106997,1.140457138608735,4.286175224047642
428,1790597160.441203,-1.20555703125,0.05158872070312492,0.22987397460937506,1.2283611830006718,-3.9058726560589347,-1.3803835050395659,1.143226006741688,4.297471992791197
429,1790597160.461203,-1.3588382812499997,0.11864926757812493,0.16760346679687504,1.3742670938975472,-3.9302794536754475,-1.3774350597013643,1.1484934368477,4.320122811004349
430,1790597160.4856231,-1.2917777343749999,0.037218603515624914,0.23945405273437506,1.3143109155924932,-3.960464704357595,-1.3740895376368019,1.1547057760858555,4.3481890668680965
431,1790597160.505623,-1.2726175781249998,-0.05858217773437509,0.3113046386718751,1.3114487979938327,-3.9853247371328244,-1.3717925998645992,1.1598566294291388,4.371486657680292
432,1790597160.531197,-1.1241263671875,0.08032895507812492,0.11012299804687505,1.1323603247769418,-4.016942044484052,-1.3692543589854802,1.1662633829970845,4.401232914407537
433,1790597160.551197,-1.1959769531249997,0.4012615722656249,0.09096284179687505,1.2647711098736412,-4.041439415441679,-1.3668447092282983,1.1708238227341048,4.424062096276755
434,1790597160.5606115,-1.2151371093749999,0.28630063476562495,0.22029389648437506,1.2676969862217464,-4.052943598371328,-1.365395099300145,1.1728682907736618,4.434667475276394
435,1790597160.5806115,-1.0905960937499999,0.09469907226562492,0.2921444824218751,1.1330119825492906,-4.077175712892453,-1.3622059873571244,1.17732871728181,4.4570247760505115
436,1790597160.6056828,-1.0858060546875,0.2815105957031249,0.12928315429687506,1.1291311429032997,-4.107088279356293,-1.35810047044855,1.1828738898417932,4.484618340676034
437,1790597160.6256828,-0.9516849609374998,0.16654965820312492,0.22987397460937506,0.9931188739143466,-4.130427125799484,-1.3546445804606,1.187172602897899,4.50609242803372
438,1790597160.6511934,-0.9421048828124998,0.06595883789062491,0.49332612304687506,1.0654965237838632,-4.159354460341078,-1.350452850181777,1.1932169573637816,4.532959202845729
439,1790597160.6711934,-0.6882328124999998,0.03242856445312491,0.6034970214843751,0.9159283110236646,-4.181076860855091,-1.3475119406529075,1.1988900899397446,4.553518375315483
440,1790597160.6807528,-0.5828519531249998,0.27672055664062495,0.4502157714843751,0.7867559384093618,-4.190813430055313,-1.3460954780046737,1.2019504036303752,4.5628472486183265
441,1790597160.7007527,-0.4870511718749998,0.35815122070312494,0.40231538085937507,0.7261878590227002,-4.209733349114295,-1.3426241993587518,1.2086715199552576,4.580980403199706
442,1790597160.7260818,-0.6786527343749998,0.3246209472656249,0.40231538085937507,0.8531154429233594,-4.232314889622493,-1.3375903574033057,1.217435267001441,4.6025846997613655
443,1790597160.7460818,-0.8558841796874999,0.08990903320312492,0.14365327148437504,0.8725007883658493,-4.249772605381577,-1.3335900305199602,1.2241361289864827,4.619257389369417
444,1790597160.7710617,-0.9037845703124998,-0.22623354492187508,0.08138276367187505,0.9352172585050708,-4.271603197642751,-1.3295985106048471,1.231671659562311,4.64019839602612
445,1790597160.7910616,-1.1193363281249997,-0.5232159667968751,0.24424409179687506,1.2594935250922197,-4.289494651248855,-1.3280062612137917,1.2372883928350888,4.657708402203815
446,1790597160.8012402,-1.1528666015624998,-0.7866681152343751,0.3017245605468751,1.427930612796671,-4.2989688881798545,-1.3283174265154651,1.2401349208321912,4.667279219094404
447,1790597160.8212402,-1.2726175781249998,-0.8010382324218751,0.23466401367187506,1.5219346074213884,-4.318430742182614,-1.331218684192536,1.2456937020836674,4.687508939680233
448,1790597160.845589,-1.3109378906249998,-0.8249884277343751,0.22987397460937506,1.5658882792762299,-4.343288275118592,-1.3371903472327547,1.2522943711106367,4.713859592460352
449,1790597160.865589,-1.3540482421874998,-0.5040558105468751,0.24424409179687506,1.4653238818414192,-4.364640970103733,-1.343353252375204,1.257614052356417,4.73669524703241
450,1790597160.890656,-1.406738671875,-0.2118634277343751,0.17239350585937505,1.4330105804991407,-4.3925794818475685,-1.3512648690063536,1.2640646793911032,4.766395993226239
451,1790597160.910656,-1.5743900390624999,0.08032895507812492,0.11970307617187505,1.580976142314669,-4.415998492734693,-1.3568276656508935,1.2688775059767865,4.790832300058582
452,1790597160.9356787,-1.7851517578124998,0.43000180664062493,0.07180268554687505,1.837613663909529,-4.4472087258261785,-1.3617857793619599,1.2743551915013391,4.822458617141611
453,1790597160.9556787,-1.7612015625,0.525802587890625,0.09575288085937504,1.8405075167946991,-4.473731897805528,-1.3637205236124699,1.2783279614327474,4.848518653872059
454,1790597160.966179,-1.6893509765624999,0.626393408203125,0.05743256835937505,1.8026574615720405,-4.48828545172086,-1.3636765489039362,1.2802214799861351,4.862436330069276
455,1790597160.9861789,-1.5264896484375,0.784464697265625,-0.004837939453124956,1.7162688931810899,-4.516671650104801,-1.3614890679909508,1.28336600939119,4.888865266212596
456,1790597161.0108638,-1.445058984375,0.8467352050781249,0.13407319335937504,1.6802177230999502,-4.551953310563682,-1.356174209751515,1.286904227088317,4.920935878310607
457,1790597161.0308638,-1.28219765625,0.44916196289062493,0.33525483398437506,1.399347384429843,-4.580341940849271,-1.3505701330016702,1.2900449157446947,4.946492480930074
458,1790597161.055637,-1.4402689453125,0.5497527832031249,0.05743256835937505,1.5426928590550735,-4.615289455131455,-1.3428138646864807,1.2940812238732677,4.977820009183054
459,1790597161.0756369,-1.20555703125,0.885055517578125,0.28256440429687507,1.5220163163933047,-4.643240117299404,-1.3353390937494012,1.2973610423606214,5.0025948223326155
460,1790597161.0866141,-0.9421048828124998,0.08032895507812492,0.4214755371093751,1.0352081817802319,-4.658048220710274,-1.3310570600701983,1.299470822973337,5.015750247309357
461,1790597161.106614,-0.48226113281249977,-0.2645538574218751,0.27777436523437504,0.6162167976286831,-4.683117387441495,-1.324702011129346,1.3037870157529068,5.038480372621576
462,1790597161.1611326,-0.23317910156249977,-0.015471826171875088,-4.790039062495644e-05,0.23369183362932203,-4.744128922151357,-1.3111221214952222,1.3149233847731765,5.094587712002854
463,1790597161.1811326,-0.21401894531249976,0.08990903320312492,0.052642529296875046,0.23803146660676552,-4.763824376974155,-1.306775975337482,1.3184748268295166,5.112735277066038
464,1790597161.1760933,-0.48226113281249977,0.20007993164062493,-0.023998095703124958,0.5226697694187881,-4.763824376974155,-1.306775975337482,1.3184748268295166,5.112735277066038
465,1790597161.1960933,-0.4104105468749998,0.19049985351562493,0.14844331054687504,0.47619578706854065,-4.780281105579158,-1.3026802800419408,1.3212639329774698,5.127748213490435
466,1790597161.2206824,-0.7073929687499998,0.856315283203125,-0.15332915039062497,1.1212450690387439,-4.7995404118699865,-1.2964696153679416,1.324169639279531,5.144885505269782
467,1790597161.2406824,-0.7744535156249998,0.42521176757812496,0.29693452148437505,0.9320694208051189,-4.815078364017111,-1.290253498747523,1.3263939468827788,5.158396518782092
468,1790597161.2507277,-1.16723671875,0.41563168945312495,0.2921444824218751,1.2730041859654158,-4.823174770951295,-1.286966192990705,1.327787370128768,5.165492827728593
469,1790597161.2707276,-1.5073294921874998,0.2527703613281249,0.3304647949218751,1.5636949940020062,-4.840888439555861,-1.2804003722271335,1.331079420411179,5.18125452191524
470,1790597161.2963536,-1.6270804687499998,0.6695037597656249,0.13886323242187504,1.7649105171216695,-4.866204627037022,-1.2714769518900961,1.33556682747328,5.203877387297984
471,1790597161.3163536,-1.6558207031249998,0.3725213378906249,0.06701264648437505,1.6985302596274314,-4.887923468554363,-1.2639942118495908,1.3388525399903646,5.223217717640385
472,1790597161.3257437,-1.1959769531249997,0.29588071289062495,0.24424409179687506,1.2560101293558514,-4.898599433584896,-1.2605372697672672,1.3403830083853525,5.232767645171983
473,1790597161.3457437,-1.2390873046874997,0.19528989257812493,0.09575288085937504,1.258031837821992,-4.921579928028625,-1.2535420230804113,1.3436637826144018,5.253451146847414
474,1790597161.3711412,-0.9995853515624998,0.2527703613281249,0.14365327148437504,1.0410091224539968,-4.950649250215228,-1.2451379066025365,1.3476610631811556,5.279724116497917
475,1790597161.3911412,-0.8942044921874998,0.3246209472656249,0.11970307617187505,0.9588061637770929,-4.972947644421998,-1.238646478455439,1.3507316992595297,5.299899008107314
476,1790597161.4307055,-0.6930228515624998,0.49706235351562494,0.03827241210937504,0.8537074637128227,-5.01515193665429,-1.2252930202472099,1.3563637001240956,5.337866092382622
477,1790597161.4507055,-0.5684818359374998,0.44437192382812496,0.019112255859375045,0.7218055713290205,-5.03517849462865,-1.218143168132266,1.3588697301660553,5.3556906365472345
478,1790597161.461163,-0.4391507812499998,0.6503436035156249,0.15323334960937504,0.7995502928138307,-5.0448694950643524,-1.2141068528776549,1.360118695307463,5.364204184943021
479,1790597161.481163,-0.3577201171874998,0.865895361328125,0.08138276367187505,0.9404050261632351,-5.06181871877025,-1.205270967480079,1.3625009662844916,5.378763401551461
480,1790597161.506272,-0.26670937499999975,0.923375830078125,-4.790039062495644e-05,0.9611226854984769,-5.081081753892681,-1.1924723603969918,1.3651963409261496,5.394732909915934
481,1790597161.526272,-0.13737832031249977,0.817994970703125,-0.11979887695312497,0.8380574836529533,-5.094729845828382,-1.1811950608937163,1.366841463564265,5.405529535611909
482,1790597161.5512016,-0.18527871093749976,0.559332861328125,0.10054291992187504,0.5977376759370164,-5.109793354269884,-1.1666714876490176,1.3685484773342054,5.417013514682017
483,1790597161.5712016,-0.10863808593749977,0.9473260253906249,-0.24912993164062497,0.9855427717444967,-5.120506362790803,-1.1545075612720166,1.3694896468134201,5.424755756081974
484,1790597161.5807476,-0.20443886718749976,0.717404150390625,-0.12937895507812497,0.7571016308473454,-5.125076855366455,-1.1483807006171982,1.3696004913854358,5.4277984959803165
485,1790597161.6007476,-0.17090859374999978,0.616813330078125,-0.19164946289062496,0.6681301880666174,-5.133779197411839,-1.1354684105478074,1.369316345796126,5.433231507491188
486,1790597161.6258037,-0.3193998046874998,0.33899106445312494,-0.25871000976562497,0.5327870551790889,-5.143967594102031,-1.1199221335959646,1.368167443357829,5.439348338501063
487,1790597161.6458037,-0.5397416015624998,0.501852392578125,-0.10063872070312496,0.7438447233787455,-5.1521688897220095,-1.1081130905972876,1.3668489178078729,5.444358075465367
488,1790597161.67136,-0.4487308593749998,0.46353208007812496,-0.15332915039062497,0.6631223128326251,-5.162971314354858,-1.0934363829065743,1.3649300215968931,5.451138402221268
489,1790597161.69136,-0.5684818359374998,0.4922723144531249,-0.06710844726562495,0.7549881939886941,-5.171682869213904,-1.0822397800867303,1.363322922079068,5.456756915163891
490,1790597161.716203,-0.4391507812499998,0.837155126953125,-0.16769926757812498,0.9601068480136091,-5.182758213436611,-1.0679410781408727,1.3611886029211897,5.463910253476707
491,1790597161.736203,-0.4678910156249998,0.8132049316406249,-0.12937895507812497,0.9470813995451155,-5.1916976035817495,-1.0556809765052078,1.3592824770596355,5.469537017301633
492,1790597161.7314405,-0.7026029296874998,0.875475439453125,0.08617280273437505,1.125848068711848,-5.1916976035817495,-1.0556809765052078,1.3592824770596355,5.469537017301633
493,1790597161.7514405,-1.3061478515624998,0.861105322265625,0.22029389648437506,1.5798904984218967,-5.202661814616975,-1.042065118995241,1.358309912943384,5.477097359833986
494,1790597161.775958,-0.9564749999999999,0.961696142578125,0.20592377929687505,1.371899595143374,-5.218247027055161,-1.0245256510493033,1.3580802402974965,5.488545962649354
495,1790597161.795958,-0.9277347656249998,0.904215673828125,-0.04794829101562496,1.2963783470719659,-5.2318798228657055,-1.009565259291683,1.3581579527483092,5.498761816835809
496,1790597161.8211036,-0.6211722656249998,0.7317742675781249,-0.22517973632812496,0.9859282306151905,-5.249370108595551,-0.9904919593120426,1.3577259067725067,5.511840028193807
497,1790597161.8411036,-0.6211722656249998,0.7078240722656249,-0.383251025390625,1.0167355847629969,-5.2630581731698305,-0.9754377956307224,1.3565211708432505,5.521902744005966
498,1790597161.8506432,-0.43436074218749976,0.597653173828125,-0.32098051757812496,0.8055352650289295,-5.269362976515214,-0.9684003021721229,1.3555288736978561,5.526431384803842
499,1790597161.8706431,-0.5349515624999998,0.5162225097656249,-0.16769926757812498,0.7620904789827462,-5.282052373542051,-0.954188375078996,1.3530275386493107,5.535452669142834
500,1790597161.9108129,-0.6930228515624998,0.7269842285156249,-0.07189848632812496,1.0069538885344018,-5.307415450565312,-0.9261801217088517,1.3480353800247782,5.5537075695922775
501,1790597161.9308128,-0.6451224609374998,0.885055517578125,-0.08147856445312496,1.0982463363321002,-5.320156421856512,-0.9119088599913179,1.3456926132505447,5.562960608462802
502,1790597161.9417274,-0.5924320312499998,0.976066259765625,-0.043158251953124956,1.1426039076668286,-5.327079621384818,-0.9037653581491814,1.344503848650978,5.567967287457894
503,1790597161.9617274,-0.6547025390624998,0.8323650878906249,0.15802338867187504,1.070718658453935,-5.339733553686892,-0.88836879912065,1.3428245854079888,5.577197451659466
504,1790597161.970668,-0.5828519531249998,0.7509344238281249,0.11970307617187505,0.9580958900844502,-5.345371639492945,-0.8814567299835615,1.3423727291134793,5.581391266968871
505,1790597161.990668,-0.4918412109374998,0.746144384765625,-0.08147856445312496,0.8973728189326224,-5.35770402426268,-0.8660683950618929,1.3415708990382955,5.590606349374996
506,1790597162.0161595,-0.8127738281249998,0.722194189453125,-0.09105864257812496,1.09108084913676,-5.373559033604154,-0.8465895870640024,1.3403723382366626,5.602539479705969
507,1790597162.0361595,-0.9421048828124998,0.8706854003906249,-0.019208056640624957,1.2829745227838496,-5.386764879744798,-0.8312100680802388,1.339407631387081,5.612678402505162
508,1790597162.0607476,-0.9516849609374998,0.837155126953125,0.22987397460937506,1.2881673088777035,-5.404057283913581,-0.8119890960193674,1.3387880077110588,5.626323377612127
509,1790597162.0807476,-0.8750443359374998,0.8084148925781249,0.24903413085937506,1.2170682917286464,-5.418753178830408,-0.7962315462825674,1.3390779672746098,5.638262187130045
510,1790597162.090747,-0.8271439453124998,0.875475439453125,0.10054291992187504,1.2086079720484995,-5.426275215467394,-0.7882720506566043,1.3394633642491143,5.644466107968727
511,1790597162.110747,-0.9804251953124998,0.8706854003906249,0.14844331054687504,1.3196067772268572,-5.441774638658834,-0.7721210240840648,1.3404920493379886,5.657384645586816
512,1790597162.1364005,-1.1049662109374998,0.779674658203125,0.16760346679687504,1.3626935906652184,-5.46268547588889,-0.7513367651858882,1.342221667421349,5.675121016128446
513,1790597162.1564004,-1.0091654296875,0.7748846191406249,0.004742138671875044,1.2723535378723363,-5.479713875088622,-0.7352316047270507,1.3436263698165425,5.689741776837914
514,1790597162.181118,-0.8606742187499998,0.784464697265625,-0.019208056640624957,1.1646947761181385,-5.501068511108937,-0.7154224213535268,1.3450751892760395,5.708135533577984
515,1790597162.201118,-0.7792435546874998,0.7940447753906249,0.05743256835937505,1.1140135200057102,-5.518215447123133,-0.6994305124887574,1.3461289794416438,5.722933512802787
516,1790597162.2101605,-0.6786527343749998,0.837155126953125,0.08617280273437505,1.0811216362600762,-5.525793856340566,-0.6921784555551748,1.3466313494228341,5.729478575608277
517,1790597162.2301605,-0.6020121093749998,0.779674658203125,0.13407319335937504,0.9941261356869544,-5.54196232904029,-0.6761192811434824,1.3479061781700892,5.743460176930345
518,1790597162.2714615,-0.6690726562499998,0.7126141113281249,0.16760346679687504,0.991749975088346,-5.574280044785701,-0.6433082199100695,1.3510783446482324,5.77164241588799
519,1790597162.2914615,-0.7457132812499998,0.6934539550781249,0.11491303710937505,1.0247788501641883,-5.58970457472425,-0.6276936999427823,1.3528078201447205,5.78522995324177
520,1790597162.3157678,-0.9037845703124998,0.765304541015625,0.023902294921875046,1.184520540023101,-5.608645390251828,-0.6089043337389011,1.354847457041091,5.802006483371922
521,1790597162.3357677,-1.004375390625,0.803624853515625,0.014322216796875044,1.286385617291762,-5.624754958099252,-0.5934095359063464,1.3563313291797507,5.816325119049073
522,1790597162.3613226,-1.0762259765624997,0.7317742675781249,-0.04794829101562496,1.3023267523662128,-5.646239019713382,-0.5736381102024162,1.3578784907909023,5.835487104343827
523,1790597162.3813226,-1.1432865234374998,0.6695037597656249,-0.023998095703124958,1.3251095304205947,-5.663860212271396,-0.5583835717194747,1.358799795730184,5.851276920655317
524,1790597162.3759472,-1.1624466796875,0.698243994140625,0.023902294921875046,1.3562441808805958,-5.663860212271396,-0.5583835717194747,1.358799795730184,5.851276920655317
525,1790597162.3959472,-1.0474857421875,0.798834814453125,0.004742138671875044,1.317340475635528,-5.682846226396403,-0.5433726748711089,1.35950828301235,5.868411869342813
526,1790597162.4210255,-0.9756351562499999,0.8515252441406249,-0.03836821289062496,1.2955428666316422,-5.706887295672636,-0.5242695148937118,1.3602001626879594,5.890124413994409
527,1790597162.4410255,-0.9085746093749998,0.755724462890625,-0.05273833007812496,1.1829660249016816,-5.726010479516532,-0.5089090625914328,1.3605325118614584,5.907388015134344
528,1790597162.4813488,-0.7361332031249997,0.7078240722656249,-0.05752836914062496,1.0228472629272392,-5.7637566442880885,-0.47815911157072066,1.360768598521722,5.941482808969152
529,1790597162.5013487,-0.7169730468749997,0.9329559082031249,-0.08626860351562496,1.17978784048187,-5.781849802372698,-0.46273399455603087,1.360652435638867,5.957791951513998
530,1790597162.4962862,-0.6834427734374998,0.961696142578125,0.023902294921875046,1.1800528864911604,-5.781849802372698,-0.46273399455603087,1.360652435638867,5.957791951513998
531,1790597162.5162861,-0.6163822265624997,0.837155126953125,0.009532177734375044,1.0396377341258864,-5.798657373197498,-0.4464753941209252,1.3605391426495366,5.972841398193549
532,1790597162.5558338,-0.5301615234374998,0.817994970703125,-0.06231840820312496,0.9767653746064857,-5.830307905869424,-0.41423899369622763,1.3601921542979942,6.001183793032488
533,1790597162.5758338,-0.4583109374999998,0.597653173828125,0.028692333984375044,0.7536985349915646,-5.845395924954855,-0.39825837032821065,1.3599925586703143,6.014718863642251
534,1790597162.585257,-0.5110013671874998,0.47790219726562494,0.03827241210937504,0.7006979983898028,-5.852123562830948,-0.39109816780076695,1.3599599498106787,6.0207806002699815
535,1790597162.605257,-0.5157914062499998,0.5353826660156249,-0.06231840820312496,0.7460287915572171,-5.8658007163213455,-0.376660909781629,1.3598650529797822,6.033135540236871
536,1790597162.616315,-0.4583109374999998,0.5737029785156249,-0.14374907226562497,0.748229790082603,-5.873036281939896,-0.36895617910435424,1.3596495555343364,6.039646574506359
537,1790597162.6363149,-0.48226113281249977,0.7509344238281249,-0.15811918945312498,0.9063553316359907,-5.885570861400514,-0.35512422312871894,1.3588654548262284,6.05083241403525
538,1790597162.6618054,-0.6690726562499998,0.9521160644531249,-0.22996977539062496,1.1861995266920116,-5.901351283408656,-0.3368835245481835,1.357274056425004,6.064786092150767
539,1790597162.6818054,-0.7840335937499998,1.009596533203125,-0.16290922851562498,1.2886167982452597,-5.914055123546375,-0.32177598296379467,1.3556234127612699,6.075961045364261
540,1790597162.7052686,-1.0091654296875,1.143717626953125,-0.297030322265625,1.5539407604618862,-5.929878824393768,-0.30292162703319947,1.3531680332646043,6.08985123877154
541,1790597162.7252686,-1.0283255859374998,1.172457861328125,-0.26350004882812494,1.5816267647634972,-5.944399909076523,-0.2857866953834626,1.3505482260947712,6.102585093654566
542,1790597162.780451,-0.7409232421874998,0.578493017578125,0.36878510742187504,1.0097642683599204,-5.985777941907459,-0.2383542499852799,1.3448398475036087,6.139620878665513
543,1790597162.800451,-0.5349515624999998,0.4826922363281249,0.20592377929687505,0.7493794580268034,-6.000439026077196,-0.22215002526395985,1.343943337653042,6.153113263561546
544,1790597162.7814953,-0.6259623046874998,0.798834814453125,-0.023998095703124958,1.015156035429737,-6.000439026077196,-0.22215002526395985,1.343943337653042,6.153113263561546
545,1790597162.8014953,-0.6834427734374998,0.736564306640625,-0.009627978515624957,1.0048451126174738,-6.014475928902967,-0.20650543098607874,1.3434771252481543,6.166157310549659
546,1790597162.8257709,-0.6690726562499998,0.4108416503906249,0.009532177734375044,0.7852005752987465,-6.0314204411374215,-0.1882756807697413,1.342995954132343,6.181999547278815
547,1790597162.8457708,-0.6690726562499998,0.4922723144531249,0.08138276367187505,0.8346336951868999,-6.0452937750118405,-0.1741548505485774,1.3427953658059866,6.195079186951248
548,1790597162.855249,-0.7409232421874998,0.7078240722656249,-0.023998095703124958,1.0249673539628985,-6.05188452701876,-0.16761361075517914,1.3427553572443098,6.201321842985394
549,1790597162.875249,-0.9325248046874998,0.765304541015625,-0.12937895507812497,1.2132734505764573,-6.0662159234754975,-0.15367149867396623,1.342453532203637,6.2148831079802624
550,1790597162.9008307,-1.0331156249999998,0.8898455566406249,-0.11021879882812496,1.3679551136303116,-6.085568786634924,-0.1353375952873071,1.3416656779412592,6.233179807524325
551,1790597162.9208307,-1.0474857421875,0.861105322265625,-0.08626860351562496,1.3587387637337869,-6.101550308807135,-0.12052768113306953,1.3408473916820398,6.248304955794355
552,1790597162.9453733,-0.9516849609374998,0.7940447753906249,-0.02878813476562496,1.239774224164643,-6.121899857949749,-0.10203342595009819,1.3397820857277412,6.267621935631826
553,1790597162.9653733,-0.8127738281249998,0.7700945800781249,0.07180268554687505,1.121963717596257,-6.13864213359431,-0.08687674181602054,1.339108698468687,6.283604611918414
554,1790597162.991728,-0.7600833984374998,0.817994970703125,0.009532177734375044,1.1166617245559485,-6.160503739646687,-0.06676101616637406,1.338515218356938,6.304592480823286
555,1790597163.011728,-0.7313431640624998,0.803624853515625,-0.023998095703124958,1.0868540092424257,-6.1768425625615055,-0.05135307221668777,1.3381106990577978,6.320329217978319
556,1790597163.0207765,-0.6068021484374998,0.7317742675781249,-0.02878813476562496,0.9510684427217373,-6.184033932037637,-0.04438581828552712,1.3379193145521933,6.327264327156686
557,1790597163.0407765,-0.4678910156249998,0.616813330078125,0.07180268554687505,0.7775193324390097,-6.1991569034486655,-0.029273067302115062,1.3376242687435405,6.341895766281263
558,1790597163.0653558,-0.3098197265624998,0.5353826660156249,0.14844331054687504,0.6361275646310073,-6.216388340202697,-0.011361963490037114,1.3377220695006784,6.358703753568928
559,1790597163.0853558,-0.3193998046874998,0.597653173828125,0.09575288085937504,0.6843786712150765,-6.229250095694579,0.0027255997284473307,1.3381560062189255,6.371359798393478
560,1790597163.1103745,-0.43436074218749976,0.760514501953125,0.03827241210937504,0.8766506371202585,-6.244340299186501,0.02025330965348667,1.338868894460607,6.386295161136122
561,1790597163.1303744,-0.5972220703124997,0.817994970703125,-4.790039062495644e-05,1.0128129025927752,-6.2561413340531855,0.03453099816492796,1.3394106325380073,6.398008879646769
562,1790597163.1408832,-0.7600833984374998,0.7126141113281249,-0.004837939453124956,1.0419064496884662,-6.2624817236996515,0.042114109927260765,1.339648734621976,6.4043039957595225
563,1790597163.1608832,-0.6978128906249998,0.6742937988281249,0.03348237304687505,0.9709459443065468,-6.274925376561149,0.05646162447649286,1.3400768775524523,6.416672224307575
564,1790597163.1852913,-0.7169730468749997,0.7509344238281249,-0.043158251953124956,1.039141710041007,-6.290423659656962,0.07395398532216371,1.3405032968821837,6.432095156235572
565,1790597163.2052913,-0.9516849609374998,0.8323650878906249,-0.05752836914062496,1.2656403192336114,-6.303721033824103,0.0885121758375361,1.3406492636280052,6.445314090532301
566,1790597163.2311635,-1.1337064453124999,0.7126141113281249,0.03827241210937504,1.3396170920586776,-6.322388968329168,0.10751784205135619,1.3407723998142638,6.463886832341161
567,1790597163.2511635,-0.9660550781249998,0.5928631347656249,-0.03836821289062496,1.1341169385454233,-6.33780483195362,0.12196419530076319,1.340853165765284,6.479238579108876
568,1790597163.261023,-0.7409232421874998,0.5162225097656249,-0.11021879882812496,0.9097258455257122,-6.345526823130737,0.128837808829122,1.3407771340524095,6.486909369434211
569,1790597163.281023,-0.7409232421874998,0.32941098632812493,-0.10063872070312496,0.8170722127401385,-6.361063947488992,0.1419578309344723,1.3403297532150897,6.502289628827793
570,1790597163.3059332,-0.6451224609374998,0.3437811035156249,-0.07668852539062496,0.7350167118284219,-6.380102369884455,0.1571055033546979,1.3395248233916444,6.521097694550511
571,1790597163.3259332,-0.4774710937499998,0.5689129394531249,-0.09105864257812496,0.7482862115742791,-6.394779037545585,0.16881207818064045,1.3387238782015407,6.53558551920477
572,1790597163.3511205,-0.36251015624999977,0.6359734863281249,0.023902294921875046,0.7324255650912803,-6.412076574718841,0.183619573765339,1.3377396376642083,6.552708561053653
573,1790597163.3711205,-0.45352089843749976,0.8706854003906249,0.009532177734375044,0.9817663338011238,-6.424975487591086,0.1958737889796756,1.3371254821639105,6.565560228374091
574,1790597163.3811526,-0.6499124999999998,0.8706854003906249,-0.03357817382812496,1.0870173953839306,-6.4313054082793135,0.20240882383215394,1.3368455334292186,6.571895812227817
575,1790597163.4011526,-0.8127738281249998,0.6311834472656249,0.20113374023437505,1.0485459557157013,-6.444225776470613,0.21573554110115872,1.3366224805743914,6.584918172414849
576,1790597163.4257715,-0.6978128906249998,0.540172705078125,0.22029389648437506,0.9095376751196761,-6.460533562538122,0.2318421309741493,1.3371672299930475,6.601534737267041
577,1790597163.4457715,-0.7073929687499998,0.6742937988281249,0.052642529296875046,0.9786971826186966,-6.473902331564866,0.24478585988950197,1.337952798278056,6.6152436996880875
578,1790597163.4709444,-0.6259623046874998,0.559332861328125,0.047852490234375045,0.8408162209857899,-6.490722263406822,0.2609627772502537,1.3389829712639278,6.632529869448755
579,1790597163.4909444,-0.6115921874999998,0.46832211914062494,0.05743256835937505,0.7724435972909316,-6.50393755534895,0.27342897488391654,1.3398366028148325,6.646136415273683
580,1790597163.5015054,-0.5205814453124998,0.3533611816406249,0.028692333984375044,0.629835229185841,-6.51076590524292,0.27967516805076204,1.3402879662277498,6.653169372931431
581,1790597163.5215054,-0.5301615234374998,0.31983090820312493,0.019112255859375045,0.6194580930939885,-6.523333586626319,0.2907394282222229,1.341086230985425,6.66610251769868
582,1790597163.545735,-0.5397416015624998,0.4108416503906249,-0.009627978515624957,0.6783837823262303,-6.538219473627264,0.303460703721037,1.3419254837629944,6.681404514620724
583,1790597163.5657349,-0.5876419921874998,0.5353826660156249,0.009532177734375044,0.7950148253111079,-6.550354822388103,0.313805573439699,1.342514178791461,6.693875301898072
584,1790597163.590518,-0.6259623046874998,0.7078240722656249,-0.009627978515624957,0.944953132244492,-6.565392562616016,0.3270124534443611,1.3431340639065101,6.709346149930514
585,1790597163.610518,-0.6594925781249998,0.7269842285156249,0.004742138671875044,0.9815594821464467,-6.577635876583934,0.3382239192944068,1.3435519451659212,6.721965558812847
586,1790597163.6201775,-0.6738626953124998,0.46832211914062494,0.03827241210937504,0.8215116048716916,-6.583628097475098,0.3436925236361775,1.343754660632574,6.728146852190338
587,1790597163.6401775,-0.5924320312499998,0.35815122070312494,0.10054291992187504,0.6995404829518845,-6.596073358447674,0.3545565306801688,1.3443196461419118,6.741000622643069
588,1790597163.6799757,-0.6259623046874998,0.5880730957031249,0.08138276367187505,0.8627177562809377,-6.6207603650588265,0.3757565686872695,1.3458183026758905,6.7666008981070345
589,1790597163.6999757,-0.6930228515624998,0.755724462890625,0.06701264648437505,1.027565487639587,-6.633283993255896,0.3868279430449969,1.3466810526347124,6.779649124418656
590,1790597163.710328,-0.6930228515624998,0.746144384765625,0.12449311523437505,1.0259194176180948,-6.63987025724003,0.39286517812179794,1.3472093325824015,6.7865450022053615
591,1790597163.730328,-0.6259623046874998,0.679083837890625,0.12928315429687506,0.9325758949055548,-6.652664261046108,0.40491696734502225,1.34845750308225,6.800017438085204
592,1790597163.7564042,-0.6020121093749998,0.4012615722656249,0.07180268554687505,0.7270385511532119,-6.669244572827209,0.4203860124898324,1.3502340333137697,6.817527375552008
593,1790597163.7764041,-0.5684818359374998,0.2431902832031249,0.03348237304687505,0.6192206238007069,-6.6818096457054565,0.43143754614923896,1.351550148138483,6.830769085586404
594,1790597163.7858832,-0.5541117187499998,0.42521176757812496,-0.009627978515624957,0.6985252623300674,-6.687669692558848,0.4363649511874294,1.3520973167052375,6.836922366184691
595,1790597163.8058832,-0.5924320312499998,0.4922723144531249,-0.019208056640624957,0.7705041808244434,-6.6998990771154645,0.44657812086893883,1.3530353699786306,6.849728781052918
596,1790597163.8309314,-0.6690726562499998,0.506642431640625,-0.06231840820312496,0.8415630439136019,-6.715287778500708,0.4593271503904198,1.3538808191838034,6.865789441260238
597,1790597163.8509314,-0.7073929687499998,0.43958188476562493,-0.03357817382812496,0.8335253681854374,-6.727796622253969,0.4693991156929894,1.3543107717944194,6.878789180286286
598,1790597163.8757935,-0.6930228515624998,0.4012615722656249,0.08138276367187505,0.8049314731005194,-6.743625234813521,0.48160942070421586,1.3548542151478444,6.895220002728604
599,1790597163.8957934,-0.6594925781249998,0.5305926269531249,0.07180268554687505,0.84947902977691,-6.756477174103078,0.49135626998642645,1.3554555846576326,6.908594258618063
600,1790597163.9059947,-0.6930228515624998,0.616813330078125,0.043062451171875044,0.9287592431038383,-6.763083956774516,0.4964599069699265,1.3558041919640913,6.915488562101511
601,1790597163.9259946,-0.7313431640624998,0.621603369140625,0.052642529296875046,0.9612620912314689,-6.776230485425367,0.5068225700536265,1.3565286916783572,6.929237966794795
602,1790597163.9506307,-0.7169730468749997,0.6120232910156249,0.03827241210937504,0.9434445591657661,-6.792671382460892,0.5199519876026509,1.3574552500105648,6.946468119504785
603,1790597163.9706306,-0.6403324218749998,0.5114324707031249,-0.014418017578124958,0.8196320283058055,-6.8060523070805035,0.5306970662077757,1.3581303990515412,6.960496071662226
604,1790597163.9953737,-0.6163822265624997,0.4826922363281249,-4.790039062495644e-05,0.7828913376248574,-6.822455569677625,0.5438412245244337,1.3588135287161938,6.977681383062689
605,1790597164.0153737,-0.6594925781249998,0.5353826660156249,0.028692333984375044,0.8499342972850479,-6.835639407745846,0.5543991625064582,1.359325846479893,6.991501362441698
606,1790597164.0254743,-0.7026029296874998,0.5737029785156249,0.03827241210937504,0.9078825705408311,-6.84233076251936,0.5597716148703621,1.3595965010455455,6.998523927957139
607,1790597164.0454743,-0.7505033203124998,0.5880730957031249,-0.004837939453124956,0.9534718691959903,-6.855772412936207,0.5705564703599705,1.360102182260819,7.012633457556256
608,1790597164.0706043,-0.7744535156249998,0.564122900390625,0.009532177734375044,0.9581773098030512,-6.873002630674423,0.5842465962788553,1.3606511111530297,7.030709828516815
609,1790597164.0906043,-0.7648734374999998,0.564122900390625,0.05743256835937505,0.9521368189743276,-6.88696752943983,0.595200069951325,1.3611228980025123,7.045370140616843
610,1790597164.115505,-0.7217630859374998,0.578493017578125,0.06222260742187505,0.927074849450164,-6.904522667112042,0.6089258017203194,1.361845642539604,7.063840842400742
611,1790597164.135505,-0.7457132812499998,0.597653173828125,0.03348237304687505,0.9562419585671413,-6.918708978681318,0.6200607379593613,1.3624826260757794,7.07879708402512
612,1790597164.1450472,-0.7361332031249997,0.6742937988281249,-4.790039062495644e-05,0.9982806329763106,-6.925522675408687,0.6254867464451348,1.362764879529187,7.085988012582058
613,1790597164.1650472,-0.7361332031249997,0.7700945800781249,-0.03836821289062496,1.066025269292054,-6.9398700354865195,0.6373200492235199,1.363210104931089,7.101148832743345
614,1790597164.1914592,-0.7313431640624998,0.645553564453125,-4.790039062495644e-05,0.975501015116607,-6.958882037279315,0.6534073262108261,1.3636337770583002,7.1212693686342865
615,1790597164.2114592,-0.8127738281249998,0.746144384765625,0.009532177734375044,1.1033692043076966,-6.973435208798761,0.6658493820641391,1.3639206983159007,7.136696272239974
616,1790597164.235606,-0.9468949218749998,0.861105322265625,0.05743256835937505,1.2811755808690712,-6.991557029384139,0.6815286594204393,1.3643364221246266,7.155960095017161
617,1790597164.255606,-0.9947953124999999,0.913795751953125,0.06701264648437505,1.3524537274333601,-7.007227803897499,0.6952296352689238,1.364815770347333,7.17267787011651
618,1790597164.2810087,-0.8846244140624998,0.8706854003906249,0.03827241210937504,1.2418205176020702,-7.027726962567812,0.7134212833471802,1.3655338739937313,7.194622919163982
619,1790597164.3010087,-0.7361332031249997,0.683873876953125,0.028692333984375044,1.0051859640640834,-7.043876489127099,0.7279272863893367,1.3661148884296708,7.211958403702622
620,1790597164.3102086,-0.7505033203124998,0.6742937988281249,-0.023998095703124958,1.0092092298109083,-7.051216625709788,0.7345361724688719,1.3663453007515525,7.219840633437638
621,1790597164.3302085,-0.8223539062499998,0.817994970703125,-0.004837939453124956,1.159915999061308,-7.067139401998456,0.7489868528215684,1.3667278148181354,7.236945871897634
622,1790597164.3557386,-0.8798343749999998,0.8323650878906249,0.014322216796875044,1.211257731808051,-7.087675374161587,0.7678263178427674,1.367161014253676,7.259051501591907
623,1790597164.3757386,-0.8654642578124998,0.760514501953125,0.014322216796875044,1.1522221205678735,-7.1039678134715425,0.7827604585717006,1.3674924397182777,7.276613786853723
624,1790597164.400946,-0.7984037109374998,0.741354345703125,-0.004837939453124956,1.089531163936962,-7.124567693341052,0.8015989121474675,1.367865429751575,7.298841104371604
625,1790597164.420946,-0.7552933593749998,0.755724462890625,0.009532177734375044,1.0684935118846794,-7.140790953762384,0.8165493258500112,1.3681240184425374,7.3163796769112635
626,1790597164.4305012,-0.7265531249999998,0.698243994140625,0.03827241210937504,1.008409091752642,-7.14844122361236,0.8236627108807354,1.3682632910948254,7.324669045253417
627,1790597164.4505012,-0.7361332031249997,0.722194189453125,-0.009627978515624957,1.0312852360008,-7.164245909132319,0.8384488480390447,1.3685540388273836,7.341822394643438
628,1790597164.475688,-0.7888236328124998,0.7892547363281249,-0.05752836914062496,1.1173519032766122,-7.184044517753154,0.857131646166877,1.3687384076564788,7.363329078651442
629,1790597164.495688,-0.8127738281249998,0.760514501953125,-4.790039062495644e-05,1.1130964044773588,-7.1998101150532,0.8720663774467625,1.3687764843097148,7.380468448783909
630,1790597164.5215893,-0.8175638671874998,0.7892547363281249,0.03348237304687505,1.136861814404815,-7.220332087754338,0.8915172147877107,1.3688833491250687,7.402826488931752
631,1790597164.5415893,-0.8223539062499998,0.8084148925781249,0.047852490234375045,1.1541622271103684,-7.236261284696996,0.906680014189693,1.3690754905975857,7.420236770312027
632,1790597164.5503213,-0.7984037109374998,0.765304541015625,0.03348237304687505,1.106463101708664,-7.243234273026393,0.9133377762455182,1.3692000636372643,7.427875701822532
633,1790597164.5703213,-0.7026029296874998,0.7269842285156249,-0.05273833007812496,1.0123923531790158,-7.259061089622372,0.9285378201973029,1.3694137037949425,7.445229632358406
634,1790597164.5960004,-0.6738626953124998,0.703034033203125,-0.11021879882812496,0.9800489618334353,-7.278984877142034,0.9478807098786051,1.369333018246914,7.467072491725496
635,1790597164.6160004,-0.5924320312499998,0.703034033203125,-0.08626860351562496,0.9234039394790285,-7.294074184409205,0.962795113266865,1.368984872297188,7.483622934005556
636,1790597164.64074,-0.6163822265624997,0.918585791015625,-0.08626860351562496,1.1095806309730187,-7.312182443368405,0.9814854184229939,1.3682986848627794,7.5035702837169
637,1790597164.66074,-0.8894144531249998,1.000016455078125,0.009532177734375044,1.3383504183385686,-7.32688439744328,0.9972065387996647,1.367712060156032,7.519859848030337
638,1790597164.6708052,-0.9900052734374998,0.798834814453125,0.11970307617187505,1.2777231032823297,-7.334592317910281,1.0052896135145548,1.3675586754948066,7.52841739065455
639,1790597164.6908052,-0.9756351562499999,0.817994970703125,0.09575288085937504,1.2767726283091432,-7.350559195428154,1.021366898532907,1.3676227975631052,7.546144906064716
640,1790597164.7150717,-1.0235355468749998,0.779674658203125,0.05743256835937505,1.2879503438678135,-7.370664721326095,1.040855564229395,1.3679677237367842,7.568448614674871
641,1790597164.7350717,-0.8846244140624998,0.6551336425781249,-0.04794829101562496,1.1018436741227962,-7.387611967760143,1.05666063988801,1.3682235895950685,7.587185122639743
642,1790597164.7610648,-0.7984037109374998,0.621603369140625,-0.06710844726562495,1.0140723730879124,-7.409614764427135,1.0766096134798435,1.368281945527229,7.611417390966651
643,1790597164.7810647,-0.8175638671874998,0.602443212890625,0.052642529296875046,1.0169167800657686,-7.426428957844185,1.0914926869027395,1.3682984125521729,7.6299045798267775
644,1790597164.790721,-0.7648734374999998,0.6886639160156249,0.05743256835937505,1.0308190260775147,-7.434475333266546,1.0985355673969137,1.3683848883913892,7.63876175021598
645,1790597164.810721,-0.7265531249999998,0.7126141113281249,0.07180268554687505,1.020222495715019,-7.450878331359947,1.1130366630008808,1.3687309841285655,7.656883375684057
646,1790597164.8353963,-0.3816703124999998,0.521012548828125,-0.18206938476562495,0.6710257553545617,-7.470131160942116,1.130527037278139,1.368889870815549,7.678203593427091
647,1790597164.8553963,-0.4870511718749998,0.645553564453125,-0.17727934570312495,0.8278805560078542,-7.48469839158373,1.1443267988448307,1.3684603124965815,7.694340612580701
648,1790597164.881023,-0.3816703124999998,0.722194189453125,-0.05752836914062496,0.8188688466291069,-7.502233740896638,1.1619853996638412,1.3675411655995524,7.7138764581557355
649,1790597164.901023,-0.3577201171874998,0.7700945800781249,-0.014418017578124958,0.8492450904993359,-7.514975268458298,1.175938035138475,1.3668235106860256,7.72825271697227
650,1790597164.9110725,-0.47268105468749977,0.798834814453125,0.014322216796875044,0.9283154453830996,-7.521043160819792,1.1830798433897733,1.3665169225954814,7.735188209894389
651,1790597164.9310725,-0.5972220703124997,0.8275750488281249,0.07180268554687505,1.0230886024010653,-7.53291252812451,1.1976006180588317,1.3661274820048916,7.748891707453338
652,1790597164.9706304,-0.7121830078124998,0.7078240722656249,0.12928315429687506,1.0123900868146138,-7.556752274073046,1.2265684359360323,1.3660693396392107,7.776575113791741
653,1790597164.9906304,-0.7984037109374998,0.640763525390625,0.11012299804687505,1.029637536130373,-7.569263259750377,1.2410402071141906,1.3664034618998455,7.791083718698755
654,1790597165.016024,-0.7984037109374998,0.6359734863281249,0.004742138671875044,1.0207513158601873,-7.585806711419692,1.2590902223014373,1.3669828221321643,7.81014812195771
655,1790597165.036024,-0.7026029296874998,0.6503436035156249,-0.13416899414062497,0.9667466050769732,-7.59913333390657,1.2731033889098435,1.3671765382770642,7.825394006192849
656,1790597165.0305529,-0.6786527343749998,0.6886639160156249,-0.12937895507812497,0.9754826687920946,-7.59913333390657,1.2731033889098435,1.3671765382770642,7.825394006192849
657,1790597165.0505528,-0.6547025390624998,0.6551336425781249,-0.09105864257812496,0.9306595406918349,-7.612522948948279,1.2869508291592464,1.3666498187958118,7.840566294098437
658,1790597165.0912712,-0.5732718749999998,0.717404150390625,-0.10063872070312496,0.9238168161321114,-7.639444159992025,1.3151057988285453,1.3651528953155736,7.87110238551991
659,1790597165.1112711,-0.4966312499999998,0.679083837890625,-0.05273833007812496,0.8429583553297589,-7.652288675901444,1.3289552884105873,1.3642978612285124,7.885743642300112
660,1790597165.1211257,-0.4056205078124998,0.703034033203125,-0.06231840820312496,0.8140444903080508,-7.658335049839671,1.3357772294399402,1.3638547192408803,7.892686249781418
661,1790597165.1411257,-0.3768802734374998,0.8275750488281249,-0.09584868164062496,0.9143884140350007,-7.6699393325308565,1.349841595701538,1.3628530095030658,7.906162787579163
662,1790597165.1805453,-0.3816703124999998,0.7269842285156249,-0.014418017578124958,0.8212101894065787,-7.691623048927058,1.3780001594145668,1.3608488077396097,7.931699631457237
663,1790597165.2005453,-0.47268105468749977,0.6120232910156249,0.004742138671875044,0.7733190648660271,-7.702255820074783,1.392152234590773,1.3599699687420939,7.944328220688791
664,1790597165.1955829,-0.6211722656249998,0.626393408203125,-0.043158251953124956,0.8832249544332811,-7.702255820074783,1.392152234590773,1.3599699687420939,7.944328220688791
665,1790597165.2155828,-0.7984037109374998,0.5880730957031249,-0.04794829101562496,0.9927625547631954,-7.7134620208164835,1.4057777867098031,1.3591493673845425,7.9574489966978
666,1790597165.2416482,-0.9085746093749998,0.621603369140625,-0.03357817382812496,1.1013746243152422,-7.729212982094358,1.4232366772151288,1.358080946729052,7.9756328789516635
667,1790597165.2616482,-0.9229447265624998,0.7269842285156249,-0.05752836914062496,1.1762833629937839,-7.742233133796957,1.4366463541102306,1.357247456420552,7.9905098274641855
