imu_index,t_imu,ax,ay,az,mag,vx,vy,vz,velocity
0,1790598470.8835857,-0.08573192362882665,0.04648293008609699,-0.025172144052933942,0.10071872891726545,0.0,0.0,0.0,0.0
1,1790598470.9035857,-0.08094188456632664,0.07522316446109699,-0.0012219487404339403,0.11050613696720214,-0.00035931857224626336,0.0002418246470583897,-7.168555449280522e-05,0.0004390077619005715
2,1790598470.9141405,-0.10489207987882665,0.094383320711097,0.037098363759566065,0.1459001310602462,-0.0006676092388019437,0.0004845641800362133,-7.544208723306951e-05,0.0008283695122552257
3,1790598470.9341404,-0.10968211894132665,0.08480324258609699,0.037098363759566065,0.14352019287268544,-0.00148601597723484,0.0011443101385173835,2.980247031132043e-05,0.0018757871320988283
4,1790598470.9587235,-0.10010204081632665,0.05127296914859699,0.037098363759566065,0.11842982958082643,-0.00272785915468903,0.0020844895156560813,0.0002765590988787706,0.0034442411419460034
5,1790598470.9787235,-0.11926219706632665,0.05606300821109699,0.00835812938456606,0.13204692675550617,-0.0039156786148348745,0.0028956567876548605,0.0005153837037632693,0.004897242857840683
6,1790598471.0036125,-0.09531200175382665,0.036902851961096994,-0.02996218311543394,0.1065078897463793,-0.0055726742317751266,0.003927232879129076,0.0007276806197057011,0.006856192475762202
7,1790598471.0236125,-0.09052196269132665,0.03211281289859699,-0.04433230030293394,0.10578663115866649,-0.006983206315148081,0.004735355990389161,0.0007612446356485739,0.008471614969469653
8,1790598471.0484347,-0.12405223612882665,0.07043312539859699,-0.01080202686543394,0.14306105768649346,-0.008870707332583466,0.005778788686847013,0.0006940110675893201,0.010609688903521987
9,1790598471.0684347,-0.10489207987882665,0.08959328164859699,0.013148168447066061,0.13857192670733637,-0.010506814751911904,0.0067334429630233564,0.0006514840780243869,0.012496273119262465
10,1790598471.0785162,-0.09052196269132665,0.108753437898597,0.01793820750956606,0.14262999429611634,-0.011355585634503054,0.0072924521804630825,0.000656767600184339,0.013511496126910773
11,1790598471.0985162,-0.08573192362882665,0.099173359773597,0.013148168447066061,0.13175049279374515,-0.013051206488981093,0.008546971620313114,0.0007123064612349065,0.015617045021103608
12,1790598471.123744,-0.07136180644132664,0.06085304727359699,-0.0012219487404339403,0.09379282456444228,-0.015166454975793678,0.01019482802968035,0.0007944196303237449,0.018291718826741698
13,1790598471.143744,-0.08573192362882665,0.04648293008609699,0.00356809032206606,0.09758768768156342,-0.01682747572835863,0.011466255611869694,0.0008532715820734966,0.02038055518228113
14,1790598471.1543932,-0.08573192362882665,0.06085304727359699,0.01793820750956606,0.10665287328636697,-0.017716186303909382,0.012127421277380321,0.0008970843536873298,0.021488191276408396
15,1790598471.1743932,-0.09531200175382665,0.07522316446109699,0.022728246572066062,0.12352924893361625,-0.019406455623490783,0.013386995069075645,0.0010280250153602204,0.023598283672296574
16,1790598471.1986256,-0.08573192362882665,0.05606300821109699,0.013148168447066061,0.10327583430933356,-0.021476260376934456,0.014922805023336191,0.001228080689892175,0.026180680887312287
17,1790598471.2186255,-0.07615184550382664,0.06085304727359699,0.00835812938456606,0.09783688089330352,-0.023171136167179692,0.016175610714334973,0.0014006871194592943,0.0282933535952582
18,1790598471.2440307,-0.09052196269132665,0.04169289102359699,0.022728246572066062,0.10222082020623832,-0.025318706842948076,0.01772368070578663,0.0016462854496188508,0.030949572367666822
19,1790598471.2640307,-0.09531200175382665,0.05606300821109699,0.032308324697066064,0.11520098268994945,-0.027034514185014714,0.018906212473184105,0.001893183464700047,0.033043818951990975
20,1790598471.2735791,-0.08573192362882665,0.06085304727359699,0.032308324697066064,0.10998583516213642,-0.027860454686235787,0.01946982121004843,0.002039650818019356,0.03405053668790694
21,1790598471.293579,-0.09531200175382665,0.06564308633609699,0.027518285634566063,0.11895649837783265,-0.029602521904692782,0.020663012260034166,0.0023901606132382047,0.03617985968094975
22,1790598471.3188605,-0.09052196269132665,0.07043312539859699,0.00356809032206606,0.11475095708294046,-0.031826667648297134,0.022203065511390865,0.002825713089225733,0.03890883635064019
23,1790598471.3388605,-0.08094188456632664,0.05606300821109699,-0.02996218311543394,0.10291929840350093,-0.03357944481794339,0.02342838706896787,0.003079000406384053,0.04106030538655551
24,1790598471.363545,-0.08573192362882665,0.04648293008609699,-0.02038210499043394,0.09962959260344799,-0.035726833072966396,0.02490370532703973,0.003251517404448805,0.04367119766929991
25,1790598471.383545,-0.09052196269132665,0.05127296914859699,0.013148168447066061,0.10486189693265775,-0.037470104058167183,0.026066379808039972,0.0033594776905092566,0.04576844922847944
26,1790598471.4090354,-0.09531200175382665,0.06564308633609699,0.04188840282206606,0.12307733647196549,-0.03971394896454348,0.02754948000404921,0.0035816545972031434,0.048466481618800614
27,1790598471.4290354,-0.08573192362882665,0.06564308633609699,0.027518285634566063,0.11142815423892119,-0.04148196595914521,0.02873550921635449,0.003833937398726967,0.05060812252728047
28,1790598471.4385855,-0.056991689253826645,0.06085304727359699,-0.0012219487404339403,0.08338248716134353,-0.04230179445023668,0.02930749780387076,0.0039551687306812215,0.05161409304562198
29,1790598471.4585855,-0.052201650191326644,0.05127296914859699,-0.02996218311543394,0.07906745262782536,-0.04392494901468461,0.030493875190538377,0.00412419469917303,0.05363102229116523
30,1790598471.4834025,-0.061781728316326646,0.05606300821109699,-0.025172144052933942,0.08714172180793528,-0.04584908191710366,0.03194495648770379,0.004199850185648014,0.056037998708237766
31,1790598471.5034025,-0.09052196269132665,0.036902851961096994,0.00835812938456606,0.0981116942018724,-0.0473955950775575,0.03307841604746077,0.00422645424983351,0.05795159149230191
32,1790598471.5288663,-0.07615184550382664,0.06085304727359699,-0.02996218311543394,0.10198004389665709,-0.04938756366533912,0.0344917540201872,0.004213986394195221,0.06038683814803924
33,1790598471.5488663,-0.07136180644132664,0.03211281289859699,-0.0012219487404339403,0.07826386988613529,-0.05093869859344912,0.035574765862040614,0.004158886535156962,0.062270469066368656
34,1790598471.5588405,-0.06657176737882664,0.04648293008609699,0.04667844188456606,0.09365543197327317,-0.05169941717099856,0.03609265567680585,0.004169533945371148,0.06318935466474562
35,1790598471.5788405,-0.08094188456632664,0.113543476961097,0.08020871532206607,0.16086375555475493,-0.053217247562358266,0.037215380590934315,0.004378011824999058,0.06508630407529105
36,1790598471.6039584,-0.06657176737882664,0.127913594148597,0.05625852000956606,0.1547860098769244,-0.05511543990005659,0.03886876803966551,0.004857646698956115,0.06761722839447024
37,1790598471.6239583,-0.07136180644132664,0.08001320352359699,-0.0012219487404339403,0.10721992965583484,-0.05660705224809174,0.040299684161258766,0.005264822304273109,0.06968601912586893
38,1790598471.6639931,-0.09052196269132665,0.03211281289859699,-0.02996218311543394,0.10061406908973032,-0.05963107338571553,0.04307102890310577,0.0058639894860533,0.07379271520006096
39,1790598471.683993,-0.11926219706632665,0.01774269571109699,-0.025172144052933942,0.12317431443448577,-0.06122984085551279,0.04432260952715293,0.006035712718814201,0.07582886623517424
40,1790598471.6784933,-0.10010204081632665,0.06564308633609699,-0.01559206592793394,0.12071680031885722,-0.06122984085551279,0.04432260952715293,0.006035712718814201,0.07582886623517424
41,1790598471.6984932,-0.09052196269132665,0.103963398836097,0.027518285634566063,0.1405698049771318,-0.06295057522158075,0.04558760278387978,0.00612569774882432,0.07796491917021817
42,1790598471.7235818,-0.09531200175382665,0.103963398836097,0.04188840282206606,0.14713056877093386,-0.06513500574048726,0.0473276635960436,0.006352244058053755,0.08076402490494551
43,1790598471.7435818,-0.08094188456632664,0.103963398836097,0.05146848094706606,0.14145310709100886,-0.06687955497602398,0.048818617537301996,0.006645786877729872,0.08306803702549248
44,1790598471.7687497,-0.04262157206632664,0.099173359773597,0.05625852000956606,0.12172499647917484,-0.06897882994677028,0.050796839422340985,0.007163116614586167,0.08596341149441841
45,1790598471.7887497,-0.07615184550382664,0.099173359773597,0.04667844188456606,0.133466609304323,-0.07057496998285558,0.05243057256071002,0.0076669583926215566,0.08825289557923317
46,1790598471.7984266,-0.13842235331632666,0.05127296914859699,0.027518285634566063,0.1501563229011969,-0.07138714610200517,0.05321166751325741,0.007928023188066617,0.08938937151474445
47,1790598471.8184266,-0.03304149394132665,0.036902851961096994,-0.02038210499043394,0.05356296303023609,-0.07307113464626974,0.05471612219769994,0.00839735387082351,0.09167202571602064
48,1790598471.8436275,-0.11447215800382665,0.06085304727359699,-0.03954226124043394,0.13553803430971845,-0.07515355862608215,0.056512213490242345,0.008786763498023,0.09443990078616604
49,1790598471.8636274,-0.03304149394132665,0.07522316446109699,-0.034752222177933945,0.08920752064551764,-0.07677959034307416,0.05792793477535497,0.008938009803386177,0.09659523352543589
50,1790598471.888942,-0.028251454878826642,0.123123555086097,-0.025172144052933942,0.1288067985629299,-0.07864535980405085,0.05982764679394764,0.008986959235611805,0.09922300829904583
51,1790598471.908942,-0.061781728316326646,0.156653828523597,-0.04433230030293394,0.1741343067721075,-0.08003336580079427,0.0615230629238773,0.008915574630049567,0.10134058606463205
52,1790598471.9185057,-0.10489207987882665,0.185394062898597,-0.02038210499043394,0.21398303012901784,-0.08071708170098463,0.06245751949723146,0.008840141747609939,0.10244187193813042
53,1790598471.9385056,-0.13842235331632666,0.166233906648597,0.013148168447066061,0.21671948216714818,-0.08229739623814473,0.06464600974807397,0.00869520468756385,0.1050122592295057
54,1790598471.9636145,-0.16716258769132666,0.180604023836097,0.00356809032206606,0.24611760485181958,-0.08455925603680214,0.06763455545772881,0.008572018044801365,0.10861942904850151
55,1790598471.9836144,-0.19111278300382664,0.180604023836097,0.01793820750956606,0.2635596489258427,-0.08662806626163944,0.07019976915839424,0.00852087364450527,0.11182591265797233
56,1790598472.0091069,-0.20069286112882664,0.180604023836097,0.032308324697066064,0.2719177555412574,-0.08961858170787197,0.07366960214259027,0.00856153026722333,0.1163271261043384
57,1790598472.0291069,-0.18153270487882664,0.166233906648597,0.037098363759566065,0.24892593929503354,-0.09218618661740936,0.07650376526246908,0.008692752638874236,0.12011112792258448
58,1790598472.0393436,-0.14800243144132666,0.156653828523597,0.01793820750956606,0.21625660912975905,-0.09355625602608164,0.07798470040566308,0.008792097119985144,0.12211342068235585
59,1790598472.0593436,-0.11926219706632665,0.137493672273597,0.022728246572066062,0.18342452059800307,-0.09623240403177374,0.08088528555992405,0.009018076467898806,0.1260334507542576
60,1790598472.0839534,-0.09052196269132665,0.123123555086097,0.022728246572066062,0.15449986646845273,-0.0994186405605896,0.08440008925699252,0.00933833291637102,0.13074649371650848
61,1790598472.1039534,-0.12884227519132666,0.103963398836097,0.00835812938456606,0.16576663868474886,-0.10194867808633022,0.08716867878496895,0.009606189488190812,0.1344774717235207
62,1790598472.1285932,-0.09052196269132665,0.08480324258609699,-0.03954226124043394,0.13018988480912438,-0.10500350179177442,0.09041676881054077,0.009829059479089786,0.13891557825138776
63,1790598472.1485932,-0.03783153300382664,0.08480324258609699,-0.05870241749043394,0.1098580386760898,-0.10730367310062139,0.09291216146792337,0.009835459244475061,0.14227959891732972
64,1790598472.1740923,-0.07136180644132664,0.08959328164859699,-0.02996218311543394,0.11839423952277826,-0.11000522362119837,0.09594997262113336,0.009672829653454788,0.14629118258955615
65,1790598472.1940923,-0.10489207987882665,0.06564308633609699,-0.01559206592793394,0.12471758386424694,-0.11207069934420792,0.09820810350234638,0.009496074917584361,0.14931459635235866
66,1790598472.2048485,-0.09052196269132665,0.04648293008609699,-0.025172144052933942,0.10482616732047667,-0.11317255770962444,0.09933084244698591,0.00938238777322673,0.15087303695522736
67,1790598472.2248485,-0.061781728316326646,0.07522316446109699,-0.034752222177933945,0.10335967962217242,-0.11514247190480435,0.10128786151098151,0.009112821694777552,0.15362312080236243
68,1790598472.24934,-0.04262157206632664,0.08959328164859699,-0.01559206592793394,0.10043240035900237,-0.11738471433561044,0.10362765236722539,0.008739756854484254,0.15682552357531246
69,1790598472.26934,-0.04741161112882664,0.05606300821109699,-0.0012219487404339403,0.07343306420293828,-0.11907614106866744,0.10547022363577258,0.008455585458735199,0.15929404373998118
70,1790598472.2939017,-0.061781728316326646,0.099173359773597,0.00835812938456606,0.11714177550876054,-0.12104291971925898,0.10767959459517287,0.008172092947149687,0.16221302848255012
71,1790598472.3139017,-0.09052196269132665,0.113543476961097,0.022728246572066062,0.14697931855246074,-0.12263265222755257,0.10952785346792956,0.008022507254830665,0.1646191929888794
72,1790598472.323789,-0.06657176737882664,0.099173359773597,-0.01559206592793394,0.12045857387759891,-0.12341716075353769,0.11046224346560798,0.007964942045287082,0.16582262542157689
73,1790598472.3437889,-0.09052196269132665,0.036902851961096994,0.032308324697066064,0.10295568977518252,-0.12500167717598437,0.1122729383323051,0.007891039368471625,0.16820493595876837
74,1790598472.3683698,-0.08094188456632664,0.04648293008609699,0.04667844188456606,0.1043605691978936,-0.12697311407094944,0.11431828372412718,0.00795945162700947,0.17103857623561733
75,1790598472.3883698,-0.07615184550382664,0.108753437898597,0.013148168447066061,0.13341397288858128,-0.12857218375331267,0.11596568186594398,0.008096504804273924,0.17333320280827488
76,1790598472.413985,-0.08094188456632664,0.113543476961097,-0.006011987802933941,0.139570246954379,-0.13061480649568513,0.11818618179524541,0.008259417039180764,0.1763417682033136
77,1790598472.433985,-0.07136180644132664,0.06564308633609699,-0.02038210499043394,0.0990805349508102,-0.1321988839746556,0.11992863483747297,0.008327945479965472,0.17868625311993552
78,1790598472.4440556,-0.07136180644132664,0.027322773836096992,-0.034752222177933945,0.08394497206487331,-0.1329846660687128,0.12074461992172376,0.008315633079234296,0.17981472243105412
79,1790598472.4640555,-0.056991689253826645,0.027322773836096992,-0.02038210499043394,0.06640795748962859,-0.1345036645400833,0.12220404184674952,0.008212147265719057,0.18191344914850915
80,1790598472.4889688,-0.03783153300382664,0.04169289102359699,-0.02038210499043394,0.059874470813245866,-0.13628918256255435,0.12387825784760681,0.008026406897230578,0.18435017564029424
81,1790598472.5089688,-0.013881337691326642,0.06085304727359699,0.00356809032206606,0.06251812670841712,-0.13758512768326608,0.12517450383796813,0.00787444308085692,0.18617285147017484
82,1790598472.5336702,-0.03783153300382664,0.08480324258609699,0.00356809032206606,0.09292763911281972,-0.1390414254610231,0.1268051572155949,0.007728130649935539,0.1883395600877507
83,1790598472.5536702,-0.04741161112882664,0.08959328164859699,0.00835812938456606,0.10170877697231961,-0.14017154425225187,0.12818900107296932,0.007645324726749064,0.19010242713948755
84,1790598472.564071,-0.07615184550382664,0.07043312539859699,0.022728246572066062,0.10619087493421364,-0.14076748096950578,0.128925535914947,0.007632970929965817,0.19103805839327972
85,1790598472.584071,-0.07615184550382664,0.108753437898597,0.00835812938456606,0.13302733612010662,-0.14196999037176938,0.13039817616492086,0.007659408261474821,0.19291922933760122
86,1790598472.6094644,-0.052201650191326644,0.123123555086097,0.00835812938456606,0.133993583527518,-0.143512218304047,0.13242909752732715,0.007719776375287334,0.195429827871119
87,1790598472.6294644,-0.028251454878826642,0.08480324258609699,0.00835812938456606,0.0897752359099988,-0.14466536144064046,0.13410061289110808,0.007785264921148251,0.19741238950079712
88,1790598472.6540751,-0.028251454878826642,0.08480324258609699,-0.006011987802933941,0.08958726836570817,-0.14597579442325678,0.13616200891088884,0.007858093727209133,0.19977681263143504
89,1790598472.6740751,-0.023461415816326645,0.127913594148597,0.013148168447066061,0.13071036658823582,-0.14695855071274957,0.13790500177439285,0.007919104790015282,0.2016861853540354
90,1790598472.7306132,-0.052201650191326644,0.156653828523597,0.061048559072066064,0.17604647351927757,-0.14964082652020716,0.14329985780637455,0.008380327227441782,0.2073582795391033
91,1790598472.7506132,-0.04741161112882664,0.166233906648597,0.04188840282206606,0.17786571024362513,-0.15059675800600641,0.14540632440901152,0.008673413753276432,0.20951756682004946
92,1790598472.7306132,-0.04262157206632664,0.156653828523597,0.00835812938456606,0.1625634606032818,-0.15059675800600641,0.14540632440901152,0.008673413753276432,0.20951756682004946
93,1790598472.7506132,-0.061781728316326646,0.151863789461097,0.05146848094706606,0.17183886939291498,-0.1515588155048196,0.1478027039847899,0.009038972865573713,0.21189010569845856
94,1790598472.7795632,-0.10489207987882665,0.190184101961097,0.08978879344706607,0.23501993210945957,-0.15310439735177034,0.15149382073729684,0.009795452316348404,0.21560910253538665
95,1790598472.7995632,0.01485889668367336,0.305145039461097,0.09936887157206606,0.32126072675612916,-0.15414704244344643,0.15440430863001137,0.010523407855012566,0.21843246858115306
96,1790598472.8191612,0.10586963887117336,0.276404805086097,0.01793820750956606,0.29652955332993736,-0.15483802542413128,0.15768329220907493,0.011302157617110179,0.22128392062221428
97,1790598472.8391612,-0.023461415816326645,0.228504414461097,0.07062863719706607,0.24031876716692388,-0.1553137955501365,0.16128495816327454,0.012110522017350423,0.2242362093004864
98,1790598472.849185,-0.023461415816326645,0.372205586336097,0.22390988719706606,0.4349977863351803,-0.1555517559367315,0.16327092191374934,0.012676326345422219,0.2258637464649468
99,1790598472.869185,0.06754932637117336,0.530276875398597,0.3484509028220661,0.6381022706065318,-0.1558891946032828,0.16799275248784135,0.014494446251318707,0.22963687607750122
100,1790598472.8939075,-0.04262157206632664,0.329095234773597,0.3197106684470661,0.4607984195664779,-0.15619752407651197,0.17454747132686516,0.0176436645539967,0.2348952642628823
101,1790598472.9139075,-0.08573192362882665,0.113543476961097,0.08978879344706607,0.16823825759378877,-0.1566020707165987,0.17971864974657803,0.020423409983981698,0.23924906957987022
102,1790598472.9394076,-0.028251454878826642,-0.03015769491390301,-0.09702272999043395,0.10545634831572294,-0.1572584932893741,0.18548240837636804,0.023422134016320106,0.24430013076259363
103,1790598472.9594076,0.0004887794961733583,0.036902851961096994,0.00356809032206606,0.03707816954496191,-0.15773775087919684,0.18933501928125088,0.02528109500337285,0.24772581888698797
104,1790598472.968957,0.05317920918367336,0.137493672273597,0.08020871532206607,0.16782722132686467,-0.15789381989855023,0.19102350099301169,0.026095553715754626,0.24920155340108693
105,1790598472.988957,0.11544971699617336,0.24766457071109702,0.04667844188456606,0.277209764757267,-0.15791871373884295,0.19460710454163774,0.02773579890852579,0.2521497964070261
106,1790598473.0140676,0.11065967793367336,0.281194844148597,-0.01559206592793394,0.3025875364519152,-0.15751944785678434,0.19942755332050027,0.02954482464360955,0.25584491814325494
107,1790598473.0340676,0.23041065449617337,0.252454609773597,-0.01559206592793394,0.34214837749315014,-0.15673753944205482,0.20349147541276177,0.03072276073375787,0.25868769754883214
108,1790598473.0595675,0.12981983418367338,0.424896016023597,0.13289914500956607,0.463736990679496,-0.1552012153818403,0.20919114817759416,0.03222368942453051,0.26246279715797655
109,1790598473.0795674,0.08670948262117337,0.659607930086097,0.18558957469706608,0.6906841869082677,-0.1538521994516886,0.21461770748129955,0.033702047256812175,0.26620872943979734
110,1790598473.088917,0.20646045918367337,0.812889180086097,0.22869992625956606,0.8693206523363581,-0.15311058126508442,0.21780653545367004,0.03457999176439866,0.26847404495051047
111,1790598473.108917,0.27352100605867335,0.865579609773597,0.2909704340720661,0.9532605074769688,-0.15104215442497962,0.226122357359327,0.0369558287052959,0.27442810750062346
112,1790598473.1345074,0.3357915138711734,0.9038999222735971,0.2766003168845661,1.003144429070287,-0.14762310382114485,0.23856272364937903,0.04062910244835972,0.2834704179673036
113,1790598473.1545074,0.31184131855867336,0.894319844148597,0.3388708246970661,1.0059256570091313,-0.14438034438494426,0.24952431630526398,0.0439925024874326,0.29162203028480427
114,1790598473.1793635,0.3166313576211734,1.028440937898597,0.4011413325095661,1.1484165394238814,-0.13978313939522197,0.264688400487822,0.04892508304099045,0.3033033780928816
115,1790598473.1993635,0.3166313576211734,1.042811055086097,0.47299191844706606,1.188036896798682,-0.13568905063764558,0.2781665438673847,0.05360985279582986,0.3141053340948889
116,1790598473.2094908,0.39327198262117335,1.081131367586097,0.4011413325095661,1.2183686859653455,-0.13338770452421786,0.28558091999995167,0.05629017494947296,0.32018326842934985
117,1790598473.2294908,0.4986528419961734,0.994910664461097,0.22869992625956606,1.136136234507294,-0.12818671354023875,0.3011409626762862,0.061734200916583694,0.3330597911676772
118,1790598473.25436,0.4842827248086734,0.793729023836097,0.04188840282206606,0.930747097292761,-0.1208562050447387,0.32092318112482987,0.06799292019708601,0.3496011265399807
119,1790598473.27436,0.5417631935586734,0.669188008211097,-0.10181276905293395,0.8669981477319625,-0.11430617999654255,0.3366401988415425,0.07218134228526103,0.3627708263292092
120,1790598473.2991593,0.6710942482461734,0.6021274613360971,-0.17366335499043395,0.9181960196987804,-0.10514677337764407,0.3555700995788791,0.0760834550257314,0.37851635604675804
121,1790598473.3191593,0.8626958107461734,0.482376484773597,-0.317364526865434,1.0380998881870909,-0.09656730562239245,0.3701733249248092,0.07802181714088077,0.39043685654792115
122,1790598473.3297806,0.8339555763711733,0.376995625398597,-0.38921511280293397,0.9945330607699554,-0.09134293232389831,0.37744988383194045,0.07833394550872579,0.39616682484685367
123,1790598473.3497806,0.8195854591836734,0.147073750398597,-0.48980593311543397,0.9660542764652008,-0.08050072922724895,0.3898825158539126,0.07751499364407091,0.4055826892439267
124,1790598473.3743694,0.8626958107461734,-0.03015769491390301,-0.532916284677934,1.0144719389497425,-0.06606794645899991,0.40309055152911744,0.07477310246908173,0.4152565269013952
125,1790598473.3943694,0.8435356544961734,-0.05410789022640301,-0.528126245615434,0.9966932303868096,-0.05353020339097462,0.4120957977364054,0.07128587788513899,0.42162792314188396
126,1790598473.4188151,0.8579057716836734,-0.12116843710140301,-0.633507104990434,1.0733197824092857,-0.03738468280872953,0.4211304076494996,0.06553306196055142,0.42783526849205467
127,1790598473.438815,0.8866460060586734,-0.14032859335140302,-0.599976831552934,1.079724711476068,-0.02354000252153153,0.4270209757584421,0.059682236948798546,0.43181363441144177
128,1790598473.4492183,0.8770659279336734,-0.14511863241390302,-0.523336206552934,1.0315933522978191,-0.01604267802868927,0.4294026831110338,0.05621893490412528,0.43336428143427025
129,1790598473.4692183,0.9249663185586734,-0.19780906210140303,-0.5185461674904339,1.0786942306958165,-0.001088120157996397,0.43278028265276824,0.04899666900478385,0.4355463587633957
130,1790598473.493992,0.9297563576211734,-0.26486960897640305,-0.508966089365434,1.092542573275864,0.018103514594705307,0.4354768457728263,0.03948326787529381,0.4376376913464411
131,1790598473.513992,0.9968169044961734,-0.18343894491390303,-0.504176050302934,1.1320279489922171,0.03416280895037931,0.4366547845091674,0.03143539212472517,0.43911579592194444
132,1790598473.5395055,0.9297563576211734,-0.12116843710140301,-0.456275659677934,1.0427445287802386,0.05526274789321492,0.4373491802079918,0.020871081667303934,0.4413206077029202
133,1790598473.5595055,0.8483256935586734,-0.08763816366390302,-0.38921511280293397,0.9374568438687649,0.07198908716500461,0.4374986573008637,0.012563681725902042,0.44355986057061
134,1790598473.5842752,0.8818559669961734,0.003372578523596989,-0.43232546436543395,0.9821337118495842,0.09281140204664469,0.4374994713256008,0.0022921387524168398,0.44724154286034795
135,1790598473.6042752,0.9489165138711734,0.142283711336097,-0.48501589405293394,1.0751407453412605,0.10984831778629214,0.43771851423303487,-0.00613343166755617,0.4513333242813723
136,1790598473.6142738,0.8962260841836734,0.214134297273597,-0.37484499561543394,0.9947780968527569,0.11847162885222545,0.4380788691636109,-0.01035858964752728,0.45393383089394584
137,1790598473.6342738,0.9105962013711734,0.285984883211097,-0.27425417530293394,0.9930700620036673,0.1358435858867199,0.4394417382471291,-0.01851603369258395,0.4603317984279664
138,1790598473.6586502,0.9441264748086734,0.329095234773597,-0.33652468311543393,1.0549537128856814,0.15723175136094622,0.44197817500517445,-0.028083770545915696,0.46995236884711056
139,1790598473.6786501,0.8866460060586734,0.266824726961097,-0.475435815927934,1.0408533950776744,0.174893915577636,0.44464095341068127,-0.035974205757331554,0.47915300545432016
140,1790598473.704478,0.8866460060586734,0.171023945711097,-0.547286401865434,1.055894282460703,0.19771645715622624,0.4484120012515833,-0.04661653353284359,0.49227860150069347
141,1790598473.724478,0.9201762794961734,0.214134297273597,-0.475435815927934,1.0576469626880878,0.2154485468056791,0.4514718519883274,-0.05515542442088879,0.5032762961848068
142,1790598473.734475,0.8770659279336734,0.113543476961097,-0.35089480030293396,0.9514535847755301,0.22432986170907915,0.45301756741329535,-0.05940288353491011,0.5089965675834527
143,1790598473.7544749,0.8722758888711734,-0.020577616788903012,-0.37005495655293397,0.9477496164536815,0.24205678833270636,0.4557855469915769,-0.06770722633640991,0.5204961307469301
144,1790598473.7795582,0.8962260841836734,-0.05410789022640301,-0.37005495655293397,0.9711279671728887,0.26428141661820925,0.4585958259106307,-0.07795232978878057,0.5350059480341128
145,1790598473.7995582,1.0111870216836734,0.103963398836097,-0.29341433155293395,1.0580168009439672,0.2822050758992665,0.460575250416903,-0.08589105968520716,0.5469429040528375
146,1790598473.824442,0.9872368263711734,-0.025367655851403013,-0.28383425342793395,1.0275417036431242,0.3048900461976708,0.4628152928574786,-0.09536405302657008,0.5623613057304228
147,1790598473.844442,0.8866460060586734,-0.19301902303890303,-0.17845339405293395,0.9247935429941655,0.32319869957258546,0.4640180568340677,-0.10252920743060581,0.5747020052599631
148,1790598473.8544931,0.8626958107461734,-0.10679831991390301,-0.07786257374043394,0.8727614355623846,0.3323384940627692,0.4643058363673774,-0.1057832299118078,0.5807054985543821
149,1790598473.8744931,0.9537065529336735,-0.19301902303890303,-0.16887331592793395,0.987588339945353,0.3505215057626211,0.46434284100721945,-0.11165695999754069,0.5924076946771062
150,1790598473.8990664,1.1979985451211734,-0.595382304288903,-0.465855737802934,1.4165811557467254,0.3734768409403677,0.46292846422588146,-0.11896109725745707,0.6065801318622529
151,1790598473.9190664,1.3943901466836734,-0.854044413663903,-0.528126245615434,1.7183227499474276,0.3932460676064631,0.45977585134096133,-0.12550511756934174,0.6178898265065925
152,1790598473.9437096,1.4614506935586735,-0.9881655074139031,-0.37005495655293397,1.802567577267243,0.41922937122315157,0.4530691618524914,-0.13401896063004234,0.6316533961962327
153,1790598473.9637096,1.5045610451211735,-0.897154765226403,-0.27425417530293394,1.7730781042964951,0.4416028444533043,0.4456146059217813,-0.14085865802210615,0.6429825897952932
154,1790598473.9883468,1.5524614357461735,-0.815724101163903,-0.288624292490434,1.7773143506184637,0.47067846739371755,0.4346440242334188,-0.14906047066146946,0.6577785884199473
155,1790598474.0083468,1.4949809669961733,-0.6911830855389031,-0.29341433155293395,1.6729596885091247,0.4953121609931811,0.42481383047717586,-0.15559287849270073,0.6708278998596212
156,1790598474.018896,1.5189311623086734,-0.5474819136639031,-0.04912233936543394,1.6153331934453028,0.5087411795278718,0.4194264734379815,-0.15879267154932827,0.6781970708472611
157,1790598474.038896,1.4614506935586735,-0.351090312101403,0.08978879344706607,1.5057106509496665,0.5348523259739579,0.4093970050280181,-0.16388807042336292,0.6932043118394152
158,1790598474.0638323,1.2746391701211734,-0.312769999601403,-0.01559206592793394,1.312544551311595,0.5676417203266991,0.3975263184828862,-0.1691493566988351,0.7133412937813438
159,1790598474.0838323,1.0638774513711735,-0.341510233976403,-0.25509401905293394,1.146096605877192,0.5935033064702451,0.38845218705206613,-0.17314221038820837,0.7301503279700432
160,1790598474.0932438,1.0590874123086733,-0.13553855428890302,-0.26946413624043397,1.101202872920885,0.6053462735108956,0.38448587131483514,-0.175109589743865,0.738198391026776
161,1790598474.1132438,1.1069878029336735,0.223714375398597,-0.19282351124043395,1.1457098341600267,0.6299871568436807,0.37745383833661755,-0.17935666835452127,0.7559920848436599
162,1790598474.1383429,1.0255571388711735,0.290774922273597,-0.12097292530293395,1.072824286250639,0.6602862000543165,0.37092118621007836,-0.18447776951243897,0.779482161313487
163,1790598474.1583428,0.8483256935586734,0.204554219148597,-0.14971315967793394,0.8853885819819719,0.6836190520380533,0.36723950861582205,-0.18835240262392666,0.7985464874207405
164,1790598474.1837757,0.7621049904336734,0.271614766023597,-0.12576296436543394,0.8187764779058716,0.7119112758238512,0.3641682718619023,-0.19306593863768068,0.8226242468697823
165,1790598474.2037756,0.8339555763711733,0.30993507852359703,-0.16887331592793395,0.9055715615524264,0.7332166471130369,0.3629876986120633,-0.1966585467828843,0.841451902945214
166,1790598474.2287917,0.8339555763711733,0.223714375398597,-0.18803347217793395,0.8836778891541025,0.7589975198015056,0.36273376794814866,-0.2011477805254963,0.8649355184550069
167,1790598474.2487917,0.8531157326211734,0.276404805086097,-0.14013308155293394,0.9076581680709792,0.7790478397997314,0.3633113842353087,-0.20469074499241582,0.8836339738246567
168,1790598474.2582245,0.9105962013711734,0.223714375398597,-0.12097292530293395,0.9454459330749401,0.7883336488735061,0.36389676122011355,-0.20629582035122349,0.8924397796305861
169,1790598474.2782245,0.9824467873086734,0.151863789461097,-0.19761355030293395,1.0135656938284507,0.8079082974185058,0.36551510704461304,-0.2096664012774934,0.9111954292796681
170,1790598474.304127,1.0399272560586734,0.171023945711097,-0.22635378467793396,1.0779303890967813,0.8333860424662635,0.36792394572730486,-0.21420056763311188,0.9358323614790615
171,1790598474.324127,0.9920268654336734,0.161443867586097,-0.14971315967793394,1.0161670405519296,0.8531551787617491,0.37000358329958666,-0.2177404700674916,0.9550849820867976
172,1790598474.3483431,0.9584965919961734,0.147073750398597,-0.14013308155293394,0.9797875716042274,0.8770439112731815,0.37270425596064477,-0.22191011921860002,0.9784470275513905
173,1790598474.368343,0.9010161232461734,0.118333516023597,-0.12576296436543394,0.917414409397439,0.8966032936959929,0.3749982642143767,-0.22523609602108483,0.9976234075948287
174,1790598474.3935983,0.8531157326211734,0.113543476961097,-0.08744265186543394,0.8650692410272347,0.9209198730432948,0.37789973900622326,-0.22920986511950908,1.0214885156354687
175,1790598474.4135983,0.9201762794961734,0.137493672273597,-0.18803347217793395,0.9492025505243804,0.9399479783085585,0.38022935821839327,-0.23229793405274787,1.0402109867438876
176,1790598474.4236524,0.9824467873086734,0.137493672273597,-0.28383425342793395,1.0318275452939827,0.9495133792872245,0.3814321613529025,-0.23397328216083996,1.0496712094388925
177,1790598474.4436524,1.0351372169961734,0.113543476961097,-0.35089480030293396,1.0988759438856754,0.9687134005583683,0.38384247512836683,-0.2377581354141012,1.0687701479221896
178,1790598474.468928,1.0255571388711735,0.08480324258609699,-0.36526491749043394,1.0919603907615136,0.9932448332340773,0.38680768049651243,-0.24318150336283056,1.0932944361035999
179,1790598474.488928,0.9680766701211734,0.108753437898597,-0.31257448780293395,1.0230848253751639,1.0127346792621121,0.3890923587693734,-0.2478459207459779,1.112857580583998
180,1790598474.4983606,0.9632866310586734,0.151863789461097,-0.24072390186543396,1.0044559428144035,1.0219141721663727,0.3901926210519015,-0.2501072370342931,1.1221018165989947
181,1790598474.5183606,1.0351372169961734,0.142283711336097,-0.21677370655293396,1.0671197460336184,1.0414557046955344,0.3926168085824481,-0.25486897912584144,1.1418126552744927
182,1790598474.5439522,1.0159770607461733,0.151863789461097,-0.16887331592793395,1.041052446010485,1.0666467949175678,0.3958180410676779,-0.2607882615879107,1.1672265521845442
183,1790598474.5639522,1.0159770607461733,0.161443867586097,-0.09223269092793394,1.0328506085680536,1.0864286486554924,0.3984145153017306,-0.2651119783705645,1.1871586649214445
184,1790598474.5884557,0.9584965919961734,0.185394062898597,-0.02996218311543394,0.9767212539119698,1.1106580495022378,0.4017558844808547,-0.2698392551842304,1.2115206631657132
185,1790598474.6084557,0.9920268654336734,0.180604023836097,-0.12097292530293395,1.0155636680308617,1.1303936727302022,0.40462305166113105,-0.27334534132223526,1.2313518363597835
186,1790598474.6188316,1.0303471779336735,0.180604023836097,-0.23593386280293396,1.0723329278348157,1.1406704844281643,0.4061685048618738,-0.27516919740459805,1.241700485458391
187,1790598474.6388316,1.0016069435586734,0.127913594148597,-0.279044214365434,1.0475896288737216,1.160555924932092,0.40916334895683915,-0.27892986673923664,1.261787054769436
188,1790598474.663316,0.9584965919961734,0.099173359773597,-0.28383425342793395,1.0045461440750518,1.1848478684815784,0.4126967537671965,-0.2838768038968938,1.2863782965387893
189,1790598474.683316,0.9249663185586734,0.151863789461097,-0.26467409717793394,0.9740008617729371,1.2045394205416575,0.4155266195806774,-0.28813431859444455,1.3063686205550338
190,1790598474.7078636,0.9153862404336734,0.137493672273597,-0.23114382374043396,0.9540775368616132,1.228471300095379,0.4190116690562126,-0.29348890342326833,1.3307322234002965
191,1790598474.7278636,0.8818559669961734,0.127913594148597,-0.18803347217793395,0.9107076483449877,1.247740754473922,0.4218232880382896,-0.29782589038277707,1.350367408407386
192,1790598474.7384691,0.9010161232461734,0.185394062898597,-0.17366335499043395,0.9361410010111436,1.2578443451039163,0.42333980017295536,-0.30006843239467695,1.360672645069407
193,1790598474.758469,0.9393364357461734,0.194974141023597,-0.17845339405293395,0.9758142594967683,1.2768002118454596,0.4263412135310417,-0.3041912431076199,1.3800427253194338
194,1790598474.7840497,0.9441264748086734,0.161443867586097,-0.20719362842793396,0.9799837358226627,1.3010221359897436,0.4302880905821231,-0.30941335645352014,1.4048284821941635
195,1790598474.8040497,0.8674858498086734,0.118333516023597,-0.20240358936543396,0.898611002392467,1.3198365785266917,0.4333307099361266,-0.3134981819191195,1.4240875002110596
196,1790598474.8282518,0.8770659279336734,0.132703633211097,-0.19761355030293395,0.908793712276285,1.342355574364466,0.4369159916862135,-0.3184258893061978,1.4471382514462623
197,1790598474.8482518,0.9393364357461734,0.142283711336097,-0.14971315967793394,0.9617752462049797,1.3608979114399067,0.43984683685295867,-0.3224081866398922,1.4661021124271927
198,1790598474.8587723,0.9680766701211734,0.132703633211097,-0.14492312061543394,0.987818507818739,1.3706935738458548,0.44137425051845597,-0.32442122917956145,1.4760966216157492
199,1790598474.8787723,0.9584965919961734,0.123123555086097,-0.15929323780293395,0.9794128150555618,1.3894122189107425,0.4442261350978424,-0.32813042400471376,1.4951497411028611
200,1790598474.9034185,0.9153862404336734,0.166233906648597,-0.15450319874043394,0.9430996338224161,1.4124832188567524,0.4477482618367214,-0.33259573052571084,1.5186201860549822
201,1790598474.9234185,0.9297563576211734,0.171023945711097,-0.17845339405293395,0.9620507722530008,1.4311643495065474,0.4506835651532884,-0.33617514827481204,1.5376478145256047
202,1790598474.949008,0.9537065529336735,0.166233906648597,-0.22156374561543396,0.9931165058538826,1.455095836427488,0.4545231327257227,-0.3408356729027945,1.562070461693235
203,1790598474.969008,0.9537065529336735,0.132703633211097,-0.23593386280293396,0.9913784499338125,1.4738554831729789,0.45752229860577337,-0.34461806935137446,1.5812457913695879
204,1790598474.9934475,0.9058061623086734,0.132703633211097,-0.21198366749043396,0.9396978946589627,1.4967492339153776,0.46112396381100984,-0.3493677981926185,1.604665522045328
205,1790598475.0134475,0.8962260841836734,0.147073750398597,-0.17366335499043395,0.9246679635923607,1.5153770009317933,0.4640489207765066,-0.3532501439152519,1.6237285856949808
206,1790598475.0234559,0.8770659279336734,0.156653828523597,-0.10660280811543395,0.8973010769141828,1.5246314857669698,0.4655210503713869,-0.35511189253951936,1.6331918050106289
207,1790598475.0434558,0.9010161232461734,0.147073750398597,-0.12576296436543394,0.9215622961101728,1.5430181131287755,0.4684771750066687,-0.358622774667616,1.6519643021130979
208,1790598475.068533,0.8722758888711734,0.118333516023597,-0.17845339405293395,0.8981724005832701,1.565949352531493,0.47212692092463465,-0.3629367603692473,1.6753579606110756
209,1790598475.088533,0.8291655373086734,0.113543476961097,-0.18324343311543395,0.8567296920270282,1.584046795664978,0.47494893007337047,-0.3664037929172144,1.6938218550067314
210,1790598475.11279,0.8626958107461734,0.132703633211097,-0.19282351124043395,0.8938877013548808,1.6057819998714717,0.4783062221241801,-0.3706622395175531,1.7160137438371805
211,1790598475.13279,0.9058061623086734,0.127913594148597,-0.24072390186543396,0.9459358795255087,1.6236672741267115,0.48105001396841446,-0.37429697592970446,1.7343018074139227
212,1790598475.1426618,0.9058061623086734,0.103963398836097,-0.25988405811543397,0.948067991040973,1.6325122949717423,0.48237284474734765,-0.37619256400395634,1.7433590564755799
213,1790598475.1626618,0.8914360451211734,0.113543476961097,-0.21677370655293396,0.9244139676326788,1.6504400698724069,0.4849771372414649,-0.38017192156714286,1.7617281112122314
214,1790598475.188312,0.8770659279336734,0.161443867586097,-0.19761355030293395,0.913433018664556,1.6733859949167078,0.4883451857198325,-0.38530715297272317,1.785262812734042
215,1790598475.208312,0.8579057716836734,0.142283711336097,-0.19761355030293395,0.8917948659097916,1.6911961052152291,0.4910329865106607,-0.38930342214628066,1.8035561578812966
216,1790598475.2339537,0.8435356544961734,0.137493672273597,-0.17366335499043395,0.8721329435287377,1.7138771585944668,0.4945001248634949,-0.39437245837467405,1.8268647799348312
217,1790598475.2539537,0.8483256935586734,0.123123555086097,-0.14492312061543394,0.8693782853613029,1.731452088636541,0.4971897022270032,-0.3982110197130371,1.8449108248002974
218,1790598475.2789054,0.8866460060586734,0.147073750398597,-0.14492312061543394,0.910370550383206,1.753336176483292,0.5005475005388578,-0.4028240264782603,1.8673517998408617
219,1790598475.2989054,0.8914360451211734,0.185394062898597,-0.13055300342793394,0.919822411013877,1.7709132707792934,0.50333392266429,-0.40638015444235615,1.885370966216312
220,1790598475.308484,0.8626958107461734,0.199764180086097,-0.12576296436543394,0.894408247239732,1.7793289973691755,0.5047449609213769,-0.40801197570305203,1.894004469047374
221,1790598475.328484,0.8626958107461734,0.175813984773597,-0.16408327686543395,0.895588041941085,1.7968530489454035,0.5078125939085005,-0.4113428496516022,1.9120035172551262
222,1790598475.3541615,0.8914360451211734,0.151863789461097,-0.20719362842793396,0.9277122575194832,1.8193550338531332,0.5117913228590475,-0.41569281501306077,1.9351443392713712
223,1790598475.3741615,0.9201762794961734,0.161443867586097,-0.22156374561543396,0.9601453020765751,1.8369700929956727,0.5148954374933393,-0.41921588449141156,1.95328400185992
224,1790598475.3839116,0.8962260841836734,0.151863789461097,-0.20240358936543396,0.9312631301134479,1.8455976973971477,0.5164108323077021,-0.4209858071103615,1.9621773768318578
225,1790598475.4039116,0.8818559669961734,0.142283711336097,-0.23593386280293396,0.9238936024540074,1.8633076089659006,0.5194942428431659,-0.4247292881962597,1.9804505755582789
226,1790598475.4288938,0.8435356544961734,0.094383320711097,-0.23114382374043396,0.8797090876466437,1.885343828610537,0.5232114738730229,-0.4295790585233933,2.003199881687812
227,1790598475.4488938,0.8531157326211734,0.113543476961097,-0.24072390186543396,0.8936702811079126,1.902884086591997,0.5260528780620506,-0.4335870480037582,2.021310764261408
228,1790598475.4743843,0.8770659279336734,0.099173359773597,-0.24551394092793397,0.9161643370165115,1.9251940366851297,0.5295377780203877,-0.43885868057744,2.0443530220480333
229,1790598475.4943843,0.8195854591836734,0.108753437898597,-0.18324343311543395,0.8468327998725648,1.9426178272437504,0.5321737961542138,-0.44301754108305436,2.0623378757482227
230,1790598475.5045202,0.7429448341836734,0.161443867586097,-0.13055300342793394,0.7714111975628933,1.9513113952686048,0.5335147304427102,-0.44504762255016955,2.071309130777448
231,1790598475.5245202,0.7237846779336734,0.257244648836097,-0.07786257374043394,0.7720761942683135,1.9680924003413194,0.5363917869560448,-0.44876511240812444,2.088658414272145
232,1790598475.5489502,0.7860551857461734,0.324305195711097,-0.10660280811543395,0.856983531756451,1.988282149291357,0.5404445164213573,-0.45296288584670497,2.109625928091316
233,1790598475.5689502,0.8052153419961734,0.290774922273597,-0.21198366749043396,0.8819630818191461,2.0047183729620013,0.5441872843940104,-0.4563618446643129,2.1268055126534153
234,1790598475.5931835,0.7956352638711734,0.24287453164859701,-0.279044214365434,0.8774332936524004,2.024555882231015,0.5490119366367641,-0.4607549369428138,2.1476814798202803
235,1790598475.6131835,0.8147954201211735,0.266824726961097,-0.27425417530293394,0.9001679644596312,2.0408877801312553,0.5531610370606578,-0.46466669143384676,2.1649769509487125
236,1790598475.6385362,0.8004253029336734,0.276404805086097,-0.21677370655293396,0.8741116185612932,2.0615565283884734,0.5586645832244889,-0.46981524035538363,2.1869722898017505
237,1790598475.6585362,0.8052153419961734,0.252454609773597,-0.17845339405293395,0.8625257624158048,2.0778241877497963,0.5631482136393307,-0.4738603830129952,2.2043214212796856
238,1790598475.6684206,0.8243754982461734,0.223714375398597,-0.18324343311543395,0.8736253428378447,2.085866056446228,0.5653847190123237,-0.475827824717149,2.2128961124965256
239,1790598475.6884205,0.8339555763711733,0.204554219148597,-0.17366335499043395,0.8760612380413835,2.102184660914281,0.5698736591433287,-0.47974696297371283,2.2302675813568196
