imu_index,t_imu,ax,ay,az,mag,vx,vy,vz,velocity
0,1790596633.2065783,0.010825488281249957,0.002778222656249992,0.00014370117187595844,0.011177225401770309,0.0,0.0,0.0,0.0
1,1790596633.2265782,0.0060354492187499565,0.05067861328124999,0.01930385742187596,0.05456544146936514,3.9093866525741575e-05,8.372740794421402e-05,2.935452889008275e-05,9.695513192888777e-05
2,1790596633.2513733,0.015615527343749958,0.055468652343749994,0.02409389648437596,0.0624590420584164,0.00012055341294707266,0.0003693531348809395,0.00014099179149647132,0.0004133201530157335
3,1790596633.2713733,0.0060354492187499565,0.07941884765625,0.02409389648437596,0.08321235399938268,0.00020888013417471294,0.0007675148787662433,0.0002898141426011272,0.0008465826816277508
4,1790596633.2963693,-0.003544628906250044,0.055468652343749994,0.02888393554687596,0.06263878606415445,0.0003073820567625498,0.0014433691862002058,0.0005472307184529344,0.001573931318612834
5,1790596633.3163693,-0.013124707031250044,0.04109853515624999,0.02409389648437596,0.04941521399777082,0.0003493699256587085,0.002047873087752469,0.0008017682108097886,0.0022268084318954632
6,1790596633.3412478,0.0012454101562499565,0.021938378906249993,0.03846401367187596,0.044298124827601294,0.0003715998339843625,0.0028046574332285428,0.0011876262370594539,0.003068329485784296
7,1790596633.3612478,0.015615527343749958,0.017148339843749992,0.014513818359375959,0.027359846070274314,0.00041208136232089726,0.003380413513091966,0.0015307575069316464,0.003733661087149529
8,1790596633.371343,0.02998564453124996,0.04109853515624999,-0.004646337890624042,0.051086367317884775,0.00046397587402848754,0.003671538308497165,0.001685446576429782,0.004066472343990746
9,1790596633.3913429,0.03477568359374996,0.04109853515624999,0.004933740234375959,0.05406273720505119,0.000648507116489886,0.004285082258883986,0.0019463710476163828,0.004750879045033625
10,1790596633.4156885,0.03477568359374996,0.04109853515624999,0.03846401367187596,0.06616583793131005,0.0009664352680769646,0.005069995874378379,0.002295588072805375,0.0056487679978560875
11,1790596633.4356885,0.05872587890624996,0.05067861328124999,0.03846401367187596,0.08658251004199569,0.0013286892093444047,0.005755748134603006,0.0026548300176685302,0.006476277791040787
12,1790596633.4616249,0.07788603515624996,0.060258691406249995,0.00972377929687596,0.098954010763428,0.0019937417222583164,0.006727448781385991,0.003144557395471846,0.007689071099597278
13,1790596633.4816248,0.07788603515624996,0.06504873046875,-0.014226416015624042,0.10246932575461934,0.0026633081017775713,0.007552310671541117,0.0034587951294403735,0.008723180054997623
14,1790596633.4909348,0.04914580078124996,0.04109853515624999,-0.004646337890624042,0.06423385230712599,0.0030169392806042128,0.007952805844633917,0.00356995344770542,0.009224619831954045
15,1790596633.5109348,0.044355761718749956,0.017148339843749992,0.01930385742187596,0.0513238547696038,0.0038029186361597045,0.008771476424051898,0.0037949137305443802,0.010286027368873919
16,1790596633.5365243,0.044355761718749956,0.031518457031249995,0.02888393554687596,0.061604613982699064,0.00482796915343723,0.009755226153283697,0.0041320525309871785,0.011642490350740652
17,1790596633.5565243,0.02519560546874996,0.04109853515624999,0.04804409179687596,0.0680598478070078,0.0056132732736286816,0.010517691138154973,0.004471417643749476,0.012732801713169485
18,1790596633.5808659,0.0012454101562499565,0.06983876953125,0.05283413085937596,0.087581106180283,0.006473955950976325,0.011509004321735425,0.005006662228864366,0.01412217946376704
19,1790596633.6008658,-0.003544628906250044,0.06983876953125,0.03846401367187596,0.07980913776925758,0.007071601615750032,0.012410846310672387,0.005517420220254345,0.015312693474561566
20,1790596633.625944,-0.003544628906250044,0.05067861328124999,0.00014370117187595844,0.050802626784648745,0.007695249555263613,0.0135987218250375,0.006134411021403793,0.016786098402310656
21,1790596633.6459439,-0.008334667968750044,0.05067861328124999,-0.014226416015624042,0.05329333398192874,0.008100190824652725,0.014555997873440193,0.006531534407544237,0.017892766896271742
22,1790596633.655998,-0.003544628906250044,0.036308496093749996,0.004933740234375959,0.036813218758663065,0.008264264604823487,0.01503063542527265,0.006694218068328467,0.01841278431667342
23,1790596633.675998,0.0012454101562499565,0.05067861328124999,0.01930385742187596,0.054244924204315134,0.008538239758050003,0.01596365636855251,0.00700564792630535,0.019411825408408127
24,1790596633.7010422,0.010825488281249957,0.07941884765625,0.01930385742187596,0.08244503302769816,0.008852526283576745,0.017201108898628664,0.0074096449826657395,0.020715892636163254
25,1790596633.7210422,0.010825488281249957,0.09378896484375,0.01930385742187596,0.09636493155891188,0.00909834014648507,0.01830090210562789,0.007741789361572208,0.021854933397745
26,1790596633.7312512,0.010825488281249957,0.07462880859375,-0.004646337890624042,0.07555288693652878,0.009221573201663096,0.018907041826519276,0.007897125300116327,0.022469495565079288
27,1790596633.7512512,0.020405566406249957,0.036308496093749996,0.01930385742187596,0.045905696164134695,0.00947362522376024,0.02008278067325817,0.008177774191785137,0.023663128389591375
28,1790596633.7904952,0.010825488281249957,0.031518457031249995,0.03367397460937596,0.04737658594866381,0.00998593716557388,0.02224339367091535,0.008801789149058737,0.025922171886217305
29,1790596633.8104951,-0.013124707031250044,0.04109853515624999,0.014513818359375959,0.04551920968134903,0.010204415483454764,0.023288269654847236,0.009144386265231648,0.02702024054377768
30,1790596633.821555,-0.003544628906250044,0.031518457031249995,0.014513818359375959,0.0348802014197558,0.010293282180535681,0.023839637961869487,0.009329498618463493,0.027592019510594985
31,1790596633.8415549,0.010825488281249957,0.031518457031249995,0.02888393554687596,0.04410086238197975,0.01044080066080028,0.02478170271792053,0.00967913180519751,0.028580215194087384
32,1790596633.8510075,-0.003544628906250044,0.04588857421874999,0.02888393554687596,0.054337899946435494,0.010505225729864441,0.02521504040999618,0.009860545888749295,0.02904115004157509
33,1790596633.8710074,-0.03228486328125005,0.060258691406249995,0.01930385742187596,0.07103563330080749,0.010567346731678938,0.02615359681355753,0.010259091452087131,0.030015469355916116
34,1790596633.896474,-0.03707490234375004,0.08420888671875,-0.014226416015624042,0.09310250210847976,0.010502105849702412,0.027445350346886287,0.010700145035470978,0.031273544518039514
35,1790596633.9164739,-0.051445019531250046,0.05067861328124999,0.00014370117187595844,0.07221448974207313,0.010325774900494723,0.028509984391947473,0.010973443884481562,0.03224681857192491
36,1790596633.9402616,-0.06581513671875004,0.017148339843749992,0.06720424804687596,0.09561437515484025,0.009938306345024463,0.029707316615461752,0.011369897642519316,0.03332520316367493
37,1790596633.9602616,-0.05623505859375005,0.055468652343749994,0.08636440429687596,0.117038299446927,0.009478325559209312,0.030671919380181493,0.011883577373126567,0.03423192523148237
38,1790596633.9853303,-0.03228486328125005,0.09857900390624999,0.04804409179687596,0.11431695921788727,0.008821819956448219,0.031989263431390635,0.01268357280728662,0.03552478714059572
39,1790596634.0053303,-0.017914746093750045,0.09378896484375,0.01930385742187596,0.09741635881837209,0.008301321703689213,0.033171151181247915,0.013327098909224046,0.036699438388803546
40,1790596634.0157902,-0.046654980468750044,0.060258691406249995,0.02409389648437596,0.07992692250007465,0.00801928173329422,0.03381740408342515,0.013647221185146304,0.037338617335620675
41,1790596634.0357902,-0.06102509765625005,0.05067861328124999,0.00014370117187595844,0.07932468114081608,0.007399375459671313,0.03503413435543805,0.014203857239069945,0.03852130433534086
42,1790596634.061015,-0.046654980468750044,0.031518457031249995,0.00014370117187595844,0.05630382745601758,0.00653109012852942,0.03649403488687764,0.014801142734120473,0.039919212753102035
43,1790596634.0810149,-0.03228486328125005,0.05067861328124999,0.01930385742187596,0.06311317732901435,0.005827506224458797,0.03760121916099402,0.015232850030789795,0.0409859882307325
44,1790596634.1506698,-0.03228486328125005,0.06983876953125,0.03367397460937596,0.08398632443869036,0.00340734013024785,0.04150845600715052,0.01678761206123994,0.044904184722355626
45,1790596634.1706698,-0.051445019531250046,0.07462880859375,0.04804409179687596,0.10258793234723038,0.002691079732260019,0.042678757322269244,0.01728964423721653,0.04612645699105933
46,1790596634.1516683,-0.04186494140625004,0.08420888671875,0.05762416992187596,0.11029213426416798,0.002691079732260019,0.042678757322269244,0.01728964423721653,0.04612645699105933
47,1790596634.1716683,-0.017914746093750045,0.07462880859375,0.05762416992187596,0.0959736534623505,0.0019649420622428514,0.04396507420657929,0.01795996173446687,0.04753260957281337
48,1790596634.1806374,-0.022704785156250046,0.05067861328124999,0.043254052734375964,0.07038992961390242,0.001660824759113081,0.0445396917202545,0.0182833360066715,0.048174919335154484
49,1790596634.2006373,-0.022704785156250046,0.060258691406249995,0.004933740234375959,0.06458296177542061,0.0010162861490627885,0.04579522827802764,0.01896854163018019,0.049578637961821
50,1790596634.2258298,-0.022704785156250046,0.04588857421874999,-0.009436376953124041,0.05206067347646061,0.0002403915670939064,0.04734006758386227,0.01969367166849535,0.051273584726803274
51,1790596634.2458298,0.0012454101562499565,0.026728417968749994,0.004933740234375959,0.02720847600050007,-0.00031537375740291077,0.0484914557658589,0.02017623792650184,0.05252238874771329
52,1790596634.2562299,0.015615527343749958,0.031518457031249995,0.03367397460937596,0.04869491137528696,-0.0005478720045119793,0.049045805419803315,0.020419647763829766,0.05312958881649108
53,1790596634.2762299,0.020405566406249957,0.04588857421874999,0.02888393554687596,0.057934705633719136,-0.0008738831875538177,0.05006805851223983,0.020911363450465344,0.0542665576240839
54,1790596634.3010375,0.020405566406249957,0.06504873046875,-0.004646337890624042,0.06833237103854811,-0.001141673623024018,0.05135225584868946,0.021474888930003336,0.05567340885886861
55,1790596634.3210375,0.010825488281249957,0.07941884765625,-0.014226416015624042,0.08140599162361288,-0.001278336020704616,0.05244897979708386,0.021832747317276247,0.05682603699147754
56,1790596634.3461525,0.010825488281249957,0.05067861328124999,0.004933740234375959,0.052056266033382266,-0.0013834256290048068,0.05386466591650335,0.02219721752491695,0.058275488557505764
57,1790596634.3661525,0.02519560546874996,0.04109853515624999,0.02409389648437596,0.05389270799214161,-0.0014005276534416143,0.05496058866509158,0.022487463472953582,0.05939961108937388
58,1790596634.3757026,0.044355761718749956,0.05067861328124999,0.03846401367187596,0.07755795116886001,-0.0013576523527532244,0.05547113717500585,0.022650075873468525,0.05993259727788487
59,1790596634.3957026,0.03477568359374996,0.07941884765625,0.05283413085937596,0.10152904469226981,-0.0011626336020443707,0.056575103118823966,0.02307648691650171,0.061111523121303746
60,1790596634.4211352,0.02519560546874996,0.07941884765625,0.05283413085937596,0.09865909629450906,-0.0008374486961216295,0.0580713384214819,0.023738944919764013,0.06274168608098211
61,1790596634.4411352,0.020405566406249957,0.06504873046875,0.03367397460937596,0.07603723457588958,-0.0005516826355214696,0.059288172844802624,0.024311515838013477,0.06408152304172793
62,1790596634.4655144,0.02519560546874996,0.04109853515624999,-0.004646337890624042,0.048430327096977865,-0.00017221572781885356,0.06074304275487086,0.024957843000770134,0.06567069992491376
63,1790596634.4855144,0.020405566406249957,0.021938378906249993,-0.028596533203124042,0.04141788648194699,0.0001607933822368374,0.06185209854124253,0.025358671431639754,0.06684886061291703
64,1790596634.4960628,0.02519560546874996,0.036308496093749996,-0.028596533203124042,0.052639216699758525,0.00034615947231813433,0.06239537492743882,0.025493118047179398,0.06740327667467925
65,1790596634.5160627,0.07309599609374996,0.060258691406249995,-0.009436376953124041,0.09520073395164887,0.0007923372547624322,0.06341578307100249,0.025652746187529912,0.06841237262217675
66,1790596634.5560632,0.09225615234374997,0.06983876953125,0.014513818359375959,0.11661604648709892,0.0020469104126674105,0.06554079425749096,0.02593934975236113,0.07051691584092121
67,1790596634.5760632,0.09704619140624997,0.08899892578125,0.03367397460937596,0.1359143429615427,0.002864050893509629,0.06668216956147059,0.026133436435903445,0.07167754895987122
68,1790596634.5848317,0.12578642578124996,0.06983876953125,0.03846401367187596,0.14892668997936942,0.0033151138716300617,0.06721197747424433,0.026253206536330884,0.07223344619647776
69,1790596634.6048317,0.14494658203124997,0.04588857421874999,0.02888393554687596,0.15475643643819045,0.0045957083094347794,0.06841272984983249,0.026586431840019832,0.07354087637739701
70,1790596634.615353,0.14494658203124997,0.031518457031249995,0.02888393554687596,0.15111984154586952,0.005397095875344213,0.06901074114529902,0.026781021978234527,0.07422152097275969
71,1790596634.635353,0.12099638671874996,0.026728417968749994,0.004933740234375959,0.12401159509822374,0.007090852861037168,0.0700643488365605,0.027146157690847668,0.07547322074460903
72,1790596634.660825,0.12578642578124996,0.04588857421874999,-0.028596533203124042,0.13691511189744177,0.009395895336668373,0.07134366723853393,0.027496232964516705,0.07703404787143968
73,1790596634.680825,0.13536650390624996,0.007568261718749992,-0.03817661132812404,0.14085035540509983,0.011326011565646221,0.07227767054964751,0.027629713863339834,0.07820320508929648
74,1790596634.705662,0.09704619140624997,0.002778222656249992,-0.03338657226562404,0.10266618233495362,0.01379632537700337,0.07328285356284664,0.027637306659680748,0.0795269510268249
75,1790596634.725662,0.02998564453124996,0.04588857421874999,-0.052546728515624044,0.07593456919927119,0.01567770782855038,0.07404386283581776,0.027513603808771294,0.08053125195197712
76,1790596634.7811031,0.010825488281249957,0.08899892578125,-0.04775668945312404,0.10158100892522212,0.020280412814789026,0.07639786527155082,0.026805058677803976,0.08346520312506765
77,1790596634.801103,-0.008334667968750044,0.07941884765625,0.00972377929687596,0.08044483785184918,0.021695482007649605,0.07737230228899075,0.026530747321246294,0.0846229735619532
78,1790596634.7811031,-0.03228486328125005,0.05067861328124999,0.05283413085937596,0.08001299659970972,0.021695482007649605,0.07737230228899075,0.026530747321246294,0.0846229735619532
79,1790596634.801103,-0.013124707031250044,0.09378896484375,0.02409389648437596,0.09771972016393693,0.022597965356028486,0.07845890829912136,0.026527710556485454,0.0858497976531737
80,1790596634.8258078,0.010825488281249957,0.13210927734375,-0.04296665039062404,0.13934197286749406,0.02354126811195492,0.08001834688709221,0.026489553681898113,0.08751470503365778
81,1790596634.8458078,0.02519560546874996,0.12731923828125,-0.06691684570312405,0.14602352964611673,0.024244412419144525,0.08148058211584515,0.026298471794124957,0.08898587761096105
82,1790596634.870531,0.02998564453124996,0.09857900390624999,-0.009436376953124041,0.10346982216619677,0.0250855545510324,0.08343588356136743,0.025956116519020522,0.09090957978974414
83,1790596634.890531,0.03477568359374996,0.06983876953125,0.06241420898437596,0.09991163787165647,0.025761074239175764,0.08503299491748566,0.02580017626131972,0.09251968582798274
84,1790596634.9006553,0.04914580078124996,0.08420888671875,0.08636440429687596,0.13025074535831196,0.02611545918544381,0.08583716946731652,0.02584604831954653,0.09337052577962561
85,1790596634.9206553,0.03956572265624996,0.09857900390624999,0.07678432617187596,0.13106906258201734,0.026843589108915863,0.08746167457097612,0.02616779689670321,0.09515711423448457
86,1790596634.945722,0.020405566406249957,0.08899892578125,0.08157436523437596,0.12244007919781695,0.02773204353962343,0.08954497761672361,0.0268082857976833,0.0974989920084991
87,1790596634.965722,0.015615527343749958,0.10815908203124999,0.06241420898437596,0.12584818315419347,0.028388612319061916,0.09125358091606867,0.027458638939018953,0.09943392877580014
88,1790596634.9911158,0.044355761718749956,0.11773916015625,0.043254052734375964,0.13304456587887303,0.029211420957125502,0.09352779406112013,0.028361770671992047,0.10200561460980644
89,1790596635.0111158,0.04914580078124996,0.11294912109375,0.02888393554687596,0.12651915041983564,0.029902507430898263,0.09539631202088124,0.029074584601040412,0.1041150698389206
90,1790596635.0210931,0.08746611328124997,0.06983876953125,0.02409389648437596,0.11449144312990088,0.030297780702155275,0.09632541376814491,0.02941648769581418,0.10517542774544918
91,1790596635.041093,0.09225615234374997,0.04588857421874999,0.004933740234375959,0.10315668025776727,0.031240853845117343,0.09808206318243674,0.030042583844527643,0.10723170665036984
92,1790596635.0656788,0.07309599609374996,0.05067861328124999,-0.04775668945312404,0.10095567283006007,0.03253116322994211,0.10009563914003351,0.03061782562693324,0.10961233873093958
93,1790596635.0856788,0.07788603515624996,0.05067861328124999,-0.028596533203124042,0.09722303239309331,0.033649830194826064,0.10163997708335354,0.030901051161434514,0.11143550141910276
94,1790596635.1106207,0.09225615234374997,0.055468652343749994,0.01930385742187596,0.10936456441402362,0.035153929194985375,0.10347558950194721,0.031183896190053864,0.11364608106843627
95,1790596635.1306207,0.07788603515624996,0.06983876953125,0.03367397460937596,0.1098982473381289,0.03643431019715438,0.10491467225415844,0.03145614516067071,0.11542979027144222
96,1790596635.1561973,0.08746611328124997,0.07462880859375,0.01930385742187596,0.1165865299081122,0.03814327807938962,0.10675608820942818,0.031853705900479874,0.11775580924954455
97,1790596635.1761973,0.09704619140624997,0.07941884765625,-0.03338657226562404,0.12976894789260215,0.039555945334741396,0.10821109274835508,0.03209682840105267,0.11960150416497603
98,1790596635.1862524,0.12099638671874996,0.04109853515624999,-0.06691684570312405,0.14424659243752871,0.04032406794022141,0.10892376113276056,0.03212508272973096,0.12050907490702238
99,1790596635.2062523,0.14973662109374997,0.06983876953125,-0.03338657226562404,0.1685620735333427,0.04202882317862897,0.11029506722701407,0.032022397016979134,0.12229823278815212
100,1790596635.2311623,0.18805693359374998,0.17521962890625,0.07678432617187596,0.2682595037876516,0.044464686834263446,0.1122046643850047,0.03199476399988334,0.12486256447962654
101,1790596635.2511623,0.19284697265624998,0.24707021484375,0.10552456054687596,0.3307099617553552,0.04669841417999214,0.11414131635967019,0.03224936872516495,0.12747158024601427
102,1790596635.2610843,0.20721708984374998,0.28060048828125,0.15342495117187596,0.3810705603809893,0.04793805551296413,0.11535064374266046,0.032549429934591166,0.1290863802547622
103,1790596635.2810843,0.18805693359374998,0.17042958984375,0.00014370117187595844,0.25379455474264956,0.05065491518320104,0.1180991987712113,0.033293894920016734,0.13274722076776027
104,1790596635.3064575,0.04914580078124996,0.055468652343749994,-0.04775668945312404,0.08816338534099198,0.05403607064384741,0.12149302097735812,0.0340060912250395,0.13724746014858474
105,1790596635.3264575,0.03477568359374996,-0.02596201171875001,-0.03338657226562404,0.054754337084333866,0.05642731706001051,0.12381113188832556,0.03436154589834342,0.14033515000377939
106,1790596635.3503048,0.015615527343749958,-0.03554208984375001,-0.07170688476562405,0.08154116854371837,0.058941003577051766,0.12605056419139066,0.03453383885697702,0.14337144995373935
107,1790596635.3703048,-0.003544628906250044,-0.04033212890625001,-0.028596533203124042,0.04956820278596721,0.06075103417579118,0.12753317045027135,0.03450620584504312,0.1454169039704346
108,1790596635.3811955,-0.008334667968750044,-0.07386240234375001,-0.014226416015624042,0.07568032824181539,0.061579114889320975,0.12812612928818246,0.034458437772335905,0.14627260963910566
109,1790596635.4011955,0.0060354492187499565,-0.07386240234375001,0.004933740234375959,0.07427262564338503,0.06286826708300308,0.1288301274260239,0.034369934712651075,0.14741408735523637
110,1790596635.4256756,0.10662626953124996,-0.13134287109375,-0.02380649414062404,0.17084162345449588,0.06441635582508651,0.12918581242267219,0.034243205124667664,0.14836117459193987
111,1790596635.4456756,0.17368681640624997,-0.25109384765625004,-0.014226416015624042,0.3056429639903528,0.06591188106735395,0.12885916007210116,0.03409814961493508,0.1487001782362311
112,1790596635.4707186,0.22637724609374996,-0.28462412109375,0.01930385742187596,0.36418427583950413,0.06825502255365863,0.12750529519994386,0.03395329941509389,0.1485569754302917
113,1790596635.4907186,0.24553740234374996,-0.25109384765625004,0.04804409179687596,0.3544643438163045,0.07055349203200949,0.12578267293112383,0.03395599236841735,0.14816236183772488
114,1790596635.5161347,0.27427763671875,-0.14571298828125,0.02409389648437596,0.3115140651811313,0.07402714514664331,0.12316552186121994,0.03409641142897544,0.1476899768645212
115,1790596635.5361347,0.30780791015625,-0.12176279296875002,-0.057336767578124045,0.33594551972398223,0.07722368037512777,0.12101378574942055,0.03414046867600883,0.14755814024818859
116,1790596635.5456853,0.31259794921874995,-0.16487314453125002,-0.08607700195312405,0.3637442534372588,0.07896554526648172,0.11993508148955799,0.03405562523931726,0.147579696169834
117,1790596635.5656853,0.27906767578124997,-0.15529306640625,-0.08128696289062405,0.3295485919796753,0.08295355627650736,0.11753474281859622,0.033653558510678784,0.14774393479525616
118,1790596635.5907693,0.25990751953124996,-0.16008310546875001,-0.11481723632812404,0.32613113485748996,0.08821903719037065,0.11438249178820799,0.0328559953997036,0.14814003302342285
119,1790596635.6107693,0.23595732421874996,-0.16487314453125002,-0.07649692382812405,0.29784356967250536,0.09253136442006359,0.11175870895262797,0.03202849860615104,0.14858629530061324
120,1790596635.6358573,0.22637724609374996,-0.14092294921875,0.00972377929687596,0.2668341939282051,0.09799928897171674,0.10838572848773298,0.031020544349195055,0.14937737763965128
121,1790596635.6558573,0.23116728515624996,-0.04991220703125001,0.06720424804687596,0.24585758701489646,0.10239073755250194,0.10581390327994016,0.030452934168736977,0.15035899196046537
122,1790596635.66596,0.25511748046875,0.021938378906249993,0.09115444335937596,0.27180020944420724,0.10464474265882334,0.10468844985570322,0.030329210310960985,0.1510961769781352
123,1790596635.68596,0.25032744140624996,0.055468652343749994,0.06241420898437596,0.26388659078660415,0.10919574340308973,0.10291074998237122,0.030351371853403065,0.1530867029257312
124,1790596635.7109957,0.23595732421874996,0.026728417968749994,0.02409389648437596,0.2386855316674731,0.1149511588289002,0.10117359000677581,0.030537385866180704,0.15614863485316233
125,1790596635.7309957,0.25032744140624996,-0.03075205078125001,-0.028596533203124042,0.25382529081927485,0.11958869580431555,0.09998796756953271,0.030656941361242505,0.15886754821702798
126,1790596635.7560763,0.27427763671875,-0.08344248046875001,-0.06691684570312405,0.294395539690492,0.12551879431263477,0.09850937135679645,0.030604713601447713,0.16246757358142389
127,1790596635.7760763,0.29822783203125,-0.07386240234375001,-0.057336767578124045,0.3125427957806055,0.13039704299824556,0.09727120415820535,0.030382932762486783,0.16549380225350846
128,1790596635.785128,0.30780791015625,-0.04033212890625001,-0.052546728515624044,0.3148548059893054,0.13268514289245634,0.09671735398486757,0.03022301500644436,0.16695216183777165
129,1790596635.805128,0.30301787109374995,-0.02117197265625001,-0.02380649414062404,0.3046880893497694,0.13789861020028096,0.09558492423103342,0.029808147301626512,0.1704142895445593
130,1790596635.8312323,0.31738798828125,-0.02596201171875001,0.02409389648437596,0.3193582267697252,0.14489722799455984,0.09423629295811072,0.02934844327991761,0.17531975562938953
131,1790596635.8512323,0.30780791015625,-0.04512216796875001,0.03846401367187596,0.3134664255461953,0.15039276779409957,0.09325139052035475,0.0291429045765701,0.17934077987426264
132,1790596635.8758872,0.27906767578124997,-0.06428232421875,0.02409389648437596,0.2873873704961879,0.157236374889044,0.0920170759917488,0.029043211150534234,0.18448286634875818
133,1790596635.8958871,0.24553740234374996,-0.09781259765625001,0.00014370117187595844,0.2643027447076681,0.16274207491941325,0.09092285123502593,0.02901082705856076,0.18866259807498753
134,1790596635.9055529,0.25990751953124996,-0.13613291015625,-0.028596533203124042,0.2947911966930731,0.16537019441188117,0.09030375645563753,0.028976897574537724,0.19063507081035147
135,1790596635.9255528,0.27906767578124997,-0.13613291015625,-0.03338657226562404,0.3122908901988757,0.1708009663665841,0.08880650048991742,0.028824248172308258,0.19465457077531859
136,1790596635.951335,0.27906767578124997,-0.12176279296875002,0.00014370117187595844,0.3044749021964312,0.1778309269037831,0.08666721414654532,0.028592703669666313,0.19988143304099845
137,1790596635.971335,0.23595732421874996,-0.04991220703125001,-0.004646337890624042,0.24122329016700791,0.1832388182988928,0.08499911774899557,0.028433275907695107,0.2039847193505567
138,1790596635.9956875,0.17368681640624997,0.04588857421874999,-0.03817661132812404,0.18365817457893552,0.18958409241268653,0.08326531509814877,0.028190057061220877,0.20897349140848215
139,1790596636.0156875,0.14973662109374997,0.11773916015625,-0.057336767578124045,0.19892478590457288,0.19449872442043867,0.08230042669146677,0.027877001363286302,0.2130263862524638
140,1790596636.025786,0.12578642578124996,0.09378896484375,-0.03338657226562404,0.16041589087410205,0.19681668683238235,0.08204651929007314,0.027673930168485055,0.21502159415803473
141,1790596636.045786,0.11141630859374996,0.031518457031249995,-0.014226416015624042,0.11665932396057367,0.2010746037699721,0.08180704647197479,0.027260655864429263,0.21878421444857024
142,1790596636.0706148,0.12578642578124996,0.05067861328124999,0.01930385742187596,0.13697877816032855,0.20600939566848098,0.08170741241769976,0.02683401158820858,0.22323986320907147
143,1790596636.0906148,0.14973662109374997,0.08899892578125,0.02409389648437596,0.17584760542751077,0.20980145802996827,0.08184871058010929,0.026606991203925796,0.2267681529581542
144,1790596636.115977,0.18326689453124997,0.09378896484375,0.043254052734375964,0.21036643657090037,0.21452233883191243,0.08234870887273606,0.02649039384127253,0.23130690581300467
145,1790596636.135977,0.23116728515624996,0.07941884765625,0.043254052734375964,0.24822687237184013,0.21830833364227675,0.0829436626043399,0.026542002201443704,0.23503756632664413
146,1790596636.1607642,0.26948759765624997,0.031518457031249995,-0.02380649414062404,0.2723668988468224,0.22322745138265107,0.08377665724974051,0.026632523133922476,0.2399131397802406
147,1790596636.1807642,0.27906767578124997,-0.01638193359375001,-0.052546728515624044,0.28444383293000675,0.22742399912540318,0.0843706610129116,0.02658007606294601,0.24402168809648667
148,1790596636.1913297,0.30301787109374995,-0.08823251953125001,-0.06691684570312405,0.32261846187699267,0.22976964864798718,0.08455449154061197,0.02646186088971256,0.24625958572461173
149,1790596636.2113297,0.32696806640625,-0.10260263671875001,-0.02380649414062404,0.3435144344483202,0.23448879076166104,0.08456402349758994,0.02613556708907823,0.25063745715681585
150,1790596636.235775,0.33175810546874995,-0.10260263671875001,0.043254052734375964,0.3499452166894158,0.2405993370879225,0.08419770373243679,0.025832227060598425,0.25621201821123313
151,1790596636.255775,0.31738798828125,-0.09302255859375001,0.11031459960937597,0.3486511758183578,0.24582251054523852,0.08364951658411213,0.0258516281620341,0.26094875932670697
152,1790596636.2800155,0.33654814453125,-0.09302255859375001,0.09115444335937596,0.36086975841557084,0.2523924186898867,0.08274652522851197,0.026237893784071348,0.2669032549815533
153,1790596636.3000154,0.32217802734374995,-0.09781259765625001,-0.004646337890624042,0.3367307143982672,0.25798801760248696,0.08182700025426895,0.026638545899122863,0.27196155486519213
154,1790596636.310623,0.29822783203125,-0.10739267578125002,-0.11002719726562404,0.3355279582205404,0.26100418715027734,0.08124920817388384,0.02672793743266329,0.27466161395117533
155,1790596636.330623,0.28864775390624997,-0.08823251953125001,-0.15792758789062405,0.34065176699219724,0.26671833662033506,0.080029777392752,0.02646926817347735,0.2797213944565043
156,1790596636.3565023,0.26469755859375,-0.05949228515625001,-0.10523715820312404,0.29099654462772173,0.27407720344715814,0.0784018291586047,0.02567397377003163,0.28622423586058227
157,1790596636.3765023,0.21679716796874995,-0.02117197265625001,-0.028596533203124042,0.2196975789048772,0.2796334324409406,0.07721144520155651,0.024950800153332682,0.2911683469010782
158,1790596636.401152,0.19284697265624998,0.04109853515624999,0.01930385742187596,0.19812037594864912,0.2862115106036706,0.0760012259057256,0.02417601677861077,0.2971156255205839
159,1790596636.4211519,0.18326689453124997,0.06983876953125,-0.028596533203124042,0.19819679632124412,0.2913123520956208,0.07533298563805053,0.023627736689845382,0.30182149550638426
160,1790596636.4307985,0.19284697265624998,0.04109853515624999,-0.057336767578124045,0.20534495214389312,0.29367572939893594,0.0751392813960621,0.023340778406921437,0.3040331192211708
161,1790596636.4507985,0.18326689453124997,-0.04033212890625001,0.00014370117187595844,0.1876524870692245,0.29840480236295014,0.07479907233952955,0.022749291670987607,0.3084766726474745
162,1790596636.4765043,0.20242705078124998,-0.04033212890625001,0.01930385742187596,0.20730660969074105,0.3043148991099051,0.07427187904111693,0.02214058715472176,0.31402878122255906
163,1790596636.4965043,0.24074736328124996,0.007568261718749992,0.00972377929687596,0.24106248857118354,0.3088881746248278,0.07387408541323154,0.021781575015123397,0.3183452872728588
164,1790596636.5212853,0.28385771484375,0.026728417968749994,-0.004646337890624042,0.2851511863191555,0.3146797339315676,0.07351887486177078,0.021412902735571213,0.32386242806436494
165,1790596636.5412853,0.30780791015625,-0.002011816406250008,-0.02380649414062404,0.30873371394014953,0.3195402939189386,0.073312272057509,0.02111731098898576,0.32852188586978714
166,1790596636.5504727,0.28864775390624997,-0.07865244140625001,-0.03338657226562404,0.30102889492860047,0.3218491776765244,0.07317601792072213,0.02096248261679418,0.3307280581493627
167,1790596636.5704727,0.27427763671875,-0.11218271484375002,0.00014370117187595844,0.2963329279100848,0.3269657997944947,0.0726376481026314,0.020626132230674946,0.33557160113444134
168,1790596636.5961149,0.26948759765624997,-0.11697275390625002,0.00972377929687596,0.29394003186154033,0.33358760569800505,0.0716102335765757,0.020278556797930725,0.3417893153596618
169,1790596636.6161149,0.24074736328124996,-0.10739267578125002,-0.009436376953124041,0.26378310209020644,0.338743016902393,0.07059254061541308,0.020048555772663523,0.34660075429699116
170,1790596636.640977,0.21200712890624998,-0.10260263671875001,0.00014370117187595844,0.23552992255494393,0.3450346515879521,0.06912563881874484,0.019788200285487566,0.3524469287836931
171,1790596636.660977,0.20721708984374998,-0.05949228515625001,0.014513818359375959,0.216076156111206,0.34996553333856145,0.06787946973527409,0.019632162652739336,0.3570278963147129
172,1790596636.671217,0.23116728515624996,-0.02117197265625001,0.014513818359375959,0.23258808455300745,0.3524481532266859,0.06727518168162594,0.019586547887874853,0.35934563256196844
173,1790596636.691217,0.25032744140624996,-0.01638193359375001,-0.009436376953124041,0.251040317238628,0.35729189623763935,0.06621564688253614,0.019518437054580992,0.3638996845206305
174,1790596636.7457418,0.25511748046875,-0.03554208984375001,-0.02380649414062404,0.2586791799786983,0.37058330226026376,0.06354803946796524,0.019224660799420472,0.3764836315395357
175,1790596636.7657418,0.23116728515624996,-0.07386240234375001,-0.04296665039062404,0.24645506943922071,0.3754567746992818,0.0625522159270994,0.01903290648086517,0.38110736140107165
176,1790596636.761268,0.24074736328124996,-0.05949228515625001,-0.019016455078124044,0.24871720986639628,0.3754567746992818,0.0625522159270994,0.01903290648086517,0.38110736140107165
177,1790596636.781268,0.26469755859375,-0.01638193359375001,-0.014226416015624042,0.26558530867954905,0.38033771579918046,0.061548895134825886,0.01876547134251741,0.38574238484558937
178,1790596636.7908802,0.25990751953124996,0.021938378906249993,-0.019016455078124044,0.2615240653203058,0.3827098981791012,0.061143020218430495,0.018632252063550302,0.3880109481736941
179,1790596636.8108802,0.25032744140624996,0.031518457031249995,-0.009436376953124041,0.252480269060043,0.38767060067201115,0.06050539058446567,0.01835396634852591,0.39279290344391343
180,1790596636.8357615,0.24553740234374996,0.05067861328124999,0.004933740234375959,0.2507613997140057,0.3938416743189836,0.05998451156776663,0.01805128825305448,0.39879224549381437
181,1790596636.8557615,0.24553740234374996,0.017148339843749992,-0.014226416015624042,0.246546288598638,0.39879462044749603,0.05973036565458947,0.01783054696722927,0.4036369585211988
182,1790596636.8813522,0.25511748046875,-0.06428232421875,-0.019016455078124044,0.26377788309755207,0.40514237111740276,0.059363491314002995,0.01752666483819736,0.40984332244892013
183,1790596636.9013522,0.29343779296874994,-0.09302255859375001,0.00014370117187595844,0.3078294258184643,0.4101820411875169,0.058883818019773916,0.017296485535103597,0.41474785032500133
184,1790596636.9264157,0.30301787109374995,-0.08344248046875001,0.00972377929687596,0.3144471809903541,0.4166714953649814,0.05804115728153676,0.01706984698208699,0.421040723284888
185,1790596636.9464157,0.28385771484375,-0.07865244140625001,0.00014370117187595844,0.2945529315174203,0.4219534497764414,0.057226458465287684,0.01693092466778878,0.42615283354311456
186,1790596636.9560318,0.27427763671875,-0.08344248046875001,0.01930385742187596,0.2873386651012433,0.4245146445489305,0.0567765977897754,0.016888174814438744,0.4286274325584514
187,1790596636.9760318,0.30780791015625,-0.09781259765625001,0.04804409179687596,0.32652909299418964,0.4299156059934288,0.05570942470884164,0.016913620883404472,0.43383987697014986
188,1790596637.000614,0.31738798828125,-0.12655283203125,-0.057336767578124045,0.3464653796797834,0.43671086804818643,0.054180850074423324,0.01692307292266692,0.44038430624096214
189,1790596637.020614,0.31259794921874995,-0.13613291015625,-0.14834750976562405,0.3718287653437261,0.4423551647071947,0.05272972363590456,0.01662108343539095,0.4457967876874108
190,1790596637.045694,0.29822783203125,-0.14092294921875,-0.11481723632812404,0.34925938093714554,0.44952044783270995,0.050661807597442265,0.015804173001524063,0.45264226896415943
191,1790596637.065694,0.29822783203125,-0.09302255859375001,-0.09565708007812404,0.3267159518212414,0.45527193694006995,0.04890920493473416,0.01493473969216536,0.4581350164986121
192,1790596637.075857,0.27427763671875,-0.04512216796875001,-0.04775668945312404,0.2820371135750485,0.4581924948489407,0.04804692395598279,0.014449901711177649,0.46093130605003524
193,1790596637.095857,0.22158720703124996,-0.02596201171875001,0.03367397460937596,0.22562990258028176,0.46382168606181995,0.04649790800593946,0.013617759711275294,0.46634542486199254
194,1790596637.1211505,0.21200712890624998,0.012358300781249993,0.043254052734375964,0.21672716346415674,0.47069548258389327,0.04480694259782037,0.012869158858106671,0.4729984298912246
195,1790596637.1411505,0.23595732421874996,-0.02117197265625001,0.09115444335937596,0.253837041865026,0.4759873515251656,0.043657213363805535,0.012567631956368773,0.47815045379422694
196,1790596637.1658716,0.23595732421874996,-0.01159189453125001,0.05762416992187596,0.243168204809924,0.4824222223006038,0.04238850367415893,0.01252668114257033,0.48444287955716203
197,1790596637.1858716,0.26469755859375,-0.006801855468750008,0.00972377929687596,0.2649634213379723,0.4875982698216396,0.041488459813070346,0.012599542334579323,0.48952233197042
198,1790596637.1956327,0.33175810546874995,-0.05949228515625001,-0.014226416015624042,0.337350208907563,0.49018219180392664,0.04106654662024108,0.012626472276900863,0.4920614496332479
199,1790596637.2156327,0.37007841796874996,-0.09781259765625001,-0.028596533203124042,0.38385296848891715,0.4957351201654746,0.040095782882724744,0.012609139269216467,0.49751379032501863
200,1790596637.2412357,0.37965849609374996,-0.13134287109375,-0.009436376953124041,0.4018464490988054,0.5032170999008253,0.038599433826385546,0.012517246783180122,0.5048505198485446
201,1790596637.2612357,0.37965849609374996,-0.11218271484375002,-0.052546728515624044,0.39935785186168155,0.5093239786979118,0.03724059605147173,0.012363257201388889,0.5108332677102848
202,1790596637.286023,0.35570830078125,-0.03554208984375001,-0.08128696289062405,0.36660497232188094,0.517124385323664,0.03553449341351681,0.01195223381814618,0.5184816158860178
203,1790596637.306023,0.30780791015625,-0.05470224609375001,-0.03817661132812404,0.3149531694315171,0.5234694703936553,0.03422901779997805,0.011491143361057976,0.5247132154515546
204,1790596637.330963,0.29343779296874994,-0.04512216796875001,-0.014226416015624042,0.29722742016378745,0.5313195841858014,0.032658555162902024,0.010904389875650039,0.5324340217184298
205,1790596637.3509629,0.28864775390624997,-0.01159189453125001,-0.028596533203124042,0.2902923691129066,0.5375436231769114,0.03150300201295067,0.010440203861689793,0.5385671581248367
206,1790596637.3615386,0.26469755859375,-0.01159189453125001,-0.057336767578124045,0.27108425712428075,0.5407800504148057,0.030965225734031144,0.010163405023893526,0.541761204713921
207,1790596637.3815386,0.25032744140624996,-0.04033212890625001,-0.019016455078124044,0.25426783930896213,0.5467549699497392,0.03002289331944824,0.009603936050040233,0.5476628587695759
208,1790596637.4066277,0.26469755859375,-0.04991220703125001,-0.02380649414062404,0.2704122317860079,0.5540950452910016,0.028848288093798774,0.008926803943884697,0.5549173188598753
209,1790596637.4266276,0.29343779296874994,-0.05470224609375001,-0.028596533203124042,0.2998596934923224,0.559905783132679,0.027895469975638215,0.00838938393603921,0.5606630226735188
210,1790596637.4358976,0.33175810546874995,-0.07865244140625001,-0.004646337890624042,0.340985682308175,0.5626297243283067,0.027427370637795764,0.008154542776801443,0.5633568708427618
211,1790596637.4558976,0.33175810546874995,-0.10260263671875001,0.01930385742187596,0.34779790182980996,0.5686203797964677,0.02629705012511283,0.007745858459238841,0.5692808353426562
212,1790596637.4806397,0.29822783203125,-0.09302255859375001,0.02888393554687596,0.31373128300834646,0.5760888412803404,0.024745457586935044,0.0074055301240292335,0.5766676101493217
213,1790596637.5006397,0.28385771484375,-0.09781259765625001,0.02409389648437596,0.3012026267886437,0.5820934486480099,0.02339312666898254,0.007251161754293681,0.5826084454254602
214,1790596637.5268817,0.29343779296874994,-0.12655283203125,0.02888393554687596,0.3208670119694089,0.5899265130134331,0.02144330470379588,0.0071832651370616505,0.590359810091132
215,1790596637.5468817,0.29343779296874994,-0.16966318359375002,0.00972377929687596,0.339095688697677,0.5958812054464556,0.019735856365840264,0.007197192178386822,0.596251385412283
216,1790596637.5710068,0.31259794921874995,-0.16966318359375002,-0.06212680664062405,0.3610579092421272,0.603083207383876,0.01737120820518587,0.007116654702861112,0.6033753066517479
217,1790596637.5910068,0.32696806640625,-0.13134287109375,-0.10523715820312404,0.3677416561980172,0.6091175156096549,0.015253427424008965,0.006808857486224382,0.6093465150560273
218,1790596637.6015532,0.34133818359374996,-0.11697275390625002,-0.09086704101562404,0.3720903114546626,0.6123508588239673,0.01410777290809707,0.006515780097080961,0.6125480054241874
219,1790596637.6215532,0.34612822265625,-0.12176279296875002,-0.06212680664062405,0.37214333847871944,0.6185939347991721,0.011902971194958794,0.005813873439882013,0.6187357578304048
220,1790596637.646108,0.35570830078125,-0.07865244140625001,-0.03338657226562404,0.36582682377252707,0.626401570726576,0.009233005203896338,0.0049054819097139,0.6264888186923876
221,1790596637.666108,0.32217802734374995,-0.03554208984375001,-0.019016455078124044,0.32468992441606437,0.6328238623551202,0.0072132151524992435,0.004197970441867741,0.632878893781993
222,1790596637.6908662,0.30780791015625,-0.01638193359375001,-0.004646337890624042,0.30827855221993944,0.6407513982973461,0.004991514199966782,0.003409566502814437,0.6407799113406645
223,1790596637.7108662,0.31259794921874995,-0.006801855468750008,-0.019016455078124044,0.3132496905941397,0.6471253432048247,0.00343123717065672,0.00283272527942962,0.6471406396904712
224,1790596637.7209294,0.30780791015625,-0.05470224609375001,-0.04296665039062404,0.31556960932296596,0.6503196288420691,0.0027175103164770193,0.002539237834157583,0.6503302639800681
225,1790596637.7409294,0.31738798828125,-0.10739267578125002,-0.014226416015624042,0.33536653504684266,0.6566536137073589,0.001268650357159432,0.0019576521483627768,0.6566577573368002
226,1790596637.79584,0.31259794921874995,-0.09302255859375001,0.01930385742187596,0.32671595182124175,0.6740297383079956,-0.002937931716932374,0.0006213129947274104,0.6740364274994014
227,1790596637.81584,0.30301787109374995,-0.05470224609375001,0.01930385742187596,0.3085203475319801,0.6803326965272815,-0.004461849213384829,0.00026550258539664536,0.6803473793247886
228,1790596637.811382,0.30780791015625,-0.03554208984375001,0.03846401367187596,0.31223137262768696,0.6803326965272815,-0.004461849213384829,0.00026550258539664536,0.6803473793247886
229,1790596637.831382,0.30780791015625,-0.04033212890625001,0.06720424804687596,0.31762997517931846,0.6865888088189082,-0.005791752242746875,0.0002405857714762062,0.6866132788338148
230,1790596637.841495,0.30780791015625,-0.06907236328125001,0.03846401367187596,0.31779896361027565,0.6897446335671831,-0.006446329063148514,0.0003100231931269386,0.6897748261624936
231,1790596637.861495,0.33175810546874995,-0.07865244140625001,-0.019016455078124044,0.34148392736279126,0.6960089322287641,-0.007768261592082153,0.00045591901034579036,0.696052431568579
232,1790596637.8863835,0.34133818359374996,-0.07386240234375001,-0.028596533203124042,0.35040715142574924,0.7038915026052123,-0.009451242902723506,0.00052136595078442,0.7039551443484766
233,1790596637.9063835,0.32696806640625,-0.07865244140625001,0.014513818359375959,0.3366080419597465,0.7102781137572983,-0.010829567442661977,0.0005449451244405993,0.7103608768638722
234,1790596637.9309108,0.34612822265625,-0.11218271484375002,0.014513818359375959,0.3641433219932197,0.718173785275558,-0.012617399601234718,0.0006229220727483102,0.7182848826626029
235,1790596637.9509108,0.36049833984374996,-0.13613291015625,-0.04775668945312404,0.38829360495021237,0.7247062476159662,-0.014229026755797564,0.0006271039681492826,0.7248461931992319
236,1790596637.960969,0.33654814453125,-0.17924326171875002,-0.10044711914062404,0.3943125970631095,0.728024520610626,-0.015155860796827231,0.0005170922404750799,0.7281824428748676
237,1790596637.980969,0.33175810546874995,-0.26067392578125004,-0.11481723632812404,0.43726117353871147,0.7346354164905663,-0.017382240803606078,8.25775888642355e-06,0.7348410287441854
238,1790596638.0060995,0.32696806640625,-0.30378427734375,-0.10523715820312404,0.45854973893502077,0.7429377280453706,-0.0208240050689447,-0.0009499576853468022,0.7432301187115149
239,1790596638.0260994,0.32696806640625,-0.27983408203125004,-0.11002719726562404,0.4442085254177849,0.7495348786505557,-0.024027674850672188,-0.0019210559090151534,0.7499223652673912
240,1790596638.0513823,0.33175810546874995,-0.22714365234375003,-0.09565708007812404,0.4132891921080749,0.7578727519582398,-0.028431428849819782,-0.0033545443705501384,0.758413282633639
241,1790596638.0713823,0.33175810546874995,-0.18403330078125002,-0.10044711914062404,0.3924555007695866,0.7644743417058972,-0.03200924110348832,-0.004612566058963955,0.7651580793589874
242,1790596638.0809424,0.29822783203125,-0.15050302734375,-0.057336767578124045,0.3389373186210111,0.7676083055603276,-0.033702789320401445,-0.005236838869642745,0.7683656767806063
243,1790596638.1009424,0.29822783203125,-0.10260263671875001,-0.004646337890624042,0.31541834016983394,0.7740758681001578,-0.03709395021928519,-0.006439908372768798,0.7749908922934085
244,1790596638.126118,0.32217802734374995,-0.06428232421875,0.00014370117187595844,0.32852841453990156,0.7821673498702273,-0.0410374730717579,-0.007735649728877196,0.7832813528202096
245,1790596638.146118,0.33654814453125,-0.08344248046875001,0.03846401367187596,0.34886499033573876,0.7886192688370819,-0.04392195193918472,-0.008552696784190413,0.7898877373814357
246,1790596638.171302,0.34612822265625,-0.06428232421875,0.09594448242187596,0.3648867049281746,0.7968143827326281,-0.047288313569350836,-0.009173332462742689,0.7982690618821979
247,1790596638.191302,0.39881865234374997,-0.02117197265625001,0.07199428710937596,0.40581738166301995,0.8034637249710996,-0.049688879820488696,-0.009340370377060375,0.8050529079762587
248,1790596638.201716,0.41797880859375,-0.05470224609375001,0.02888393554687596,0.4225315395255459,0.8070446135591512,-0.05081060863758848,-0.009335509711069168,0.8086964065497803
249,1790596638.221716,0.42755888671875,-0.11697275390625002,-0.02380649414062404,0.4439098736588955,0.8141584844293872,-0.05289926954510068,-0.00931995883809227,0.8159284479165472
250,1790596638.2615254,0.42276884765625,-0.19361337890625002,-0.06212680664062405,0.46912618680206947,0.8287333021912863,-0.05736040315975716,-0.009550220162922788,0.8307709122957327
251,1790596638.2815254,0.41797880859375,-0.29420419921875,-0.06212680664062405,0.5149001217466919,0.8362183610040926,-0.059997183276477045,-0.009834929753379438,0.8384256288572863
252,1790596638.2904634,0.41318876953125,-0.31815439453125005,-0.06212680664062405,0.5251732267829885,0.8396188769637113,-0.06140931100301254,-0.010026376062180167,0.8419213088220352
253,1790596638.3104634,0.40360869140625,-0.25109384765625004,-0.06691684570312405,0.4800270412678242,0.8473117646303958,-0.06494901264875091,-0.010584067241051598,0.8498632967745378
254,1790596638.335894,0.41318876953125,-0.19840341796875002,-0.028596533203124042,0.4592457264250462,0.8571841539027085,-0.06963206610003832,-0.01136899535915634,0.8600828753014088
255,1790596638.355894,0.41318876953125,-0.13613291015625,0.00972377929687596,0.43514558526793357,0.8650232461378622,-0.07326441301982627,-0.01192201578172006,0.8682021798143125
256,1790596638.3660972,0.41318876953125,-0.11697275390625002,0.00972377929687596,0.4295371186602794,0.8690549087390038,-0.0750332041567621,-0.012146941829232132,0.8723726063587688
257,1790596638.3860972,0.43234892578125,-0.09781259765625001,0.03367397460937596,0.4445523978683021,0.8770405885698033,-0.07830246194031944,-0.012456606902195955,0.8806171907249472
258,1790596638.411174,0.43234892578125,-0.03554208984375001,0.014513818359375959,0.4340500946872734,0.8871777626375917,-0.08203754053037673,-0.012696008061768443,0.8910531573344099
259,1790596638.431174,0.43234892578125,-0.006801855468750008,-0.02380649414062404,0.4330572803051418,0.8953469505650539,-0.08463312220080407,-0.01287224069992145,0.8994301650713268
260,1790596638.455545,0.42276884765625,-0.06907236328125001,-0.03338657226562404,0.4296733097662668,0.9053713060967062,-0.08746021810964306,-0.013159314754624814,0.9096810755533247
261,1790596638.475545,0.44671904296875,-0.07865244140625001,0.00014370117187595844,0.453590267245789,0.9136680490877881,-0.08965385239888418,-0.013409428184901605,0.9181540883414351
262,1790596638.4858809,0.48982939453124996,-0.01638193359375001,0.07199428710937596,0.4953628779707945,0.918038625292878,-0.09069113583229377,-0.013463376342957516,0.9226055831994195
263,1790596638.5058808,0.52335966796875,0.04588857421874999,0.02409389648437596,0.5259197839480749,0.9267469023673368,-0.09235294540011196,-0.013407975311053609,0.9314336591370702
264,1790596638.531478,0.5329397460937499,0.007568261718749992,-0.057336767578124045,0.5360686117170282,0.9382483066670713,-0.09405816531734772,-0.013411524840591884,0.9430464953675625
265,1790596638.551478,0.55209990234375,-0.04991220703125001,0.03846401367187596,0.5556842727002977,0.9475143752424009,-0.09525418118667132,-0.013442191319126358,0.9523851861678658
266,1790596638.5763233,0.53772978515625,0.05067861328124999,0.10552456054687596,0.5503245193219257,0.9593294756111788,-0.09651566076059645,-0.013206264323810163,0.9642627862599822
267,1790596638.5963233,0.51856962890625,0.18000966796875,0.11510463867187597,0.5608627447334763,0.9689981892933004,-0.09703277296727314,-0.012713892114287598,0.9739273550609958
268,1790596638.6065211,0.48503935546875,0.33329091796875,0.23485561523437598,0.6336427797750951,0.973956309790183,-0.09686430143230614,-0.012232829069946362,0.9788376925615064
269,1790596638.626521,0.45150908203124995,0.46741201171875,0.24443569335937598,0.6943221500454596,0.9836263769767777,-0.09538240412958324,-0.01071195497310576,0.9882982335719046
270,1790596638.6515627,0.45150908203124995,0.56321279296875,0.24922573242187598,0.7636639097283455,0.9956138968521414,-0.09186963246622204,-0.00816618241206972,0.9998768661739167
271,1790596638.6715627,0.43713896484375,0.69733388671875,0.27796596679687596,0.8686944818797144,1.005084838254716,-0.08759409807589594,-0.005647146364817021,1.0089103767774936
272,1790596638.6967115,0.38923857421874997,0.8410350585937499,0.25880581054687596,0.9621990880355599,1.01676632948735,-0.0801226696101082,-0.001942290057241192,1.019920184845508
273,1790596638.7167115,0.35570830078125,0.82666494140625,0.263595849609376,0.9377558810938866,1.0257801342550383,-0.0725706298640444,0.0013456985932655168,1.0283448794328938
274,1790596638.7409554,0.38923857421874997,0.77876455078125,0.27796596679687596,0.9139179240559238,1.0364221601282564,-0.061870149115662076,0.005718238174906549,1.0382829612414626
275,1790596638.7609553,0.43234892578125,0.77876455078125,0.263595849609376,0.9289147383420137,1.0451168205074393,-0.05203058832440894,0.009596642582210768,1.046455181160576
276,1790596638.7699988,0.47066923828124996,0.67817373046875,0.20132534179687597,0.8496946709329073,1.0490710692782654,-0.04726059889611728,0.01140263353752298,1.0501969780266243
277,1790596638.7899988,0.5137795898437499,0.6638036132812499,0.11510463867187597,0.8472625223559923,1.0579809802973157,-0.03628095759147402,0.015272199193575826,1.0587130407352277
278,1790596638.8158152,0.64311064453125,0.73565419921875,0.02888393554687596,0.9775544402590866,1.0699969417277957,-0.021524421205276735,0.01979668118103624,1.0703964987801677
279,1790596638.8358152,0.75807158203125,0.69254384765625,0.14384487304687596,1.036812833597153,1.0800111574166211,-0.009665028326125062,0.023035120590382704,1.0803000183733904
280,1790596638.8453782,0.83950224609375,0.5775829101562501,0.03367397460937596,1.0195587162429671,1.0852270170390947,-0.0039340921194630655,0.02447862898613585,1.0855101836783556
281,1790596638.8653781,0.87782255859375,0.42909169921875,0.00014370117187595844,0.9770834925248398,1.0970751773129632,0.00776373978154661,0.027095464239594358,1.0974371893252135
282,1790596638.8906617,0.90177275390625,0.30934072265625,0.03367397460937596,0.9539495368976003,1.1131812429361703,0.02173394559906103,0.029971519700221383,1.1137967211342295
283,1790596638.9106617,0.88261259765625,0.27581044921875003,0.12947475585937596,0.9337237888394014,1.1266870960683661,0.03200485550829253,0.03215002352866316,1.1275999943401773
284,1790596638.9355505,0.88261259765625,0.33329091796875,0.00972377929687596,0.9434947723362223,1.1442682926758436,0.04400613025209793,0.034714222022094864,1.1456402325048007
285,1790596638.9555504,0.91614287109375,0.29497060546875,-0.13397739257812405,0.9717383187198769,1.1589750621714645,0.05314585755047516,0.03627928875903628,1.160760037089056
286,1790596638.996206,0.90177275390625,0.08899892578125,-0.20103793945312406,0.9281870294167208,1.189929512909382,0.07010886301701807,0.037961994081113726,1.1925974221676452
287,1790596639.016206,0.92572294921875,-0.07865244140625001,-0.12439731445312405,0.937349389018083,1.2056142350218104,0.07721739638731921,0.038177458242250335,1.208687605756715
288,1790596639.010233,1.00715361328125,0.017148339843749992,0.02409389648437596,1.00758770444695,1.2056142350218104,0.07721739638731921,0.038177458242250335,1.208687605756715
289,1790596639.030233,1.09816435546875,0.026728417968749994,0.02409389648437596,1.0987537830637977,1.222568835956419,0.08234070916660712,0.03827752598324373,1.2259362626308479
290,1790596639.0555828,1.18917509765625,0.06983876953125,-0.08607700195312405,1.194329986595258,1.2451839917135699,0.08804400937400453,0.03826749124647101,1.248879226223532
291,1790596639.0755827,1.24186552734375,0.07462880859375,-0.12918735351562405,1.2507952747693218,1.263996603370172,0.09208542706420811,0.037937865579968505,1.2679142009038675
292,1790596639.1004653,1.24665556640625,-0.05949228515625001,-0.16271762695312406,1.2586367463911328,1.2885351779548384,0.09638751270776487,0.03704453264441627,1.292666142061414
293,1790596639.1204653,1.31371611328125,-0.13613291015625,-0.30162875976562403,1.3547553669353565,1.3091407051022754,0.09903329852479008,0.03573768068938268,1.3133674892403266
294,1790596639.146116,1.42388701171875,-0.17924326171875002,-0.4309598144531241,1.4984354275998681,1.3368705904420748,0.10131089930590215,0.03290364835089538,1.3411075736054554
295,1790596639.166116,1.51489775390625,-0.15529306640625,-0.5459207519531241,1.617733169801844,1.3596566974061985,0.10231857130940965,0.029560078819864104,1.3638215510455047
296,1790596639.1908605,1.6538088867187501,-0.13613291015625,-0.670461767578124,1.7897304223825172,1.3895001477248339,0.1028374427329429,0.023786429046232814,1.3935034963579955
297,1790596639.2108605,1.72565947265625,-0.11218271484375002,-0.7423123535156241,1.8818908595505388,1.4150724048249639,0.10282144490743321,0.01770065466605112,1.4189134834814863
298,1790596639.2204094,1.8166702148437501,-0.15050302734375,-0.7758426269531241,1.98112937804112,1.4279872638630469,0.10262682548925342,0.014143618951517042,1.4317401765062396
299,1790596639.2404094,1.8597805664062501,-0.22714365234375003,-0.847693212890624,2.056443964022176,1.4564943565748814,0.10171387357913898,0.005375699770436544,1.4600515131189626
300,1790596639.2505622,1.80709013671875,-0.32294443359375,-0.8812234863281241,2.036276676257839,1.4715872080673005,0.10090106851527912,0.00027588230858221607,1.4750423765729193
301,1790596639.2705622,1.72086943359375,-0.32294443359375,-0.7806326660156241,1.9170477495141125,1.502150772548092,0.09857126674269254,-0.010756087840213775,1.505419852240469
302,1790596639.2955287,1.66817900390625,-0.36605478515625,-0.6225613769531241,1.8178008589730632,1.5409269930693195,0.09480902789520405,-0.025089311394325364,1.5440447607781096
303,1790596639.3155286,1.85020048828125,-0.44748544921875005,-0.608191259765624,1.998344735663489,1.572607765248841,0.09102696376059823,-0.03669510771989557,1.575667357783045
304,1790596639.3406074,1.96037138671875,-0.50496591796875,-0.5842410644531241,2.1069846163579213,1.6135420162872864,0.08520438149225804,-0.051307988365788905,1.6166045077940567
305,1790596639.3606074,1.86936064453125,-0.57681650390625,-0.5363406738281241,2.028518626215526,1.6470344412626083,0.07963479373464966,-0.06289439697888921,1.6501575246774869
306,1790596639.3710206,1.92205107421875,-0.6103467773437501,-0.6034012207031241,2.104969489960691,1.6648178996549186,0.07624275622301335,-0.06891220405594936,1.6679869570100796
307,1790596639.3910205,1.9795315429687501,-0.54328623046875,-0.7950027832031241,2.201302905809625,1.6997025903754082,0.06897464946662714,-0.08083415781401629,1.7030210095789828
308,1790596639.4158585,1.94600126953125,-0.6151368164062501,-0.7854227050781241,2.186824883150887,1.743840055082208,0.05914436284614778,-0.09636324035540086,1.747501664507759
309,1790596639.4358585,1.86936064453125,-0.7923682617187501,-0.6225613769531241,2.123661778526716,1.7797723311036822,0.05030491213472463,-0.10910386663037802,1.7838228018670512
310,1790596639.4604273,1.94121123046875,-0.9743897460937502,-0.651301611328124,2.2675824588114217,1.824313496673261,0.037819446367074135,-0.12475460394404198,1.828965214505997
311,1790596639.4804273,1.92205107421875,-0.9743897460937502,-0.6992020019531241,2.265524034022449,1.8609279285365845,0.026257162465842608,-0.13760963367684825,1.8661936140360404
312,1790596639.4912505,1.94600126953125,-0.8306885742187501,-0.612981298828124,2.2028868607052496,1.8809100154359868,0.01947338317125545,-0.14458795681490197,1.8865596667149032
313,1790596639.5112505,1.8933108398437501,-0.7013575195312501,-0.5219705566406241,2.0854211968982663,1.9180546671641026,0.006520093440059214,-0.1572511740694628,1.924501013144625
314,1790596639.535314,1.84541044921875,-0.7109375976562501,-0.6225613769531241,2.0732956040856205,1.9627901583525758,-0.009276146910433979,-0.17226750559933143,1.9703571620679965
315,1790596639.555314,1.91726103515625,-0.7875782226562501,-0.670461767578124,2.178460078935296,2.0000380361676706,-0.02268334488520328,-0.18481548975651993,2.0086869954043505
316,1790596639.5807428,2.09928251953125,-0.6917774414062501,-0.6608816894531241,2.3070127292025218,2.047952888455874,-0.039994188195977824,-0.20091547756177758,2.0581733643082867
317,1790596639.6007428,2.18071318359375,-0.5911866210937501,-0.6225613769531241,2.343628442849592,2.0864055557577563,-0.05349150966408356,-0.21360402016786367,2.09799336560792
318,1790596639.6253295,2.1136526367187503,-0.6151368164062501,-0.5794510253906241,2.276331316489932,2.134504899762586,-0.06981979187460269,-0.22907923165370775,2.147897405562694
319,1790596639.6453295,2.09449248046875,-0.6486670898437501,-0.5555008300781241,2.2619126677226027,2.174074474743407,-0.0830053716028,-0.24148169419766605,2.1890187578178297
320,1790596639.655102,2.27172392578125,-0.5959766601562501,-0.550710791015624,2.4123018363710265,2.193709213829251,-0.08939403180093036,-0.24744363723911159,2.2094297366902387
321,1790596639.675102,2.46811552734375,-0.5720264648437501,-0.5267605957031241,2.5877181565971332,2.2349749047611214,-0.10225953543905546,-0.2594310404376778,2.2523042206244632
322,1790596639.71592,2.3100442382812503,-0.5959766601562501,-0.41658969726562406,2.4217843706934903,2.3211888180629865,-0.1281538332827381,-0.28311429927240944,2.3418997930180985
323,1790596639.73592,2.10407255859375,-0.5720264648437501,-0.21540805664062404,2.191058246413038,2.363716596533372,-0.14069036524210102,-0.2939259642866356,2.386072589021779
324,1790596639.7454958,2.08970244140625,-0.7013575195312501,-0.19624790039062406,2.2129780618501393,2.384036206098833,-0.14670693412765728,-0.2986216746283167,2.4071407231545634
325,1790596639.7654958,2.17592314453125,-1.06061044921875,-0.24893833007812405,2.433414545054099,2.42650801634621,-0.16003109093263287,-0.30762574215462224,2.4511598684487494
326,1790596639.7761283,2.22382353515625,-1.3480127929687502,-0.4309598144531241,2.635954469863947,2.449208804273063,-0.1679727709727831,-0.3122366980852753,2.4747384456439345
327,1790596639.7961283,2.12802275390625,-1.53482431640625,-0.6417215332031241,2.7011058938055763,2.492032122051817,-0.18499471750956925,-0.321218026667598,2.5194499724147636
328,1790596639.8356311,2.14718291015625,-1.6641553710937502,-0.7997928222656241,2.8318679537285725,2.5765932524297392,-0.22305006918297804,-0.3405673331353591,2.608557116535485
329,1790596639.855631,2.25735380859375,-1.80785654296875,-1.0728250488281241,3.0846304612579925,2.6195907803255825,-0.24463513367195883,-0.35170319621436175,2.6543920854351737
330,1790596639.8958988,2.25735380859375,-2.03777841796875,-1.250056494140624,3.2879824112143723,2.7068106212596947,-0.2931894799609507,-0.3777761632362227,2.7487267306943317
331,1790596639.9158988,2.17113310546875,-2.25333017578125,-1.3937576660156241,3.42547460570445,2.750275305922858,-0.32012452570553834,-0.3927492129118428,2.7965596568945457
332,1790596639.9555647,2.1136526367187503,-2.17668955078125,-1.293166845703124,3.2981487777257974,2.836295246170227,-0.3787107985615984,-0.42598429263763327,2.893001073274771
333,1790596639.9755647,2.21903349609375,-2.0760987304687504,-1.1782059082031242,3.259212290963072,2.879660600451893,-0.41019881521502777,-0.4439352021091176,2.9424117158328524
334,1790596639.9565632,2.12802275390625,-1.9371875976562503,-1.250056494140624,3.1374859152192354,2.879660600451893,-0.41019881521502777,-0.4439352021091176,2.9424117158328524
335,1790596639.9765632,1.86457060546875,-1.8222266601562502,-1.125515478515624,2.839703969807515,2.9225234446810218,-0.4437049584444291,-0.46356412037334604,2.9921412180169424
336,1790596639.9856799,1.73044951171875,-1.5827247070312502,-0.550710791015624,2.4088909037554758,2.941589086077711,-0.45901531211968183,-0.472315618937487,3.014419256172594
337,1790596640.0056798,1.74960966796875,-0.9839698242187501,-0.2633084472656241,2.0245152366984627,2.982361221102628,-0.4914148475810787,-0.48985572653182063,3.0620133308618875
338,1790596640.016248,1.59632841796875,-0.56244638671875,-0.5267605957031241,1.7725933208531224,3.0033259073885525,-0.5071926902118531,-0.4983600209116104,3.086352805730192
339,1790596640.036248,1.28018583984375,-0.6247168945312501,-0.5459207519531241,1.5255085874102057,3.041364609207015,-0.5343537765949407,-0.5136491062046306,3.1303782597320455
340,1790596640.0606682,1.20833525390625,-0.29420419921875,-0.21540805664062404,1.2621532504162551,3.0854013112704077,-0.5642262607052082,-0.5309114569897663,3.1811820916165
341,1790596640.0806682,1.31371611328125,0.27581044921875003,0.06241420898437596,1.343806892256543,3.1198402081458565,-0.5850493594928596,-0.5431580049718292,3.2203581005490003
342,1790596640.1061661,1.22749541015625,0.58716298828125,-0.028596533203124042,1.3610007782779794,3.1620200134537773,-0.605964266040512,-0.556364456940677,3.2672778679119316
343,1790596640.126166,0.94009306640625,0.7643944335937499,-0.14355747070312405,1.2201158022945586,3.193393537662808,-0.617881330631703,-0.5654277011218075,3.301400931472226
344,1790596640.1354866,0.82034208984375,0.9224657226562499,-0.13397739257812405,1.2417141762768764,3.207051875687201,-0.6214227582043105,-0.5692118544269097,3.3159237194156272
345,1790596640.1554866,0.95446318359375,1.10448720703125,-0.03338657226562404,1.4601392476538857,3.234626004983147,-0.6248416662283873,-0.5763649506688453,3.344462446541716
346,1790596640.1812868,1.26581572265625,1.15717763671875,-0.06212680664062405,1.7161612006886526,3.269157611593618,-0.62421417543119,-0.5843932175501836,3.3791345428923636
347,1790596640.2012868,1.19875517578125,1.12364736328125,-0.09565708007812404,1.6458273437515594,3.2956076257377527,-0.6203794823155874,-0.589919784631316,3.4049824782513114
348,1790596640.226238,0.94488310546875,1.13322744140625,-0.04775668945312404,1.4762415853592348,3.3276674363777325,-0.6120896835605526,-0.596048686371708,3.4355928723257425
349,1790596640.246238,0.98799345703125,1.14759755859375,-0.009436376953124041,1.5143316257798016,3.3524100198776874,-0.6030203709155121,-0.6003102729873908,3.4587076969541086
350,1790596640.2561853,1.21791533203125,1.12843740234375,0.05283413085937596,1.6611683154902654,3.3645159233247015,-0.5974881922090788,-0.6020795273351963,3.4697923994629587
351,1790596640.2761853,1.1412747070312501,1.0326366210937499,0.30670620117187597,1.5693677204436396,3.388743752610978,-0.5847920640716366,-0.6045638815978451,3.491570343841543
352,1790596640.3006175,0.89698271484375,0.76918447265625,0.594108544921876,1.3225686019458978,3.4176361039139485,-0.5683071199041856,-0.6054928921416604,3.5170770767419888
353,1790596640.3206174,0.91135283203125,0.6638036132812499,0.517467919921876,1.2405532111138546,3.440451987041253,-0.5546873675422489,-0.6044719372833438,3.536915926878972
354,1790596640.346148,0.98320341796875,0.63985341796875,0.23485561523437598,1.196352171226701,3.468836056983156,-0.5374130141344741,-0.6019236056289756,3.5614531254813584
355,1790596640.366148,0.86345244140625,0.5584227539062501,0.09594448242187596,1.0327591366615236,3.490506070605127,-0.5241131693796283,-0.599730554478023,3.580224012715255
356,1790596640.3912268,0.81076201171875,0.49136220703125,0.12468471679687597,0.9561998414283348,3.5167520739532088,-0.5079629956640555,-0.5969781101141373,3.603047934537319
357,1790596640.4112267,0.89219267578125,0.54405263671875,0.05762416992187596,1.0465761258491981,3.5370977097822354,-0.4954622624955019,-0.5948388656275576,3.620825366979879
358,1790596640.4207878,1.00236357421875,0.59195302734375,-0.07170688476562405,1.1663117074027889,3.54672361539504,-0.4895680390870861,-0.5939796916497476,3.6292887929990867
359,1790596640.4407878,1.04547392578125,0.56800283203125,-0.11002719726562404,1.194884484300515,3.5669106475171497,-0.47734792140270293,-0.5927246438155701,3.6471955128324263
360,1790596640.4654412,1.08858427734375,0.6638036132812499,-0.10523715820312404,1.2793458583791666,3.592007943908731,-0.46226640505936023,-0.5918076652967327,3.669665871854535
361,1790596640.4854412,1.17480498046875,0.89851552734375,-0.07170688476562405,1.4807561488424714,3.6127090768799786,-0.44952334183639414,-0.5914407708393473,3.688297750241673
362,1790596640.5118763,1.13648466796875,1.0326366210937499,0.07199428710937596,1.5372439523798245,3.6405491278934283,-0.43137781151347115,-0.5910279971624798,3.713354125625732
363,1790596640.5318763,1.0215237304687501,0.88893544921875,0.14384487304687596,1.361766614471953,3.6616895974671357,-0.4168263763371375,-0.5904387910479061,3.73233611859697
364,1790596640.5407379,0.98320341796875,0.61111318359375,0.08636440429687596,1.1608648046164012,3.6709838070913645,-0.4103491189537961,-0.5900638859823777,3.740679604148662
365,1790596640.5607378,1.01673369140625,0.43388173828125004,0.02409389648437596,1.105703973901848,3.691813723838138,-0.3963556559680851,-0.5891789807227443,3.759483774251859
366,1790596640.5863836,0.99757353515625,0.43388173828125004,-0.057336767578124045,1.0893547749812296,3.7183915598037847,-0.37943447306216344,-0.5882784232710696,3.7837121738650104
367,1790596640.6063836,0.92572294921875,0.28539052734375003,-0.18666782226562406,0.9865371800784777,3.738894355893194,-0.36713889130800353,-0.5880474703769222,3.802620385662701
368,1790596640.6304483,0.93051298828125,0.06983876953125,-0.23456821289062404,0.9621611723554645,3.7632139176591597,-0.3539223961236851,-0.5885715337745794,3.8253701131931392
369,1790596640.6504483,1.03110380859375,-0.002011816406250008,-0.17229770507812406,1.0454021286935364,3.783336308786206,-0.34448418105206435,-0.5895520440361133,3.8444602467709696
370,1790596640.661384,1.07900419921875,0.021938378906249993,-0.15313754882812405,1.090037826527968,3.794419293711968,-0.34008122671385554,-0.5902746737116319,3.8550871854839035
371,1790596640.681384,1.09816435546875,0.04588857421874999,-0.21061801757812404,1.1191204860042834,3.814913856163033,-0.3331349696489912,-0.5919436547578654,3.87491211879132
372,1790596640.7053068,1.07421416015625,0.04588857421874999,-0.20582797851562404,1.0947177626511118,3.83964866812826,-0.32590793960513426,-0.5943877206120767,3.8990273969505784
373,1790596640.7253067,1.07421416015625,0.05067861328124999,-0.16750766601562406,1.0883764063495267,3.860448408872223,-0.32062740247999744,-0.5966845304893648,3.9194255035286054
374,1790596640.750623,1.05505400390625,0.10336904296874999,-0.15313754882812405,1.0711093403868583,3.886870585554295,-0.3146533622101237,-0.5997645775716279,3.945438788741627
375,1790596640.770623,1.03110380859375,0.13689931640625,-0.20582797851562404,1.0603214812823814,3.907742446296414,-0.3102813613674496,-0.602371292744522,3.9660530410121124
376,1790596640.7809963,0.97841337890625,0.22791005859375,-0.17229770507812406,1.01927534749259,3.918507588520007,-0.3080700640007394,-0.6038146923213936,3.97670731488822
377,1790596640.8009963,0.94967314453125,0.36682119140625,-0.09086704101562404,1.0221025814718934,3.939041766903815,-0.30355406585813666,-0.6065749005632959,3.9970149139457947
378,1790596640.8249285,0.91614287109375,0.51531240234375,-0.014226416015624042,1.051221681272716,3.963276479478261,-0.29737739661338863,-0.6095709982523156,4.0208917631182866
379,1790596640.8449285,0.89698271484375,0.67817373046875,0.13426479492187596,1.1324860416719398,3.983211022296983,-0.29119964120402064,-0.611519185340375,4.040386490575485
380,1790596640.8713083,0.82513212890625,0.96557607421875,0.30670620117187597,1.3066173422599046,4.008967688360527,-0.2810213531617063,-0.6128309274940932,4.065262189938658
381,1790596640.8913083,0.77723173828125,1.28171865234375,0.493517724609376,1.578116479624108,4.027969633387437,-0.271091207001091,-0.6124759204374461,4.083277674016345
382,1790596640.9019294,0.75807158203125,1.43499990234375,0.5509981933593759,1.7139125567820637,4.037770026666775,-0.26444469479854005,-0.6114836308740764,4.092362400335855
383,1790596640.9219294,0.74849150390625,1.44457998046875,0.455197412109376,1.6894542122774463,4.055716284289037,-0.24948698563867477,-0.6083860897814732,4.108675208493601
384,1790596640.945471,0.80597197265625,1.41583974609375,0.28754604492187597,1.654350547881686,4.076416525186667,-0.22947102423358678,-0.603975521845292,4.127301184644276
385,1790596640.965471,0.82034208984375,1.36793935546875,0.34981655273437595,1.6329699461951017,4.093804104128531,-0.2108413830221849,-0.599834508416569,4.142883967631928
386,1790596640.9912527,0.85387236328125,1.18112783203125,0.38813686523437596,1.508247723196795,4.1160933272785165,-0.18549957211813276,-0.5938701923690346,4.162849525926583
387,1790596641.0112526,1.00715361328125,1.02784658203125,0.292336083984376,1.4684302444917567,4.133582010758637,-0.16547614031720126,-0.5889167120057716,4.178600900583997
388,1790596641.0513718,1.15085478515625,0.93204580078125,0.16779506835937597,1.4904131293828324,4.169894690454291,-0.12543766520346616,-0.5790861930434388,4.211780758337752
389,1790596641.0713718,1.1795950195312501,0.85540517578125,0.12468471679687597,1.4624324611615398,4.188777393725985,-0.10579070141443386,-0.5744819175618937,4.229311669799378
390,1790596641.0653973,1.22270537109375,0.7212840820312499,0.13905483398437596,1.4263924419133713,4.188777393725985,-0.10579070141443386,-0.5744819175618937,4.229311669799378
391,1790596641.0853972,1.35203642578125,0.55363271484375,0.12947475585937596,1.4667226704423177,4.209345185928905,-0.08767311981876896,-0.5704162669192904,4.248723124399581
392,1790596641.1109784,1.50531767578125,0.49615224609375,-0.03817661132812404,1.5854355269060412,4.237188537008647,-0.06596160794958389,-0.5658209336639609,4.275309457905139
393,1790596641.1309783,1.47657744140625,0.23749013671875,-0.2537283691406241,1.5169247149464204,4.260164728290539,-0.05043271817325581,-0.563204953104545,4.297527985997838
394,1790596641.1556408,1.44304716796875,-0.18403330078125002,-0.3734793457031241,1.5019121833336013,4.289647776511068,-0.03405712488080192,-0.5616231327289665,4.326390929804864
395,1790596641.1756408,1.52447783203125,-0.42353525390625,-0.45970004882812404,1.6476464749905275,4.314421875794037,-0.02368069657948205,-0.5617825437484948,4.350907551785162
396,1790596641.1855743,1.57237822265625,-0.48101572265625003,-0.49802036132812405,1.7180726645935374,4.3271880202408495,-0.019973949106542568,-0.5625633544115635,4.363649006151346
397,1790596641.2055743,1.58674833984375,-0.51933603515625,-0.5171805175781241,1.747843213555234,4.353774480001529,-0.015130807259785264,-0.5654224210976992,4.390362590757272
398,1790596641.2312727,1.6202786132812501,-0.5720264648437501,-0.627351416015624,1.8292312211186035,4.388992952145775,-0.011944677222621868,-0.5707509980542491,4.425964133505733
399,1790596641.2512727,1.58195830078125,-0.6390870117187502,-0.7423123535156241,1.8606589972749459,4.417093975578822,-0.01165366158114615,-0.5763304442536152,4.454549559483712
400,1790596641.276431,1.69212919921875,-0.8881690429687501,-0.8333230957031241,2.084843605062248,4.453318335579707,-0.014224247494436924,-0.5852692092625311,4.4916351782550175
401,1790596641.296431,1.78792998046875,-1.1468311523437502,-0.9243338378906241,2.3165293762252808,4.483015866382773,-0.019013735688031184,-0.5939457753094993,4.522230021172353
402,1790596641.30649,1.84062041015625,-1.1995215820312501,-0.9147537597656241,2.3798130096811936,4.498449080427666,-0.022831381326629055,-0.5990424686899926,4.538217412208013
403,1790596641.32649,1.8933108398437501,-1.0749805664062502,-0.828533056640624,2.329522736606622,4.530132835302417,-0.03269513339877203,-0.6102710498405458,4.571170881897389
404,1790596641.350808,1.87415068359375,-1.00792001953125,-0.7375223144531241,2.2521728874362843,4.569749754262347,-0.046688365460989874,-0.6247322060394276,4.612492054119236
405,1790596641.370808,1.8933108398437501,-1.06061044921875,-0.7327322753906241,2.290505849951265,4.603095962916508,-0.0595734147915807,-0.6370469543961753,4.647350886007385
406,1790596641.4109116,1.99869169921875,-1.2043116210937501,-0.9243338378906241,2.5098860597837906,4.671637770028035,-0.08834717017232949,-0.6630203900846734,4.719279681741484
407,1790596641.4309115,2.02743193359375,-1.3911231445312502,-0.9387039550781241,2.631894557896558,4.706731883975353,-0.10443753963497063,-0.6768251070763291,4.7562931420260535
408,1790596641.426431,2.04180205078125,-1.4438135742187501,-0.7423123535156241,2.6085591582049172,4.706731883975353,-0.10443753963497063,-0.6768251070763291,4.7562931420260535
409,1790596641.446431,1.98432158203125,-1.37196298828125,-0.708782080078124,2.514395875586916,4.743314829374248,-0.12390103325678634,-0.6911189484268346,4.795000775545127
410,1790596641.4713192,1.9364211914062501,-1.25221201171875,-0.8189529785156241,2.4471301423993643,4.789329081630165,-0.14938693739549713,-0.7090900009080399,4.843841258608772
411,1790596641.4913192,1.94121123046875,-1.20910166015625,-0.8189529785156241,2.4291792537625154,4.826575645035447,-0.17048709845830845,-0.7238220182183646,4.883525020110758
412,1790596641.5163977,1.9699514648437502,-1.1468311523437502,-0.7950027832031241,2.414116793182725,4.873630943205643,-0.19740771868193857,-0.7425596467059066,4.933826426505368
413,1790596641.5363977,2.01306181640625,-1.0845606445312501,-0.986604345703124,2.490397117589715,4.911502827170892,-0.21900348102437758,-0.7579337289910926,4.974463396543471
414,1790596641.545548,1.9699514648437502,-1.0797706054687501,-0.9147537597656241,2.425569577497156,4.928964121795798,-0.22888710145257507,-0.7652173501928039,4.993258876945765
415,1790596641.565548,1.9795315429687501,-0.9360694335937502,-0.6465115722656241,2.2831443947306824,4.967329113913139,-0.2502733166319631,-0.7810912496810349,5.034590231515901
416,1790596641.605524,1.9364211914062501,-0.6917774414062501,-0.5411307128906241,2.126289140121657,5.044251570766529,-0.29148883736500664,-0.811621593895006,5.117437763487278
417,1790596641.625524,1.95079130859375,-0.5911866210937501,-0.49802036132812405,2.0983595094603205,5.082793925735391,-0.3109403248768391,-0.8261634538695422,5.158878175498696
418,1790596641.6359665,2.04659208984375,-0.49538583984375,-0.36868930664062405,2.1377273253059776,5.103029971764947,-0.3204240105818062,-0.8332960213669598,5.18053749127585
419,1790596641.6559665,2.04180205078125,-0.36126474609375003,-0.22977817382812404,2.0862084844311433,5.142106067564843,-0.337148063529057,-0.8458052693359485,5.222098254577849
420,1790596641.6655133,1.95558134765625,-0.31815439453125005,-0.21061801757812404,1.992455915544713,5.160822860401604,-0.3444201084688874,-0.8511960675897263,5.241874908183305
421,1790596641.6855133,1.91726103515625,-0.27983408203125004,-0.33994907226562404,1.9671711573040478,5.199961256623552,-0.35826647716085797,-0.8616213537030437,5.283024067350091
422,1790596641.711259,1.91726103515625,-0.11218271484375002,-0.2537283691406241,1.9372281547987296,5.250190275350562,-0.37417399384876276,-0.8741749459456393,5.335605489649455
423,1790596641.7312589,1.85020048828125,0.012358300781249993,-0.17708774414062406,1.858697028447399,5.289007964493798,-0.3848275526463541,-0.8831103767320655,5.376019106294774
424,1790596641.7556946,1.83104033203125,-0.04991220703125001,-0.32557895507812407,1.8604304829596843,5.336067482779699,-0.3959603186754602,-0.8933112349983799,5.424795453961262
425,1790596641.7756946,1.88852080078125,-0.21756357421875003,-0.44053989257812404,1.95138927965771,5.374386177133781,-0.4041066093807734,-0.9015571603474094,5.464442720542102
426,1790596641.80086,1.94600126953125,-0.22235361328125003,-0.3734793457031241,1.9939530817005946,5.422606332000934,-0.4136495872658057,-0.9119127800045335,5.514286021892353
427,1790596641.82086,1.91726103515625,-0.11218271484375002,-0.33515903320312407,1.9495656993227446,5.460975487579469,-0.42059798019317585,-0.9199712911628656,5.553872803139289
428,1790596641.8464532,1.90289091796875,-0.14571298828125,-0.49802036132812405,1.972371770468032,5.510042978331707,-0.42865088446472716,-0.9303359429875709,5.604448248545927
429,1790596641.8664532,1.95558134765625,-0.24151376953125003,-0.5650809082031241,2.049864322580862,5.548423085211225,-0.43458075464543855,-0.9388151703979198,5.644044036768523
430,1790596641.8760986,2.04659208984375,-0.32773447265625,-0.47886020507812405,2.1272649488922957,5.56705155032572,-0.43742340098941923,-0.9430462785995114,5.663279834097689
431,1790596641.8960986,2.08970244140625,-0.26546396484375,-0.34952915039062404,2.13529811436778,5.606088379692461,-0.44332331981927636,-0.9517461269017404,5.703558816816996
432,1790596641.9213388,2.04180205078125,-0.19840341796875002,-0.36868930664062405,2.0842867690573064,5.655784524563979,-0.4505303219573922,-0.9624381280831149,5.754751368190337
433,1790596641.9413388,2.00348173828125,-0.24151376953125003,-0.35910922851562405,2.0496895897927425,5.695324216882117,-0.45604431881296087,-0.9707311929024937,5.7954303899709965
434,1790596641.9508643,2.01306181640625,-0.31336435546875,-0.29683872070312406,2.058817214339302,5.71420077727969,-0.45867299518081805,-0.9745571411066338,5.814828721540636
435,1790596641.9708643,2.06096220703125,-0.20798349609375003,-0.23456821289062404,2.084668942531931,5.754000323335135,-0.4641463478751955,-0.9821823229165059,5.855649722160333
436,1790596641.9962747,2.02264189453125,-0.08344248046875001,-0.27767856445312405,2.0433179552425242,5.804764044169374,-0.47061265426236976,-0.991393319508578,5.907590252615672
437,1790596642.0162747,1.91247099609375,-0.03554208984375001,-0.3926395019531241,1.9526838785487728,5.844628470165243,-0.4751171960350796,-0.9985611035251769,5.948322669602563
438,1790596642.040856,1.94121123046875,-0.02117197265625001,-0.4213797363281241,1.986532198559116,5.893379513550344,-0.4799276561068921,-1.0075500173020016,5.998117178181534
439,1790596642.0608559,1.99390166015625,0.08420888671875,-0.30641879882812406,2.019065983877578,5.932997665192113,-0.48315994261748313,-1.0148583115546188,6.038529805992241
440,1790596642.0703166,1.94121123046875,0.19916982421875,-0.32078891601562404,1.9775932819505142,5.951719481616172,-0.48425850730068926,-1.0182418638636879,6.057581000949733
441,1790596642.0903165,1.86457060546875,0.19916982421875,-0.4836502441406241,1.936545821899062,5.991069527637748,-0.4856350178898892,-1.0255284531244608,6.0975785410077625
442,1790596642.1168451,1.90768095703125,0.07462880859375,-0.5555008300781241,1.9883151825375356,6.042940824616803,-0.4866422253703577,-1.0358113794924002,6.15035443525166
443,1790596642.136845,1.8981008789062501,-0.04033212890625001,-0.550710791015624,1.9767893166617034,6.081889516332459,-0.48723621637667053,-1.0440601724385898,6.190059843256463
444,1790596642.1603487,1.91726103515625,-0.12655283203125,-0.5602908691406241,2.001457307630093,6.127521011248728,-0.48812373395113196,-1.0542583395240275,6.236684950307895
445,1790596642.1803486,1.96037138671875,-0.19361337890625002,-0.6465115722656241,2.07328708273371,6.1663424659003025,-0.48924591943387186,-1.063444820129208,6.276468422760347
446,1790596642.1905289,1.9795315429687501,-0.23672373046875003,-0.651301611328124,2.097326165166947,6.186147157153667,-0.49006001461426657,-1.0684103496987862,6.296830642730326
447,1790596642.2105289,2.05617216796875,-0.36605478515625,-0.627351416015624,2.180690232298459,6.225272579377402,-0.49232363982789334,-1.0786202698789427,6.337177837213918
448,1790596642.2508328,2.11844267578125,-0.51933603515625,-0.5602908691406241,2.2519847126535724,6.304910279670346,-0.4988774029428155,-1.099699039650524,6.419510127390411
449,1790596642.2708328,2.19508330078125,-0.53849619140625,-0.40700961914062406,2.296524695186346,6.3449713088710125,-0.5032284912055844,-1.110040898798853,6.460966694060847
450,1790596642.2803886,2.24777373046875,-0.32773447265625,-0.22977817382812404,2.2831326367779115,6.364425132545955,-0.5056163820669225,-1.1146973385273942,6.481057425306236
451,1790596642.3003886,2.22861357421875,-0.15050302734375,-0.30162875976562403,2.25396307271203,6.405748438009564,-0.5105818419460485,-1.1237783450640115,6.523586792342215
452,1790596642.310434,2.10407255859375,-0.24630380859375003,-0.4309598144531241,2.1618309970089027,6.426655127620205,-0.513000732446088,-1.1282072908514555,6.545068186962431
453,1790596642.330434,2.09449248046875,-0.37563486328125,-0.43574985351562406,2.172067732850739,6.468333226921233,-0.5180271125602077,-1.1370024308776256,6.587902651957021
454,1790596642.3705716,2.12323271484375,-0.31336435546875,-0.38784946289062405,2.1809955494052833,6.552126352126494,-0.5286754505933099,-1.1544848839408175,6.674031226592989
455,1790596642.3905716,2.06096220703125,-0.19840341796875002,-0.44532993164062407,2.1178403818720253,6.593892659764305,-0.5339531343199562,-1.1631392286366244,6.716950142984321
456,1790596642.4009423,1.96516142578125,-0.17445322265625002,-0.5842410644531241,2.057578911650065,6.615432969951131,-0.5365693174465863,-1.1677544926551637,6.7391030981472495
457,1790596642.4209423,1.94600126953125,-0.25588388671875,-0.6752518066406241,2.0756595353937404,6.656609168403787,-0.5415033407509761,-1.1772091959709343,6.78155535109759
458,1790596642.4306176,1.95079130859375,-0.23193369140625003,-0.6417215332031241,2.066684904157093,6.676368472652417,-0.5438861891302811,-1.182052616615292,6.801981811046019
459,1790596642.4506176,1.92684111328125,-0.17445322265625002,-0.49802036132812405,1.997792502494559,6.716903124919139,-0.5486825675764103,-1.1922723903792665,6.843928228902714
460,1790596642.4755363,1.92205107421875,-0.08344248046875001,-0.4213797363281241,1.9694679133309554,6.767024571108013,-0.5542441548781358,-1.2048139152208845,6.895751206323067
461,1790596642.4955363,1.9364211914062501,-0.04033212890625001,-0.40700961914062406,1.9791438909847632,6.807005893108629,-0.5582240167503657,-1.2146125186201198,6.937018585248365
462,1790596642.5206301,1.94600126953125,-0.04991220703125001,-0.34952915039062404,1.9777721801058783,6.856952316691943,-0.5626383316770777,-1.2264864363722872,6.988463775699532
463,1790596642.54063,1.9747415039062501,-0.04512216796875001,-0.24893833007812405,1.9908817919389898,6.8966700143057995,-0.5657713947249051,-1.2354282137040737,7.029255823238315
464,1790596642.5961647,1.98432158203125,-0.02117197265625001,-0.22977817382812404,1.9976932703768484,7.006902504095514,-0.5734422429713352,-1.2585267002166498,7.142087101336849
465,1790596642.6161647,2.00827177734375,-0.04512216796875001,-0.3543191894531241,2.0397876432933755,7.046635225569745,-0.575889847088181,-1.266473642508622,7.18266472873325
466,1790596642.5961647,2.05617216796875,-0.14092294921875,-0.46928012695312404,2.113747170193011,7.046635225569745,-0.575889847088181,-1.266473642508622,7.18266472873325
467,1790596642.6161647,2.0705422851562503,-0.17924326171875002,-0.4836502441406241,2.1338207657038417,7.086714343699428,-0.5783756972192022,-1.2746947906350097,7.223633811704538
468,1790596642.6559188,2.04659208984375,-0.19361337890625002,-0.5219705566406241,2.120961712219772,7.166705630360442,-0.5836873679500537,-1.2915831769906552,7.305514878420945
469,1790596642.6759188,2.0705422851562503,-0.20319345703125002,-0.569870947265624,2.1571244359419315,7.207087830203988,-0.5865539961194136,-1.3004428825041645,7.346925361897576
470,1790596642.685398,2.11844267578125,-0.24630380859375003,-0.5459207519531241,2.201475506134936,7.226334749146171,-0.5880284429411508,-1.3048054597706606,7.366695910940846
471,1790596642.705398,2.09449248046875,-0.24630380859375003,-0.4740701660156241,2.1615519515325103,7.267171235972519,-0.5914116009817262,-1.3141592149817896,7.408681387199997
472,1790596642.7158964,2.0705422851562503,-0.19840341796875002,-0.40700961914062406,2.1194730715332866,7.2886709888771595,-0.5932712398994171,-1.3190263875910522,7.430782338310875
473,1790596642.7358963,2.02743193359375,-0.15050302734375,-0.4117996582031241,2.0742975594382633,7.329632720336883,-0.5968059319257192,-1.328136064130531,7.472860131185309
474,1790596642.7904975,2.02264189453125,-0.18403330078125002,-0.48844028320312405,2.0889045932174484,7.441271999333589,-0.6063783279170901,-1.352962113453984,7.587537817044176
475,1790596642.8104975,2.01785185546875,-0.19361337890625002,-0.4740701660156241,2.081815259194786,7.4820914243645,-0.6099251457969818,-1.3621354238813632,7.629489739098987
476,1790596642.806026,2.01785185546875,-0.15529306640625,-0.46449008789062407,2.07643759570115,7.4820914243645,-0.6099251457969818,-1.3621354238813632,7.629489739098987
477,1790596642.826026,2.02743193359375,-0.13613291015625,-0.47886020507812405,2.087658858767582,7.522796896170394,-0.613369715556685,-1.371374827937627,7.6713339431740275
478,1790596642.836082,2.02264189453125,-0.13134287109375,-0.4740701660156241,2.0816036379691005,7.543248221276764,-0.6150435905529887,-1.3760422770344274,7.692357551119258
479,1790596642.856082,2.00348173828125,-0.12176279296875002,-0.42616977539062406,2.0519224963030416,7.58386094355256,-0.6182529816342581,-1.3852830901538271,7.734092888006176
480,1790596642.9397833,2.00827177734375,-0.13134287109375,-0.35910922851562405,2.0443497546818303,7.7535172515762465,-0.631258682959116,-1.4230852126226814,7.908267118508776
481,1790596642.9597833,2.00827177734375,-0.14092294921875,-0.30162875976562403,2.035680406647783,7.79399973386122,-0.6343085757702422,-1.4317540359138088,7.949760929743731
482,1790596642.9411879,2.03222197265625,-0.13134287109375,-0.30162875976562403,2.058678460724685,7.79399973386122,-0.6343085757702422,-1.4317540359138088,7.949760929743731
483,1790596642.9611878,2.06096220703125,-0.14571298828125,-0.35910922851562405,2.097082957770164,7.834539722344571,-0.6372748453088528,-1.4397775193827573,7.99118834684669
484,1790596642.9552147,2.02264189453125,-0.13613291015625,-0.45491000976562407,2.077632190674166,7.834539722344571,-0.6372748453088528,-1.4397775193827573,7.99118834684669
485,1790596642.9752147,2.02264189453125,-0.18882333984375002,-0.46449008789062407,2.0838631262468637,7.875104374184657,-0.6402647621384469,-1.447991458559359,8.032676212446223
486,1790596643.0306304,2.04180205078125,-0.20319345703125002,-0.4836502441406241,2.1081178226589032,7.987533413965116,-0.6489358035422629,-1.4712772877943348,8.147788937736896
487,1790596643.0506303,2.01306181640625,-0.16966318359375002,-0.5794510253906241,2.101658146170838,8.028105826008005,-0.6521551238185552,-1.4800153870034107,8.189397719299834
488,1790596643.0460985,1.95558134765625,-0.16966318359375002,-0.608191259765624,2.0549891998800134,8.028105826008005,-0.6521551238185552,-1.4800153870034107,8.189397719299834
489,1790596643.0660985,1.95079130859375,-0.16966318359375002,-0.5267605957031241,2.0277694767250027,8.068338962313826,-0.6554227124891128,-1.4895453323110883,8.230821212968221
490,1790596643.090787,1.95558134765625,-0.11218271484375002,-0.4117996582031241,2.001614929827153,8.117787224082177,-0.6593731435318938,-1.5012826091131843,8.281732417212513
491,1790596643.110787,1.9699514648437502,-0.01638193359375001,-0.4213797363281241,2.01458135198762,8.157724579053186,-0.6622861763129162,-1.5106144256804082,8.322802967155802
492,1790596643.1209185,1.94121123046875,0.060258691406249995,-0.43574985351562406,1.9904296234800365,8.17789331120059,-0.663507168102458,-1.5152839503215474,8.343516418249848
493,1790596643.1409185,1.8933108398437501,0.012358300781249993,-0.4309598144531241,1.9417788302331234,8.21748655546809,-0.6654469660894853,-1.5244190902383186,8.38413731499309
494,1790596643.1660564,1.8597805664062501,-0.002011816406250008,-0.42616977539062406,1.9079854506898368,8.266862329249113,-0.6674998655381044,-1.5357947079134788,8.434763436285957
495,1790596643.1860564,1.8933108398437501,-0.01638193359375001,-0.38784946289062405,1.9326979872402885,8.305883266952371,-0.6689157684274216,-1.5447087133811412,8.474743073314132
496,1790596643.2105982,1.9316311523437502,-0.02596201171875001,-0.3830594238281241,1.969418050323715,8.35362360666393,-0.6704705372939712,-1.5554252520052754,8.523608732090407
497,1790596643.2305982,1.96037138671875,-0.04991220703125001,-0.37826938476562405,1.9971567113592485,8.392531028784733,-0.6716613268298749,-1.563990520972654,8.563397243896006
498,1790596643.240656,1.9699514648437502,-0.07865244140625001,-0.33515903320312407,1.999806630131237,8.412126836534549,-0.6722673120940359,-1.5681899215203723,8.583416620601202
499,1790596643.2606559,1.95558134765625,-0.06907236328125001,-0.2537283691406241,1.973182070660752,8.451136899476785,-0.6735131642998672,-1.5761712789758364,8.623204205911607
500,1790596643.2858982,1.96516142578125,-0.07865244140625001,-0.23456821289062404,1.9806735931032302,8.500409545450305,-0.6751293833895587,-1.585658109887888,8.673354239632545
501,1790596643.3058982,1.98911162109375,-0.08344248046875001,-0.33036899414062404,2.0180860638254434,8.539524662108516,-0.6764610027055585,-1.5928946232002115,8.713116217723778
502,1790596643.330497,1.99390166015625,-0.13613291015625,-0.5028104003906241,2.0608236941433002,8.587765934097927,-0.6782582436453202,-1.6019971906718256,8.762200236404443
503,1790596643.350497,1.94121123046875,-0.14092294921875,-0.6225613769531241,2.0434634782614243,8.627007606680706,-0.6799158803499185,-1.6099759303110734,8.802247914382995
504,1790596643.361042,1.91247099609375,-0.14092294921875,-0.6560916503906241,2.026785840247712,8.647642080480141,-0.6808816779474568,-1.6145629670084691,8.823385233904878
505,1790596643.381042,1.90289091796875,-0.12655283203125,-0.651301611328124,2.015242728284038,8.686630666487416,-0.6828398869335784,-1.6239189754752674,8.8634606946754
506,1790596643.4056177,1.90289091796875,-0.12655283203125,-0.5986111816406241,1.998835864138991,8.734367757982271,-0.6853516937562851,-1.6359948454253785,8.91265203012399
507,1790596643.4256177,1.82625029296875,-0.04991220703125001,-0.47886020507812405,1.8886472558385907,8.772983085067592,-0.6873539064688362,-1.6459644043726058,8.95247934507987
508,1790596643.4508433,1.82146025390625,-0.06428232421875,-0.3830594238281241,1.8624135405303304,8.821283405202683,-0.6897165073409213,-1.658283361275962,9.00225824344578
509,1790596643.4708433,1.84062041015625,-0.10260263671875001,-0.2728885253906241,1.8635661894967055,8.85932692129116,-0.6915590311169055,-1.6675692350796383,9.041388972144587
510,1790596643.4809737,1.85020048828125,-0.07865244140625001,-0.20103793945312406,1.8627518102191976,8.878510490592763,-0.692490030226918,-1.67192727975528,9.06106129558339
511,1790596643.5009737,1.83104033203125,-0.06907236328125001,-0.14355747070312405,1.837957680766629,8.91622457908881,-0.6942739406549908,-1.6797574718671349,9.099596815997593
512,1790596643.5254905,1.82146025390625,0.002778222656249992,-0.21540805664062404,1.8341553385542455,8.96223745028733,-0.6962546135760357,-1.6885763169152395,9.14646164264114
513,1790596643.5454905,1.90289091796875,-0.01159189453125001,-0.30162875976562403,1.926683193061206,8.999729334461676,-0.6976412343042103,-1.6954668658119216,9.184576162155638
514,1790596643.5710762,1.88852080078125,-0.01159189453125001,-0.33036899414062404,1.9172346907177966,9.047773110577923,-0.699193521437343,-1.704172343759104,9.233378212666818
515,1790596643.5910761,1.84541044921875,-0.002011816406250008,-0.42616977539062406,1.8939811115603808,9.085295933758754,-0.7002453197632599,-1.7110913687767788,9.271503620455858
516,1790596643.6153297,1.80230009765625,-0.05949228515625001,-0.48844028320312405,1.8682609251013063,9.130608942413847,-0.7014413688979755,-1.7198870508015187,9.317620464517962
517,1790596643.6353297,1.8166702148437501,-0.06428232421875,-0.593821142578124,1.9123405648785967,9.167798458965656,-0.7024653725801591,-1.727675563679874,9.35557849826636
518,1790596643.6603558,1.8118801757812502,-0.03075205078125001,-0.7231521972656241,1.9511034212533294,9.214164213856083,-0.703732888028774,-1.7384314015991924,9.403095547513358
519,1790596643.6803558,1.78313994140625,0.021938378906249993,-0.727942236328124,1.9261280441698858,9.251052561933795,-0.7046071198969255,-1.7479143811353346,9.441061877821317
520,1790596643.6913066,1.80709013671875,0.05067861328124999,-0.6752518066406241,1.9297948301417247,9.271169446263789,-0.7049543547217436,-1.753480308576125,9.461830517195951
521,1790596643.7113066,1.82625029296875,-0.04512216796875001,-0.5842410644531241,1.9179582279090346,9.307848822181056,-0.7054850660097214,-1.7640100694945022,9.499762649678043
522,1790596643.719854,1.87894072265625,-0.02117197265625001,-0.47886020507812405,1.939116702957718,9.323548646642092,-0.7057203569316977,-1.7685167440383063,9.515999793108092
523,1790596643.739854,1.87415068359375,0.012358300781249993,-0.23456821289062404,1.8888133202918231,9.360403241522503,-0.7062015412811535,-1.77855009073421,9.554010146847423
524,1790596643.7812915,1.8981008789062501,0.007568261718749992,0.08157436523437596,1.899868048616407,9.437030942580325,-0.7069870226865423,-1.7966951986576691,9.632522893735846
525,1790596643.8012915,1.9747415039062501,-0.03554208984375001,0.254015771484376,1.9913290184103636,9.47427726157087,-0.7073512327382367,-1.8036359738901782,9.670334953965448
526,1790596643.810773,2.07533232421875,0.07941884765625,0.21569545898437598,2.0880220641403016,9.492166118414277,-0.7074667941629617,-1.806098821676826,9.688329052941874
527,1790596643.8307729,2.09928251953125,0.07462880859375,0.03846401367187596,2.1009607412394327,9.53050233938497,-0.7074429218484432,-1.8101334116891978,9.726640391050212
528,1790596643.8402417,2.05138212890625,-0.21277353515625003,0.02888393554687596,2.0625895126736933,9.548877393594633,-0.7075314198486974,-1.8117092002488089,9.744944864607595
529,1790596643.8602417,2.08970244140625,-0.18403330078125002,-0.10523715820312404,2.100428386992128,9.58807902655738,-0.7082855161461195,-1.8146528527041446,9.783960995819596
530,1790596643.8860002,2.16634306640625,-0.27025400390625004,-0.44053989257812404,2.227140522047619,9.639216726927698,-0.7099886857733724,-1.8189297594980356,9.834993061136164
531,1790596643.9060001,2.03222197265625,-0.49538583984375,-0.7854227050781241,2.234328109771883,9.679264201143168,-0.712261194779721,-1.8235913556158634,9.875269966810913
532,1790596643.9306195,1.94121123046875,-0.6247168945312501,-0.9195437988281241,2.2369919618930294,9.728503541936162,-0.7167071875181182,-1.8316170271534673,9.92533482015912
533,1790596643.9506195,1.91726103515625,-0.5911866210937501,-0.9051736816406241,2.201074940074395,9.768291667438236,-0.7216010584336351,-1.839895934178374,9.966215291487632
534,1790596643.9761841,1.8933108398437501,-0.6917774414062501,-0.828533056640624,2.1793689432160583,9.818827648396079,-0.7293781384282259,-1.852215085933176,10.018586206760052
535,1790596643.996184,1.95079130859375,-0.8402686523437501,-0.727942236328124,2.2453369540509702,9.85819919130217,-0.7368478047333892,-1.8627417809548028,10.059664155688589
536,1790596644.0207622,1.99869169921875,-0.8402686523437501,-0.6465115722656241,2.2624758848904634,9.906605831824749,-0.7477482245022264,-1.8762712600642224,10.11040851576895
537,1790596644.0407622,1.96037138671875,-0.7971583007812502,-0.49802036132812405,2.174061087151748,9.946025946572467,-0.7577438795150893,-1.8873460204151833,10.151831505576338
538,1790596644.0513225,1.92684111328125,-0.7396778320312501,-0.4022195800781241,2.1027649801220294,9.966796922417497,-0.7634472560288288,-1.8930295151668428,10.17366469620174
539,1790596644.0713224,1.87894072265625,-0.7157276367187501,-0.37826938476562405,2.0459159358756565,10.005942813843319,-0.7748116870974164,-1.9033495666818392,10.214791447570207
540,1790596644.096002,1.88852080078125,-0.7444678710937501,-0.512390478515624,2.093630155626295,10.053975889620235,-0.7894344711192972,-1.9158227190122552,10.265282006060033
541,1790596644.116002,1.82625029296875,-0.7827881835937501,-0.5602908691406241,2.0644305100886307,10.092634456363388,-0.8017979019605842,-1.9260235669615406,10.306003926151647
542,1790596644.1260734,1.79751005859375,-0.8306885742187501,-0.6560916503906241,2.086035036090137,10.111918663598091,-0.8083085505677968,-1.9313086223735827,10.326384399536895
543,1790596644.1460733,1.78313994140625,-0.8163184570312502,-0.7375223144531241,2.095209545187416,10.149840737989845,-0.8217688184457677,-1.9423200402039869,10.366637745002283
544,1790596644.171389,1.82625029296875,-0.7779981445312502,-0.727942236328124,2.1143252221200277,10.197494974813132,-0.8392781022971675,-1.9569499060416506,10.417434637620293
545,1790596644.191389,1.7783499023437501,-0.7205176757812501,-0.7375223144531241,2.055629650641266,10.234902536857767,-0.8532836691542334,-1.9689723156742625,10.457445908964317
546,1790596644.2149487,1.67775908203125,-0.6726172851562501,-0.6944119628906241,1.936361929969425,10.278464914523951,-0.8697688254363982,-1.98354032809145,10.50417874190867
547,1790596644.2349486,1.64901884765625,-0.54807626953125,-0.5411307128906241,1.8200201113126064,10.314888574989412,-0.8834951314576774,-1.9959055457597008,10.543297819437278
548,1790596644.260546,1.72086943359375,-0.30857431640625005,-0.33994907226562404,1.7810601022865897,10.360982939907505,-0.9000724091688259,-2.011049011331784,10.592658587379274
549,1790596644.280546,1.80230009765625,-0.15529306640625,-0.25851840820312405,1.8273569289729528,10.39688038731177,-0.9117776941352904,-2.022003957116422,10.63084946531486
550,1790596644.3061116,1.72565947265625,-0.15050302734375,-0.22977817382812404,1.7473836974104078,10.44264898884606,-0.9250822953405321,-2.0348432151552953,10.67919856860353
551,1790596644.3261116,1.60590849609375,-0.16487314453125002,-0.11960727539062405,1.6187745834241656,10.4780803859453,-0.9344023171831691,-2.0439048187070776,10.716381066975122
552,1790596644.33566,1.48136748046875,-0.16008310546875001,-0.08607700195312405,1.4924762856112956,10.494669644171578,-0.9384171726087093,-2.0477293913318277,10.733681259953062
553,1790596644.35566,1.5005276367187501,-0.11697275390625002,-0.21061801757812404,1.5197452954497699,10.528677940102117,-0.9459807906063699,-2.0549836892063764,10.7689784467002
554,1790596644.3662758,1.63943876953125,-0.05470224609375001,-0.34473911132812407,1.676185213408454,10.546521565894498,-0.9495299763746676,-2.05869880077442,10.787444788652309
555,1790596644.3862758,1.5771682617187501,-0.06428232421875,-0.23935825195312405,1.5965225697615315,10.579920918999768,-0.9553920524794918,-2.0655242558622224,10.821917162766727
556,1790596644.41132,1.51489775390625,-0.05949228515625001,-0.23456821289062404,1.534104554221131,10.621278384871193,-0.9618640146314246,-2.0736793145397736,10.864478027550383
557,1790596644.43132,1.58674833984375,0.07462880859375,-0.24893833007812405,1.607889935676912,10.654004262603607,-0.966234472330108,-2.0799402206299145,10.898053367665662
558,1790596644.4559143,1.68733916015625,0.26144033203125,-0.17229770507812406,1.716144221149434,10.694250575682567,-0.9701828286875148,-2.08726148995785,10.939145790418376
559,1790596644.4759142,1.63943876953125,0.43867177734375,-0.19145786132812406,1.7078783680181684,10.727059642061196,-0.9718618294666108,-2.0928677028698583,10.972439072586734
560,1790596644.4854496,1.52447783203125,0.46741201171875,-0.21061801757812404,1.6083738988127754,10.74261822478615,-0.971894262087482,-2.0954271711764934,10.988140871407266
561,1790596644.5054495,1.51968779296875,0.5392625976562501,-0.17229770507812406,1.6217094796862923,10.774923009147372,-0.97044207394706,-2.100564679298346,11.020576012344177
562,1790596644.530626,1.6202786132812501,0.63506337890625,-0.14355747070312405,1.7462007408311087,10.815418244474602,-0.9666708192313586,-2.106658240319483,11.0610005522635
563,1790596644.550626,1.6585989257812501,0.6446434570312499,-0.17229770507812406,1.787792516616821,10.847680216143681,-0.9622047906844193,-2.1112465872144206,11.093032330384492
564,1790596644.5759134,1.6585989257812501,0.60153310546875,-0.20103793945312406,1.7757276611792567,10.888643889536889,-0.9550416409817841,-2.11688580415485,11.133547314175772
565,1790596644.5959134,1.63464873046875,0.60632314453125,-0.20103793945312406,1.7550272022726363,10.92112245406839,-0.9484142791075546,-2.1212800005224532,11.165582570658302
566,1790596644.6204362,1.58195830078125,0.61590322265625,-0.14355747070312405,1.70368353648315,10.9608882490087,-0.9392591860527397,-2.1264934991981104,11.204697837423966
567,1790596644.6404362,1.51489775390625,0.67817373046875,-0.08128696289062405,1.6617588223999546,10.993100461588313,-0.9309714663880968,-2.1304449311313953,11.236269898608942
568,1790596644.6505482,1.41430693359375,0.7835545898437499,-0.04296665039062404,1.6174263602162395,11.009165579083641,-0.9263011360325696,-2.132237342444485,11.251941904702939
569,1790596644.6705482,1.25623564453125,0.86019521484375,0.014513818359375959,1.5225880773059728,11.040179445134198,-0.9159839343882046,-2.1352933544294777,11.28202404084886
570,1790596644.696284,1.18438505859375,0.8649852539062499,0.03367397460937596,1.4670042239412173,11.078812492464092,-0.9013693137537889,-2.138542932032492,11.319272006410197
571,1790596644.716284,1.18438505859375,0.80750478515625,0.014513818359375959,1.4335419756650767,11.107884950901695,-0.8892067998997083,-2.1406171796936873,11.347159940948043
572,1790596644.7555697,1.28018583984375,0.76918447265625,-0.10523715820312404,1.4971958445636262,11.163687224468145,-0.8642541584879436,-2.144347740453675,11.400573447340522
573,1790596644.7755697,1.37119658203125,0.7643944335937499,-0.29204868164062403,1.5968003472980956,11.191811470428044,-0.8511560991762379,-2.1465579847283194,11.427546625438488
574,1790596644.7709298,1.34724638671875,0.62069326171875,-0.39742954101562405,1.5356702744214588,11.191811470428044,-0.8511560991762379,-2.1465579847283194,11.427546625438488
575,1790596644.7909298,1.38556669921875,0.46741201171875,-0.5171805175781241,1.5510463418110008,11.219696465333364,-0.8382946098425742,-2.1504058838918065,11.454631032581608
576,1790596644.8155549,1.47657744140625,0.37640126953125,-0.5986111816406241,1.6371604084388764,11.254165993710451,-0.8232757885325765,-2.156493698055764,11.48845073574879
577,1790596644.8355548,1.5388479492187501,0.25186025390625,-0.6656717285156241,1.6954661448868427,11.282485266600998,-0.8119651101950117,-2.1625928608178207,11.516534592181053
578,1790596644.8761718,1.54363798828125,0.10336904296874999,-0.632141455078124,1.671258871969734,11.340760763530755,-0.7913582235237819,-2.17707487483182,11.574919332081816
579,1790596644.8961718,1.60111845703125,0.09857900390624999,-0.49802036132812405,1.6796792591904783,11.369868734185744,-0.7824304197218879,-2.1848314712663317,11.604292350339874
580,1790596644.8901756,1.60590849609375,0.21832998046875,-0.26809848632812405,1.6427071791920207,11.369868734185744,-0.7824304197218879,-2.1848314712663317,11.604292350339874
581,1790596644.9101756,1.64422880859375,0.29018056640625,-0.17229770507812406,1.678505178813775,11.399863399757345,-0.7748132578123996,-2.192073006446595,11.634535022217294
582,1790596644.9362092,1.70649931640625,0.28060048828125,-0.24893833007812405,1.7472397783649385,11.439592793827103,-0.7652709325051371,-2.2009077367005125,11.67449860825665
583,1790596644.9562092,1.75918974609375,0.30934072265625,-0.28725864257812406,1.8091317733074919,11.470734642623736,-0.7581548769023492,-2.20748111599283,11.70579023117722
584,1790596644.9961708,1.70649931640625,0.29976064453125,-0.20103793945312406,1.744251304716252,11.534012061252232,-0.7442436425589231,-2.220108619695684,11.769291189865617
585,1790596645.0161707,1.5771682617187501,0.26144033203125,-0.17229770507812406,1.6079481559306388,11.565856293018298,-0.7374838882213329,-2.2260404667154723,11.801193602157024
586,1790596645.0107446,1.44783720703125,0.22791005859375,-0.21061801757812404,1.4807212844424151,11.565856293018298,-0.7374838882213329,-2.2260404667154723,11.801193602157024
587,1790596645.0307446,1.3807766601562501,0.26623037109375003,-0.23456821289062404,1.4256384682743608,11.596963545518143,-0.7312348346217377,-2.231482221976915,11.83231933166275
588,1790596645.0561163,1.35203642578125,0.30934072265625,-0.33994907226562404,1.4280264532098443,11.635706788194106,-0.7234012218332189,-2.2384433179959276,11.871125063634736
589,1790596645.0761163,1.27060576171875,0.25665029296875,-0.45970004882812404,1.3753663182899347,11.665600071016422,-0.7173034424490561,-2.2443069675500515,11.901162254588472
590,1790596645.100655,1.18917509765625,0.17042958984375,-0.4740701660156241,1.2914821641378336,11.701302715935212,-0.7101580792572151,-2.2521406734467737,11.937208524629213
591,1790596645.120655,1.13648466796875,0.18958974609375,-0.4117996582031241,1.2235688092004233,11.729525316700661,-0.7046678788319783,-2.258896519607232,11.965823601443946
592,1790596645.1311808,1.16522490234375,0.25186025390625,-0.29683872070312406,1.2285340396783435,11.74396752800656,-0.7018633841947574,-2.262478117702534,11.980492174448788
593,1790596645.1511807,1.24665556640625,0.39077138671875,-0.27767856445312405,1.33564881727441,11.77091085121592,-0.6963699196326526,-2.2691245047307933,12.007839079127086
594,1790596645.1907797,1.21312529296875,0.44825185546875,-0.31599887695312406,1.3313369192684954,11.823560649621353,-0.6846328245768892,-2.282073260740208,12.061225763045316
595,1790596645.2107797,1.1795950195312501,0.36203115234375,-0.33036899414062404,1.2773623752325578,11.84975249529082,-0.6783786194645774,-2.2886017642660494,12.087784320809142
596,1790596645.221249,1.19875517578125,0.33329091796875,-0.33994907226562404,1.289830290851105,11.863274094833615,-0.6750498293552908,-2.2920329705232754,12.101503198331548
597,1790596645.241249,1.25623564453125,0.38119130859375,-0.31599887695312406,1.3502925973928377,11.888912579655488,-0.6685729090496946,-2.2985883900257877,12.127519971047956
598,1790596645.2961707,1.26581572265625,0.39556142578125003,-0.33994907226562404,1.3690594059514432,11.959145834379518,-0.6502551277726324,-2.316591792229619,12.198794954870634
599,1790596645.3161707,1.26581572265625,0.38119130859375,-0.33994907226562404,1.364976787057362,11.984682695636275,-0.6434200660695829,-2.323184261902043,12.224720602584497
600,1790596645.2971718,1.26581572265625,0.41951162109375,-0.2633084472656241,1.359268473245041,11.984682695636275,-0.6434200660695829,-2.323184261902043,12.224720602584497
601,1790596645.3171718,1.35203642578125,0.47220205078125,-0.20103793945312406,1.4461651103870932,12.010287679386545,-0.6361232694951747,-2.329412992760075,12.250625610410962
602,1790596645.3412726,1.37119658203125,0.45783193359375,-0.13397739257812405,1.4518058023421752,12.041436861410032,-0.6269681855685116,-2.3363985428604916,12.28202137044713
603,1790596645.3612726,1.34724638671875,0.44825185546875,-0.12439731445312405,1.4252990017189568,12.067486241507652,-0.6191513334568538,-2.341713506737342,12.308175929451691
604,1790596645.3867025,1.34245634765625,0.43388173828125004,-0.17708774414062406,1.4219010082637022,12.100769675640114,-0.6090206320777439,-2.348032790747902,12.341506830999815
605,1790596645.4067025,1.31850615234375,0.39077138671875,-0.22977817382812404,1.394259215359254,12.127011160419931,-0.6010112586598325,-2.352867543526974,12.367764547215803
606,1790596645.4161358,1.33287626953125,0.36203115234375,-0.24893833007812405,1.4034229573898847,12.139407588239438,-0.5972675818408447,-2.3551445548623984,12.380171688309547
607,1790596645.4361358,1.2993459960937501,0.39077138671875,-0.2537283691406241,1.3803551642782792,12.165695899989851,-0.5893917844927568,-2.3600020260354277,12.406496240661532
608,1790596645.46123,1.2993459960937501,0.37161123046875,-0.24414829101562405,1.3733183579131272,12.198623503240373,-0.5795573296950766,-2.366119594456531,12.439486484878824
609,1790596645.48123,1.30892607421875,0.31892080078125,-0.24414829101562405,1.3691626393334404,12.224842541984552,-0.5718592321421154,-2.3709963536898915,12.465770006979604
610,1790596645.5061743,1.26581572265625,0.37161123046875,-0.23935825195312405,1.3407746727591174,12.257455122110185,-0.5624063541156146,-2.3770709270369266,12.49847883423655
611,1790596645.5261743,1.20833525390625,0.42430166015625004,-0.20103793945312406,1.2963495816112216,12.283392393188695,-0.5547701829360233,-2.3818714494945197,12.52448842240025
612,1790596645.5362165,1.18917509765625,0.44346181640625,-0.13397739257812405,1.2762232317342115,12.296267971219677,-0.5508575462059913,-2.384172602887443,12.53738126789698
613,1790596645.5562165,1.22270537109375,0.48178212890625,-0.15313754882812405,1.3230924204665484,12.321682289609829,-0.5428461505568665,-2.3884987965054254,12.562780858160616
614,1790596645.5806093,1.18438505859375,0.49136220703125,-0.18187778320312406,1.2951001171884837,12.352432916301119,-0.532760430317213,-2.3935966459365976,12.593479961125523
615,1790596645.6006093,1.17001494140625,0.45783193359375,-0.18666782226562406,1.2701928666157172,12.377395395340994,-0.5243076492625757,-2.3977022828475674,12.618391003644486
616,1790596645.62512,1.15564482421875,0.40993154296875,-0.20103793945312406,1.242567938892632,12.407674122963334,-0.5139071600084788,-2.4026918529959853,12.648612803434817
617,1790596645.64512,1.12690458984375,0.37161123046875,-0.23456821289062404,1.2095582283297113,12.432098548298844,-0.5055213152768796,-2.406805908644303,12.673016246998921
618,1790596645.655882,1.11253447265625,0.35724111328125,-0.2728885253906241,1.1999259615313007,12.445077459322082,-0.501097468623181,-2.409097206429625,12.68600807943989
619,1790596645.6758819,1.17480498046875,0.36203115234375,-0.25851840820312405,1.2562105973050062,12.469010394616287,-0.493030502583046,-2.413513728000016,12.710009748728394
620,1790596645.7007325,1.22270537109375,0.41951162109375,-0.21061801757812404,1.3097169060765574,12.498755676386258,-0.4830539259501598,-2.419052619579974,12.739860679366565
621,1790596645.7207325,1.22749541015625,0.48178212890625,-0.20582797851562404,1.3346251003289005,12.522779342586182,-0.47487713756464545,-2.4234663731854234,12.763960984774487
622,1790596645.7462912,1.20833525390625,0.50573232421875,-0.13397739257812405,1.3167342979183057,12.553544210803052,-0.4641021624572998,-2.4289121703564542,12.794783210398293
623,1790596645.7662911,1.22270537109375,0.47220205078125,-0.04775668945312404,1.3115883129439077,12.577653548227234,-0.4554684529582308,-2.4328069596344286,12.818867734465435
624,1790596645.775985,1.19875517578125,0.47699208984375,-0.028596533203124042,1.2904856399615927,12.589346839402205,-0.4512213537166217,-2.4344670836806843,12.830506012404223
625,1790596645.795985,1.19875517578125,0.5009422851562501,-0.13876743164062405,1.3066038208286537,12.613449457041781,-0.442306377064852,-2.437629464907917,12.854445905784003
626,1790596645.8205662,1.30413603515625,0.48178212890625,-0.34952915039062404,1.4335464571820804,12.643243807648954,-0.43118114500717675,-2.4418334285456047,12.884101895445646
627,1790596645.8405662,1.2610256835937501,0.41951162109375,-0.38784946289062405,1.3844143096560135,12.667696871052772,-0.42213516260758327,-2.4458468933957263,12.908559529952344
628,1790596645.8656547,1.20833525390625,0.49615224609375,-0.20103793945312406,1.3216116639301094,12.698416751593085,-0.4107668033888561,-2.4512343825935936,12.939361165154759
629,1790596645.8856547,1.28018583984375,0.6829637695312499,0.00014370117187595844,1.4509704737446618,12.722965300175842,-0.40129493845117475,-2.4551862827397866,12.963904633252232
630,1790596645.8957727,1.39993681640625,0.7452342773437499,-0.014226416015624042,1.5860011377582228,12.735555374970989,-0.3961380985737419,-2.456896348664582,12.976426155539723
631,1790596645.9157727,1.51489775390625,0.73565419921875,-0.14355747070312405,1.6901807752465592,12.76108110213566,-0.38525239478668133,-2.460006227568875,13.001739919820363
632,1790596645.9405992,1.56279814453125,0.91288564453125,-0.14355747070312405,1.8155734598016768,12.793744658946261,-0.3706970158155295,-2.463822154091334,13.03409905911574
633,1790596645.9605992,1.55321806640625,1.15717763671875,-0.04775668945312404,1.9374795859880134,12.820785075209876,-0.3576251165724882,-2.4667220837674226,13.060824763669164
634,1790596645.9867027,1.50531767578125,1.22902822265625,-0.009436376953124041,1.9433426672398892,12.856771589647986,-0.33845153224620633,-2.470051235194169,13.096269631179087
635,1790596646.0067027,1.43346708984375,1.33440908203125,0.00972377929687596,1.9584611427741954,12.884616092695229,-0.3221195231838717,-2.4722189243721635,13.12360313532
636,1790596646.0310185,1.27060576171875,1.51643056640625,0.10073452148437596,1.98094626586961,12.918322652535153,-0.30004259336976713,-2.4742576248185757,13.156558687848879
637,1790596646.0510185,1.11732451171875,1.59786123046875,0.18216518554687597,1.958254000672022,12.945469887578746,-0.2799364664966252,-2.4752585968946352,13.182960978360798
638,1790596646.0605848,1.06463408203125,1.59307119140625,0.14863491210937596,1.921825664988584,12.958072592973442,-0.2694725419436654,-2.4754282203997793,13.19515083847027
639,1790596646.0805848,0.94488310546875,1.54038076171875,0.11510463867187597,1.8107528964265909,12.983482737752963,-0.24617725687264683,-2.4753340440535623,13.21963334865915
640,1790596646.120694,0.84908232421875,1.47811025390625,-0.04296665039062404,1.7051676894221588,13.032194490994836,-0.19738697809792954,-2.474956502663963,13.266592047708313
641,1790596646.140694,0.84908232421875,1.37272939453125,-0.30641879882812406,1.642930084996351,13.05538786888296,-0.17243130686498748,-2.475320562080506,13.289096916179899
642,1790596646.1660063,0.88740263671875,1.20028798828125,-0.47886020507812405,1.5676357327118768,13.083635416761672,-0.1406998210221536,-2.477203008183329,13.316825706681325
643,1790596646.1860063,0.92093291015625,1.11406728515625,-0.5842410644531241,1.559038473629691,13.10531914923305,-0.11591722492244379,-2.480061921270432,13.338423217892878
644,1790596646.181352,1.03589384765625,0.96557607421875,-0.771052587890624,1.6124314906403285,13.10531914923305,-0.11591722492244379,-2.480061921270432,13.338423217892878
645,1790596646.201352,1.19875517578125,0.7452342773437499,-0.7423123535156241,1.5948089947615363,13.126832568018925,-0.09279404340590106,-2.486125528981877,13.36050763066843
646,1790596646.2257218,1.40472685546875,0.49615224609375,-0.689621923828124,1.6416464258796406,13.15387303936187,-0.06657586751682604,-2.4950229665370416,13.388575274663618
647,1790596646.2457218,1.51489775390625,0.33329091796875,-0.6177713378906241,1.6696225521685508,13.17711535359635,-0.04704243900362033,-2.5031907255933725,13.412850026811928
648,1790596646.2713697,1.54842802734375,0.35245107421875,-0.632141455078124,1.709226121614661,13.208342895685352,-0.024431213970250294,-2.5144981969130424,13.445579947198139
649,1790596646.2913697,1.63464873046875,0.29976064453125,-0.593821142578124,1.7648106032675788,13.233815814949343,-0.008465675018108978,-2.523831982265195,13.472330183244528
650,1790596646.3009152,1.66338896484375,0.10815908203124999,-0.5171805175781241,1.7452899252422738,13.246510966610021,-0.0016966284507618752,-2.5284139619291817,13.485656559098118
651,1790596646.3209152,1.69212919921875,-0.09781259765625001,-0.4740701660156241,1.7600031401719238,13.274153417275567,0.010374090309285378,-2.5380610222193005,13.514622093111862
652,1790596646.3460014,1.71128935546875,-0.09302255859375001,-0.507600439453124,1.7874066858667006,13.310028179419161,0.02288439495960998,-2.550193337296468,13.552153330377283
653,1790596646.3660014,1.66817900390625,0.026728417968749994,-0.550710791015624,1.7569342539610908,13.339408402248603,0.031262733555465494,-2.560002432516181,13.582871799990558
654,1790596646.3906226,1.66338896484375,-0.02596201171875001,-0.6034012207031241,1.7696411804550851,13.376304038509131,0.04003127622151728,-2.5723978853405027,13.621466261537922
655,1790596646.4106226,1.64901884765625,-0.15050302734375,-0.627351416015624,1.7707298270323422,13.406747601592903,0.045820905717901254,-2.5828025752428343,13.653345742011329
656,1790596646.421187,1.68733916015625,-0.16966318359375002,-0.5650809082031241,1.7875165649804852,13.423059762879847,0.04816668312558717,-2.58841891142506,13.670434005115938
657,1790596646.441187,1.6538088867187501,-0.09781259765625001,-0.43574985351562406,1.7130467223310235,13.454320806901801,0.051540265617832676,-2.598957894353832,13.70313784907073
658,1790596646.4662836,1.58674833984375,-0.14092294921875,-0.3734793457031241,1.6361895957621295,13.493763649097128,0.05468919878834718,-2.611722037762374,13.74429846622565
659,1790596646.4862835,1.66817900390625,-0.15529306640625,-0.4309598144531241,1.7299316423549733,13.525363846285964,0.05637790100731869,-2.6215748767629203,13.777202200614463
660,1790596646.510988,1.70649931640625,-0.08344248046875001,-0.4309598144531241,1.7620524754147497,13.56479488930315,0.0577086002907442,-2.6335167646253446,13.818190953267909
661,1790596646.530988,1.67296904296875,-0.17924326171875002,-0.36868930664062405,1.7224649112346224,13.596997940231788,0.058230271874466055,-2.6429338598197902,13.851600742824346
662,1790596646.5415556,1.68733916015625,-0.23672373046875003,-0.3830594238281241,1.746392306484249,13.61412446984443,0.05813488325798149,-2.6477591411148502,13.869332832347256
663,1790596646.5615556,1.72086943359375,-0.19840341796875002,-0.4213797363281241,1.7827833311782213,13.646787871028584,0.05732874346776832,-2.6567281286995823,13.903104334338575
664,1790596646.5856566,1.6969192382812501,-0.30378427734375,-0.41658969726562406,1.773518188313316,13.686422720242454,0.0555952764560863,-2.667429705170104,13.944046720516859
665,1790596646.6056566,1.68733916015625,-0.41874521484375005,-0.3638992675781241,1.7761992211729045,13.719456086755274,0.0532887585520668,-2.676148941039756,13.978128922099073
666,1790596646.6312673,1.71607939453125,-0.45227548828125,-0.33515903320312407,1.8060490533682738,13.76194871629334,0.04910515943849667,-2.6869821905235445,14.021894204377741
667,1790596646.6512673,1.78313994140625,-0.47622568359375006,-0.34473911132812407,1.877557990377907,13.795403502115976,0.044935399485881634,-2.6951929831670496,14.056288350515352
668,1790596646.6618142,1.8166702148437501,-0.49538583984375,-0.4022195800781241,1.9254813399294104,13.813246949549303,0.04229776355940232,-2.6994642856397393,14.074611462469566
669,1790596646.6818142,1.7400295898437501,-0.50975595703125,-0.42616977539062406,1.8625720889987452,13.847342830497373,0.03653859722522573,-2.7075915375961443,14.109616949757228
670,1790596646.7065518,1.70649931640625,-0.52891611328125,-0.4117996582031241,1.8334315177501868,13.889583908980496,0.02855663550374058,-2.717690815860224,14.152992616992783
671,1790596646.7265518,1.7735598632812501,-0.5528663085937501,-0.38784946289062405,1.8977889634216003,13.923832586921458,0.021448660115296694,-2.725830637945376,14.188154447298574
672,1790596646.7516358,1.78792998046875,-0.49059580078125004,-0.34952915039062404,1.8866765705271193,13.967044372903814,0.011907981184710764,-2.7358955042427135,14.232483779186804
