imu_index,t_imu,ax,ay,az,mag,vx,vy,vz,velocity
0,1791286370.6412961,0.01825004882812501,0.002682421875000011,0.008238867187499043,0.02020244049311058,0.0,0.0,0.0,0.0
1,1791286370.6612961,0.061360400390625014,-0.01647773437499999,0.0034488281249990416,0.06362789389620448,0.00014268435000945468,-1.7272864386672102e-05,2.8036071895501204e-05,0.00014643495794744725
2,1791286370.7015517,0.037410205078125015,0.06974296875000001,-0.010921289062500958,0.07989292640051153,0.0006850024870324039,0.00011399222629072627,5.344133210228231e-05,0.000696475850889434
3,1791286370.7215517,0.07094047851562502,0.07453300781250001,-0.05882167968750096,0.11852303888638278,0.0010765502021820082,0.0003858394492877411,-4.0444337919393864e-05,0.0011443199565307459
4,1791286370.7316468,0.013460009765625012,0.06974296875000001,-0.04445156250000096,0.08379257104090845,0.0013084434793873086,0.0006117098353978596,-0.00015891700510783577,0.0014530890805405175
5,1791286370.7516468,0.023040087890625012,-0.00689765624999999,-0.02050136718750096,0.03160267976465968,0.0017536973177865712,0.0010863390275492758,-0.00045585196152937913,0.0021126731351580877
6,1791286370.7667356,0.008669970703125012,-0.03563789062499999,-0.006131250000000959,0.03718628600378129,0.0020751122328700445,0.0013425708439355356,-0.0006764078284652918,0.002562443131154682
7,1791286370.7867355,-0.05360053710937499,0.002682421875000011,-0.006131250000000959,0.054016712155512354,0.0023698426319274965,0.0015818245087379347,-0.000943293621468753,0.003001353983263002
8,1791286370.805997,-0.096710888671875,0.01705253906250001,0.04176914062499904,0.10671666310718694,0.0023939712794895096,0.001806188777708237,-0.001110286055072406,0.003197835441642997
9,1791286370.8259969,-0.04402045898437499,0.04579277343750001,0.04176914062499904,0.0760226283210742,0.0022041702875397443,0.0020984794805759175,-0.0011323654709313568,0.003247188683558257
10,1791286370.8507788,-0.02965034179687499,0.06974296875000001,0.03697910156249904,0.08432483863669477,0.0018673375985991073,0.0026210698644902938,-0.0010092551726324345,0.0033727663638571785
11,1791286370.8707788,-0.0009101074218749891,0.002682421875000011,0.027399023437499042,0.02754505705137407,0.0015904355703871432,0.003088195810449479,-0.0008282365421478402,0.003571052287068813
12,1791286370.881418,0.027830126953125013,-0.05000800781249999,0.04655917968749904,0.07377719176530738,0.0014867104198019365,0.0032616513522721116,-0.0006873719088958651,0.0036498160991021576
13,1791286370.901418,0.061360400390625014,-0.011687695312499989,0.03218906249999905,0.0702697424390078,0.0014547573600157012,0.003446266317271046,-0.0003441670786837396,0.0037565305115394034
14,1791286370.9259405,0.06615043945312502,0.07453300781250001,0.027399023437499042,0.10335258283540072,0.0016559723448425715,0.0037542582237899006,0.00012311796281176164,0.004105101369094852
15,1791286370.9459405,0.08052055664062502,0.002682421875000011,0.008238867187499043,0.08098539597584757,0.0020154687092290183,0.004083593267097023,0.0005005149747121935,0.004581305854106727
16,1791286370.9715197,0.01825004882812501,-0.02605781249999999,0.017818945312499043,0.036463525426978866,0.002595769131749836,0.004396774891672825,0.0009607802994230886,0.0051954543224966765
17,1791286370.9915197,0.032620166015625014,-0.02126777343749999,-0.0013412109375009586,0.03896398676540479,0.003057742906388287,0.00453392755463184,0.0012913898977649574,0.005619072754491361
18,1791286371.0010476,0.08531059570312502,0.01705253906250001,-0.05403164062500096,0.10241144963493777,0.003329085836871731,0.004586453568666825,0.0013856968612248487,0.005834254420061317
19,1791286371.0210476,0.04699028320312501,0.007472460937500011,-0.03966152343750096,0.06194320648267891,0.004011674595944756,0.0047169594138687446,0.0014134223655498269,0.006351456680106537
20,1791286371.0457947,-0.0057001464843749895,-0.02605781249999999,0.013028906249999042,0.029685916868100137,0.004806226105878433,0.0048197244174172016,0.0013931517107531462,0.006947692029001384
21,1791286371.0657947,-0.0009101074218749891,-0.03084785156249999,0.017818945312499043,0.03563612006926703,0.005342125987015657,0.004804960175242431,0.0014254985663129443,0.007325162012500068
22,1791286371.0916476,0.04699028320312501,-0.03563789062499999,0.017818945312499043,0.06160893422028323,0.006020294056930366,0.004659824176646271,0.0015301404382230877,0.007765257989909525
23,1791286371.1116476,0.037410205078125015,0.002682421875000011,0.008238867187499043,0.038400491710863516,0.006592834500828625,0.004514954615246438,0.001638035990052562,0.008156803530658244
24,1791286371.1360097,-0.03923041992187499,0.02184257812500001,0.03218906249999905,0.05524726066532367,0.007182311159257557,0.004409769178410789,0.0018236180888893505,0.008623064462787104
25,1791286371.1560097,-0.05839057617187499,0.031422656250000014,0.03697910156249904,0.07592296532577492,0.0074472195037688605,0.00441626804084458,0.0020568703334278757,0.008899169473295597
26,1791286371.1661725,-0.03923041992187499,-0.01647773437499999,-0.0013412109375009586,0.04257159175035125,0.0074872309802078785,0.004430466236992409,0.0021847804443513317,0.008970001361099914
27,1791286371.1861725,-0.03923041992187499,-0.04042792968749999,-0.010921289062500958,0.05738220892272091,0.0074364694602720325,0.004368858007629854,0.002380349725785583,0.008947293621058696
28,1791286371.2118104,-0.05360053710937499,-0.002107617187499989,0.017818945312499043,0.056524104952421515,0.007202660118802551,0.004219940000228411,0.0026067071185882965,0.008745348957852707
29,1791286371.2318103,-0.05360053710937499,0.06495292968750001,-0.0013412109375009586,0.08422410284581058,0.006886824105334687,0.0042154631628178495,0.0027815170057470997,0.008540217373589122
30,1791286371.2711298,0.003879931640625011,0.060162890625000014,-0.03966152343750096,0.07216414427730072,0.006212412289205279,0.004576944010077477,0.0029527229122946544,0.008262024904298141
31,1791286371.2911298,-0.02965034179687499,0.041002734375000016,-0.006131250000000959,0.05097017972757043,0.005882171479589596,0.004884980306595522,0.002958055524646247,0.00819835754270412
32,1791286371.2860556,-0.04402045898437499,0.012262500000000011,0.04655917968749904,0.06523746568205929,0.005882171479589596,0.004884980306595522,0.002958055524646247,0.00819835754270412
33,1791286371.3060555,-0.0057001464843749895,0.002682421875000011,0.056139257812499045,0.056491621722137224,0.005475061476147829,0.005197867001324503,0.003167501407602812,0.008187013173204378
34,1791286371.331798,0.037410205078125015,0.031422656250000014,0.017818945312499043,0.05200405351357591,0.005090881561431088,0.005606029708427577,0.003539437827051692,0.00835896311128695
35,1791286371.351798,0.027830126953125013,-0.011687695312499989,-0.0013412109375009586,0.030214516953341514,0.004935035274813912,0.005905176691684253,0.0038097756745347424,0.008587204179122869
36,1791286371.3762345,-0.03923041992187499,-0.03563789062499999,0.04655917968749904,0.0705467384690386,0.0047522872158377956,0.006129120845629235,0.0041734079295323075,0.008807252117909723
37,1791286371.3962345,-0.03923041992187499,-0.002107617187499989,0.060929296874999046,0.07249722143046214,0.004507461766557249,0.0062282962687833275,0.004587612440593207,0.008952936607270336
38,1791286371.4067922,0.042200244140625016,-0.02126777343749999,0.017818945312499043,0.050504391933444935,0.004399960013972442,0.0062542871502670565,0.004835820997890255,0.009047702504292916
39,1791286371.4267921,0.10926079101562501,-0.04042792968749999,-0.02529140625000096,0.11921406453216883,0.004454051485202667,0.006203594332440874,0.0052242789894512785,0.009252904853825673
40,1791286371.451427,0.042200244140625016,-0.05958808593749999,0.03697910156249904,0.08184775222077183,0.0047905256172796245,0.0059657290075602635,0.005652581702083554,0.00951266199232308
41,1791286371.471427,-0.0009101074218749891,-0.02605781249999999,0.07529941406249904,0.0796858810954625,0.005084654486913055,0.005673114423233112,0.0061165620111201455,0.009769865369914713
42,1791286371.496026,0.032620166015625014,0.012262500000000011,0.04176914062499904,0.054397658457767124,0.005450657813371325,0.005341745688196325,0.006817619017406919,0.01023346699131523
43,1791286371.516026,0.07573051757812502,0.002682421875000011,-0.015711328125000958,0.07738961500884745,0.005866122078224877,0.005135160005790275,0.00734119373703869,0.010708612515468166
44,1791286371.5267427,0.01825004882812501,-0.002107617187499989,-0.006131250000000959,0.019367461346302055,0.006130886048743231,0.005041530656961967,0.0075621046685420065,0.010963130124455631
45,1791286371.5467427,-0.05839057617187499,-0.05000800781249999,0.013028906249999042,0.07797443574101617,0.006490673354399514,0.004814832013753234,0.007922884617433554,0.011317400256920318
46,1791286371.5709925,0.01825004882812501,-0.03084785156249999,-0.06361171875000096,0.0730144163202049,0.006788471362698535,0.004434137171355191,0.008202713917565954,0.011533838541873306
47,1791286371.5909925,0.08052055664062502,-0.011687695312499989,-0.11151210937500096,0.13804025789854246,0.007145394334390821,0.004103453019784293,0.008136198914537138,0.011579841089429362
48,1791286371.6161404,0.05178032226562501,0.07453300781250001,-0.09235195312500097,0.12948071004405462,0.007776400953162699,0.003868554107292998,0.00768060181034718,0.01159438514258137
49,1791286371.6361403,0.042200244140625016,0.09369316406250001,-0.015711328125000958,0.10395246716178673,0.008343931975115704,0.0039621015219677555,0.007210523521567517,0.011717981854006085
50,1791286371.6462548,0.10926079101562501,0.11285332031250002,-0.015711328125000958,0.15786271944435537,0.008702788653377421,0.0041589966820921465,0.006984617236008883,0.011908848041710862
51,1791286371.6662548,0.18111137695312501,0.07932304687500001,-0.09235195312500097,0.2182254794321524,0.009741500288968356,0.0047781954814964875,0.006442827056565485,0.012618954014504384
52,1791286371.6916728,0.09010063476562502,0.07932304687500001,-0.05403164062500096,0.1316422741346079,0.011380612984348244,0.005749531539708037,0.005578489699405061,0.013917435545098876
53,1791286371.7116728,-0.0009101074218749891,0.10327324218750002,0.0034488281249990416,0.10333482115372905,0.012610662789655542,0.006673070421293288,0.004924533244328143,0.015093366507059825
54,1791286371.7362876,0.05178032226562501,0.12243339843750002,0.027399023437499042,0.1357270986657279,0.013991367415790882,0.008055892050450507,0.004297358027913549,0.016706975935585695
55,1791286371.7562876,0.09489067382812502,0.09848320312500002,-0.0013412109375009586,0.13676615123668026,0.015164944146522407,0.009342299171068193,0.0039032921438276838,0.018234302134410095
56,1791286371.7818367,0.027830126953125013,0.10806328125000002,0.022608984374999044,0.11385672968785206,0.01667441788972058,0.011134914535851918,0.0035161523406413687,0.020356469756918998
57,1791286371.8018367,-0.05839057617187499,0.14638359375,0.03697910156249904,0.1618798006460911,0.017632955319338662,0.012709360145440099,0.0033479381683267223,0.021992217682153696
58,1791286371.8119063,-0.02965034179687499,0.1272234375,-0.006131250000000959,0.13077667240203977,0.017976679506360834,0.013589791644014169,0.0032992463713618614,0.022775611289734363
59,1791286371.8319063,0.037410205078125015,0.060162890625000014,0.0034488281249990416,0.07092948094959435,0.018568610519723056,0.01535725645322629,0.003213018976122472,0.024309712325411285
60,1791286371.8565457,0.032620166015625014,0.02184257812500001,0.027399023437499042,0.047873582854871935,0.01931787817687123,0.017359642116273735,0.0031797292452054853,0.02616578433248959
61,1791286371.8765457,-0.04881049804687499,0.02184257812500001,0.04176914062499904,0.06785443277547652,0.019810551497131186,0.018806719985755324,0.0032605130725261314,0.027509663988118962
62,1791286371.916391,0.032620166015625014,-0.002107617187499989,0.06571933593749904,0.07339992096155033,0.020596473169246805,0.02131621191124037,0.0037185320452119957,0.029873451053195676
63,1791286371.9363909,0.08052055664062502,0.01705253906250001,0.07529941406249904,0.11155425087530223,0.02110149791161644,0.022409305084573325,0.00412547396064043,0.0310559125431432
64,1791286371.9315386,0.037410205078125015,0.04579277343750001,0.03218906249999905,0.0673248638150455,0.02110149791161644,0.022409305084573325,0.00412547396064043,0.0310559125431432
65,1791286371.9515386,0.023040087890625012,-0.01647773437499999,-0.02529140625000096,0.0379738937988109,0.02170741521875208,0.023323165115986335,0.004566883645963506,0.032187549343537174
66,1791286371.9767702,0.09010063476562502,-0.073958203125,-0.04445156250000096,0.12475528687530163,0.022571271124040008,0.02413199919701625,0.00490824717919243,0.033405187557799546
67,1791286371.9967701,0.11884086914062501,-0.0691681640625,-0.02050136718750096,0.13902407401034114,0.023466712619226646,0.02446226801332651,0.005040814174869658,0.03427096387694334
68,1791286372.0365155,0.037410205078125015,-0.08353828125,0.03697910156249904,0.09871991607857601,0.02544504164331761,0.024564948274254487,0.0053138619253604025,0.03576484246447565
69,1791286372.0565155,0.042200244140625016,-0.05958808593749999,0.03218906249999905,0.0797980973197487,0.026410633613172214,0.024394177615908945,0.005534402818177367,0.036376188419893374
70,1791286372.0512013,0.05178032226562501,-0.02126777343749999,0.0034488281249990416,0.05608399394084373,0.026410633613172214,0.024394177615908945,0.005534402818177367,0.036376188419893374
71,1791286372.0712013,0.032620166015625014,-0.01647773437499999,0.0034488281249990416,0.03670811049966721,0.027354699530971905,0.02411108648514325,0.005749528354958967,0.036914511431526346
72,1791286372.1264458,0.04699028320312501,-0.04042792968749999,0.0034488281249990416,0.062083803280429915,0.02990111621408081,0.023210640173926506,0.006283198996342315,0.03837042034900184
73,1791286372.1464458,0.09010063476562502,-0.04521796874999999,-0.010921289062500958,0.10140051103338303,0.030890343246486877,0.022805083454323367,0.006436213019281857,0.038932120097343835
74,1791286372.1410568,0.032620166015625014,-0.02126777343749999,-0.02050136718750096,0.04400794785527392,0.030890343246486877,0.022805083454323367,0.006436213019281857,0.038932120097343835
75,1791286372.1610568,0.01825004882812501,-0.05000800781249999,-0.010921289062500958,0.05434279788887125,0.031837833898671064,0.022320385914049185,0.006459567862920291,0.03941539434899931
76,1791286372.1860218,0.06615043945312502,-0.04521796874999999,-0.03966152343750096,0.08940683295532267,0.03300116587634294,0.02162781520972987,0.006389637540037723,0.03997082445781152
77,1791286372.2060218,0.09489067382812502,-0.01647773437499999,-0.02529140625000096,0.09957615648231888,0.03403489983202984,0.02106366476612207,0.006244589088519047,0.04050984167878626
78,1791286372.2172637,0.061360400390625014,-0.02126777343749999,0.022608984374999044,0.06876469368473617,0.03466054112372028,0.020762299100933388,0.006173025918841757,0.04087214728810338
79,1791286372.2372637,0.013460009765625012,0.002682421875000011,0.051349218749999044,0.05315175929582626,0.03571886434454478,0.0202786969281047,0.006175745526879975,0.041535558886076074
80,1791286372.2606032,0.01825004882812501,0.031422656250000014,0.03218906249999905,0.048544653183058756,0.03682415431552969,0.01985869705284959,0.006324673879076841,0.042312973062259264
81,1791286372.2806032,0.042200244140625016,0.002682421875000011,0.03218906249999905,0.053143125023587756,0.037719898481703346,0.019603935984520482,0.0065297170983074524,0.043008629982122334
82,1791286372.3056998,0.01825004882812501,-0.00689765624999999,0.04655917968749904,0.050481671497137795,0.0387890896473317,0.019324271453198313,0.006896641819907722,0.04388148369480835
83,1791286372.3256998,-0.01528022460937499,0.002682421875000011,0.03697910156249904,0.040101553630726657,0.03951779358950347,0.0191285093170953,0.007270496761210702,0.04450186515227849
84,1791286372.3359146,-0.03923041992187499,0.012262500000000011,0.04176914062499904,0.05860081792985138,0.03979238440564793,0.01905497262942327,0.007493128125746392,0.04475123247133842
85,1791286372.3559146,-0.03444038085937499,0.041002734375000016,0.04176914062499904,0.06791189268836907,0.04013886590258613,0.019012487018673387,0.007988949536246659,0.04512678288193953
86,1791286372.411353,0.013460009765625012,0.04579277343750001,0.03697910156249904,0.06037883664297074,0.040867990516929395,0.01927327107974538,0.009484600280751189,0.046169354224320766
87,1791286372.431353,0.013460009765625012,0.05537285156250001,0.08487949218749904,0.10223430318176523,0.041131953441620954,0.019504987685683265,0.010126022879178846,0.046634949103563764
88,1791286372.4253697,0.008669970703125012,0.1415935546875,0.13277988281249906,0.19430491604881253,0.041131953441620954,0.019504987685683265,0.010126022879178846,0.046634949103563764
89,1791286372.4453697,0.008669970703125012,0.16075371093750002,0.19026035156249904,0.24923066695103172,0.041376892240204036,0.020377055327870108,0.011351526034457963,0.047498723547096645
90,1791286372.456282,-0.0057001464843749895,0.15117363281250001,0.19026035156249904,0.24307398113405235,0.04149291758321783,0.021036778020563272,0.0122312985710553,0.0481021091407483
91,1791286372.476282,-0.01528022460937499,0.21344414062500003,0.17589023437499904,0.27700047108218034,0.04164220186083394,0.022611480014607558,0.01415111338966412,0.04945306880706767
92,1791286372.5006661,-0.07755073242187499,0.27571464843750004,0.22858066406249905,0.3664448163713556,0.041627138876013325,0.025137977292283776,0.016880383279960897,0.05147508069958374
93,1791286372.5206661,-0.06797065429687499,0.28529472656250005,0.25253085937499903,0.3870205754047096,0.041398355537344396,0.027740889604219943,0.019504815987024048,0.05351465821546056
94,1791286372.5457528,-0.04402045898437499,0.3523552734375,0.22379062499999905,0.4197312037081597,0.040943719501947126,0.031715808433513494,0.023199140206258524,0.056749279973891224
95,1791286372.5657527,-0.02965034179687499,0.37630546875000004,0.20463046874999904,0.42936997719993547,0.04052512891071417,0.035502405624470275,0.026345233178277635,0.05997314557009863
96,1791286372.590847,0.05178032226562501,0.40504570312500005,0.19984042968749904,0.4546200839510304,0.04012034907552374,0.041011397848610416,0.030461807664566024,0.06495766998308898
97,1791286372.610847,0.027830126953125013,0.4385759765625,0.22379062499999905,0.49315884562873635,0.03996554863149143,0.046008867425866025,0.03388600571656958,0.06973035452835737
98,1791286372.6204073,0.013460009765625012,0.4481560546875,0.23337070312499905,0.5054571260680897,0.039932256972161816,0.04867522478476339,0.03560510570888294,0.07232970487482124
99,1791286372.6404073,0.01825004882812501,0.47210625000000006,0.13756992187499906,0.49208013470976947,0.03992062356798779,0.05479687095655149,0.03921837934580172,0.07832263102831227
100,1791286372.6661599,0.05178032226562501,0.46731621093750003,0.07529941406249904,0.4761676643127604,0.04004315050923584,0.06331135475060573,0.04358419470965015,0.08666812315696618
101,1791286372.6861598,0.037410205078125015,0.45773613281250003,0.16152011718749906,0.4868373845365549,0.04025781967613983,0.07031958379746853,0.04682142201491099,0.0935830191328757
102,1791286372.6960542,0.08052055664062502,0.49126640625,0.19505039062499904,0.5346689600439424,0.040435604262106815,0.07397085613547519,0.04844731532411823,0.09723100334549377
103,1791286372.7160542,0.13321098632812503,0.558326953125,0.15194003906249906,0.5937675714744547,0.041061661321697945,0.08181866724282023,0.051761324164221106,0.10516458063018533
104,1791286372.7413049,0.18111137695312501,0.5247966796875,0.13277988281249906,0.5708269292461441,0.042328781206942494,0.09229180220844428,0.05585697085236999,0.11588573538684699
105,1791286372.7613049,0.157161181640625,0.6110173828125001,0.12319980468749905,0.6428219590125658,0.04368927641747304,0.1010465465172843,0.058998328958602214,0.12489980086797378
106,1791286372.7862184,0.12842094726562503,0.6589177734375,0.13277988281249906,0.6843208816981505,0.04566342012585861,0.11268919936718017,0.0628027854938753,0.13685098997594597
107,1791286372.8062184,0.12363090820312501,0.6062273437500001,0.16631015624999906,0.6406678248868203,0.04738857220521322,0.12253138377635418,0.06584742514667799,0.14695407508553227
108,1791286372.8162682,0.18590141601562502,0.5822771484375,0.10882968749999905,0.6208461282398952,0.048358721097911055,0.12763097469736212,0.06735522774184509,0.15220038867420824
109,1791286372.8362682,0.20506157226562502,0.6205974609375,0.0034488281249990416,0.6536079492765964,0.050586240735397386,0.13806160490872205,0.07007420047004598,0.16288145404934176
110,1791286372.8604946,0.12363090820312501,0.6014373046875,-0.06840175781250096,0.6178108395008413,0.05347697704102471,0.15102164870438334,0.07275570210120058,0.17595657884567742
111,1791286372.8804946,0.06615043945312502,0.596647265625,-0.05403164062500096,0.6027298386559771,0.055790114242037614,0.16191299701394324,0.07445369506843881,0.1867396801928312
112,1791286372.9056976,0.12842094726562503,0.6301775390625001,-0.006131250000000959,0.6431588160493734,0.058635563995034376,0.17589799995945415,0.07615874165997744,0.2004454780881402
113,1791286372.9256976,0.157161181640625,0.6062273437500001,-0.04445156250000096,0.6278432692428499,0.06098325668907736,0.18718580480287622,0.07723295982002362,0.2114767438719155
114,1791286372.935867,0.22901176757812503,0.6301775390625001,-0.03008144531250096,0.6711743542330971,0.06229247896033584,0.19300746597384744,0.07764039436647655,0.21716414458665076
115,1791286372.955867,0.171531298828125,0.539166796875,-0.010921289062500958,0.5659002525930676,0.0650818709991026,0.2044933345265639,0.07825998344986862,0.22842460202025244
116,1791286372.9818943,0.19548149414062502,0.4002556640625,-0.08277187500000097,0.45306599348944726,0.06888380071479239,0.2190323007344507,0.07876245353194784,0.2427419429194599
117,1791286373.0018942,0.176321337890625,0.29966484375,-0.14983242187500095,0.3786000362125975,0.07192478104375158,0.22957848301968167,0.07874174186187431,0.25313971617518244
118,1791286373.0261266,0.027830126953125013,0.3906755859375,-0.08756191406250097,0.4013340481545577,0.07542764892476582,0.24169440312980311,0.07828896401369073,0.2650182571313276
119,1791286373.0461266,0.22422172851562502,0.37630546875000004,-0.04445156250000096,0.4402920970882664,0.07826312750451982,0.25134467352418116,0.07777330231640135,0.2744958079624611
120,1791286373.056201,0.272122119140625,0.26134453125,-0.03008144531250096,0.3784921466714412,0.07985219670797833,0.2559583416186036,0.07749620034314536,0.27909981553354773
121,1791286373.076201,0.291282275390625,0.1320134765625,0.03218906249999905,0.3214172641528244,0.083378773569931,0.26433370140221657,0.0770317666952864,0.28767728213958615
122,1791286373.1014743,0.291282275390625,0.031422656250000014,-0.08277187500000097,0.3044403563484338,0.08827098128331269,0.27363961292115097,0.07643703081849533,0.29751138394472215
123,1791286373.1214743,0.38708305664062503,0.007472460937500011,-0.14025234375000095,0.41177645675545876,0.0925792491875966,0.27995753385556094,0.07570244847439883,0.30443061417611345
124,1791286373.1456547,0.49725395507812503,-0.04042792968749999,0.03697910156249904,0.500263297966206,0.09861049292928858,0.2863904964394606,0.07476025211876888,0.3119817960449934
125,1791286373.1656547,0.588264697265625,-0.05000800781249999,0.08008945312499904,0.5957939873784007,0.10447902153044773,0.2907775223551069,0.07427344578150695,0.3177797636653299
126,1791286373.2061226,0.6026348144531251,-0.1553888671875,-0.13546230468750098,0.6369179347671223,0.11818674630660456,0.2976993276531087,0.07326813004822776,0.32857452057093334
127,1791286373.2261226,0.564314501953125,-0.1745490234375,-0.15941250000000096,0.6118255992142195,0.12569557595560232,0.30011216674732977,0.07240350036593414,0.3333301026157516
128,1791286373.2206624,0.593054736328125,-0.227239453125,-0.12109218750000096,0.6465408008867704,0.12569557595560232,0.30011216674732977,0.07240350036593414,0.3333301026157516
129,1791286373.2406623,0.669695361328125,-0.4523712890625,-0.293533593750001,0.8598218599292916,0.1344904730886322,0.3003237480327456,0.07079922420624184,0.3365925892414238
130,1791286373.2665088,0.626585009765625,-0.552962109375,-0.331853906250001,0.8991678841911683,0.14666428242292465,0.29860734028544833,0.0678246595637802,0.339524579163164
131,1791286373.2865088,0.525994189453125,-0.39010078125000003,-0.24084316406250098,0.6977491931532039,0.15640021864854126,0.29606381591669806,0.06500915695011387,0.3410879680900992
132,1791286373.3108456,0.688855517578125,-0.3853107421875,-0.322273828125001,0.8525530554969886,0.1686876674825551,0.29201768043261017,0.0610692030723671,0.34272336134241144
133,1791286373.3308456,0.8181865722656251,-0.6918732421875,-0.5234554687500009,1.1925281875306342,0.17953137428377458,0.28757556089101666,0.0570484362181806,0.3437815318613602
134,1791286373.3413906,0.7223857910156251,-0.7828839843750001,-0.633626367187501,1.2394478356297918,0.18560953067465819,0.28441841438055254,0.054331366526115324,0.3439427709730351
135,1791286373.3613906,0.6217949707031251,-0.725403515625,-0.480345117187501,1.0693786409306498,0.1974246059481995,0.2770662402487152,0.04828012890706777,0.34361773435991877
136,1791286373.3864214,0.6217949707031251,-0.81162421875,-0.45639492187500097,1.1196692291773211,0.2123282357622415,0.26635942427195036,0.040084193466571355,0.34298303918161377
137,1791286373.4064214,0.569104541015625,-0.907425,-0.442024804687501,1.158743300817152,0.22423655087452654,0.2565091986002898,0.03317020357137555,0.3423145660348586
138,1791286373.4312599,0.48767387695312503,-0.9457453125,-0.303113671875001,1.106407657446278,0.23877604058701424,0.2426587148192335,0.024483447427642413,0.34131611247357735
139,1791286373.4512599,0.5212041503906251,-0.96490546875,-0.31748378906250097,1.1417058668175237,0.2502405050513808,0.23031316343768832,0.017607143773151562,0.34055025346179657
140,1791286373.4608097,0.468513720703125,-1.06070625,-0.31748378906250097,1.2022474003272499,0.25560245368145235,0.22385166090418313,0.014361474715404887,0.3400712166201979
141,1791286373.4808097,0.320022509765625,-1.19482734375,-0.312693750000001,1.2758542900419443,0.26633022155686237,0.20896605038856386,0.0076384970278874625,0.33861031255171226
142,1791286373.5062997,0.262542041015625,-1.1900373046875001,-0.274373437500001,1.2491588742246147,0.27906563231030257,0.18828077904419543,-0.000767020436519987,0.3366420461181107
143,1791286373.5262997,0.391873095703125,-1.338528515625,-0.30790371093750096,1.428295419542575,0.28854083546310166,0.1706923808064162,-0.007246296655680543,0.33532702159284666
144,1791286373.5661323,0.506834033203125,-1.4726496093750001,-0.374964257812501,1.6019287761452339,0.3072661191502481,0.13251897568870322,-0.020255007767797796,0.3352372476842499
145,1791286373.5861323,0.449353564453125,-1.6211408203125002,-0.29832363281250096,1.7085119768572483,0.3166920839533787,0.11158642805191335,-0.026816871538766104,0.3368449963458644
146,1791286373.581629,0.22901176757812503,-1.6786212890625,-0.303113671875001,1.7210734208222067,0.3166920839533787,0.11158642805191335,-0.026816871538766104,0.3368449963458644
147,1791286373.601629,0.147581103515625,-1.8606427734375002,-0.513875390625001,1.9359337874912146,0.32493214726505265,0.08694657867638282,-0.033550132370496526,0.3380328671178058
148,1791286373.6252916,0.47330375976562505,-2.0953546875,-0.470765039062501,2.199124243293229,0.33432072958200054,0.055146587050252,-0.04206893789975242,0.3414400266921636
149,1791286373.6452916,0.320022509765625,-2.1288849609375,-0.17857265625000096,2.1601976245757544,0.3422557910398476,0.025964050494137723,-0.049163139815354424,0.34674222808143523
150,1791286373.6713195,0.320022509765625,-2.133675,-0.09235195312500097,2.1595166810255697,0.352282885284412,-0.014638225573266727,-0.05753952801240006,0.35725104086081233
151,1791286373.6913195,0.506834033203125,-2.1145148437500003,-0.29832363281250096,2.1947780643031956,0.36007230744098123,-0.047529645690800496,-0.06359653026398933,0.36872164632278376
152,1791286373.7013454,0.46372368164062505,-2.0905646484375002,-0.360594140625001,2.1715267293920255,0.3641212243591918,-0.06470682960960869,-0.06667291816609906,0.3757878628212295
153,1791286373.7213454,0.33439262695312505,-2.0426642578125,-0.23605312500000097,2.083270692187544,0.3721837150947801,-0.10003218933070723,-0.07278419169773084,0.3922049148661181
154,1791286373.7459393,0.39666313476562504,-2.0714044921875,-0.10193203125000096,2.11150381286215,0.3819594026365365,-0.14454417819466153,-0.07979535797979549,0.4161169353289452
155,1791286373.7659392,0.37750297851562503,-2.1145148437500003,-0.26000332031250095,2.1636273361650757,0.3898778954627427,-0.18159105626286667,-0.08518458627924139,0.4384478290796825
156,1791286373.7905924,0.281702197265625,-2.1001447265625,-0.40849453125000096,2.1579693655178978,0.39939345370046825,-0.22820022376218932,-0.09206725971586355,0.46911283642156887
157,1791286373.8105924,0.382293017578125,-2.1145148437500003,-0.341433984375001,2.1757523161918653,0.40695104243738567,-0.2666622623202148,-0.09793820281076179,0.4962960856750855
158,1791286373.8357866,0.430193408203125,-1.96123359375,-0.274373437500001,2.026520259193213,0.41657859846597955,-0.31554699368121447,-0.10538814038858768,0.5331175236809393
159,1791286373.8557866,0.300862353515625,-1.8798029296875,-0.322273828125001,1.9308126865439361,0.4241714581301375,-0.35429394013186566,-0.11131002053368738,0.5637690507447344
160,1791286373.8669708,0.24338188476562503,-1.913333203125,-0.32706386718750097,1.9562846063986405,0.42823709004873883,-0.37589325513968436,-0.1146695404931836,0.5812330411029962
161,1791286373.8869708,0.272122119140625,-1.9564435546875,-0.27916347656250096,1.9949070346886613,0.43519009716656104,-0.4145288275083684,-0.12068534381839914,0.6130167385315581
162,1791286373.9114947,0.48767387695312503,-2.0139240234375,-0.37017421875000095,2.104933427609613,0.4438344982287927,-0.4621002095383623,-0.12814975987626354,0.6534126004522307
163,1791286373.9314947,0.401453173828125,-2.143255078125,-0.509085351562501,2.2391683446897845,0.4511604741468418,-0.5013123871145893,-0.13464297064838077,0.6877416756689619
164,1791286373.9557655,0.25775200195312503,-2.2821662109375,-0.351014062500001,2.323344481760814,0.4599172394550789,-0.5498157243052709,-0.1429064207355074,0.7309195871836682
165,1791286373.9757655,0.24817192382812503,-2.143255078125,-0.17857265625000096,2.1649526154734504,0.4668096280183819,-0.5904270549696039,-0.14948877054601217,0.7673735912644493
166,1791286373.9858158,0.32481254882812505,-1.8223224609375002,-0.322273828125001,1.8788887044760987,0.4701855290270293,-0.610762840704312,-0.1526778666010964,0.785758366319755
167,1791286374.0058157,0.20985161132812502,-1.8510626953125,-0.432444726562501,1.9124537229136562,0.47669782974533187,-0.650670706129269,-0.15920426975016524,0.8221673723794654
168,1791286374.0308616,0.291282275390625,-1.9851837890625001,-0.37975429687500095,2.0420610584182617,0.4845712020456052,-0.7003568162875856,-0.1676769707044723,0.868000280228661
169,1791286374.0508616,0.31523247070312505,-2.0809845703125003,-0.351014062500001,2.1337945459994625,0.49082505566231344,-0.7401807053824319,-0.17452400124066633,0.9051162018743226
170,1791286374.076333,0.20506157226562502,-2.0426642578125,-0.22168300781250097,2.0648658248219274,0.49858903564794704,-0.7911692114066546,-0.18303022612884617,0.9529112294557947
171,1791286374.096333,0.07573051757812502,-1.8127423828125,-0.07798183593750097,1.8159986851519399,0.5041920068912495,-0.8309827229651865,-0.18915689059648352,0.9902132068094183
172,1791286374.106738,0.023040087890625012,-1.7408917968750002,0.0034488281249990416,1.7410476697931365,0.5067468069094849,-0.8513620641326277,-0.1919243614107963,1.0091801876077777
173,1791286374.126738,-0.010490185546874989,-1.855852734375,0.056139257812499045,1.8567312761807269,0.510939710870208,-0.8900533171434719,-0.19635652393933314,1.0448972102536054
174,1791286374.1516714,0.04699028320312501,-1.970813671875,0.060929296874999046,1.9723151358701814,0.5154510517280679,-0.938209062863171,-0.20083422598160747,1.0891558284707437
175,1791286374.1716714,0.07573051757812502,-1.80795234375,-0.02529140625000096,1.8097144647136663,0.5187110434454386,-0.9767106317963673,-0.2038337443586394,1.1245323473318043
176,1791286374.2107997,-0.0009101074218749891,-1.7265216796875,-0.12109218750000096,1.730763200614111,0.5243518309745738,-1.0511093364961057,-0.2092513875256946,1.1931311005489296
177,1791286374.2307997,-0.01528022460937499,-1.855852734375,-0.14983242187500095,1.8619539767663984,0.5267782854474602,-1.0888067266289991,-0.2120115649836403,1.2279838572466393
178,1791286374.225903,0.032620166015625014,-1.8223224609375002,-0.11630214843750096,1.8263212796765447,0.5267782854474602,-1.0888067266289991,-0.2120115649836403,1.2279838572466393
179,1791286374.245903,0.08052055664062502,-1.6882013671875,-0.06361171875000096,1.6913171988062408,0.5287232181304646,-1.12599854062196,-0.2146149849939646,1.262331393357932
180,1791286374.2716465,-0.01528022460937499,-1.645091015625,-0.10672207031250096,1.6486198880415077,0.5309771308063951,-1.1731258641822062,-0.2177922584684582,1.3059841019328802
181,1791286374.2916465,0.037410205078125015,-1.7648419921875,-0.26000332031250095,1.7842837519312493,0.5324987209529236,-1.2093617881609107,-0.22044049236119007,1.3396659408795533
182,1791286374.316177,0.08052055664062502,-1.8127423828125,-0.25042324218750095,1.831728775423413,0.5343020115485755,-1.2537212844961467,-0.22414046425828849,1.3811352744975574
183,1791286374.3361769,-0.01528022460937499,-1.73131171875,-0.20252285156250097,1.7431836558866076,0.5356495824119575,-1.2897792313813103,-0.22738402498500979,1.4149750653842108
184,1791286374.345858,0.061360400390625014,-1.7361017578125,-0.19773281250000097,1.7484028933157572,0.5362375021823208,-1.307133022580881,-0.22900921836449445,1.431290543378276
185,1791286374.365858,0.13321098632812503,-1.7504718750000001,-0.20731289062500097,1.7677317632106466,0.5375617311009464,-1.3428356926335154,-0.23247058444981047,1.4649992780848788
186,1791286374.3916419,0.10447075195312501,-1.6882013671875,-0.20252285156250097,1.7035121072632275,0.5394724614558768,-1.3886087406940795,-0.23705612299149378,1.5084629186191545
187,1791286374.4116418,-0.0057001464843749895,-1.6355109375,-0.18336269531250096,1.645767418678696,0.5408804165437975,-1.4237737877121173,-0.24065832782938895,1.541946774156079
188,1791286374.4365187,0.023040087890625012,-1.7265216796875,-0.22647304687500097,1.7414643255151112,0.5424013523758273,-1.4672253649886273,-0.24523147415098118,1.5833786580093216
189,1791286374.4565187,-0.0057001464843749895,-1.7408917968750002,-0.19294277343750096,1.7515603483518245,0.5434667182183631,-1.5021198142127303,-0.2489857303498056,1.6166984579628174
190,1791286374.4658055,-0.02486030273437499,-1.67383125,-0.14025234375000095,1.6798808910324494,0.5438659245999954,-1.5182708113536207,-0.25069958397352216,1.6321111120122571
191,1791286374.4858055,-0.06318061523437499,-1.597190625,-0.09714199218750097,1.6013888501470972,0.5444646256346236,-1.552742346783986,-0.25419294861075425,1.6649518248847686
192,1791286374.510926,-0.02007026367187499,-1.6786212890625,-0.13067226562500098,1.6838193158950512,0.5449469643509925,-1.5957166725562133,-0.25835175255496173,1.7058793981631455
193,1791286374.530926,0.08531059570312502,-1.7361017578125,-0.21210292968750097,1.7510896219214183,0.5453712414838534,-1.6299210927974204,-0.2616803337096905,1.738548002453194
194,1791286374.556655,0.12842094726562503,-1.69299140625,-0.33664394531250097,1.7309075617283896,0.54624761195054,-1.673939997771057,-0.2663789747681157,1.7808479238547985
195,1791286374.576655,-0.010490185546874989,-1.5876105468750001,-0.264793359375001,1.6095753526041094,0.5470035556103103,-1.707945679246704,-0.2703856813474601,1.813670242846129
196,1791286374.600974,-0.04881049804687499,-1.6642511718750002,-0.11151210937500096,1.6686969102698541,0.5476767123535962,-1.749023982153691,-0.275213234008892,1.8533151366070564
197,1791286374.620974,0.08531059570312502,-1.67383125,-0.14504238281250095,1.6822681843355753,0.5482020234425745,-1.782746325614848,-0.2789726998988388,1.8858779619287729
198,1791286374.631154,0.11884086914062501,-1.8127423828125,-0.21689296875000097,1.8295356401327711,0.5485851690132884,-1.7999983044484995,-0.2808755713522175,1.9025852596562516
199,1791286374.651154,-0.0057001464843749895,-1.7744220703125,-0.14025234375000095,1.7799654196667447,0.5493947100666514,-1.8341888162897828,-0.28458897004870604,1.9357360468630835
200,1791286374.6762273,0.003879931640625011,-1.6690412109375001,-0.10193203125000096,1.6721554224030744,0.5502539469247464,-1.8770981886170548,-0.2890014534319874,1.9773211312028935
201,1791286374.6962273,0.13321098632812503,-1.6690412109375001,-0.19294277343750096,1.6854289200402324,0.5510421557449316,-1.9111983637765964,-0.29243548055905444,2.010434070891201
202,1791286374.7208252,0.13321098632812503,-1.8031623046875,-0.23605312500000097,1.8234200124345226,0.5523576641855548,-1.9532527273961513,-0.29681687973483867,2.0514374146828245
203,1791286374.7408252,-0.010490185546874989,-1.80795234375,-0.18815273437500096,1.8177467295299188,0.5534509137749419,-1.9877338260162842,-0.30048124176525254,2.085109746200531
204,1791286374.7513745,-0.139821240234375,-1.67383125,-0.09235195312500097,1.682197941962611,0.5538221417202921,-2.0059480678763664,-0.30234607846449557,2.1028456355233107
205,1791286374.7713745,0.09010063476562502,-1.6498810546875,-0.11630214843750096,1.6564274233219771,0.554345786826445,-2.0402854951802447,-0.30566420402081834,2.1362337790688564
206,1791286374.7966897,0.21464165039062502,-1.76963203125,-0.18336269531250096,1.7920073778142427,0.5554877747533293,-2.083721600802858,-0.3098031349506786,2.1786326812884496
207,1791286374.8166897,0.10926079101562501,-1.760051953125,-0.23126308593750097,1.7785396855481814,0.5567405075843155,-2.1181847879838847,-0.31320449105527826,2.2124113184597416
208,1791286374.8410056,-0.01528022460937499,-1.6355109375,-0.21210292968750097,1.6492777706403077,0.5582065028620768,-2.159992316186728,-0.3175280949409562,2.2534385718053302
209,1791286374.8610055,0.003879931640625011,-1.7025714843750002,-0.18336269531250096,1.7124212657254325,0.5592143270172132,-2.1942284263394307,-0.321144063729129,2.2870270134315835
210,1791286374.8707945,0.032620166015625014,-1.7792121093750002,-0.22647304687500097,1.7938645005513574,0.5596604120243408,-2.2110279957639074,-0.3229493150143484,2.3035105458641283
211,1791286374.8907945,0.027830126953125013,-1.798372265625,-0.21689296875000097,1.8116180286220966,0.5605257779095351,-2.2455692266423695,-0.3267494409259562,2.3374206930909387
212,1791286374.9168775,-0.06797065429687499,-1.7025714843750002,-0.13546230468750098,1.7093038656844155,0.5614065365511322,-2.2907077882721127,-0.3316512738152181,2.381703599937681
213,1791286374.9368775,-0.07276069335937499,-1.7073615234375001,-0.06361171875000096,1.7100947169602294,0.5617694874594634,-2.3252424212399028,-0.3351447280819251,2.4155039356902694
214,1791286374.961472,0.013460009765625012,-1.721731640625,-0.14504238281250095,1.7278826079928211,0.5620394833544606,-2.367665682598955,-0.33918120959807674,2.456984545810278
215,1791286374.981472,0.07573051757812502,-1.721731640625,-0.24084316406250098,1.7401437823632684,0.5623598927496812,-2.4021542345287705,-0.34255009179985374,2.490769796835915
216,1791286374.9909928,-0.02965034179687499,-1.7025714843750002,-0.283953515625001,1.7263424924421458,0.562522444891628,-2.4185545932537695,-0.3442879880609123,2.506864982458926
217,1791286375.0109928,-0.111081005859375,-1.7121515625000001,-0.264793359375001,1.7360637908795349,0.5626015960275988,-2.4529606340292194,-0.34821424010769053,2.540627793472237
218,1791286375.0367398,-0.0057001464843749895,-1.7504718750000001,-0.22168300781250097,1.7644624203390553,0.5624626993902868,-2.4972959111138184,-0.3534499460773098,2.584139706024668
219,1791286375.0567398,0.032620166015625014,-1.7552619140625,-0.19773281250000097,1.7666654259730106,0.5624113702495733,-2.5318277119151706,-0.3575360430882372,2.6180699254058903
220,1791286375.0808682,-0.03444038085937499,-1.7169416015625,-0.18815273437500096,1.727563618065202,0.5623554403714753,-2.5735220901976374,-0.362424481433757,2.6590620705040227
221,1791286375.1008682,0.003879931640625011,-1.7073615234375001,-0.17857265625000096,1.7166789505159485,0.5622701936654863,-2.6080348213260582,-0.36641877768853864,2.693001322052522
222,1791286375.1114984,0.061360400390625014,-1.7169416015625,-0.16899257812500096,1.7263290686811235,0.5622836943189515,-2.6263570763611077,-0.368500424590705,2.711034306011741
223,1791286375.1314983,-0.02007026367187499,-1.7552619140625,-0.14504238281250095,1.7613587071502892,0.5623672200638984,-2.660866807228448,-0.37230050087817185,2.745009420560638
224,1791286375.1566694,-0.07755073242187499,-1.7504718750000001,-0.13067226562500098,1.7570546782239749,0.5622722817630351,-2.7044025146001682,-0.3768862114295744,2.7878282400787286
225,1791286375.1766694,0.07573051757812502,-1.7073615234375001,-0.20252285156250097,1.7209979629309498,0.5622054321427786,-2.738992346621319,-0.38048309458791785,2.821864881252858
226,1791286375.2018468,0.09010063476562502,-1.721731640625,-0.21689296875000097,1.7376767612555597,0.5624470408905419,-2.782480178337986,-0.3851239048282468,2.8647623005618588
227,1791286375.2218468,0.013460009765625012,-1.7792121093750002,-0.20252285156250097,1.790751911185504,0.5627655173761572,-2.8170948322047535,-0.3888865307015557,2.8989586155968965
228,1791286375.2469933,-0.08234077148437499,-1.7073615234375001,-0.15941250000000096,1.716763151841195,0.5629759734945781,-2.860664063923871,-0.39359035420231603,2.9419813392132026
229,1791286375.2669933,-0.02007026367187499,-1.6642511718750002,-0.15462246093750096,1.671539076419555,0.5629646334617641,-2.8951759427048382,-0.39724137052110975,2.9760332028052168
230,1791286375.276017,0.013460009765625012,-1.760051953125,-0.15462246093750096,1.7668820433148296,0.5629558108345732,-2.9107289444155007,-0.3988508470934842,2.9913783162679004
231,1791286375.296017,-0.0009101074218749891,-1.76963203125,-0.21210292968750097,1.78229795688138,0.5629580144307351,-2.9453242800827044,-0.40243308084451423,3.02552627247137
232,1791286375.3213253,-0.08234077148437499,-1.67383125,-0.18815273437500096,1.6863844483325843,0.5628023638265491,-2.98907139090226,-0.40704589214061476,3.068709930727841
233,1791286375.3413253,-0.06797065429687499,-1.6882013671875,-0.16420253906250096,1.6975294812915214,0.5624723442317486,-3.023499976534737,-0.4106729139168369,3.102672958652919
234,1791286375.36597,-0.02486030273437499,-1.7456818359375001,-0.16899257812500096,1.7540186995683655,0.5619550989498916,-3.06590738026405,-0.41508770573191967,3.144499865009242
235,1791286375.3859699,-0.02965034179687499,-1.7504718750000001,-0.19773281250000097,1.7618539079826818,0.561516534546491,-3.1004044558572392,-0.4186831398958433,3.178538057047857
236,1791286375.3968818,-0.144611279296875,-1.721731640625,-0.15462246093750096,1.7346989277265095,0.5611705318681567,-3.1192443852949348,-0.42063891710962203,3.19711354187153
237,1791286375.4168818,-0.135031201171875,-1.69299140625,-0.14504238281250095,1.7045499757232698,0.5602120224110246,-3.153717657356975,-0.42413536767519966,3.2310467936091536
238,1791286375.4415095,-0.111081005859375,-1.7025714843750002,-0.20731289062500097,1.7187400280114837,0.5587541839470315,-3.1960719243271285,-0.428445851395963,3.2727126105310314
239,1791286375.4615095,-0.16856147460937498,-1.7361017578125,-0.19773281250000097,1.755437423932081,0.5573284047788738,-3.230466206892936,-0.4320288574500496,3.3065353163576208
240,1791286375.4866152,-0.273942333984375,-1.6786212890625,-0.13067226562500098,1.7058396980508534,0.5549739040275553,-3.27359437618408,-0.43647026635802666,3.3488688340020527
241,1791286375.5066152,-0.182931591796875,-1.7025714843750002,-0.11630214843750096,1.716315768270923,0.5526942765255516,-3.307869797393882,-0.43984816557518847,3.382445855970884
242,1791286375.5162942,-0.07276069335937499,-1.7408917968750002,-0.15941250000000096,1.7496887472007856,0.5515709111636848,-3.3244690940809605,-0.4414378522178129,3.3987045480465192
243,1791286375.5362942,-0.096710888671875,-1.7552619140625,-0.18336269531250096,1.7674612473766773,0.5493436658102022,-3.358867722966728,-0.444744082546344,3.432428898391556
244,1791286375.5611124,-0.182931591796875,-1.67383125,-0.15462246093750096,1.6908823513716944,0.5464739095496172,-3.4015332827923346,-0.4488605207609672,3.4742680056179096
245,1791286375.5811124,-0.187721630859375,-1.7121515625000001,-0.14025234375000095,1.7281125841770448,0.5439522016553947,-3.4358373511519904,-0.45212251462179126,3.5078878359327295
246,1791286375.6061602,-0.101500927734375,-1.7887921875000001,-0.16420253906250096,1.7991782574904984,0.5407244351433026,-3.4789319317525136,-0.45616695414969993,3.5501321933959775
247,1791286375.6261601,-0.07755073242187499,-1.7792121093750002,-0.18336269531250096,1.790316096190299,0.5382651655450966,-3.5135323215079373,-0.4594332716739004,3.5840923110100316
248,1791286375.6359887,-0.216461865234375,-1.73131171875,-0.15941250000000096,1.7520583185893313,0.5370211637321682,-3.530573163145414,-0.461050334107899,3.600820184513505
249,1791286375.6559887,-0.259572216796875,-1.76963203125,-0.13546230468750098,1.7936904130172784,0.5341554253008782,-3.5652992689728586,-0.46428959826157445,3.634865296922385
250,1791286375.681081,-0.130241162109375,-1.7504718750000001,-0.18336269531250096,1.7648615876339655,0.5303657255902304,-3.608956686540648,-0.4683440407211339,3.67766261485285
251,1791286375.701081,-0.08713081054687499,-1.73131171875,-0.20731289062500097,1.7458552861697696,0.5274721603414743,-3.6437570966111226,-0.4716769233795344,3.7118286300808667
252,1791286375.7257826,-0.158981396484375,-1.7073615234375001,-0.17378261718750096,1.7235309263774412,0.5239784888290101,-3.686661775021682,-0.47588187128373693,3.7539968108108543
253,1791286375.7457826,-0.245202099609375,-1.6786212890625,-0.13067226562500098,1.7014607673262012,0.5209678205061238,-3.7212683448752495,-0.4792324572021975,3.7879954214082066
254,1791286375.756747,-0.197301708984375,-1.6690412109375001,-0.18336269531250096,1.690635503651848,0.5192010037402551,-3.7401474442315954,-0.48105202748152437,3.806531707476126
255,1791286375.776747,-0.106290966796875,-1.7408917968750002,-0.19294277343750096,1.75477318530659,0.5160062154796895,-3.774533851201529,-0.4844376776657771,3.840318746122792
256,1791286375.8010979,-0.139821240234375,-1.7648419921875,-0.13067226562500098,1.7751880119053849,0.5122504074356374,-3.816523384533738,-0.48853255595385214,3.8816124591254133
257,1791286375.8210979,-0.197301708984375,-1.7408917968750002,-0.11630214843750096,1.7558924803432585,0.5091226962111004,-3.8510959655564276,-0.4917617582610787,3.915606681296052
258,1791286375.846545,-0.144611279296875,-1.6882013671875,-0.15462246093750096,1.7014242221444926,0.5050875109826672,-3.895030895988286,-0.4957712227189351,3.958808934481456
259,1791286375.866545,-0.111081005859375,-1.7121515625000001,-0.18815273437500096,1.7260369098853918,0.5020082629166609,-3.929482199922093,-0.4989639122360577,3.992719329135857
260,1791286375.8761075,-0.096710888671875,-1.7840021484375002,-0.18815273437500096,1.7965016318027962,0.5006078114318671,-3.94599082308229,-0.5005313227753642,4.008987822605041
261,1791286375.8961074,-0.163771435546875,-1.7935822265625,-0.19294277343750096,1.8113490001553356,0.49772739717760633,-3.9807058533495403,-0.5038894726831358,4.043223497838498
262,1791286375.9218445,-0.17814155273437499,-1.7456818359375001,-0.17857265625000096,1.763810556350346,0.49391673917099993,-4.025509805854779,-0.5082798311105692,4.087423556346966
263,1791286375.9418445,-0.139821240234375,-1.721731640625,-0.16899257812500096,1.7356463674986526,0.49092275749337816,-4.06030508785371,-0.5117011234944137,4.121761832039919
264,1791286375.9659474,-0.07755073242187499,-1.7456818359375001,-0.17857265625000096,1.7565043074189917,0.48746284893924496,-4.102216627625547,-0.5158341114936354,4.163158190562053
265,1791286375.9859474,-0.144611279296875,-1.7456818359375001,-0.14983242187500095,1.7580578059514789,0.4846893054765638,-4.13701420734962,-0.5192417476395749,4.197549555055635
266,1791286376.0111794,-0.245202099609375,-1.6786212890625,-0.13067226562500098,1.7014607673262012,0.4809773714588625,-4.180810059797356,-0.5234268036051078,4.240812139990465
267,1791286376.0311794,-0.154191357421875,-1.6977814453125,-0.14983242187500095,1.711340575512639,0.4778773851087476,-4.215381892740224,-0.526667220486021,4.274949082500866
268,1791286376.0417347,-0.02007026367187499,-1.7169416015625,-0.22168300781250097,1.7313100919860251,0.47634878008483694,-4.233594041032867,-0.52841497754745,4.292953418458414
269,1791286376.0617347,-0.02486030273437499,-1.7504718750000001,-0.24563320312500098,1.767796789875892,0.47381946080653947,-4.268127073321443,-0.5319308341129279,4.327165816991364
270,1791286376.0862346,-0.182931591796875,-1.7121515625000001,-0.15462246093750096,1.7288247585209149,0.4708040001365833,-4.310447013549023,-0.5363271738691386,4.36912539309514
271,1791286376.1062346,-0.17335151367187498,-1.6977814453125,-0.09235195312500097,1.7091054580059517,0.46817720839661137,-4.344926864683778,-0.5397481669904853,4.403283711241241
272,1791286376.131885,-0.0057001464843749895,-1.760051953125,-0.15462246093750096,1.7668399686432952,0.4649691609986678,-4.389167119772728,-0.5439526798653048,4.4471191623236805
273,1791286376.151885,-0.08713081054687499,-1.7792121093750002,-0.16899257812500096,1.7893423372162542,0.46270376701480287,-4.423796436626889,-0.5472246615687615,4.4814645506744215
274,1791286376.1617377,-0.245202099609375,-1.73131171875,-0.14504238281250095,1.7545944346047189,0.4615095836940117,-4.440891141695871,-0.5488268201040082,4.498412620769659
275,1791286376.1817377,-0.16856147460937498,-1.7025714843750002,-0.19294277343750096,1.7217402661119166,0.4588284677148806,-4.4755375566277715,-0.5520981983289882,4.532744467115854
276,1791286376.206358,-0.101500927734375,-1.7504718750000001,-0.255213281250001,1.7718882702990466,0.455524369576691,-4.518166422063249,-0.5563487792104312,4.575025052703755
277,1791286376.226358,-0.154191357421875,-1.7361017578125,-0.255213281250001,1.7615215318325361,0.45285939598519515,-4.55283093839771,-0.5600493875163564,4.609447526832352
278,1791286376.2509305,-0.182931591796875,-1.7025714843750002,-0.20252285156250097,1.7243054056892697,0.4494549662452589,-4.5953696623705484,-0.5647576524246664,4.6517075688923475
279,1791286376.2709305,-0.135031201171875,-1.67383125,-0.20252285156250097,1.6914372539859375,0.446622747740465,-4.629863678896363,-0.5686225229137208,4.685983476019498
280,1791286376.2819576,-0.101500927734375,-1.7169416015625,-0.22647304687500097,1.7347855609463056,0.4450998028754467,-4.648833650917669,-0.5707885960582901,4.704845137707984
281,1791286376.3019576,-0.144611279296875,-1.7744220703125,-0.24084316406250098,1.7965220664905885,0.44238277887050476,-4.68331584963373,-0.5748289078834139,4.7391537370938
282,1791286376.3260853,-0.245202099609375,-1.798372265625,-0.11630214843750096,1.8187339181840811,0.43889126508750465,-4.725140155566426,-0.5796182441248487,4.780746002585663
283,1791286376.3460853,-0.269152294921875,-1.7504718750000001,0.022608984374999044,1.7711877114530228,0.43565967280380924,-4.759932113707091,-0.5831332688697374,4.815267125183221
284,1791286376.371047,-0.154191357421875,-1.67383125,0.017818945312499043,1.6810126540250114,0.4314388079768177,-4.803252721183829,-0.5867865798570466,4.858157535412849
285,1791286376.391047,-0.06318061523437499,-1.7169416015625,-0.17378261718750096,1.7268701894913625,0.42823816226183653,-4.83784204768791,-0.5895085849587395,4.892404723010413
286,1791286376.4016118,-0.115871044921875,-1.7648419921875,-0.293533593750001,1.7928344394001978,0.4266591841799003,-4.856131641563463,-0.591101060590457,4.9105450861864695
287,1791286376.4216118,-0.240412060546875,-1.80795234375,-0.22168300781250097,1.837289577633398,0.4235840028533062,-4.890920886204054,-0.5944363610424699,4.9450869668702175
288,1791286376.4469893,-0.154191357421875,-1.80795234375,-0.16420253906250096,1.8219300551363906,0.4195162265523728,-4.935324861911061,-0.5987680947594941,4.989183158417828
289,1791286376.4669893,-0.01528022460937499,-1.7361017578125,-0.12588222656250098,1.7407266108462003,0.41653708203519463,-4.97038644132628,-0.6021049796725954,5.024019797271609
290,1791286376.4918616,-0.06797065429687499,-1.7073615234375001,-0.10672207031250096,1.7120435105020413,0.41323260808205653,-5.013872635987487,-0.6060662189162632,5.067247404656483
291,1791286376.5118616,-0.130241162109375,-1.7121515625000001,-0.11630214843750096,1.7210322260230837,0.41067671395795236,-5.048724303348803,-0.6091082244707491,5.101890363750486
292,1791286376.5211222,-0.096710888671875,-1.7025714843750002,-0.14983242187500095,1.7118856299529834,0.40951314043725157,-5.064812852251428,-0.6104903350311272,5.117883223529866
293,1791286376.5411222,-0.06318061523437499,-1.6977814453125,-0.15462246093750096,1.7059782330426037,0.40713730631666634,-5.099447474182952,-0.6134841871864819,5.152328422769024
294,1791286376.566688,-0.101500927734375,-1.760051953125,-0.13067226562500098,1.7678123647699824,0.4042400763517548,-5.14370991656899,-0.6172841932765735,5.196364259788583
295,1791286376.586688,-0.17335151367187498,-1.7456818359375001,-0.09235195312500097,1.7566971004872904,0.401901289163659,-5.178400759961625,-0.620145537897371,5.230864131783253
296,1791286376.611595,-0.230831982421875,-1.7025714843750002,-0.06840175781250096,1.7195091927604063,0.39867056097862297,-5.221563905066911,-0.6234746850504509,5.273745207514994
297,1791286376.631595,-0.187721630859375,-1.7025714843750002,-0.03966152343750096,1.7133482152034296,0.3958376239479889,-5.256132267790666,-0.6259090620922456,5.308048228403001
298,1791286376.6560917,-0.249992138671875,-1.7265216796875,0.08008945312499904,1.7463640801191904,0.39208401768943424,-5.298422033413561,-0.6283692512827067,5.349939610598177
299,1791286376.6760917,-0.326632763671875,-1.7121515625000001,0.13756992187499906,1.7484500046269016,0.38861419963223304,-5.33292777004032,-0.6297500543830739,5.384024956073152
300,1791286376.6859677,-0.115871044921875,-1.7169416015625,-0.06840175781250096,1.7222059582695475,0.38683004662636844,-5.349950828060186,-0.6302783872468559,5.400820511095081
301,1791286376.7059677,0.05178032226562501,-1.88459296875,-0.41807460937500096,1.9311028555309866,0.38366277526983744,-5.384655609091078,-0.6319175420166667,5.435166320689014
302,1791286376.7466285,-0.130241162109375,-2.066614453125,-0.43723476562500097,2.116372438500344,0.3779501798861293,-5.456677990222495,-0.637358466888666,5.506760103978494
303,1791286376.7666285,-0.38890327148437503,-2.0330841796875,-0.19294277343750096,2.0789189378349024,0.3747830729478896,-5.492939521260348,-0.6405785400300965,5.5428501514959985
304,1791286376.7764738,-0.273942333984375,-2.0905646484375002,-0.010921289062500958,2.1084648980242005,0.37296843859514245,-5.511157087978848,-0.6420764273665965,5.560954957841993
305,1791286376.7964737,-0.04402045898437499,-2.2055255859375,-0.006131250000000959,2.2059733686653407,0.3693581327566649,-5.549057820601424,-0.644688435427282,5.5985794006502205
306,1791286376.8065088,-0.08713081054687499,-2.3492267578125,-0.02050136718750096,2.3509313992172003,0.3677196670492108,-5.568650119383718,-0.6458224739446233,5.618021766912178
307,1791286376.8265088,-0.235622021484375,-2.34443671875,0.008238867187499043,2.356261688387812,0.36445987458538454,-5.608881190904033,-0.6477620000554575,5.657912585271682
308,1791286376.851019,-0.144611279296875,-2.258216015625,0.07050937499999904,2.2639398329655362,0.3603652389122949,-5.6592500570483875,-0.6496376099978156,5.707801970806465
309,1791286376.871019,-0.120661083984375,-2.0714044921875,0.09924960937499905,2.077288172691485,0.35712733369557653,-5.700679807429765,-0.6506838754661366,5.748798109614009
310,1791286376.8968234,-0.211671826171875,-2.0139240234375,0.13277988281249906,2.0293657707405353,0.3529331684517053,-5.754022025596332,-0.6513822518992605,5.801519639760812
311,1791286376.9168234,-0.259572216796875,-1.9564435546875,0.23337070312499905,1.9873376672040817,0.3494631924859391,-5.795119354824338,-0.6512931160245924,5.842064325436954
312,1791286376.9262638,-0.302682568359375,-1.84627265625,0.25253085937499903,1.8878854025977672,0.3476728803724584,-5.8143007996677225,-0.6509133193915454,5.860943470988652
313,1791286376.9462638,-0.393693310546875,-1.5492902343750001,0.19026035156249904,1.609811682923126,0.3434043857475976,-5.853935418058592,-0.6495652086377465,5.899866219773472
314,1791286376.9715705,-0.527814404296875,-1.3528986328125001,0.14235996093749906,1.4591741207022977,0.3370644427076781,-5.902072232977859,-0.6474839529712061,5.947041663817507
315,1791286376.9915705,-0.709835888671875,-1.4247492187500002,0.16631015624999906,1.600448809942769,0.3309490604563034,-5.93857499984594,-0.6456228477233684,5.982727569504945
316,1791286377.016301,-0.843956982421875,-1.491809765625,0.17110019531249904,1.7225083575497477,0.32163957024668466,-5.982350630606476,-0.643040919515145,6.02540228572641
317,1791286377.036301,-0.934967724609375,-1.4055890625,0.12319980468749905,1.6926380152164546,0.312571738032958,-6.016788582924823,-0.6408246236066085,6.058886212931548
318,1791286377.0610723,-1.0403485839843751,-1.1612970703125,0.04176914062499904,1.559705332049372,0.29935537672798407,-6.057813348185916,-0.6381848454855241,6.098688063841501
319,1791286377.0810723,-1.2750604980468752,-1.0559162109375,0.022608984374999044,1.6556719132650106,0.2868122317511377,-6.089293362184217,-0.6362766693915183,6.129160049063396
320,1791286377.1058784,-1.524142529296875,-0.993645703125,-0.03966152343750096,1.8198668273782108,0.2683807517351848,-6.126294497231837,-0.6342966868739022,6.164888059137346
321,1791286377.1258783,-1.5145624511718752,-0.7780939453125,-0.11630214843750096,1.706709054280462,0.2511912959093974,-6.154309603232068,-0.6331737168972575,6.191892498690896
322,1791286377.1362422,-1.255900341796875,-0.591282421875,-0.11151210937500096,1.3926002734026497,0.24146653986615546,-6.16771360858602,-0.6328561674630918,6.204796868238975
323,1791286377.1562421,-1.021188427734375,-0.380520703125,-0.03966152343750096,1.0905021076947685,0.22209919144279566,-6.1911581791716035,-0.6325620447896328,6.227351153650437
324,1791286377.1652968,-0.982868115234375,-0.08353828125,-0.02529140625000096,0.9867360496144242,0.21328522767213082,-6.200495341980605,-0.6324929689934096,6.23631946183744
325,1791286377.1852968,-1.179259716796875,0.007472460937500011,-0.16899257812500096,1.1913302685626865,0.19349396012567202,-6.218139817491157,-0.6326547059668456,6.253235536860584
326,1791286377.2105565,-1.188839794921875,0.07932304687500001,-0.24084316406250098,1.2155811916244246,0.1677609318625566,-6.236917429816626,-0.6336047626390935,6.271262851439793
327,1791286377.2305565,-0.867907177734375,0.11764335937500002,-0.283953515625001,0.9207238609939905,0.147357299545469,-6.249259449878465,-0.6350313519441602,6.2831697942660005
328,1791286377.255625,-0.743366162109375,0.4481560546875,-0.293533593750001,0.9162963881747421,0.1225895827320971,-6.261345019109407,-0.6376370150932126,6.294922606127703
329,1791286377.275625,-0.7337860839843751,0.7882488281250001,-0.19294277343750096,1.0940773034440094,0.10357786057784638,-6.267686129483604,-0.6401337350832609,6.301141879827393
330,1791286377.3012705,-0.8726972167968751,0.9032097656250001,-0.10672207031250096,1.2604673392108048,0.07976639827576815,-6.271344152891622,-0.6434313754539635,6.304769948001307
331,1791286377.3212705,-0.767316357421875,0.7307683593750001,-0.10193203125000096,1.064512529952351,0.06152214674893489,-6.271318032636575,-0.6459303088120434,6.304795064461279
332,1791286377.3308165,-0.5326044433593751,0.855309375,-0.16899257812500096,1.021655573816526,0.05318964111260012,-6.270171878173096,-0.647138113260344,6.303703059106494
333,1791286377.3508165,-0.38890327148437503,1.18103203125,-0.355804101562501,1.2933209083976216,0.03696851169004761,-6.265076249909699,-0.6500762154278868,6.298821014595048
334,1791286377.3764613,-0.5326044433593751,1.3917937500000002,-0.513875390625001,1.5763328495959255,0.01751664568199898,-6.2545740373077825,-0.6549511705817269,6.288796725677091
335,1791286377.3964612,-0.6906757324218751,1.1762419921875,-0.509085351562501,1.4559347810658374,0.0027870399445167216,-6.243760046205096,-0.6597172293427663,6.278516871433126
336,1791286377.4209476,-0.748156201171875,0.8936296875,-0.46597500000000097,1.2551670886213835,-0.015183978056960418,-6.22870499921795,-0.6664677901594798,6.264277758512339
337,1791286377.4409475,-0.403273388671875,0.8600994140625,-0.451604882812501,1.05183049882652,-0.029387769905730013,-6.215622215627872,-0.6725308368885734,6.251969361328701
338,1791286377.4505014,-0.206881787109375,1.2912029296875,-0.360594140625001,1.3564782393109869,-0.035592301856818,-6.208768561068394,-0.6755746613597811,6.245516390174165
339,1791286377.4705014,-0.307472607421875,1.5307048828125,-0.21210292968750097,1.575621939223638,-0.04740401943077325,-6.1923404843701455,-0.681849810175072,6.229947590394599
340,1791286377.49647,-0.427223583984375,1.305573046875,-0.12588222656250098,1.3794518137300984,-0.06187111746512823,-6.168685347123104,-0.6894337430099131,6.207400891918318
341,1791286377.51647,-0.187721630859375,1.1283416015625,-0.18336269531250096,1.1584541676481621,-0.07226423710559067,-6.149548942306083,-0.6948623356326458,6.18910397224535
342,1791286377.540986,0.20506157226562502,1.0229607421875,-0.23605312500000097,1.0696821987390073,-0.08306131415944132,-6.125654426427376,-0.7012897621059642,6.166226452568364
343,1791286377.560986,0.09968071289062502,1.2289324218750002,-0.22168300781250097,1.252738798796754,-0.09009112170366966,-6.105707629549906,-0.7064332784812266,6.147099319573378
344,1791286377.5710378,-0.0009101074218749891,1.29599296875,-0.13067226562500098,1.3025643340536117,-0.09301978603409446,-6.095282891902087,-0.7088962160282001,6.137072596768528
345,1791286377.5910378,-0.01528022460937499,1.06607109375,-0.12109218750000096,1.0730351252717543,-0.0979971750578118,-6.074108961640423,-0.7134393054740545,6.116649308796043
346,1791286377.6160553,0.22422172851562502,0.673287890625,-0.21210292968750097,0.7406616096321029,-0.10289731830512502,-6.048332310230874,-0.7188948996863744,6.09177490308795
347,1791286377.6360552,0.478093798828125,0.577487109375,-0.29832363281250096,0.8068841502140496,-0.10517360942499437,-6.028940304315938,-0.7233677442938538,6.073091764053085
348,1791286377.660904,0.554734423828125,0.47689628906250003,-0.29832363281250096,0.7900362911891791,-0.10565270100392289,-6.006495970078948,-0.729203327752225,6.051519959895116
349,1791286377.680904,0.645745166015625,0.47689628906250003,-0.21210292968750097,0.8303038857768592,-0.10417974894252771,-5.989710220751684,-0.7339613216328955,6.035410604948103
350,1791286377.6913934,0.923567431640625,0.4002556640625,-0.26000332031250095,1.0396071969618614,-0.10228850945248871,-5.981537025414186,-0.7364538584579621,6.027571020834546
351,1791286377.7113934,1.129539111328125,0.1272234375,-0.293533593750001,1.1739703478917334,-0.09614377305684005,-5.967499735953784,-0.7413237485106989,6.0141381447229865
352,1791286377.7363024,1.124749072265625,-0.05479804687499999,-0.15941250000000096,1.1373107080564875,-0.08542733599687673,-5.952504075921629,-0.7473253645684268,5.999841481583197
353,1791286377.7563024,1.321140673828125,-0.169758984375,-0.13546230468750098,1.3388729696316648,-0.0744447181377386,-5.94260662722715,-0.751863677635517,5.9904436005833706
354,1791286377.7814388,1.474421923828125,-0.2895099609375,-0.20731289062500097,1.5168106874512575,-0.05744168287394638,-5.932899002648674,-0.7573581740500506,5.981319380066697
355,1791286377.8014388,1.4265215332031251,-0.4427912109375,-0.20731289062500097,1.5079808937101908,-0.04159099152221511,-5.9274321140239925,-0.7616960812770025,5.976316775169426
356,1791286377.8111682,1.335510791015625,-0.3853107421875,-0.16420253906250096,1.3996484968729952,-0.03302127640679599,-5.925775828780526,-0.7637608990200605,5.974884123439298
357,1791286377.8311682,1.560642626953125,-0.572122265625,-0.27916347656250096,1.6854855509714393,-0.013703338066269909,-5.92431797887461,-0.7680337671018437,5.973910541990042
358,1791286377.8561425,1.752244189453125,-0.7780939453125,-0.33664394531250097,1.9465659590981697,0.01300621751629846,-5.925299658878674,-0.7737224891855948,5.975616428409153
359,1791286377.8761425,1.8288848144531251,-0.88826484375,-0.31748378906250097,2.0578216767973205,0.03655904301300554,-5.928467422148668,-0.7785759807546174,5.979485186611981
360,1791286377.9007046,1.766614306640625,-1.1325568359375,-0.32706386718750097,2.1238130492761695,0.06776910944512325,-5.935496896988845,-0.7848298567630752,5.987543233282406
361,1791286377.9207046,1.919895556640625,-1.4247492187500002,-0.365384179687501,2.41855636351586,0.09490004239532354,-5.944198106559606,-0.7901969729794425,5.997241733011878
362,1791286377.9310808,2.020486376953125,-1.357688671875,-0.25042324218750095,2.4471198436976,0.10993096925877174,-5.950200587145156,-0.7930430464481651,6.003822875367371
363,1791286377.9510808,1.9821660644531252,-1.1325568359375,-0.07798183593750097,2.2842391425668493,0.14056102342564528,-5.9637701806867085,-0.7981985487759997,6.018590623445206
364,1791286377.9762363,2.0348564941406253,-1.2331476562500001,-0.14025234375000095,2.3834774624041475,0.18088675038614296,-5.982740885056644,-0.8041220913519695,6.039248368132733
365,1791286377.9962363,2.135447314453125,-1.4199591796875,-0.23126308593750097,2.5748595922304576,0.21439411314670195,-5.999540843200019,-0.8086824627106473,6.057592136358547
366,1791286378.0207307,2.063596728515625,-1.2570978515625,-0.15462246093750096,2.421287792016846,0.2569897095917215,-6.021947794582863,-0.8141387732972376,6.0821641620153075
367,1791286378.0407307,1.967795947265625,-1.0223859375,-0.09714199218750097,2.2196689982785562,0.29259963848196535,-6.040918231223934,-0.8183032915264719,6.1031080525988175
368,1791286378.0657551,2.0348564941406253,-1.0319660156250001,-0.18336269531250096,2.288933526160924,0.3379844752278205,-6.064949694619687,-0.8232588773718164,6.129894247287955
369,1791286378.085755,1.9869561035156251,-1.0559162109375,-0.27916347656250096,2.26735216683802,0.37484873899008575,-6.0844069516882415,-0.8273191735240887,6.151827090040425
370,1791286378.0963051,1.7761943847656252,-0.9313751953125,-0.255213281250001,2.0217467857876583,0.3943554027505457,-6.094703573565373,-0.8295625408619165,6.163529982283719
371,1791286378.116305,1.6612334472656252,-1.0080158203125,-0.10193203125000096,1.9458115528768622,0.4309439824463624,-6.114204319673072,-0.8337131520062264,6.18581318813814
372,1791286378.140197,1.6612334472656252,-1.0942365234375,-0.010921289062500958,1.9892635346010357,0.4740498221644416,-6.1377725439539335,-0.8381299362374531,6.212844503544755
373,1791286378.160197,1.843254931640625,-1.1996173828125,-0.10193203125000096,2.201604130437202,0.509977939800442,-6.157982979776817,-0.841441920454424,6.2360930384177315
374,1791286378.185696,1.7809844238281252,-1.1517169921875001,0.013028906249999042,2.120973196532642,0.5558443942518618,-6.184381814528026,-0.845201146969347,6.266570545148635
375,1791286378.2056959,1.843254931640625,-1.0846564453125,-0.10193203125000096,2.141134859454253,0.5918597138639434,-6.205336359836206,-0.8478407615027062,6.2908927201523515
376,1791286378.216033,2.015696337890625,-0.917005078125,-0.27916347656250096,2.2320085767172078,0.6106740257456036,-6.216094128971066,-0.8492958745786211,6.303495258071125
377,1791286378.236033,2.346209033203125,-0.7493537109375,-0.442024804687501,2.5023216698775497,0.6481581041586368,-6.236285439764568,-0.8527706737782537,6.327604826177303
378,1791286378.2611213,2.331838916015625,-0.75414375,-0.600096093750001,2.523156920931197,0.6969279841502247,-6.260643525550753,-0.8584365719571267,6.357537205332404
379,1791286378.2811213,1.804934619140625,-0.9026349609375001,-0.5809359375000009,2.1000060513146055,0.7361798906357264,-6.279633870729964,-0.8640473636146132,6.381405819125186
380,1791286378.3062477,1.9342656738281252,-1.1038166015625,-0.30790371093750096,2.2482436438348583,0.7851425021511866,-6.303694320584501,-0.8717139946355613,6.411933883353525
381,1791286378.3262477,2.2072979003906252,-0.9026349609375001,-0.384544335937501,2.4155306332309507,0.8244818198506471,-6.322982742752453,-0.8779397321588397,6.436665224299979
382,1791286378.3363314,2.168977587890625,-0.7397736328125001,-0.691106835937501,2.393607625166661,0.8446506151900629,-6.332491037251208,-0.8814213019357264,6.449091479434442
383,1791286378.3563313,2.168977587890625,-1.00322578125,-0.748587304687501,2.504258113229506,0.8851599447123935,-6.3511354878552355,-0.8894503903839526,6.473913199122427
384,1791286378.3810034,2.173767626953125,-1.0319660156250001,-0.619256250000001,2.4846927086781623,0.9356723278228404,-6.374451280202082,-0.9004004510470408,6.505369536080874
385,1791286378.4010034,2.135447314453125,-0.936165234375,-0.432444726562501,2.371402332036717,0.9769411295188831,-6.3934689568894125,-0.9095230162802757,6.53131620658484
386,1791286378.426038,2.063596728515625,-0.8834748046875001,-0.28874355468750096,2.263256951570365,1.028734199739801,-6.417119832609173,-0.9205832945260312,6.5639313373877295
387,1791286378.446038,2.015696337890625,-0.9122150390625,-0.34622402343750097,2.2394282927753517,1.0700236187783472,-6.435873675049881,-0.9290463125475783,6.590033957181239
388,1791286378.4564047,2.015696337890625,-0.9313751953125,-0.43723476562500097,2.263109745748143,1.0913494976077507,-6.445569715574994,-0.9333841248438531,6.6036064850032306
389,1791286378.4764047,1.919895556640625,-0.7780939453125,-0.566565820312501,2.1476559233002765,1.1322245058346985,-6.46403414331107,-0.9420032638107989,6.629708883995896
390,1791286378.5008502,1.871995166015625,-0.725403515625,-0.5234554687500009,2.074748608827407,1.181643139995237,-6.48597404008663,-0.952956460499321,6.661251066772883
391,1791286378.5208502,1.924685595703125,-0.6343927734375,-0.39891445312500096,2.0654301184520465,1.2217050052112846,-6.503271239048875,-0.961957117784451,6.686588175209742
392,1791286378.546446,1.9342656738281252,-0.5817023437500001,-0.384544335937501,2.056121509049411,1.2726933819240123,-6.5244221269100535,-0.9732522753440176,6.718262612161644
393,1791286378.566446,1.7378740722656252,-0.5960724609375,-0.442024804687501,1.8896810835959115,1.3120664420851287,-6.540236533478208,-0.9819940117644648,6.742442028036299
394,1791286378.5753994,1.5893828613281251,-0.46674140625,-0.480345117187501,1.7247367485496679,1.3292828141817417,-6.546967863676492,-0.9859397625523441,6.7529147946256085
395,1791286378.5953994,1.713923876953125,-0.265559765625,-0.475555078125001,1.798390857805753,1.3669270540747567,-6.560847309520582,-0.9948655365705087,6.775172649155199
396,1791286378.620453,1.809724658203125,-0.3278302734375,-0.45639492187500097,1.894959722897511,1.4136306725254,-6.576740781230863,-1.0061206217137817,6.801775480508563
397,1791286378.6404529,1.632493212890625,-0.380520703125,-0.547405664062501,1.763372636934238,1.4504846053284093,-6.588587777883039,-1.0152634280016732,6.822327632516792
398,1791286378.665695,1.479211962890625,-0.1937091796875,-0.499505273437501,1.5732440356301411,1.4959120763646088,-6.60238422292367,-1.0270537043835706,6.847194292483081
399,1791286378.685695,1.431311572265625,0.11285332031250002,-0.470765039062501,1.5109627430253103,1.5308722442694707,-6.611797104080625,-1.0364495961796765,6.86539573070807
400,1791286378.6963093,1.445681689453125,0.2805046875,-0.509085351562501,1.5581547811770913,1.5489335191025548,-6.6157302255315384,-1.041468236763696,6.873989929567739
401,1791286378.7163093,1.3450908691406251,0.26613457031250004,-0.595306054687501,1.4948198401508122,1.5820465581699312,-6.621209543081029,-1.0511626621725259,6.888267566518468
402,1791286378.740791,1.1007988769531252,0.3906755859375,-0.518665429687501,1.2780451513549083,1.6209908714380432,-6.625704652659706,-1.0632948824488364,6.903489665133412
403,1791286378.760791,1.052898486328125,0.6780779296875,-0.43723476562500097,1.326483750941749,1.651264091580483,-6.627222898694059,-1.07315326602032,6.913639734719194
404,1791286378.785885,0.990627978515625,0.83614921875,-0.480345117187501,1.3824690735926295,1.6873964257602263,-6.6259922492545105,-1.0853941398025948,6.923088936563436
405,1791286378.805885,0.846926806640625,0.7834587890625001,-0.331853906250001,1.2005081028710927,1.7146306506201112,-6.622729134546423,-1.0949050325411565,6.92815390186303
406,1791286378.8309717,0.6361650878906251,0.9654802734375001,-0.09714199218750097,1.1602994200179508,1.7464577601854927,-6.6159594307080285,-1.1058525422530203,6.931373871181246
407,1791286378.8509717,0.554734423828125,1.1570818359375001,0.022608984374999044,1.2833860768338134,1.7698117755729266,-6.608188095025631,-1.1133829309106065,6.93108975349751
408,1791286378.8615234,0.530784228515625,1.2049822265625,0.056139257812499045,1.317901999330825,1.7811438749688,-6.602833777772693,-1.1166975938191943,6.929422841498162
409,1791286378.8815234,0.5212041503906251,1.1858220703125,0.14235996093749906,1.3031093995911331,1.8009791671115174,-6.590621155909349,-1.1217401471670942,6.923735562458753
410,1791286378.9057746,0.5212041503906251,1.2145623046875,0.33875156249999905,1.3643928977565134,1.8233189409148511,-6.573667956730739,-1.126062329984443,6.9141607398625995
411,1791286378.9257746,0.36313286132812506,1.3007830078125,0.5543033203124991,1.4598472794438282,1.8403055130564838,-6.558010835904539,-1.1277525771242247,6.904060861582679
412,1791286378.950789,0.252961962890625,1.48759453125,0.6501041015624991,1.6430345665696657,1.859520002509385,-6.536134327239395,-1.127289936170223,6.888370575371243
413,1791286378.970789,0.272122119140625,1.7079363281250002,0.6165738281249991,1.83609918963639,1.8733659464053705,-6.516473587752827,-1.1250755066477716,6.8731159516401465
414,1791286378.996662,0.18111137695312501,1.9905486328125002,0.5064029296874991,2.0619236449610963,1.8894704499707589,-6.4876778115784814,-1.1204614134309279,6.849488721587042
415,1791286379.016662,0.29607231445312504,2.1965203125,0.21900058593749905,2.2271779352471364,1.9007677914465182,-6.4624767660430384,-1.1163415898644728,6.828084848177247
416,1791286379.0264544,0.36313286132812506,2.3498015625,0.08487949218749904,2.379209403625036,1.9059537177395136,-6.448649470520276,-1.1144038008631865,6.816130529793632
417,1791286379.0464544,0.20027153320312502,2.5222429687499996,0.12319980468749905,2.5331791236103656,1.9158016385391607,-6.417337100430965,-1.1107276629586589,6.788683769336928
418,1791286379.0715513,0.032620166015625014,2.56056328125,0.06571933593749904,2.561614222249853,1.9267439821658285,-6.374371533630865,-1.106451028222168,6.750495441034653
419,1791286379.0915513,0.07573051757812502,2.36896171875,-0.08756191406250097,2.3717887395360266,1.9343185674472902,-6.337873494004691,-1.1035869107475047,6.717747599899224
420,1791286379.1014938,0.13321098632812503,2.148619921875,-0.18336269531250096,2.1605403522241624,1.9376750745822804,-6.319082240683684,-1.1025786807453475,6.700825680945261
421,1791286379.1214938,0.157161181640625,2.052819140625,-0.29832363281250096,2.0803276306931777,1.94384967044813,-6.2806503433715175,-1.1015773132205595,6.666227782936636
422,1791286379.1460078,0.147581103515625,1.7941570312500001,-0.34622402343750097,1.8332077649039005,1.9508429208973679,-6.233537444187208,-1.1017190753381711,6.623938563352121
423,1791286379.1660078,0.18111137695312501,1.4349041015625001,-0.255213281250001,1.4686336951292978,1.9561856507039765,-6.19602192135769,-1.1027195398761709,6.590397585395731
424,1791286379.191641,0.41582329101562504,1.008590625,-0.26000332031250095,1.121501575907266,1.963153722534711,-6.150454224775341,-1.1047999677186953,6.550010891443614
425,1791286379.211641,0.5403643066406251,0.6397576171875,-0.34622402343750097,0.9061757373963852,1.9692092158244594,-6.1177612867204765,-1.1070890440363323,6.521536187771179
426,1791286379.221191,0.6553252441406251,0.28529472656250005,-0.413284570312501,0.8256200050087995,1.9725233542395175,-6.1038296688920175,-1.10856209961989,6.50972310767366
427,1791286379.241191,0.7559160644531251,-0.03563789062499999,-0.475555078125001,0.8937739021010719,1.9805398108088201,-6.078655095637131,-1.112517587994062,6.489243491926468
428,1791286379.265906,0.9331475097656251,-0.3182501953125,-0.432444726562501,1.0765945863369126,1.992091181624097,-6.052867795959917,-1.1183555223766017,6.469648746702049
429,1791286379.285906,1.1055889160156251,-0.476321484375,-0.40849453125000096,1.2712500893824812,2.003094727220992,-6.036322230045414,-1.1236324690575947,6.45849243064366
430,1791286379.310977,1.244500048828125,-0.6008625,-0.394124414062501,1.4370630359172019,2.0192380791007967,-6.020718137879867,-1.130764311093942,6.450193581833807
431,1791286379.330977,1.3834111816406252,-0.6727130859375,-0.34622402343750097,1.576781680476126,2.0341263644536203,-6.012047736333973,-1.1367107648474737,6.447829046543021
432,1791286379.3417053,1.5414824707031252,-0.75414375,-0.341433984375001,1.749708023881488,2.0432682112842806,-6.009242504764468,-1.1399753925015503,6.44868082322438
433,1791286379.3617053,1.924685595703125,-0.830784375,-0.451604882812501,2.144426331267019,2.06295348044317,-6.007174770298657,-1.1463380256286206,6.454147244399327
434,1791286379.38671,2.092336962890625,-0.7589337890625,-0.633626367187501,2.314160071311913,2.091406279327274,-6.007958666895247,-1.1551347655755981,6.465592308131766
435,1791286379.40671,2.020486376953125,-0.7924640625,-0.576145898437501,2.245508536188078,2.116919814298666,-6.010818712027936,-1.1629300932019304,6.477939293533872
436,1791286379.4309742,1.9773760253906252,-0.9217951171875001,-0.451604882812501,2.227929342245942,2.150505681493745,-6.016887743386422,-1.1728392365613343,6.496396283899898
437,1791286379.4509742,2.0875469238281252,-1.0175958984375,-0.34622402343750097,2.348025691108669,2.1801338588213333,-6.0240488881135805,-1.1809784839858468,6.51435789839637
438,1791286379.4760058,2.106707080078125,-0.936165234375,-0.39891445312500096,2.3396052676072765,2.2195277320403766,-6.035335146556413,-1.1910362608509277,6.539888459233627
439,1791286379.4960058,1.9869561035156251,-1.0175958984375,-0.413284570312501,2.270308372418427,2.252422247833959,-6.045930755594816,-1.1990852151400118,6.562354001206584
440,1791286379.5067363,1.9821660644531252,-1.127766796875,-0.360594140625001,2.3088673390769707,2.270617991081343,-6.05248941210138,-1.203378723970157,6.5754432929138416
441,1791286379.5267363,2.216877978515625,-1.2762580078125,-0.28874355468750096,2.5742484950965068,2.305743464737845,-6.066486108227575,-1.2111547934735631,6.601939302981618
442,1791286379.5516725,2.1881377441406253,-1.2091974609375,-0.31748378906250097,2.52009945105109,2.3512073982768906,-6.085967995431767,-1.2205295655342079,6.637535317531265
443,1791286379.5716724,2.030066455078125,-1.2570978515625,-0.37017421875000095,2.4162975339687973,2.388529242948527,-6.102949000524134,-1.2279522009045833,6.66775262401997
444,1791286379.59617,1.953425830078125,-1.4055890625,-0.23126308593750097,2.417650864197181,2.434705622462927,-6.125520880951253,-1.2367852702229778,6.706670957760111
445,1791286379.61617,2.039646533203125,-1.4965998046875,-0.09714199218750097,2.5316803752536274,2.472739205890878,-6.1455378588574305,-1.2434075632576422,6.740039845829261
446,1791286379.6259265,2.3174687988281253,-1.4055890625,-0.12109218750000096,2.713117314830864,2.4916982850130918,-6.155961641654766,-1.2463132174801146,6.757049704799252
447,1791286379.6459265,2.236038134765625,-1.1038166015625,-0.21210292968750097,2.502651650308757,2.5315631196767048,-6.177888300375131,-1.2518758647105446,6.792813030068173
448,1791286379.671565,2.0348564941406253,-0.8547345703125,-0.38933437500000095,2.241158939698435,2.5832139417632436,-6.205546565559685,-1.2590936514468427,6.838648935964131
449,1791286379.691565,1.9725859863281252,-0.677503125,-0.422864648437501,2.128126046253144,2.623472828254441,-6.226184081198904,-1.2650977932762926,6.873750818884588
450,1791286379.7161434,1.953425830078125,-0.62002265625,-0.360594140625001,2.0809441852516852,2.6727635736268596,-6.250133446812005,-1.2728138089358731,6.915770977677223
451,1791286379.7361434,1.876785205078125,-0.457161328125,-0.43723476562500097,1.9805285724281545,2.712601590482467,-6.268314170090367,-1.2793474526291422,6.948863204020667
452,1791286379.7466972,1.6947637207031252,-0.3565705078125,-0.413284570312501,1.7804973271846136,2.733297490358161,-6.277113023782168,-1.282951261494707,6.9655600653145475
453,1791286379.7666972,1.761824267578125,-0.667923046875,-0.283953515625001,1.9054594053429157,2.771819055111671,-6.292822842318642,-1.2898020863137374,6.9961553456842775
454,1791286379.791091,1.8240947753906251,-0.6631330078125001,-0.22647304687500097,1.9540617125921778,2.8183163639423343,-6.31154501141195,-1.2978384354788073,7.032986006167672
455,1791286379.811091,1.718713916015625,-0.5817023437500001,-0.283953515625001,1.8365687411218252,2.856034444865368,-6.326459701402394,-1.3042045887706777,7.062717232984511
