imu_index,t_imu,ax,ay,az,mag,vx,vy,vz,velocity
0,1790564264.392436,-0.03306969275841336,0.08792485163762018,-0.028694176307092017,0.09822290908222917,0.0,0.0,0.0,0.0
1,1790564264.412436,-0.03306969275841336,0.07355473445012017,-0.014324059119592017,0.08190898735074875,-0.00014137280171847848,0.0003543232270602926,-0.00010111233150324277,0.0003946579808925363
2,1790564264.4370975,-0.018699575570913358,0.08313481257512018,-0.04306429349459202,0.09547567524045598,-0.0003853012115895694,0.0010155106710810382,-0.00031323622439329897,0.0011304140299040967
3,1790564264.4570975,0.06273108849158665,0.06876469538762017,-0.038274254432092016,0.1006413997688028,-0.0004874016086095837,0.0016991372292151368,-0.000581467669241284,0.0018608418262047405
4,1790564264.4673915,0.06273108849158665,-0.04140620304987983,-0.019114098182092018,0.07755650755198952,-0.0004352071905821858,0.002019341613032414,-0.0007431237555671011,0.0021953083530444973
5,1790564264.4873915,-0.004329458383413357,0.01607426570012017,0.023996253380407985,0.029205246172366185,-0.00026140824271136346,0.002510145975961765,-0.0010027678284588676,0.0027156418040283955
6,1790564264.511906,0.010040658804086644,0.11666508601262018,0.04315640963040798,0.1247959647414119,-6.983276475542501e-05,0.003265549927636012,-0.0011498160566267295,0.0034627691099745
7,1790564264.531906,0.04836097130408665,0.10708500788762018,0.03836637056790799,0.12360404868094088,0.00015062111029121345,0.004125023412657105,-0.0011295052819272958,0.004279519488883803
8,1790564264.5876358,0.06752112755408665,-0.0030858905498798287,0.019206214317907984,0.07026737546747061,0.0011571279057520623,0.006595394162177356,-0.0008407603408580272,0.006748707068432664
9,1790564264.6076357,0.019620736929086644,-0.04140620304987983,0.047946448692907984,0.0663197475184425,0.0015948680376796811,0.007282224426501384,-0.0006519519319592088,0.007483277221721175
10,1790564264.5876358,-0.057019888070913356,0.06397465632512017,0.06231656588040799,0.10595932554836292,0.0015948680376796811,0.007282224426501384,-0.0006519519319592088,0.007483277221721175
11,1790564264.6076357,-0.08097008338341335,0.10708500788762018,0.03836637056790799,0.139625684270347,0.0016564666509812317,0.008063823294575957,-0.00022392838637708807,0.008235245704542413
12,1790564264.6318388,-0.07618004432091335,0.07834477351262017,-0.028694176307092017,0.11298078793946587,0.0014345653294870558,0.009204397850391692,0.00023390720587076536,0.009318456420127734
13,1790564264.6518388,-0.11929039588341336,0.01607426570012017,-0.06222444974459202,0.1355007849196336,0.0009854987251749288,0.010147154202141954,0.00041910844445824263,0.010203509103616497
14,1790564264.6921782,-0.13845055213341337,0.025654343825120173,-0.04306429349459202,0.14724548929367193,-0.0005641791231418183,0.011889691380730939,0.0004180759316616716,0.01191040917419093
15,1790564264.7121782,-0.15761070838341337,0.10708500788762018,0.004836097130407984,0.1906088196985328,-0.0016613406073388178,0.012823145608959863,0.0003602985670750038,0.012935336523632303
16,1790564264.7070851,-0.16719078650841337,0.21246586726262018,-0.019114098182092018,0.27103478115229757,-0.0016613406073388178,0.012823145608959863,0.0003602985670750038,0.012935336523632303
17,1790564264.727085,-0.16719078650841337,0.18372563288762017,-0.04785433255709202,0.2529780710214686,-0.0033697331719093667,0.014499279949587674,0.00019989743687168945,0.014887047379908798
18,1790564264.7522728,-0.12887047400841337,0.08792485163762018,-0.04306429349459202,0.16184224411703832,-0.005757815875456198,0.016806716979082814,-0.000143561238281754,0.017766226079271395
19,1790564264.7722728,-0.057019888070913356,0.06397465632512017,-0.019114098182092018,0.08780303546490507,-0.007648442527726892,0.018591927122296948,-0.0004686396910865519,0.020109153397913197
20,1790564264.7979567,-0.06659996619591337,0.1358252422626202,0.04315640963040798,0.1573102909068057,-0.009950313987947108,0.02092547444518489,-0.0007771717683843049,0.023183792294885566
21,1790564264.8179567,-0.06180992713341336,0.15977543757512017,0.07668668306790799,0.1876952447573373,-0.011666521564391377,0.022913433998309272,-0.0008016225650624958,0.025725003046532406
22,1790564264.8418205,-0.06180992713341336,0.11666508601262018,0.07189664400540799,0.15033408397901757,-0.01362837302244066,0.025424415666305454,-0.0005604887344397816,0.028852168217194708
23,1790564264.8618205,-0.06180992713341336,0.06397465632512017,0.023996253380407985,0.09213600773015862,-0.015211377764858789,0.027484137129977937,-0.0002448716647860939,0.03141375127896838
24,1790564264.8724055,-0.07139000525841337,0.044814500075120174,0.03836637056790799,0.09261128796390465,-0.016029262393459313,0.028497101118069808,-5.337785714624554e-05,0.03269594583748111
25,1790564264.8924055,-0.07139000525841337,0.08313481257512018,0.06710660494290799,0.12849601682410305,-0.01755698288322036,0.030315879703645368,0.0004123770577696871,0.03503527172729455
26,1790564264.9171329,-0.03785973182091336,0.07834477351262017,0.04315640963040798,0.0971274344481661,-0.019365093617815507,0.03252673012707972,0.0011063333858800802,0.037871083918305626
27,1790564264.9371328,-0.10013023963341336,0.01607426570012017,-0.014324059119592017,0.10241887314603891,-0.020815149713388707,0.03418831235482288,0.0016266750059364037,0.04005942124939724
28,1790564264.9623237,-0.15761070838341337,-0.0030858905498798287,-0.04785433255709202,0.16474433301965796,-0.02285454929825691,0.03599176016989765,0.0020662842291013367,0.0426849710585508
29,1790564264.9823236,-0.16240074744591337,0.01607426570012017,-0.014324059119592017,0.1638217429355791,-0.024710850948597755,0.03722829603611096,0.002269686177241002,0.044740626456267786
30,1790564265.0074782,-0.10492027869591336,0.09271489070012018,-0.014324059119592017,0.14074620601929178,-0.02719969575658485,0.03875548182180896,0.00243308994936907,0.047410238843450955
31,1790564265.0274782,-0.09534020057091336,0.16935551570012017,-0.04306429349459202,0.19906174398197157,-0.02918209811466734,0.04018069026198351,0.0024574390941526822,0.04972043571012826
32,1790564265.0368931,-0.10971031775841336,0.18851567195012017,-0.06222444974459202,0.226817976667359,-0.030120114851725218,0.041003664184421966,0.0023928357043934007,0.05093375558446664
33,1790564265.056893,-0.11450035682091336,0.17893559382512017,4.605806790798362e-05,0.2124341793850756,-0.0321501554081147,0.043040838984573726,0.0021829174433257194,0.05376719670790271
34,1790564265.0830894,-0.08576012244591336,0.19330571101262017,-0.0047439809945920165,0.21152872586887514,-0.034803738830569385,0.04604025909683686,0.0019399766751577734,0.057747460583046493
35,1790564265.1030893,-0.06180992713341336,0.22204594538762018,-0.04785433255709202,0.23540370876391187,-0.036747129863390654,0.048609751991428536,0.0017034234904321844,0.06096032474858417
36,1790564265.1126418,-0.028279653695913357,0.23162602351262018,-0.03348421536959202,0.23573617936232633,-0.03760065259552299,0.049977943496856,0.001549113597908159,0.06256199856720823
37,1790564265.1326418,-0.09055016150841336,0.09750492976262018,0.03836637056790799,0.13848653894067567,-0.03929786127556977,0.05290652928099803,0.001281820598053261,0.06591711314553013
38,1790564265.1568487,-0.09055016150841336,0.16456547663762017,0.019206214317907984,0.1888120931471082,-0.04137272858788468,0.056395231500047265,0.0011113553008537326,0.06995255475931833
39,1790564265.1768486,-0.05222984900841336,0.16935551570012017,-0.009534020057092018,0.17748280300903618,-0.04304403436238556,0.05934615518941848,0.0010061493617385165,0.07331962470235985
40,1790564265.2027183,0.014830697866586645,0.19330571101262017,-0.019114098182092018,0.1948137476119672,-0.044954129785219434,0.0632942187160286,0.0008348960355844202,0.07763845026151057
41,1790564265.2227182,0.005250619741586643,0.1310352032001202,0.019206214317907984,0.1325393230471355,-0.046179210131841515,0.06637516461203136,0.0007224966027249102,0.0808622527945888
42,1790564265.2323115,0.014830697866586645,0.12145512507512017,0.009626136192907983,0.12273532296868524,-0.046664243479622405,0.06781297285762472,0.0006974145352608193,0.08232033341980839
43,1790564265.2523115,-0.013909536508413357,0.12145512507512017,-0.014324059119592017,0.1230853414609292,-0.04752237863380448,0.07072524615676534,0.0006459202791932634,0.08521064562574795
44,1790564265.3068092,0.005250619741586643,0.03523442195012017,-0.028694176307092017,0.045742641504096924,-0.04954534472435585,0.07811096498783532,0.00035082190987649275,0.092499660059908
45,1790564265.3268092,0.019620736929086644,0.025654343825120173,-0.028694176307092017,0.043202713209709254,-0.05013908048217418,0.08050619448995812,0.00017268666517944976,0.09484305226814052
46,1790564265.3226922,0.07231116661658665,0.07355473445012017,0.009626136192907983,0.10359472127229198,-0.05013908048217418,0.08050619448995812,0.00017268666517944976,0.09484305226814052
47,1790564265.3426921,0.07231116661658665,0.10708500788762018,0.014416175255407985,0.13001511389349343,-0.05023390820899453,0.08263419861451039,5.5735655705415767e-05,0.09670501238857972
48,1790564265.3524654,0.06752112755408665,0.20288578913762018,-0.009534020057092018,0.2140388834735856,-0.05017079996145477,0.08374530105715335,1.073704162489128e-05,0.09762368940584873
49,1790564265.3724654,0.005250619741586643,0.1501953594501202,-0.014324059119592017,0.15096818763462425,-0.04995186947219912,0.08620761764424026,-0.00010332240541439762,0.09963409697077905
50,1790564265.3974893,-0.004329458383413357,0.1310352032001202,-0.014324059119592017,0.1318868733318523,-0.04971730404900526,0.0893541487049934,-0.0002783933733457256,0.10225483712551516
51,1790564265.4174893,-0.02348961463341336,0.12145512507512017,-0.04785433255709202,0.13263915917678348,-0.049599680860636194,0.0918704761958073,-0.0004905951383204521,0.104405715463815
52,1790564265.441302,-0.02348961463341336,0.09750492976262018,-0.028694176307092017,0.10431840239182272,-0.04956454397238425,0.09480816306619967,-0.0008420650107108002,0.1069857040761044
53,1790564265.461302,-0.06659996619591337,0.12145512507512017,-0.03348421536959202,0.14250647558348745,-0.04967459392134894,0.09723382325102142,-0.0011862475401970057,0.10919427113401331
54,1790564265.4873219,-0.07139000525841337,0.1406152813251202,-0.028694176307092017,0.160288945179889,-0.05006557737225118,0.10042764940102909,-0.0016881996508994784,0.11222800372408923
55,1790564265.5073218,-0.057019888070913356,0.19330571101262017,-0.04785433255709202,0.20714343506420588,-0.0505136401624978,0.10301520934489139,-0.0021309715560289223,0.1147532232166518
56,1790564265.5173714,-0.04264977088341336,0.18372563288762017,-0.028694176307092017,0.19078120161668632,-0.05078013407272093,0.10440455146211887,-0.00237777884767667,0.11612315107117185
57,1790564265.5373714,-0.08097008338341335,0.1549853985126202,0.009626136192907983,0.17512649900354035,-0.051416367737209694,0.10726284408915703,-0.0028238828377507613,0.11898291855415268
58,1790564265.5625184,-0.08097008338341335,0.16935551570012017,0.014416175255407985,0.18826914566695518,-0.05240176320712806,0.11092934951919267,-0.0032553107506648406,0.12272677955544391
59,1790564265.5825183,-0.07139000525841337,0.16935551570012017,0.019206214317907984,0.18478826320217243,-0.05329645546045011,0.11391606627604194,-0.003496533429367891,0.12581577034091554
60,1790564265.6073856,-0.028279653695913357,0.1358252422626202,0.019206214317907984,0.14006110779686726,-0.054427909516949216,0.11764178754786322,-0.0036798313011493435,0.12967470327803615
61,1790564265.6273856,-0.02348961463341336,0.09271489070012018,0.03357633150540799,0.10136657728523021,-0.055279057192386814,0.12053160537252425,-0.0037259651434797024,0.13265566280414687
62,1790564265.6368167,-0.028279653695913357,0.16456547663762017,0.004836097130407984,0.16704766610037577,-0.05565683505519101,0.12187189445311111,-0.0037172862275129913,0.13403081795933447
63,1790564265.6568167,-0.057019888070913356,0.20767582820012018,-0.009534020057092018,0.2155722959767195,-0.056465744195494785,0.12484618141170933,-0.0037086890064626107,0.13707189228570218
64,1790564265.6814814,-0.04264977088341336,0.18372563288762017,-0.019114098182092018,0.18957705527220028,-0.0574980554826626,0.12868800563785765,-0.003752671649963541,0.1409989777404399
65,1790564265.7014813,-0.018699575570913358,0.10708500788762018,-0.028694176307092017,0.11242877209489774,-0.05830159496242758,0.131772179897568,-0.0038546988170188486,0.14414521175914902
66,1790564265.727299,-0.08097008338341335,0.11187504695012018,0.019206214317907984,0.13943119881014407,-0.05937627160451192,0.13558026871597878,-0.003985019924274222,0.1480656316588919
67,1790564265.747299,-0.10013023963341336,0.16456547663762017,0.03836637056790799,0.1964175129171682,-0.060355557798076234,0.13850241881222675,-0.003984472897500668,0.15113434221984526
68,1790564265.7573297,-0.07618004432091335,0.16935551570012017,0.03836637056790799,0.18962243601785103,-0.060905673767534065,0.1399993629973057,-0.003926513195722857,0.15272439308311178
69,1790564265.7773297,-0.03785973182091336,0.12145512507512017,0.009626136192907983,0.12758279350511564,-0.06200906294112178,0.14297258084620423,-0.003756295125745413,0.15588583166449768
70,1790564265.8024738,-0.04743980994591336,0.17414555476262017,-0.019114098182092018,0.18150085002720998,-0.06334903101938526,0.1467072825772839,-0.0035922882635513686,0.159840642601544
71,1790564265.8224738,-0.06659996619591337,0.22683598445012018,-0.019114098182092018,0.23718235197431242,-0.06442604601041393,0.1498337947156855,-0.003538745087852535,0.16313615221720462
72,1790564265.847931,-0.08097008338341335,0.19809575007512017,0.03836637056790799,0.21741678636088665,-0.06587305385251514,0.15402777699600362,-0.0034440570489330186,0.16755798052955664
73,1790564265.867931,-0.057019888070913356,0.21246586726262018,0.023996253380407985,0.22128902495056904,-0.0670463335770967,0.1574443112995227,-0.003287281633896178,0.17115702798089502
74,1790564265.8773263,-0.009119497445913357,0.3130566875751202,-0.009534020057092018,0.3133345694423478,-0.06756143320527982,0.1591788550083281,-0.003214489863029839,0.1729531384034223
75,1790564265.8973262,0.12021155724158665,0.24599614070012019,0.028786292442907986,0.2753063209706766,-0.06832681751162774,0.163155920103719,-0.003053901914725499,0.17691165753862345
76,1790564265.9219975,-0.03785973182091336,0.15977543757512017,-0.014324059119592017,0.16482332485280768,-0.06897696780628236,0.16807681878540678,-0.002858760147571525,0.1817025360592216
77,1790564265.9419975,-0.17198082557091338,0.06397465632512017,-0.09096468411959202,0.20480413758746996,-0.06973972002625023,0.17180323140650916,-0.0028822289892615643,0.1854407887035774
78,1790564265.9674191,-0.20551109900841336,0.044814500075120174,-0.06222444974459202,0.21935139247026922,-0.07128354687246899,0.17603674133199054,-0.0031996588812834076,0.18994871984423115
79,1790564265.9874191,-0.14803063025841337,0.08792485163762018,-0.014324059119592017,0.17276870578858364,-0.07284624918438361,0.17906688933055073,-0.0035267537326060597,0.19334933376312283
80,1790564266.0421178,-0.06659996619591337,0.1454053203876202,0.004836097130407984,0.1600051578224215,-0.07735956007280177,0.18706828030330297,-0.004326073663286253,0.2024790308738975
81,1790564266.0621178,-0.057019888070913356,0.23641606257512018,0.014416175255407985,0.24362193741150912,-0.07894769584722316,0.19012778944612488,-0.004545618452328208,0.20591740491364444
82,1790564266.0569592,-0.05222984900841336,0.26515629695012016,-0.05264437161959202,0.2753311620630031,-0.07894769584722316,0.19012778944612488,-0.004545618452328208,0.20591740491364444
83,1790564266.0769591,-0.03306969275841336,0.22204594538762018,-0.02390413724459202,0.22576406760072817,-0.08036236641680648,0.19370859161688733,-0.004867803120085119,0.2097732678620491
84,1790564266.0877938,-0.02348961463341336,0.05918461726262018,0.057526526817907986,0.08581306546138875,-0.08105974695742563,0.1955859897765593,-0.004988839460039205,0.21177688847661416
85,1790564266.1077938,0.06273108849158665,-0.0030858905498798287,0.10063687838040798,0.11862754095899544,-0.08209509733744984,0.19861583598017546,-0.004941504495127319,0.21497040209206636
86,1790564266.1321416,0.11542151817908665,0.030444382887620174,0.08147672213040799,0.14452488905821365,-0.08284113742829455,0.2018010243648868,-0.0045599684681812665,0.2181905149119962
87,1790564266.1521416,0.06273108849158665,0.18851567195012017,0.07189664400540799,0.21128766043805058,-0.08309480506582222,0.2043534100604957,-0.004063514507018031,0.22063901509576417
88,1790564266.16207,-0.004329458383413357,0.20767582820012018,0.06710660494290799,0.21829175489574282,-0.08315835481274386,0.2057254331424593,-0.0037505240482715013,0.22192866477192927
89,1790564266.18207,0.010040658804086644,0.1501953594501202,0.06710660494290799,0.16481127769826437,-0.08325860088102119,0.2086114817580218,-0.003013287465105655,0.2246326442066914
90,1790564266.2068517,0.08668128380408664,0.12145512507512017,0.11979703463040799,0.1913539178464263,-0.08318441229708928,0.212156032899106,-0.0018894283282489541,0.22788900518477473
91,1790564266.2268517,0.13458167442908664,0.1549853985126202,0.134167151817908,0.24522138053436926,-0.08280162560137123,0.2150022174512406,-0.0007375270673444922,0.2303966290060583
92,1790564266.2681103,0.12979163536658664,0.20288578913762018,0.091056800255408,0.2574875781817079,-0.08131233763421604,0.22110037068588392,0.0019792529051956996,0.23558647586616416
93,1790564266.2881103,0.10584144005408665,0.15977543757512017,0.019206214317907984,0.19261225182596603,-0.08034524932197577,0.22415701567518526,0.003264056195362487,0.23814361387167657
94,1790564266.3572206,-0.02348961463341336,0.025654343825120173,0.191647620567908,0.19477863800238612,-0.07707787029552848,0.23409611099266903,0.008130687748982016,0.2465929750711844
95,1790564266.3772206,0.019620736929086644,0.03523442195012017,0.297028479942908,0.2997538251715798,-0.07627995382368,0.23663229280481482,0.010060809960931885,0.2488266329203455
96,1790564266.3582222,0.06273108849158665,0.17414555476262017,0.225177894005408,0.2914909049278052,-0.07627995382368,0.23663229280481482,0.010060809960931885,0.2488266329203455
97,1790564266.3782222,-0.028279653695913357,0.17414555476262017,0.10542691744290798,0.20552675732919853,-0.07554678359258221,0.23925407954585995,0.012617042495119387,0.25121508882199883
98,1790564266.3872676,-0.009119497445913357,0.1549853985126202,-0.09096468411959202,0.17993946966343674,-0.0752903038936461,0.24048525164948922,0.013609541760998576,0.25236284541956666
99,1790564266.4072676,-0.07139000525841337,-0.10846674992487984,-0.22029573880709202,0.2557181675724766,-0.07492903641279558,0.24286891204145464,0.015007968907722722,0.25460736058622707
100,1790564266.4473712,-0.028279653695913357,-0.3671288592998799,-0.301726402869592,0.4760484852749929,-0.07461307327501536,0.2455011564862501,0.015821333567394107,0.2570763371753219
101,1790564266.4673712,0.043570932241586646,-0.26174799992487985,-0.359206871619592,0.4465870779812263,-0.07445619931813166,0.2456736529067552,0.015174720618748251,0.25715664777583963
102,1790564266.4483721,0.04836097130408665,-0.13720698429987985,-0.32567659818209205,0.35669284642336463,-0.07445619931813166,0.2456736529067552,0.015174720618748251,0.25715664777583963
103,1790564266.468372,0.029200815054086646,-0.11804682804987983,-0.18197542630709201,0.2188670760806859,-0.07410930225046142,0.24490673409740565,0.013072839861596356,0.2562077208601539
104,1790564266.5075624,0.10105140099158665,-0.29048823429987986,-0.10533480130709202,0.32510032340099093,-0.07314866762364157,0.242428566914272,0.00872748747812602,0.2533742423153989
105,1790564266.5275624,0.11542151817908665,-0.23300776554987984,-0.10054476224459202,0.27879023454944496,-0.07240725400608077,0.2405683431158654,0.006533739389411735,0.2513138036253134
106,1790564266.5372167,0.019620736929086644,0.025654343825120173,-0.08138460599459202,0.08755896737418098,-0.07200526626551343,0.23965494079514077,0.005501898397152727,0.25029886117092603
107,1790564266.5572166,0.033990854116586644,0.17414555476262017,-0.06701448880709202,0.1896654795086119,-0.07121699890588888,0.23834625330228673,0.0034623572498500197,0.24878260653455014
108,1790564266.611999,0.12021155724158665,0.0017041485126201715,-0.03348421536959202,0.12479950038168243,-0.0687481441594178,0.23602180668180364,-0.0016991291637370736,0.24583630243440827
109,1790564266.631999,0.16811194786658665,-0.20905757023737984,-0.08138460599459202,0.28033934576143593,-0.06754952825989528,0.23498945829010506,-0.0034731364360137936,0.24453025774393358
110,1790564266.6129713,0.10105140099158665,-0.13241694523737985,-0.10533480130709202,0.1970813370026859,-0.06754952825989528,0.23498945829010506,-0.0034731364360137936,0.24453025774393358
111,1790564266.6329713,0.019620736929086644,-0.01745600773737983,0.03357633150540799,0.042626934690743856,-0.06615933729572304,0.2335833977700161,-0.005100561309555966,0.24282561098629477
112,1790564266.6717868,0.06752112755408665,0.049604539137620175,0.215597815880408,0.2313052770293692,-0.06361231040047613,0.23135746521149955,-0.007059873035466697,0.24004717151187943
113,1790564266.6917868,0.11542151817908665,0.07834477351262017,0.210807776817908,0.25278439264008745,-0.06222237795070625,0.23057449961012247,-0.007278382992594126,0.23893346154795017
114,1790564266.6868074,0.09147132286658664,0.054394578200120176,0.07668668306790799,0.13117400811323138,-0.06222237795070625,0.23057449961012247,-0.007278382992594126,0.23893346154795017
115,1790564266.7068074,0.024410775991586645,-0.07014643742487983,0.023996253380407985,0.07805273117713912,-0.06078054065246589,0.23015442170885494,-0.006918677089194405,0.23814533387578274
116,1790564266.7329526,0.06752112755408665,-0.17073725773737983,-0.009534020057092018,0.18385105760997064,-0.058998141631668735,0.22921529574175314,-0.006490622766711489,0.23677533803559347
117,1790564266.7529526,0.13458167442908664,-0.18031733586237983,-0.028694176307092017,0.2268257579257379,-0.05753604720458815,0.22807808165144233,-0.006269638161463497,0.2353068558720852
118,1790564266.761857,0.12021155724158665,-0.11325678898737983,-0.10533480130709202,0.195891140975246,-0.05681257284563557,0.2274516557280962,-0.0062755179404717755,0.23452357291371423
119,1790564266.781857,0.05315101036658665,-0.09888667179987984,-0.14365511380709203,0.18231948739938558,-0.055171304958086566,0.22593749700792293,-0.00666022786315604,0.23267140795588215
120,1790564266.837568,0.043570932241586646,-0.17073725773737983,-0.09575472318209202,0.20054576616762687,-0.05088110445748547,0.22122581446558043,-0.008571446317459241,0.22716341577979945
121,1790564266.857568,0.13458167442908664,-0.16115717961237983,-0.11970491849459203,0.24168808647624823,-0.049304739394356804,0.21929022342669452,-0.009477835641950627,0.22496441671013412
122,1790564266.897746,0.11542151817908665,-0.19468745304987983,-0.14844515286959203,0.2706682372283289,-0.045859638707505396,0.21491278174352632,-0.011833589371532463,0.22006963456264825
123,1790564266.917746,0.14895179161658664,-0.25216792179987985,-0.04785433255709202,0.2967580397481189,-0.04400540159630263,0.21239033332092783,-0.013124795620745193,0.21729792755089275
124,1790564266.9722762,0.13458167442908664,-0.28090815617487985,-0.0047439809945920165,0.3115190598557084,-0.038548561260365724,0.20436432141938995,-0.016332323644908543,0.20860851430393232
125,1790564266.9922762,0.10584144005408665,-0.15636714054987982,-0.09575472318209202,0.21171221053153208,-0.03648673579527495,0.20120626876327063,-0.017483030858287497,0.20523377121376377
126,1790564266.9732864,0.010040658804086644,-0.16594721867487983,-0.05743441068209202,0.1758920286583439,-0.03648673579527495,0.20120626876327063,-0.017483030858287497,0.20523377121376377
127,1790564266.9932864,0.04836097130408665,-0.13241694523737985,0.023996253380407985,0.14299947939685195,-0.03476171499998971,0.19806607948407107,-0.01855988996748149,0.2019480581425231
128,1790564266.9732864,0.14416175255408664,-0.09409663273737984,0.07668668306790799,0.18846122824585648,-0.03476171499998971,0.19806607948407107,-0.01855988996748149,0.2019480581425231
129,1790564266.9932864,0.12979163536658664,-0.09409663273737984,0.10542691744290798,0.19187204023817558,-0.032858991546584476,0.19522619856435777,-0.0189363799120758,0.19887576125692902
130,1790564267.0483117,0.06752112755408665,-0.03182612492487983,0.023996253380407985,0.07840806763468947,-0.027595032036291853,0.18806524159325477,-0.019282714904195183,0.19105455760774126
131,1790564267.0683117,0.09147132286658664,-0.0030858905498798287,0.019206214317907984,0.0935168663711236,-0.025730252360211675,0.1858005082925863,-0.019324910863989127,0.18856650537199
132,1790564267.0493097,0.12021155724158665,-0.13720698429987985,0.057526526817907986,0.19127434831374077,-0.025730252360211675,0.1858005082925863,-0.019324910863989127,0.18856650537199
133,1790564267.0693097,0.12021155724158665,-0.17552729679987983,0.03836637056790799,0.21617730872335886,-0.02375241930170166,0.1835162642637272,-0.01911372408439126,0.18603153259695585
134,1790564267.1671,0.04836097130408665,-0.13241694523737985,-0.009534020057092018,0.1412937665642861,-0.0142960125380649,0.17176419665911796,-0.01802454879867495,0.17329800803193462
135,1790564267.1871,0.029200815054086646,-0.09409663273737984,0.052736487755407985,0.11174972498003122,-0.012535755815784642,0.169381431771178,-0.01777040149882661,0.17077178271645674
136,1790564267.1681006,0.014830697866586645,-0.02703608586237983,4.605806790798362e-05,0.030836693391373394,-0.012535755815784642,0.169381431771178,-0.01777040149882661,0.17077178271645674
137,1790564267.1881006,0.005250619741586643,-0.06535639836237983,-0.07659456693209202,0.10082537130151095,-0.01117770826081704,0.16736685147654753,-0.017634305046734345,0.16866408286774615
138,1790564267.1681006,0.029200815054086646,-0.18031733586237983,-0.07180452786959202,0.1962725641420733,-0.01117770826081704,0.16736685147654753,-0.017634305046734345,0.16866408286774615
139,1790564267.1881006,0.05794104942908665,-0.22342768742487984,-0.06222444974459202,0.23905852602028427,-0.010021880692811838,0.16499246654389468,-0.0179262273002175,0.16626575634831792
140,1790564267.226447,0.13458167442908664,-0.11804682804987983,-0.02390413724459202,0.18060644640262113,-0.007584501577318656,0.16014078529311304,-0.01864968640022137,0.16140138345534055
141,1790564267.246447,0.08189124474158664,-0.06535639836237983,-0.019114098182092018,0.1065034437074369,-0.006179240851521782,0.1577148080099938,-0.01903494136364936,0.15897947249833197
142,1790564267.2571628,0.014830697866586645,-0.09888667179987984,-0.038274254432092016,0.10706746476497724,-0.005461525473867433,0.15647797393441396,-0.01925651549108661,0.15775296503070646
143,1790564267.2771628,0.010040658804086644,-0.18031733586237983,-0.0047439809945920165,0.1806589654498315,-0.0042855972408340935,0.15409699002052343,-0.019672559573567873,0.15540675106722848
144,1790564267.2877157,0.033990854116586644,-0.10846674992487984,0.047946448692907984,0.12336642957102695,-0.003723346369624008,0.1528005607353057,-0.019824961201962803,0.15412625913799172
145,1790564267.3077157,0.019620736929086644,-0.050986281174879834,0.057526526817907986,0.0793339490597551,-0.002737180785946494,0.1504729211807334,-0.01991226064538562,0.1518093880210573
146,1790564267.332059,-0.018699575570913358,-0.00787592961237983,0.052736487755407985,0.056505234576698794,-0.001715222714583247,0.1479573031027579,-0.019801267679342698,0.1492862878234668
147,1790564267.352059,-0.009119497445913357,-0.012665968674879829,0.04315640963040798,0.045891913103798886,-0.0010432721704943817,0.14616972145935278,-0.019579917108804506,0.14747897830644938
148,1790564267.3776505,0.005250619741586643,-0.06056635929987983,0.06231656588040799,0.08705864270501872,-0.00031985464036576297,0.14408490804409677,-0.019136724610180875,0.14535053237560805
149,1790564267.3976505,-0.03306969275841336,-0.12283686711237983,0.057526526817907986,0.13961304304702984,0.0001189682436399916,0.14242490460035653,-0.01866255643982844,0.14364246801253952
150,1790564267.4232676,-0.09055016150841336,-0.08451655461237984,0.04315640963040798,0.13116728039009842,0.0003592184613643982,0.14021922627180508,-0.017952875385109774,0.14136430309225853
151,1790564267.4432676,-0.02348961463341336,-0.00787592961237983,0.047946448692907984,0.05396901152649626,0.00034759333010449706,0.1386169098289633,-0.01734526410332113,0.13969834178854107
152,1790564267.4529226,0.07710120567908665,0.006494187575120171,0.091056800255408,0.11949105097112059,0.0003816445873176612,0.1379584182078681,-0.016995282487808704,0.13900183608085356
153,1790564267.4729226,0.05794104942908665,-0.02703608586237983,0.06710660494290799,0.09268986770227564,0.0006441633328601838,0.13676817004045205,-0.01614180948178328,0.13771893586562306
154,1790564267.4965038,-0.04743980994591336,-0.09888667179987984,0.028786292442907986,0.11339206347875565,0.0009258333133708329,0.13535259128306618,-0.015116859060367718,0.13619728544363846
155,1790564267.5165038,-0.07618004432091335,-0.18510737492487983,0.11021695650540798,0.2285080237226504,0.0009434625700369093,0.13390609495537215,-0.014169456811370208,0.1346569934839906
156,1790564267.5425513,-0.013909536508413357,-0.18510737492487983,0.095846839317908,0.20891345592060792,0.0007869830707030213,0.13158156005864113,-0.012718107026292346,0.13219711243499832
157,1790564267.5625513,0.0004605806790866432,-0.08451655461237984,-0.04306429349459202,0.09485669988091348,0.0006646826881248178,0.12966000759737498,-0.011691704069048112,0.1301877694611342
158,1790564267.5722535,-0.08576012244591336,-0.12283686711237983,-0.019114098182092018,0.15102663100671077,0.0005521833155624296,0.12871678279675583,-0.011313717896575337,0.12921422248577935
159,1790564267.5922534,-0.06180992713341336,-0.19468745304987983,0.258708167442908,0.3296264360893324,0.00013370961384730998,0.126587799756899,-0.010292028372600124,0.12700556985256983
160,1790564267.6627889,-0.05222984900841336,-0.12283686711237983,0.325768714317908,0.352054126914838,-0.0017240616598086108,0.11852586986962406,-0.004137275920354577,0.11861058666493066
161,1790564267.6827888,-0.07618004432091335,0.025654343825120173,0.206017737755408,0.22114441611691185,-0.0023644241415158506,0.11643706285529928,-0.0018562190083398463,0.116475858687098
162,1790564267.6627889,-0.08576012244591336,0.01607426570012017,0.220387854942908,0.23703161651153706,-0.0023644241415158506,0.11643706285529928,-0.0018562190083398463,0.116475858687098
163,1790564267.6827888,-0.057019888070913356,0.06876469538762017,0.316188636192908,0.3285652212649763,-0.0032477293617951554,0.11510836203412356,0.0011403751919246666,0.11515981595923415
164,1790564267.7823024,-0.028279653695913357,0.24599614070012019,0.16769742525540798,0.29905896824841627,-0.007620152217633489,0.11183807116003566,0.017425448995941433,0.1134436739237903
165,1790564267.8023024,-0.17677086463341338,0.19330571101262017,0.06231656588040799,0.26925525227275776,-0.008674672535486184,0.1119383566491622,0.020552463103271336,0.11413960475016673
166,1790564267.7823024,-0.26299156775841337,-0.00787592961237983,0.134167151817908,0.29534288480716253,-0.008674672535486184,0.1119383566491622,0.020552463103271336,0.11413960475016673
167,1790564267.8023024,-0.26299156775841337,-0.07972651554987983,0.258708167442908,0.377426546357594,-0.01078623398256224,0.11211583211844382,0.023651559713849735,0.11508996017044866
168,1790564267.7833045,-0.20072105994591335,0.03523442195012017,0.17727750338040799,0.27010687070261763,-0.01078623398256224,0.11211583211844382,0.023651559713849735,0.11508996017044866
169,1790564267.8033044,-0.09055016150841336,0.2795264141376202,0.023996253380407985,0.29480530545791206,-0.013339976580068072,0.11265947158362222,0.026748448562379033,0.11655724350357632
170,1790564267.8118281,-0.10492027869591336,0.2507861797626202,0.091056800255408,0.28669376294979043,-0.0143900494101916,0.11319542618316307,0.02794387126625022,0.1174782446760269
171,1790564267.831828,-0.19593102088341335,0.24120610163762018,0.091056800255408,0.3238220024710918,-0.016935629529468532,0.1150023413274515,0.030601236103051925,0.12020311855101679
172,1790564267.8569002,-0.3013118802584134,0.4184375469501202,-0.05264437161959202,0.5183148268627052,-0.020583130244322786,0.11816812592778643,0.033505062534362154,0.12453899169084141
173,1790564267.8769002,-0.2917318021334134,0.39448735163762016,-0.0047439809945920165,0.4906630415404746,-0.023945860650073224,0.12153405315438377,0.03538790198192847,0.12882637123309762
174,1790564267.9024787,-0.10492027869591336,0.1501953594501202,0.11021695650540798,0.21380993518378405,-0.028362374316333407,0.1262380221416169,0.03763705074416305,0.13474795026198308
175,1790564267.9224787,-0.10492027869591336,0.025654343825120173,0.11979703463040799,0.1613001542000651,-0.031612438491150856,0.12962814866052955,0.03947690081822381,0.1391446329928863
176,1790564267.9325285,-0.21509117713341336,0.011284226637620172,0.14853726900540798,0.26163881312800574,-0.03324180291865009,0.13110397383728475,0.04046498680925396,0.1411760764955696
177,1790564267.9525285,-0.18635094275841338,0.10708500788762018,0.234757972130408,0.31828474399509404,-0.036600151107595215,0.13377799056208356,0.042711346712017005,0.14512195201926498
178,1790564267.9771116,-0.13366051307091337,0.3082666485126202,0.17727750338040799,0.37989573904477225,-0.04069891108541352,0.13733755463179192,0.04581798813876168,0.1503904694881379
179,1790564267.9971116,-0.15282066932091337,0.39448735163762016,0.10542691744290798,0.43599227343528585,-0.043963053232768834,0.14085323456725654,0.048390384125599074,0.1552868732811273
180,1790564268.0227013,-0.08097008338341335,0.2891064922626202,0.15811734713040798,0.3393225806442467,-0.0479617127434985,0.14598873200439802,0.051693829543678564,0.16212738132231924
181,1790564268.0427012,0.043570932241586646,0.20288578913762018,0.344928870567908,0.402538191134268,-0.05067423704359926,0.15013837979583827,0.05464297286798101,0.167616424826212
182,1790564268.0527604,0.11063147911658665,0.3226367657001202,0.229967933067908,0.4113624399388984,-0.05171754074426613,0.15230887991412184,0.05633749140458863,0.17043066584124852
183,1790564268.0727603,0.04836097130408665,0.5477686016376202,0.03357633150540799,0.5509234016838181,-0.053242243215916835,0.15728264786773616,0.05959655620185269,0.1764208527755994
184,1790564268.0975933,-0.02348961463341336,0.4184375469501202,0.129377112755408,0.4386116505499892,-0.05480509500166679,0.1643315045684731,0.06333967589806477,0.18444607985737105
185,1790564268.1175933,0.06752112755408665,0.2795264141376202,0.14853726900540798,0.3236625389976364,-0.05580893438152784,0.1702039085227513,0.06631898683246136,0.1910031822973297
186,1790564268.1573997,0.09626136192908664,0.22683598445012018,0.014416175255407985,0.24683727382810808,-0.057018232975854774,0.18165041160716325,0.0718457959809128,0.20349390489366415
187,1790564268.1773996,0.0004605806790866432,0.05918461726262018,0.03836637056790799,0.07053374685665595,-0.05738960167731175,0.18696786540003835,0.07428528731753505,0.2092100690329605
188,1790564268.1722596,0.038780893179086645,0.1549853985126202,0.07189664400540799,0.17519577291454205,-0.05738960167731175,0.18696786540003835,0.07428528731753505,0.2092100690329605
189,1790564268.1922596,0.13937171349158664,0.40406742976262017,0.004836097130407984,0.4274556703940253,-0.05734065407750365,0.19192137071776866,0.07630350401968962,0.21434548717877389
190,1790564268.2176406,0.13458167442908664,0.3849072735126202,-0.02390413724459202,0.40845715084016343,-0.056766361800965136,0.19876658117191162,0.07844425131535392,0.22109743143536204
191,1790564268.2376406,0.11063147911658665,0.21725590632512018,-0.0047439809945920165,0.243848228126329,-0.056013887544076095,0.20425467445966122,0.0798351290183232,0.22634304818525994
192,1790564268.2616694,0.15374183067908664,-0.050986281174879834,0.014416175255407985,0.16261604311258926,-0.05476900017256446,0.2101588914649523,0.0812729575939944,0.23188724992494775
193,1790564268.2816694,0.35492347130408664,-0.06056635929987983,-0.16281527005709204,0.3951553701079472,-0.053125264648110126,0.2141687036341101,0.08206760034039556,0.23542646067483136
194,1790564268.307482,0.35492347130408664,-0.06535639836237983,-0.292146324744592,0.46431842990690936,-0.049947798879787286,0.21832383876084072,0.0820585718406806,0.23852398285442367
195,1790564268.327482,0.25433265099158664,-0.11325678898737983,-0.20592562161959202,0.34629114809875733,-0.04694126266277554,0.22079245716463528,0.08130551853773828,0.23992369333991065
196,1790564268.3370388,0.22080237755408666,-0.13720698429987985,-0.13886507474459203,0.2947252202612224,-0.04537956178842114,0.22161559707608802,0.08075252464191598,0.24019522836963972
197,1790564268.3570387,0.36929358849158667,-0.34317866398737984,-0.32567659818209205,0.6001788037915169,-0.041716399683038155,0.22235925508120225,0.07907202406706097,0.23965867669008778
198,1790564268.3819933,0.5656851900540867,-0.46292964054987984,-0.43584749661959205,0.8510385576786369,-0.03608146232041897,0.22163925053202896,0.07586447381740039,0.23702583759406978
199,1790564268.4019933,0.6758560884915866,-0.5252001483623798,-0.14365511380709203,0.8679017455414764,-0.030380420751727758,0.21966656306277668,0.07281011677050421,0.2334045457933485
200,1790564268.4279282,0.8003971041165867,-0.48208979679987984,-0.07180452786959202,0.93712431762245,-0.021225039042986504,0.215532896451443,0.06902440029291555,0.22730881982651133
201,1790564268.4479282,0.7668668306790867,-0.5204101092998799,-0.402317223182092,1.0103319087934663,-0.012872921823854777,0.21131958787456318,0.06583173459703924,0.22171039131221007
202,1790564268.4716482,0.5465250338040867,-0.5204101092998799,-0.6992996450570921,1.0288519271562093,-0.002116608501032357,0.20522052158916243,0.06065342315140385,0.21400649581930398
203,1790564268.4916482,0.4076139009915867,-0.5060399921123798,-0.507698082557092,0.824610762075553,0.0070235762572943665,0.1993096879454518,0.055131667153825316,0.20691346755471376
204,1790564268.5025942,0.5225748384915867,-0.4964599139873799,-0.33525667630709205,0.7949553113410481,0.01203929462281367,0.19573692211030697,0.05187088195482491,0.20285087056013013
205,1790564268.5225942,0.7381265963040867,-0.5012499530498798,-0.450217613807092,0.9993889570062873,0.021720117971242597,0.18869159526810284,0.045628436642459275,0.19534133172460239
206,1790564268.5478203,0.9153580416165867,-0.48208979679987984,-0.49332796536959206,1.146151559762671,0.03522735945441105,0.17927778493491064,0.03715069332503153,0.18644480427147575
207,1790564268.5678203,0.8482974947415867,-0.5826806171123798,-0.13886507474459203,1.0384646600280325,0.04697542600807815,0.17133662520833462,0.03048921846487507,0.1802568229749449
208,1790564268.592072,0.7716568697415866,-0.5778905780498799,0.129377112755408,0.9727025661131639,0.06203063564720759,0.16104074931105056,0.023605990813860743,0.17418141548329813
209,1790564268.612072,0.8147672213040866,-0.43418940617487983,0.009626136192907983,0.9232869152349565,0.07496368744435994,0.15230541601740122,0.018989482761974968,0.17081304001468003
210,1790564268.6375647,0.7812369478665867,-0.34796870304987987,-0.31609652005709205,0.9117732157758962,0.09202734605679933,0.14134576421141481,0.013401819826457556,0.1691959404283318
211,1790564268.6575646,0.6854361666165867,-0.5922606952373799,-0.421477379432092,0.9991189373653416,0.10560638692892961,0.1326268925161229,0.00856928359806539,0.16975286212623952
212,1790564268.6674976,0.6950162447415866,-0.9610937030498798,-0.34483675443209205,1.2351765354410222,0.11236721747232582,0.12778898784169257,0.005958330886146933,0.17027013444237962
213,1790564268.6874976,0.7477066744290867,-1.2005956561748798,-0.301726402869592,1.4462136850411897,0.1261022319633059,0.11626654712628978,0.0005199300612082364,0.17152245687975004
214,1790564268.697543,0.7716568697415866,-1.2389159686748799,-0.22029573880709202,1.4761088423939348,0.13311073976498106,0.10950940632372633,-0.002195150256643176,0.17238212726035357
215,1790564268.717543,0.7477066744290867,-1.1574853046123799,-0.20592562161959202,1.3932849181049916,0.14725051754887386,0.09447947006959997,-0.007429303879479771,0.17511219186332316
216,1790564268.7417316,0.6998062838040867,-1.06168452336238,-0.26819612943209203,1.2995507015277417,0.16441255188702567,0.07500242568156093,-0.013670266161661325,0.18122838423672114
217,1790564268.7617316,0.7237564791165867,-1.13832514836238,-0.11970491849459203,1.3542292464606092,0.17860946070551234,0.05801384654520447,-0.018638297827243674,0.1887175985179483
218,1790564268.7871244,0.7237564791165867,-1.1526952655498799,0.10542691744290798,1.3651537097359623,0.1966874038490969,0.03531672578007741,-0.024026958583974085,0.20127220546195376
219,1790564268.8071244,0.7477066744290867,-1.0137841327373798,0.08147672213040799,1.262324045174218,0.21099744035749307,0.016871713113795834,-0.027354210704344937,0.21343108345333808
220,1790564268.8472393,0.8482974947415867,-0.9706737811748799,-0.13886507474459203,1.2965723034327903,0.24019615640498027,-0.020545365804176267,-0.03319944915331264,0.24334853406551793
221,1790564268.8672392,0.8195572603665867,-1.1191649921123799,-0.172395348182092,1.3978285083172088,0.2550718409041291,-0.039536824053224034,-0.03614344907921159,0.260636055429364
222,1790564268.8770797,0.5369449556790866,-1.4400976092998798,0.057526526817907986,1.5380183064671815,0.2622943152183284,-0.04936828325279474,-0.037459469533370884,0.2695157640007381
223,1790564268.8970797,0.3070230806790867,-1.49278803898738,0.15332730806790798,1.5317273141172405,0.2760374867922348,-0.07075199281954037,-0.039416686636699325,0.2876737975345083
224,1790564268.9066367,0.39324378380408664,-1.42572749211238,-0.0047439809945920165,1.4789733130186256,0.28212152981965893,-0.08152940470624469,-0.04010515497432843,0.2963916747735237
225,1790564268.9266367,0.5129947603665866,-1.42093745304988,-0.019114098182092018,1.5108250124990537,0.2943031672024149,-0.10497023196720265,-0.04136558785476815,0.3151891744384496
226,1790564268.951925,0.5800553072415867,-1.57421870304988,0.17727750338040799,1.6870257845379746,0.3094685573612996,-0.13584408313286972,-0.04242026838941694,0.34062278562615883
227,1790564268.971925,0.5656851900540867,-1.6077489764873798,0.196437659630408,1.7156468925055113,0.3213820369844122,-0.1613718482534892,-0.042568700786310774,0.36213171828995
228,1790564268.9816642,0.5513150728665867,-1.4879979999248798,0.07668668306790799,1.5886998472682905,0.32712909990425637,-0.17419941420322685,-0.04243063900343037,0.3730405380641034
229,1790564269.0016642,0.6614859713040867,-1.46404780461238,4.605806790798362e-05,1.6065489928862382,0.33897996274030984,-0.2010183626174442,-0.042074549203410534,0.39634084439972916
230,1790564269.0264196,0.7668668306790867,-1.5550585467998799,-0.05264437161959202,1.7346651693725688,0.3541003267049771,-0.23484027117866416,-0.04179756121528568,0.4269473392157229
231,1790564269.0464196,0.6998062838040867,-1.61253901554988,-0.04785433255709202,1.7584939433125002,0.3666837307634025,-0.26281771014719046,-0.041758097033094105,0.45307156812296817
232,1790564269.0715883,0.4938346041165867,-1.66043940617488,0.009626136192907983,1.7323464723603585,0.3823969828228584,-0.2989225434850637,-0.04178804485056982,0.4871636071876044
233,1790564269.0915883,0.46030433067908666,-1.6077489764873798,-0.24424593411959203,1.6900866618526078,0.394441589973067,-0.3282115645466072,-0.042160202244081464,0.5148635563485482
234,1790564269.1019957,0.6040055025540867,-1.66043940617488,-0.469377770057092,1.8281677055778474,0.4005998800980308,-0.343717607630205,-0.04288183887832802,0.5295856019900608
235,1790564269.1219957,0.6327457369290866,-1.9191015155498798,-0.349626793494592,2.0507453984629804,0.4125142275973354,-0.3744151678231735,-0.04528909762397769,0.5589327403452723
236,1790564269.1469467,0.6087955416165867,-1.93826167179988,-0.21071566068209202,2.0425208467766955,0.4274717381626282,-0.4141857790082482,-0.04889037948027616,0.5972204079451516
237,1790564269.1669466,0.5848453463040867,-1.74187007023738,-0.411897301307092,1.8830334058392026,0.43945327747575236,-0.44680309196982215,-0.052277978424072245,0.6288761190457798
238,1790564269.2067788,0.5561051119290866,-1.7610302264873798,-0.5029080434945921,1.914000223178517,0.4631449093633808,-0.512484443310652,-0.060745628612148994,0.6934216200120445
239,1790564269.2267787,0.5944254244290866,-2.01490229679988,-0.24424593411959203,2.1149063636934575,0.47498207612272914,-0.5461805389278311,-0.06548027444892913,0.7267797603698533
240,1790564269.2213893,0.6902262056790867,-2.07238276554988,-0.09096468411959202,2.1861969526351683,0.47498207612272914,-0.5461805389278311,-0.06548027444892913,0.7267797603698533
241,1790564269.2413893,0.7477066744290867,-1.73708003117488,-0.18676546536959202,1.9003667132285404,0.4873292556358764,-0.5814514402414739,-0.06974504402360111,0.761866098421078
242,1790564269.2666812,0.7093863619290867,-1.53589839054988,-0.172395348182092,1.700568443979695,0.503365283896313,-0.6255728936294223,-0.07501056729028312,0.806439482838678
243,1790564269.2866812,0.7572867525540867,-1.66522944523738,0.03836637056790799,1.829738863682482,0.5163439205178205,-0.6600308505109308,-0.0787508361832372,0.8416967756154559
244,1790564269.3123927,0.8243472994290867,-1.78498042179988,0.215597815880408,1.977924668559778,0.5335761813969855,-0.7043377492136186,-0.08234824691622336,0.8874550355323194
245,1790564269.3323927,0.8435074556790867,-1.6460692889873798,0.16290738619290798,1.8567680922532652,0.5474716075959163,-0.7387792061037759,-0.08415902990081102,0.9233648351593361
246,1790564269.3423295,0.8866178072415867,-1.45925776554988,-0.05264437161959202,1.7083020202232184,0.5546292462371871,-0.7556386216266763,-0.08484157567649223,0.9411702397753361
247,1790564269.3623295,0.8243472994290867,-1.6316991717998799,-0.11491487943209203,1.8317194345323016,0.5694410444848699,-0.7891182934328501,-0.08626061981023056,0.9769399565502674
248,1790564269.386897,0.7093863619290867,-1.81851069523738,-0.04785433255709202,1.9525624692511656,0.5877324131144339,-0.8304324821661812,-0.08804219180301381,1.0211752662493736
249,1790564269.406897,0.5848453463040867,-1.68917964054988,-0.05264437161959202,1.7883353620070792,0.6023307916126328,-0.8642820889172738,-0.0894257296495097,1.0572525114045623
250,1790564269.431061,0.5944254244290866,-1.53110835148738,-0.16760530911959204,1.6509772587310754,0.6194600677391265,-0.9048807158071893,-0.09124573845663415,1.1003934160788091
251,1790564269.451061,0.6710660494290867,-1.5119481952373799,-0.14844515286959203,1.6608289951672954,0.6334092004033309,-0.938007500426001,-0.09300023786673062,1.1356559031037041
252,1790564269.462459,0.6758560884915866,-1.5167382342998799,-0.009534020057092018,1.660532210249688,0.6413178457713709,-0.956643825611478,-0.09398519965987745,1.1555471457887396
253,1790564269.482459,0.5848453463040867,-1.3682470233623798,0.009626136192907983,1.4880311349335282,0.6550044685580836,-0.9887669727730332,-0.09545411056298934,1.189874979777782
254,1790564269.5075464,0.5561051119290866,-1.2820263202373798,-0.014324059119592017,1.3975154954291993,0.6717440902050545,-1.0280037378580136,-0.09702912283434088,1.2318467674404416
255,1790564269.5275464,0.6758560884915866,-1.33471674992488,-0.02390413724459202,1.4962692480494915,0.6849353256536769,-1.0585169178347298,-0.09815374304771879,1.2646061137543667
256,1790564269.5675156,0.6854361666165867,-1.3299267108623798,4.605806790798362e-05,1.4961710453329242,0.7114239160202744,-1.118337215294785,-0.10013564652024352,1.329221299521996
257,1790564269.5875156,0.6423258150540867,-1.22933589054988,-0.04785433255709202,1.3878541788039,0.7246818706750516,-1.1476192952414976,-0.10105031598969295,1.36103086917869
258,1790564269.5818589,0.5896353853665867,-1.2437060077373798,-0.06701448880709202,1.378029558125852,0.7246818706750516,-1.1476192952414976,-0.10105031598969295,1.36103086917869
259,1790564269.6018589,0.5273648775540867,-1.33950678898738,-0.06222444974459202,1.4409247148851794,0.7375069907421794,-1.1758035389160277,-0.10205148051188626,1.3917057980031942
260,1790564269.6269417,0.5704752291165867,-1.4353075702373799,0.08147672213040799,1.546670056755955,0.7532441099345916,-1.2110685527658278,-0.1030825254591555,1.4299264791255908
261,1790564269.6469417,0.5992154634915867,-1.38261714054988,0.13895719088040798,1.513274076275391,0.7656645383498508,-1.2391964367898014,-0.10345066964837477,1.460326003086204
262,1790564269.6718094,0.5656851900540867,-1.2820263202373798,0.10063687838040798,1.4048910994515118,0.7809640940413431,-1.2738940543541493,-0.10339289156028826,1.497798740794592
263,1790564269.6918094,0.5513150728665867,-1.34429682804988,0.03357633150540799,1.4533442955859495,0.7930985992846948,-1.3015533486993869,-0.10315207396718722,1.527640945399692
264,1790564269.7166898,0.6710660494290867,-1.4065673358623798,-0.08138460599459202,1.5605719358953785,0.8082108491108435,-1.3359339924655214,-0.10298664072049704,1.5647781494551332
265,1790564269.7366898,0.6998062838040867,-1.5167382342998799,-0.09575472318209202,1.6731385696500103,0.8205928701325576,-1.3638101352674936,-0.10313931424168868,1.5949885459504007
266,1790564269.7475967,0.5992154634915867,-1.5598485858623798,-0.09096468411959202,1.6734579039406041,0.8273951220593216,-1.379248696452956,-0.10336282554402026,1.6117051617399447
267,1790564269.7675967,0.45072425255408666,-1.54547846867488,-0.14844515286959203,1.6166916874866921,0.839572291467904,-1.4079698402217589,-0.10407031359335751,1.6425867811918409
268,1790564269.7921784,0.4555142916165867,-1.6364892108623799,-0.11012484036959203,1.7022683947023054,0.8539648126057746,-1.4438418072279595,-0.10528614810902294,1.6807796519626692
269,1790564269.8121784,0.5513150728665867,-1.6412792499248798,0.07189664400540799,1.7328920950893354,0.8654285131518099,-1.47356648652556,-0.10618432689150523,1.712203204314499
270,1790564269.8373294,0.6327457369290866,-1.44967768742488,0.03357633150540799,1.582106170601974,0.8799158067264682,-1.5111703174769515,-0.10694545094889871,1.7519488819109834
271,1790564269.8573294,0.5944254244290866,-1.3634569842998798,4.605806790798362e-05,1.4873992521731239,0.8915487614502823,-1.5408070625895525,-0.10740947366745136,1.783390701221383
272,1790564269.8819053,0.5848453463040867,-1.45446772648738,0.11021695650540798,1.5715178089949313,0.9058727635811986,-1.5769560030375218,-0.1076908992029989,1.821810371329976
273,1790564269.9019053,0.6710660494290867,-1.4832079608623798,0.206017737755408,1.6409383919366858,0.9176650074649269,-1.606367911289863,-0.10741121881863099,1.8531227974085973
274,1790564269.9124572,0.6806461275540867,-1.3969872577373799,0.11021695650540798,1.557883284054455,0.9240230647217932,-1.621837271346902,-0.10703552760781836,1.8696607614853835
275,1790564269.9324572,0.44114417442908666,-1.3921972186748799,0.03836637056790799,1.4609220570274601,0.9359490761580874,-1.6509433931854618,-0.10620738490139094,1.9007616287350435
276,1790564269.956977,0.37408362755408664,-1.57900874211238,0.15332730806790798,1.6299436896625281,0.9498762077932311,-1.6867384951074305,-0.1049918676566796,1.9386528449629568
277,1790564269.9769769,0.5704752291165867,-1.61732905461238,0.10063687838040798,1.7179415121648205,0.9609490024460222,-1.7163504542456902,-0.10376817942773833,1.9697841765414656
278,1790564270.017408,0.5944254244290866,-1.4879979999248798,0.03836637056790799,1.6027949374073704,0.9835079674257676,-1.776649645000042,-0.10124398808354498,2.033229507013854
279,1790564270.0374079,0.5704752291165867,-1.58858882023738,0.028786292442907986,1.6881602641489406,0.9947406577931515,-1.8066184495252453,-0.10008191546629112,2.0647991641404633
280,1790564270.0324376,0.4267740572415867,-1.7658202655498798,-0.09575472318209202,1.8191828586408711,0.9947406577931515,-1.8066184495252453,-0.10008191546629112,2.0647991641404633
281,1790564270.0524375,0.35971351036658666,-1.97179194523738,-0.19155550443209202,2.01346735660688,1.0053074984374357,-1.8381541912698247,-0.09975866759850913,2.0974760520822135
282,1790564270.0775168,0.5513150728665867,-2.24003413273738,0.234757972130408,2.318795491387107,1.0182839614966397,-1.8796893737428484,-0.099332866253886,2.1400937797959427
283,1790564270.0975168,0.6854361666165867,-1.81851069523738,0.17248746431790798,1.9510396747748626,1.0289351892880438,-1.9139318317175862,-0.09843336900352634,2.1752084517007657
284,1790564270.1219306,0.8866178072415867,-1.5981688983623799,0.11500699556790799,1.8312459072555656,1.0428652695808789,-1.9557174788589942,-0.09697364805149168,2.218513627641037
285,1790564270.1419306,0.9440982759915867,-1.6364892108623799,0.344928870567908,1.9205193093927782,1.055311220071312,-1.989665899609744,-0.09526730306006673,2.254224483566486
286,1790564270.152489,0.9105680025540867,-1.62211909367488,0.440729651817908,1.911713123701223,1.0623647725898862,-2.0074800275657925,-0.09387946782561014,2.273193420189918
287,1790564270.172489,0.8674576509915867,-1.44967768742488,0.388039222130408,1.7333847269411835,1.076388705006049,-2.0407701739616484,-0.09040176778321411,2.3090101833500833
288,1790564270.198153,0.8626676119290867,-1.3586669452373799,0.316188636192908,1.640166616661136,1.0950151143903846,-2.0824860869115396,-0.08525305111530614,2.354373480492845
289,1790564270.218153,0.7956070650540867,-1.33950678898738,0.239548011192908,1.5762779860715357,1.1098407228108604,-2.1141661104159946,-0.08100891899551682,2.3891436159004025
290,1790564270.227537,0.5752652681790866,-1.3921972186748799,0.191647620567908,1.5185098073205088,1.1167182366106478,-2.1287231937385624,-0.0790128148098928,2.4051538579565928
291,1790564270.247537,0.5800553072415867,-1.2437060077373798,0.08147672213040799,1.3747389750022725,1.1309105784628544,-2.1590487810776553,-0.07498696932381578,2.4384571804976334
292,1790564270.272451,0.8003971041165867,-1.29639643742488,-0.07659456693209202,1.5254985987963587,1.1485175459143873,-2.1959052554984204,-0.07071509184101012,2.4791315149892457
293,1790564270.292451,0.7237564791165867,-1.3538769061748799,-0.05264437161959202,1.5360916470055177,1.1628178162430787,-2.225029526104051,-0.06799405195832774,2.5114786196400023
294,1790564270.3475237,0.4171939791165867,-1.10958491398738,-0.11970491849459203,1.191452376333737,1.2010016145236106,-2.3033728925001324,-0.06233707971014649,2.5984259603651467
295,1790564270.3675237,0.05794104942908665,-0.5970507342998799,-0.11491487943209203,0.6107635991542569,1.2135009721461485,-2.330116039869068,-0.06094280289150227,2.62787735518213
296,1790564270.3485215,-0.3587923490084134,-0.7790722186748799,4.605806790798362e-05,0.8577210932111443,1.2135009721461485,-2.330116039869068,-0.06094280289150227,2.62787735518213
297,1790564270.3685215,-0.4498030911959134,-0.7886522967998799,-0.16281527005709204,0.9223904153127832,1.2209352809836826,-2.353544103465455,-0.06032604908273872,2.6520731587770445
298,1790564270.4076226,-0.6893050443209134,-0.5826806171123798,-0.11491487943209203,0.909870086990232,1.2299490799353334,-2.3964983935989896,-0.0601155950783078,2.694363222456826
299,1790564270.4276226,-0.8904866849459134,-0.02703608586237983,-0.05264437161959202,0.8924510719742244,1.231498321248759,-2.4160881915274217,-0.060275434691255195,2.712508689848565
300,1790564270.4368284,-0.9048568021334134,0.4088574688251202,0.014416175255407985,0.9930448571389844,1.2308648878371748,-2.4234890304779277,-0.06036436570036692,2.718817998616986
301,1790564270.4568284,-0.8377962552584134,0.3370068828876202,0.129377112755408,0.9122579907808844,1.2270811768299166,-2.4360370422216104,-0.06031290099828448,2.728303929483102
302,1790564270.4826415,-0.6030843411959134,0.4998682110126202,-0.08138460599459202,0.7875293042608391,1.2201407068194554,-2.448182762076649,-0.060163528576661573,2.7360485798205274
303,1790564270.5026414,-0.7467855130709133,0.7776904766376203,-0.330466637244592,1.1276964477718217,1.213545051757853,-2.4542653496304094,-0.060682931217343576,2.7385748879998837
304,1790564270.5125597,-1.2353694974459135,1.3237549297626203,-0.5364383169320921,1.8884467101730842,1.2092903642333805,-2.4552661152837616,-0.06154673322156661,2.7376089717595833
305,1790564270.5325596,-1.3790706693209134,0.9405518047626202,-0.19155550443209202,1.680228293923682,1.1980761017129715,-2.4535849875907427,-0.06411929408257754,2.731222605482765
306,1790564270.5573125,-0.18156090369591338,0.3561670391376202,-0.16281527005709204,0.4316574263031966,1.1833814706566042,-2.449409133663529,-0.06748349793799553,2.7211304326808103
307,1790564270.5773125,-0.018699575570913358,0.4088574688251202,-0.10054476224459202,0.42145385649610323,1.172988972195213,-2.445393668288508,-0.07018903513837087,2.7130757126277847
308,1790564270.6024215,-0.8186360990084134,1.2902246563251203,-0.06222444974459202,1.5292863069206515,1.1603219125804207,-2.437908945919864,-0.0733827341768037,2.700950202259503
309,1790564270.6224215,-1.4940316068209134,1.5776270000751202,-0.038274254432092016,2.1731319131838815,1.148276732224676,-2.428539671160712,-0.07569576326394482,2.6873917162829226
310,1790564270.6323564,-0.9000667630709134,0.8208008282001202,0.11979703463040799,1.2240038835989018,1.141406965618692,-2.4227965362422603,-0.0766116581359762,2.679295105685954
311,1790564270.6523564,-0.04264977088341336,0.4375977032001202,0.07668668306790799,0.4463088618461277,1.1282377768487573,-2.411081646667107,-0.07788415491033393,2.663137459762393
312,1790564270.6769714,-0.18635094275841338,1.0698828594501202,-0.16281527005709204,1.0981278700478734,1.1140381890755315,-2.3960432219752543,-0.07937436990023919,2.643559059088582
313,1790564270.6969714,-0.8186360990084134,1.4722461407001202,-0.23945589505709203,1.7014737397573034,1.1027239954328054,-2.3818439885091442,-0.08100696883561487,2.6259746999353157
314,1790564270.7367866,-0.9240169583834134,1.2998047344501202,-0.12928499661959203,1.60000446794064,1.0783749113302767,-2.3495390676612455,-0.08487067793714985,2.5865864207148714
315,1790564270.7567866,-0.5216536771334134,0.9213916485126202,4.605806790798362e-05,1.0588130764856283,1.0658100220089581,-2.3324139685898,-0.08671423307943144,2.5658576114247085
316,1790564270.7524529,-0.4066927396334134,0.8447510235126202,-0.18197542630709201,0.9550488636587129,1.0658100220089581,-2.3324139685898,-0.08671423307943144,2.5658576114247085
317,1790564270.7724528,-0.6557747708834134,1.0363525860126201,-0.38315706693209206,1.28486441720605,1.0539545491758333,-2.3149676020280157,-0.08912585932445086,2.5451598395715926
318,1790564270.7975478,-0.6270345365084133,0.7106299297626202,-0.320886559119592,1.0005675343885383,1.0388958317166548,-2.2930723528865524,-0.09302304753328969,2.5191543525761357
319,1790564270.8175478,-0.11450035682091336,0.3178467266376202,-0.22029573880709202,0.4033200787004399,1.02758237100839,-2.2766972389489135,-0.09647487493518354,2.4997166336484202
320,1790564270.8423107,0.24954261192908667,0.2891064922626202,-0.19634554349459202,0.4294247914210053,1.015926628052928,-2.2583364508179766,-0.10088144975551847,2.478380016378623
321,1790564270.8623106,0.024410775991586645,0.5956689922626202,-0.21071566068209202,0.6323120463698026,1.0083357610922545,-2.2444044044208438,-0.10451720340567211,2.462725316288628
322,1790564270.8717902,-0.16719078650841337,0.9645020000751202,-0.359206871619592,1.0427111027801244,1.005176040381895,-2.2376822344606304,-0.10638717071572985,2.4553856895957185
323,1790564270.8917902,0.5369449556790866,0.6148291485126202,-0.38315706693209206,0.9017394885608446,1.0000642253878291,-2.223258120356907,-0.11085419810952929,2.440347060946863
324,1790564270.9172497,1.0351090181790867,-0.02703608586237983,-0.359206871619592,1.0959978129874006,0.9975348646570162,-2.2065284121292623,-0.1171051777554272,2.4243673530216303
325,1790564270.9372497,0.7093863619290867,-0.23300776554987984,-0.402317223182092,0.8481631785019215,0.9984626858035993,-2.1957476196542838,-0.12242140321926814,2.415206480640064
326,1790564270.962333,0.6087955416165867,-0.6784813983623799,-0.330466637244592,0.9696273602512216,1.001931608321858,-2.1859695853541004,-0.1294672677215712,2.4081303430792302
327,1790564270.982333,1.2506607759915866,-0.7838622577373798,-0.13407503568209203,1.4820824980081826,1.0070718212409004,-2.1815361237588555,-0.13493935099508075,2.4065539970774084
328,1790564270.991891,1.6721842134915867,-0.8030224139873798,0.191647620567908,1.8648790447870705,1.0112550798050375,-2.1808727443248004,-0.13712091593639866,2.4078299169495994
329,1790564271.011891,1.4997428072415868,-0.8078124530498799,0.282658362755408,1.7267556854433426,1.0234533934402696,-2.182109094345375,-0.1402896328292996,2.414277972655298
330,1790564271.0371873,1.4949527681790866,-0.6114208514873799,-0.08617464505709202,1.6174502484375162,1.042249439527824,-2.1861309117089487,-0.14332354525593108,2.426106736306173
331,1790564271.0571873,1.7967252291165867,-0.8173925311748799,-0.36399691068209206,2.0071985078588104,1.0598184666337465,-2.1909769133664634,-0.14603768339953124,2.438221077362642
332,1790564271.0827444,2.0505972994290866,-1.2868163592998798,-0.36878694974459203,2.4488465532347226,1.0862759731853013,-2.200273822093408,-0.1503902972191848,2.4584177073082767
333,1790564271.1027443,1.7823551119290868,-2.09154292179988,-0.09575472318209202,2.7496382499817327,1.1096243499490879,-2.211525456156605,-0.1539823724038204,2.4790767661046167
334,1790564271.1275349,1.4853726900540867,-2.17776362492488,-0.08617464505709202,2.6375011855646973,1.1402998125414747,-2.231318035521711,-0.15810523618787503,2.5107889405198147
335,1790564271.1475348,1.7392447603665868,-1.70354975773738,-0.5029080434945921,2.4859546684847795,1.1661722852902738,-2.2507126663099766,-0.16181609342220296,2.540049163570998
336,1790564271.1567657,1.9068961275540868,-1.42093745304988,-0.34483675443209205,2.402962437069691,1.1788466302524545,-2.260484530699206,-0.1638588112376883,2.554666201523832
337,1790564271.1767657,1.8350455416165867,-1.3682470233623798,0.196437659630408,2.2974071930913764,1.207801224162957,-2.282664641562967,-0.1678433776059603,2.5879553826017756
338,1790564271.2026036,1.7536148775540867,-1.1239550311748798,0.503000159630408,2.1427667188638564,1.2465508613808183,-2.3118503760546614,-0.17086347640554111,2.6320591822454764
339,1790564271.2226036,1.8206754244290868,-0.6449511249248798,0.06710660494290799,1.9326986964058488,1.2774075234919333,-2.3337064174466176,-0.17199538390621513,2.6659966309037917
340,1790564271.2477078,1.6051236666165867,-0.6114208514873799,-0.19634554349459202,1.728817230136377,1.3167796852157665,-2.359390875380644,-0.17344638731353512,2.7075298135936547
341,1790564271.2677078,1.2889810884915867,-0.8078124530498799,0.014416175255407985,1.5212629726317586,1.3477826662591945,-2.378912585955168,-0.17470186376438612,2.73975618409511
342,1790564271.276755,0.9872086275540867,-0.8988231952373799,0.08147672213040799,1.337573350087042,1.3612480995445946,-2.3875768953783343,-0.17511953850973266,2.753940208614936
343,1790564271.296755,0.9105680025540867,-0.8126024921123799,-0.009534020057092018,1.220470317132309,1.3893965546991023,-2.4064244257276473,-0.17579644296771,2.7842783072653625
344,1790564271.3220055,0.9201480806790867,-0.7647021014873798,-0.07180452786959202,1.1985815302344673,1.423070892983016,-2.4296376213858317,-0.17667689679567736,2.821255830932429
345,1790564271.3420055,1.0111588228665866,-0.8126024921123799,-0.08138460599459202,1.2997647592318722,1.4486392702048008,-2.4476319781361977,-0.17749945029792757,2.8497305294414206
346,1790564271.3668807,0.9872086275540867,-0.8748729999248799,-0.07180452786959202,1.321037293393853,1.4793982718832572,-2.4698037479754524,-0.17865484550467792,2.884522032189572
347,1790564271.3868806,0.9009879244290867,-0.9898339374248799,-0.08138460599459202,1.3409600731334135,1.5032516326222864,-2.4877532576666193,-0.17967423985112002,2.9122095691207606
348,1790564271.3969345,0.9057779634915867,-0.9084032733623799,0.191647620567908,1.2970578385992637,1.514806310050643,-2.496854251586302,-0.1800266740978949,2.9259748655825097
349,1790564271.4169345,1.1596500338040867,-0.6545312030498799,0.431149573692908,1.3996746949071126,1.5374421265361062,-2.514587421952614,-0.1796884064032183,2.9528234147144468
350,1790564271.4565732,1.5428531588040868,-0.21384760929987984,-0.08617464505709202,1.5599848521975266,1.5836098180151024,-2.5470431955922157,-0.17809296581342005,3.004491005211807
351,1790564271.4765732,1.1979703463040867,-0.34317866398737984,-0.38794710599459203,1.305146544679821,1.6075211150472402,-2.5617981317248284,-0.17811990673781344,3.0296304236998663
352,1790564271.487198,0.8195572603665867,-0.6832714374248798,-0.11012484036959203,1.0726888834544128,1.6199261541071388,-2.5692787857765795,-0.17852896893682618,3.042569114506944
353,1790564271.507198,0.8961978853665867,-0.7694921405498799,0.057526526817907986,1.1826233996464426,1.642348041722374,-2.5834270930523635,-0.1792623722757768,3.0665188134724106
354,1790564271.517024,1.2554508150540866,-0.8365526874248799,-0.16760530911959204,1.5179159026450817,1.6532971391418174,-2.5905190375145013,-0.1796497658555121,3.078385023415933
355,1790564271.537024,1.6003336275540867,-1.07126460148738,-0.08138460599459202,1.927511094643357,1.6765239749992764,-2.6056506179282914,-0.1806934845979783,3.1036749051460952
356,1790564271.5621395,1.5428531588040868,-1.2005956561748798,-0.23945589505709203,1.9695595763863891,1.7072372172742536,-2.6260816244716687,-0.18241191471203574,3.1375528236291106
357,1790564271.5821395,1.5859635103665868,-1.10958491398738,-0.6609793325570921,2.0453245746409805,1.7327193860399124,-2.643376077937221,-0.1849257243055257,3.1660623941544834
358,1790564271.607229,1.3656217134915867,-1.6412792499248798,-0.5987088247445921,2.217469841377944,1.765445181921581,-2.6669935737892585,-0.18997658287984404,3.204019743235991
359,1790564271.627229,1.2650308931790868,-1.9622118671123798,-0.39273714505709206,2.3674503241339035,1.7915652915730809,-2.6884013964029574,-0.19488607871642927,3.236539640700879
360,1790564271.6375492,1.1404898775540866,-1.65564936711238,-0.6561892934945921,2.1148230130485843,1.804883696498682,-2.7005913213756947,-0.19785130832617448,3.2542193815388116
361,1790564271.6575491,1.7057144869290868,-1.6364892108623799,-0.34483675443209205,2.388822143943745,1.8310918142548158,-2.7256094450461656,-0.20423733664174537,3.2899174714321293
362,1790564271.6821618,1.7152945650540867,-1.3299267108623798,-0.15802523099459204,2.1762151719901714,1.864821545834165,-2.7572552399457364,-0.21184563104948703,3.3354001899937438
363,1790564271.7021618,1.8973160494290868,-1.49278803898738,0.273078284630408,2.429567054086318,1.8935376040483702,-2.7833470790777315,-0.21692810551158964,3.373360849882003
364,1790564271.7271755,1.7919351900540867,-1.6748095233623799,0.49821012056790803,2.502844779273335,1.930986279600987,-2.8170273568253226,-0.22088423845597002,3.4224466377005496
365,1790564271.7471755,1.5189029634915867,-1.6077489764873798,0.445519690880408,2.2561938699637305,1.961403674999329,-2.8448412266926297,-0.22215734110889154,3.4625972716444333
366,1790564271.7720904,1.4039420259915867,-1.45925776554988,0.134167151817908,2.0294056428644125,1.9990739763663874,-2.8800240710479565,-0.22242219734017088,3.5128773173383947
367,1790564271.7920904,1.3752017916165866,-1.25807612492488,-0.0047439809945920165,1.8638556835568436,2.028945880100107,-2.9081060188424384,-0.22240877941623405,3.5529097464422357
368,1790564271.8173883,1.3991519869290867,-1.4400976092998798,0.292238440880408,2.029017179120732,2.06632687918829,-2.94341798771105,-0.2218488779588807,3.6031421213558312
369,1790564271.8373883,1.2794010103665867,-1.25807612492488,0.225177894005408,1.8084047017694231,2.0954644529943574,-2.971194619964465,-0.2206965046598977,3.6424820782864287
370,1790564271.8472216,1.1117496431790868,-0.7886522967998799,-0.18676546536959202,1.3758056016063,2.109405019539468,-2.9843124142011948,-0.2201865788947472,3.661173616688922
371,1790564271.8672216,1.0494791353665867,-0.5683104999248798,-0.320886559119592,1.2358606166223909,2.1367474708662955,-3.0090260495072343,-0.22006649069696005,3.6970740838119944
372,1790564271.8922057,1.0877994478665867,-0.29527827336237983,-0.311306480994592,1.16936248554841,2.169785253262361,-3.036885834703908,-0.22112358697699508,3.7389222055316464
373,1790564271.9122057,0.9345181978665867,-0.18031733586237983,-0.36878694974459203,1.0207068227744143,2.195298675516476,-3.0565559035818874,-0.22286300778476129,3.769819383827898
374,1790564271.9222596,0.6087955416165867,-0.22821772648737984,-0.431057457557092,0.780080684218553,2.207364027066215,-3.0652687795356863,-0.22420935998422653,3.7839923990260225
375,1790564271.9422596,0.3166031588040867,0.10229496882512018,-0.584338707557092,0.6724236357841318,2.229153294512923,-3.08019016996413,-0.22800898495972408,3.809026646113655
376,1790564271.9670312,0.24954261192908667,0.3513770000751202,-0.5029080434945921,0.6623094530215767,2.2531448173984874,-3.0950565110313426,-0.2340291924349265,3.835466860443317
377,1790564271.9870312,0.33097327599158666,0.7106299297626202,-0.589128746619592,0.980617604669935,2.2704801712994684,-3.103665775531637,-0.23979871338829337,3.8529631295164433
378,1790564272.0122313,0.28307288536658665,0.8303809063251202,-0.7998904653695921,1.1872183727555243,2.2902070009124262,-3.109973828304371,-0.24860316744773678,3.8702440303721786
379,1790564272.0322313,0.09147132286658664,0.6818896953876202,-0.890901207557092,1.1256311657063647,2.3040765179915366,-3.111960831224342,-0.25707882923356695,3.8806131397337977
380,1790564272.0425687,-0.15282066932091337,0.5669287578876202,-0.7951004263070921,0.9884063240415915,2.3101223584136386,-3.1118655861706346,-0.2621096682989937,3.8844657567613474
381,1790564272.0625687,-0.3683724271334134,0.5812988750751202,-0.5172781606820921,0.8609200443446595,2.319283075262055,-3.109986613963978,-0.272351549975476,3.8891215060738573
382,1790564272.0878382,-0.47375328650841336,0.8447510235126202,-0.30651644193209204,1.0158734160208405,2.327525266404854,-3.105266013636545,-0.2849121376834303,3.8911728061599278
383,1790564272.1078382,-0.3013118802584134,0.9405518047626202,-0.320886559119592,1.0384578616634832,2.3319075784255006,-3.0994122926420036,-0.29430333791541174,3.889828269834903
384,1790564272.131899,0.029200815054086646,0.9740820782001203,-0.469377770057092,1.0816672657033939,2.3358978514053708,-3.089971229204298,-0.30533279301455546,3.885559043947295
385,1790564272.151899,0.10105140099158665,0.7968506328876203,-0.37836702786959203,0.8878873377600517,2.338912508700763,-3.080644363379742,-0.3143971372251338,3.8806864053767125
386,1790564272.161464,0.033990854116586644,0.5429785625751202,-0.12449495755709203,0.5581040154280034,2.3402348646148097,-3.0758917735878737,-0.3184425983714768,3.8780426909514327
387,1790564272.181464,0.09147132286658664,0.5429785625751202,-0.08617464505709202,0.5573318506723107,2.3427733263077903,-3.0658158983003108,-0.3259487395861473,3.8722159755840075
388,1790564272.2072723,0.2878629244290867,0.5812988750751202,0.03357633150540799,0.6495389252861044,2.346291900239108,-3.0525879419318978,-0.3342837006439873,3.8645988688183284
389,1790564272.2272723,0.3357633150540867,0.6914697735126202,0.12458707369290799,0.77871008106295,2.349545027983463,-3.0419655185185057,-0.3395367055758661,3.858652773807289
390,1790564272.252353,0.18248206505408665,0.7154199688251202,0.191647620567908,0.7627937115167381,2.3539874803090837,-3.0279963277873487,-0.34454118726570626,3.8508086745861627
391,1790564272.272353,0.14895179161658664,0.6914697735126202,0.191647620567908,0.732834152026723,2.357495777644752,-3.016417511559444,-0.34735834216493144,3.8441148218447987
392,1790564272.296431,0.13937171349158664,0.6818896953876202,0.06231656588040799,0.6987713399822074,2.361606565676072,-3.002088564941421,-0.34978257371516625,3.8356315218841313
393,1790564272.316431,0.05794104942908665,0.6291992657001202,-0.0047439809945920165,0.6318792499538115,2.3648048914816453,-2.9900052069977234,-0.3514078053059682,3.8283052070438393
394,1790564272.3270166,-0.06180992713341336,0.5908789532001202,-0.028694176307092017,0.5947955616689234,2.3662407024169543,-2.9836004319493106,-0.3521655215850291,3.8242629556420478
395,1790564272.3470166,-0.12887047400841337,0.5477686016376202,-0.019114098182092018,0.5630483005573338,2.36826053966817,-2.9716066378860186,-0.35345409736262806,3.8162853395704115
396,1790564272.3718886,-0.057019888070913356,0.4471777813251202,-0.28735628568209204,0.5345959882635527,2.3700488756318423,-2.9570724551159198,-0.3553878954490549,3.8062724198250395
397,1790564272.3918886,-0.08097008338341335,0.20767582820012018,-0.38315706693209206,0.44327727435740083,2.37106421330044,-2.9461561039991917,-0.35771540988489325,3.7986499716603066
398,1790564272.4014497,0.024410775991586645,0.1406152813251202,-0.272986168494592,0.308042191129741,2.371436233682092,-2.941470541202758,-0.35913169189524247,3.795383291224681
399,1790564272.4214497,0.09147132286658664,0.29389653132512017,-0.12928499661959203,0.33385144058821825,2.3722715250820183,-2.932487639682375,-0.36225330907469505,3.7892457568149944
400,1790564272.4472427,0.13937171349158664,0.3896973125751202,-0.06222444974459202,0.41852162679587906,2.373633738549478,-2.921318123264978,-0.3660457182404808,3.7818284162477513
401,1790564272.4672427,0.14895179161658664,0.3705371563251202,-0.03348421536959202,0.40075630141298446,2.3749640460218036,-2.912816044980908,-0.36868882382464563,3.776358428513861
402,1790564272.4919112,0.11542151817908665,0.12145512507512017,4.605806790798362e-05,0.16755141416032254,2.376847880219287,-2.9029921264606005,-0.3715217481319002,3.7702516549071547
403,1790564272.5119112,0.2974430025540867,-0.09888667179987984,-0.04785433255709202,0.31708193069383867,2.378765399207063,-2.8961882326921766,-0.3735457378697038,3.766426359552247
404,1790564272.5374281,0.6040055025540867,-0.5204101092998799,0.014416175255407985,0.7974065180860527,2.3825700654523954,-2.8899947878603216,-0.3758046931189951,3.764297963501285
405,1790564272.5574281,0.5656851900540867,-0.7934423358623799,0.191647620567908,0.9931159474374675,2.3868593530346303,-2.8878393540437757,-0.37700056391550085,3.7654804648444893
406,1790564272.5674112,0.47946448692908666,-0.8413427264873798,0.13895719088040798,0.9782907944659218,2.3894617490304584,-2.8881488574915934,-0.37726041501697,3.767393886209467
407,1790564272.5874112,0.7189664400540867,-0.7359618671123799,0.07189664400540799,1.031368866694563,2.3956909685520484,-2.89104186015989,-0.3773866304841428,3.7735764101004743
408,1790564272.6115825,1.0063687838040867,-0.6784813983623799,0.06231656588040799,1.2153182675012395,2.405217919137162,-2.896577969434574,-0.3772729809361455,3.7838567723549823
409,1790564272.6315825,0.9153580416165867,-0.8030224139873798,0.268288245567908,1.246877670193904,2.4148009180431136,-2.9026938309052444,-0.3766971431875294,3.794574506771856
410,1790564272.6566706,0.8051871431790867,-0.8317626483623799,0.301818519005408,1.1963485517048604,2.428256120880832,-2.9122908523066737,-0.37501044364393527,3.810314767819895
411,1790564272.6766706,0.8674576509915867,-0.6880614764873798,0.023996253380407985,1.1074688220740714,2.4398824954074447,-2.921073645199086,-0.37337879374644484,3.8242789589270143
412,1790564272.6872532,0.9201480806790867,-0.7838622577373798,-0.14365511380709203,1.2172712603218225,2.446530451837687,-2.9261921021361585,-0.37273990885216984,3.8323682638838705
413,1790564272.7072532,0.8578775728665867,-0.9994140155498799,0.10063687838040798,1.3209504478954366,2.459876738504265,-2.9370892828312334,-0.37177813399438164,3.849117561841001
414,1790564272.731542,0.6423258150540867,-0.9563036639873799,0.182067542442908,1.1662965919746935,2.476386699911662,-2.9519008790893113,-0.3702703207752605,3.870828076512135
415,1790564272.751542,0.9249381197415867,-0.8365526874248799,-0.06222444974459202,1.2486804260237716,2.4902930431839185,-2.9649569117673047,-0.3690352261800984,3.889565004949619
416,1790564272.7766814,1.0638492525540868,-1.13832514836238,-0.28735628568209204,1.5843399289531055,2.5089006538388547,-2.9826298056142755,-0.3683747401332051,3.914889908712618
417,1790564272.7966814,1.0638492525540868,-1.8807812030498798,-0.23466585599459203,2.173518168747461,2.5246752330484665,-2.999109411271684,-0.36871113176655845,3.9375868487990577
418,1790564272.8067315,0.9488883150540867,-2.07238276554988,0.004836097130407984,2.2792943533536443,2.5329301055000277,-3.0091280250744714,-0.369028049201195,3.9505402278339363
419,1790564272.8267314,0.7333365572415866,-1.62690913273738,0.14853726900540798,1.7907202887818137,2.549416811832317,-3.0316237519706757,-0.36933406498958526,3.9782755441934565
420,1790564272.8517456,0.6183756197415867,-0.9563036639873799,0.14374722994290798,1.1478538107976723,2.569479773230669,-3.060385292272314,-0.36911104737524236,4.01303219616946
421,1790564272.8717456,0.8818277681790867,-0.6880614764873798,0.03836637056790799,1.1191607509863166,2.5853651528736306,-3.0823985934880564,-0.3686863112613435,4.039953422867884
422,1790564272.8971384,1.1165396822415867,-0.7694921405498799,-0.177185387244592,1.3675429345513053,2.6063143623786567,-3.1089310607530485,-0.36849231364633683,4.073587298840271
423,1790564272.9171383,1.1213297213040867,-0.9515136249248799,-0.24424593411959203,1.4907765086127223,2.6236962661441185,-3.1292755561571486,-0.36899458226069676,4.100281039767758
424,1790564272.9270182,0.9249381197415867,-0.9658837421123799,-0.22029573880709202,1.3553494535228465,2.6325110650606653,-3.139238835415554,-0.3695497007403353,4.1135753250384655
425,1790564272.9470181,0.6662760103665867,-0.9658837421123799,-0.27777620755709204,1.2058253384100994,2.650065298459329,-3.15928006111948,-0.3712519870893881,4.140256589705916
426,1790564272.9867783,0.4650943697415867,-0.9275634296123799,-0.39752718411959204,1.1111771014710734,2.6831023105141476,-3.198792128135878,-0.37614228188848353,4.19199142460176
427,1790564273.0067782,0.5034146822415867,-0.9850438983623799,-0.44542757474459205,1.192536602515915,2.698680502196159,-3.218554964804561,-0.3794976257113769,4.217344064968184
428,1790564273.01672,0.4746744478665867,-1.06168452336238,-0.19634554349459202,1.1794241947047042,2.7059920167792435,-3.228431423545082,-0.38139388035892297,4.229730906734087
429,1790564273.03672,0.5608951509915867,-0.9371435077373799,0.06710660494290799,1.0942324345984078,2.720047675637985,-3.2483178884745194,-0.3848302344393139,4.254212356202472
430,1790564273.0474262,0.4938346041165867,-0.6162108905498799,0.06710660494290799,0.7925224124794361,2.7272900980758283,-3.2586137831483333,-0.38628605305409525,4.266836296551681
431,1790564273.0674262,0.3453433931790867,-0.4054491717998798,0.047946448692907984,0.5347428840741271,2.7400488565520393,-3.276494767660919,-0.3884251177818988,4.288841308666643
432,1790564273.0924938,0.2974430025540867,-0.43897944523737986,0.201227698692908,0.5671577204187138,2.7548501707305353,-3.297132262362911,-0.39023555459848075,4.314228135687914
433,1790564273.1124938,0.3070230806790867,-0.42460932804987983,0.402409339317908,0.6606735426115705,2.765794623862725,-3.3124233010577635,-0.3905578774358749,4.332932434553484
434,1790564273.137414,0.3166031588040867,-0.19947749211237983,0.215597815880408,0.43186948055699953,2.778551577924479,-3.329784630702975,-0.38974418715411246,4.354275495357728
435,1790564273.157414,0.37887366661658667,-0.06056635929987983,-0.02390413724459202,0.38442807768391074,2.788297282252782,-3.3420181815019867,-0.38890156678897453,4.369774786915112
436,1790564273.1665194,0.3357633150540867,-0.18510737492487983,0.004836097130407984,0.38343856329683984,2.7925567233670305,-3.346920114872682,-0.38858850981913484,4.376213927417766
437,1790564273.1865194,0.23038245567908666,-0.23779780461237984,0.06710660494290799,0.33782712767058454,2.8013583738731294,-3.3567064462017164,-0.3878961143830877,4.389253957154309
438,1790564273.212098,0.2974430025540867,0.04002446101262017,-0.08617464505709202,0.31225048710683695,2.8119391095220765,-3.3677244479838753,-0.3871800000294443,4.404370314316328
439,1790564273.2320979,0.27349280724158664,-0.07014643742487983,-0.20592562161959202,0.3494627303958201,2.819827681728142,-3.3750924160632416,-0.38714220603702254,4.415037492400617
440,1790564273.2573142,0.3261832369290867,-0.6832714374248798,-0.06701448880709202,0.7600962458559272,2.8294159518561264,-3.3844135175657164,-0.3876178937025019,4.428328930648425
441,1790564273.2773142,0.35492347130408664,-0.8700829608623799,0.03836637056790799,0.9404716942344106,2.836901690590178,-3.3930275107527246,-0.38798155798827116,4.439727083970055
442,1790564273.3016691,0.21601233849158666,-0.6018407733623798,-0.10054476224459202,0.6472888814716755,2.845692954621357,-3.4046323775015206,-0.3884715579944182,4.454256410365696
443,1790564273.321669,0.09626136192908664,-0.34796870304987987,-0.253826012244592,0.4413344679431348,2.8522977534238985,-3.4141574014064124,-0.3893451384694717,4.465832830795956
444,1790564273.331847,0.09147132286658664,-0.36233882023737984,-0.29693636380709204,0.4773129243053841,2.8552980226830953,-3.4188197421673325,-0.3901434319193688,4.471383133353808
445,1790564273.351847,0.16811194786658665,-0.5299901874248799,-0.15323519193209204,0.57674279347784,2.860698723297538,-3.427945705402127,-0.39215207186200296,4.481985295840082
446,1790564273.3766785,0.25912269005408667,-0.7551220233623799,0.253918128380408,0.8377519051532919,2.867193971881907,-3.439970058198395,-0.39408436392617485,4.4954974985632585
447,1790564273.3966784,0.5225748384915867,-0.7407519061748798,0.546110511192908,1.0583168423310692,2.8728132468942924,-3.4504458918961163,-0.39420719384827047,4.507109064146977
448,1790564273.4229789,0.6854361666165867,-0.44376948429987984,0.411989417442908,0.9145979301238163,2.8814771409857656,-3.4644919644273147,-0.39245460634154006,4.523232881871508
449,1790564273.4429789,0.38366370567908664,-0.34796870304987987,0.225177894005408,0.5647876957816407,2.8886809280239483,-3.474758623754907,-0.39036602466053316,4.535505554014642
450,1790564273.466999,0.36929358849158667,-0.39107905461237985,0.06231656588040799,0.5414830891548077,2.8973914443167383,-3.4865708433573057,-0.38771595123408303,4.549876601204748
451,1790564273.486999,0.4842545259915867,-0.41981928898737986,0.009626136192907983,0.6409706263528852,2.9048365210370606,-3.496147136069277,-0.38573248193258053,4.56178797826181
452,1790564273.4973865,0.43156409630408665,-0.6305810077373799,0.023996253380407985,0.7644970874464789,2.908836742274152,-3.501193063011433,-0.38483065433016084,4.568126387283485
453,1790564273.5173864,0.37887366661658667,-0.6689013202373799,-0.019114098182092018,0.7689860728388525,2.9165991333194765,-3.511400415229976,-0.38334740602818845,4.580768343222097
454,1790564273.541908,0.4459342134915867,-0.6497411639873799,0.08147672213040799,0.7922495561318738,2.9262057730538085,-3.5244633372763388,-0.3816869190146413,4.596760483884863
455,1790564273.561908,0.6183756197415867,-0.6401610858623799,0.277868323692908,0.9324191269247963,2.934462192855623,-3.535454268347794,-0.37999674279207324,4.610303977983475
456,1790564273.5714664,0.7045963228665867,-0.6305810077373799,0.306608558067908,0.9940307809100715,2.938764647778813,-3.540830132186596,-0.378891134142501,4.617074200353171
457,1790564273.5914664,0.6614859713040867,-0.6162108905498799,0.186857581505408,0.9231442507162341,2.9484658201908616,-3.552261460573803,-0.3761845760046853,4.63179522564799
458,1790564273.61699,0.6710660494290867,-0.5970507342998799,0.11021695650540798,0.9049569047892293,2.961540102510453,-3.566984186582532,-0.3726799366781398,4.651127422605178
459,1790564273.63699,0.6614859713040867,-0.5060399921123798,-0.03348421536959202,0.8335234588949045,2.972247027909165,-3.5784448629503602,-0.3702305797468908,4.666539479557674
460,1790564273.6618125,0.4938346041165867,-0.4964599139873799,-0.05264437161959202,0.702222537578056,2.9856932080818566,-3.592401713302739,-0.367806959978188,4.6856158573164075
461,1790564273.6818125,0.36929358849158667,-0.47729975773737987,-0.12928499661959203,0.6171769791462436,2.996196685065491,-3.60342087625441,-0.3664200072311518,4.700648913578083
462,1790564273.6924815,0.34055335411658666,-0.5443603046123798,-0.16760530911959204,0.6636235890041992,3.001527305712817,-3.609234830648234,-0.3660286816372101,4.7084731310144585
463,1790564273.7124815,0.37887366661658667,-0.5635204608623798,-0.13886507474459203,0.6930974491728177,3.0111002613241418,-3.6201606107814164,-0.3658648481936815,4.722938144708586
464,1790564273.737365,0.38845374474158667,-0.33838862492487987,-0.14844515286959203,0.5361335064074892,3.022656176624667,-3.6333983706474005,-0.3662277826053305,4.740480658188835
465,1790564273.757365,0.37408362755408664,-0.19468745304987983,-0.24424593411959203,0.48733750226411454,3.0316947835379358,-3.6432417931357315,-0.3670647692019734,4.753853233806371
466,1790564273.7813678,0.24954261192908667,-0.22821772648737984,-0.31609652005709205,0.46289508081601266,3.0420379010548237,-3.654044578853018,-0.3689273292946841,4.768872377197746
467,1790564273.8013678,0.13937171349158664,-0.23300776554987984,-0.33525667630709205,0.43140947177433064,3.0499467881784974,-3.6623874927687896,-0.37122351692127203,4.780487889057454
468,1790564273.8116996,0.17290198692908665,-0.17552729679987983,-0.253826012244592,0.3537408281466686,3.053661596750036,-3.6663674765971255,-0.37268825845291126,4.786020910830188
469,1790564273.8316996,0.20164222130408666,-0.050986281174879834,-0.23945589505709203,0.3171723694745229,3.060335732061782,-3.6732558836519464,-0.37583825588004544,4.795802120010866
470,1790564273.8574297,0.17769202599158665,-0.11804682804987983,-0.292146324744592,0.36174436384746234,3.0683661346296405,-3.6811147684429564,-0.3803087426031958,4.8072977247400965
471,1790564273.8774297,0.32139319786658666,-0.21863764836237984,-0.24903597318209203,0.46164372069280246,3.0744204752182736,-3.6868121857817804,-0.3840741806008763,4.815823743439394
472,1790564273.901397,0.26870276817908667,-0.21384760929987984,-0.18197542630709201,0.38864769832076185,3.081648209780383,-3.6933930424970476,-0.38868445493828885,4.82584536228824
473,1790564273.921397,0.26391272911658664,-0.11325678898737983,-0.18197542630709201,0.3399883595377121,3.087573764978891,-3.6985515008314978,-0.39250044866016537,4.83388576206423
474,1790564273.9471862,0.3980338228665867,-0.18031733586237983,-0.15323519193209204,0.4630618639067146,3.0953487713688856,-3.7047732308750265,-0.397331310650644,4.844006696841615
475,1790564273.9671862,0.6710660494290867,-0.32401850773737984,-0.10533480130709202,0.7526041830996719,3.1020776143277864,-3.7096310267178247,-0.4009036138653319,4.852316105460504
476,1790564273.976352,0.7237564791165867,-0.47250971867487984,-0.09575472318209202,0.8696308655499363,3.105657649758354,-3.712070917650436,-0.40243342335115795,4.85659681211019
477,1790564273.996352,0.6183756197415867,-0.44376948429987984,-0.06701448880709202,0.7640750643730292,3.1143108320523942,-3.717970665160721,-0.4055149549081225,4.866896362599954
478,1790564274.021196,0.5800553072415867,-0.45334956242487984,-0.07180452786959202,0.7396930954338675,3.12568048121414,-3.72587161754435,-0.40902730648293956,4.8805021379479285
479,1790564274.0411959,0.6614859713040867,-0.38149897648737985,-0.07180452786959202,0.7669817791288164,3.1353227135380535,-3.732530282428375,-0.41164612048848875,4.8919815367380215
480,1790564274.0669916,0.7524967134915866,-0.45813960148737987,-0.0047439809945920165,0.8810026694751448,3.148629268784067,-3.741454727794939,-0.4146652706584568,4.907575474618097
481,1790564274.0869915,0.7141764009915866,-0.5156200702373799,0.129377112755408,0.8903091743152048,3.1595986154155304,-3.748796789454232,-0.41646801351383783,4.920364456566023
482,1790564274.0970418,0.6327457369290866,-0.41981928898737986,0.134167151817908,0.7711136282252646,3.1652993129657574,-3.7526379713775855,-0.41703938117323064,4.927000439449516
483,1790564274.1170418,0.5465250338040867,-0.35754878117487987,0.13895719088040798,0.6677123964639075,3.1767108944642084,-3.760301345965212,-0.41759615814602513,4.940217087413639
484,1790564274.1419346,0.5273648775540867,-0.34317866398737984,0.11021695650540798,0.6387746762318578,3.1907886336260654,-3.769717007623135,-0.41771999943413846,4.9564491745570916
485,1790564274.1619346,0.6135855806790866,-0.39107905461237985,0.009626136192907983,0.7276831413959026,3.2021141336451047,-3.777248607930774,-0.4176248095944345,4.969461988243143
486,1790564274.1874955,0.6806461275540867,-0.5299901874248799,-0.06222444974459202,0.8648934222590958,3.2168985732673843,-3.787196215964689,-0.41762223565384377,4.986551908946653
487,1790564274.2074955,0.5417349947415867,-0.6257909686748798,-0.07659456693209202,0.8312387555246844,3.2285649608202496,-3.795545829431387,-0.4178287521069128,5.000438052374759
488,1790564274.2173738,0.5034146822415867,-0.5299901874248799,-0.07659456693209202,0.7349712026648199,3.2342372170734914,-3.7999075615083515,-0.41802894910957733,5.007428087811674
489,1790564274.2373738,0.5369449556790866,-0.45334956242487984,-0.12928499661959203,0.7145280411089366,3.245559284616391,-3.808888785024809,-0.418682292257143,5.021611664445701
490,1790564274.2623181,0.6519058931790866,-0.42460932804987983,-0.24903597318209203,0.8168802182494963,3.259786322671646,-3.8200525909619514,-0.42008269507221757,5.039392635813505
491,1790564274.282318,0.6950162447415866,-0.5347802264873799,-0.22508577786959202,0.905373446979615,3.2715026811382133,-3.8291000044297947,-0.4217482762211582,5.053969553243697
492,1790564274.307047,0.7045963228665867,-0.6114208514873799,-0.21071566068209202,0.9563955904788345,3.286412071390863,-3.840734411360611,-0.42430702128471776,5.0726503496598925
493,1790564274.3270469,0.6566959322415866,-0.5778905780498799,-0.22029573880709202,0.902073877328256,3.298703581140139,-3.850516538014822,-0.42671256645174166,5.088222335955875
494,1790564274.3371286,0.5513150728665867,-0.43897944523737986,-0.272986168494592,0.7557596913703226,3.3048836090475238,-3.855476828691943,-0.428116270273025,5.096100547163876
495,1790564274.3571286,0.44114417442908666,-0.3958690936748798,-0.263406090369592,0.6486164432108431,3.316793124855245,-3.8650931948569625,-0.4312877981091918,5.111366862475681
496,1790564274.381967,0.4076139009915867,-0.4868798358623799,-0.10054476224459202,0.6428921496376967,3.3309463643859907,-3.87688902630289,-0.43531377204970934,5.129811915150512
497,1790564274.401967,0.6183756197415867,-0.41502924992487983,-0.019114098182092018,0.7449852576617301,3.342172137884606,-3.8863152170074007,-0.4382487259253491,5.144474949979894
498,1790564274.4268262,0.6902262056790867,-0.36233882023737984,0.004836097130407984,0.7795672026789094,3.356472162336662,-3.8977234993330345,-0.44137617382800837,5.16265113876746
499,1790564274.4468262,0.6327457369290866,-0.46771967961237987,-0.07180452786959202,0.7901169258541518,3.3682357054470344,-3.906770152023638,-0.44361533498744754,5.177321638997051
500,1790564274.4570625,0.6566959322415866,-0.6784813983623799,-0.21071566068209202,0.9674645445715866,3.3743432659417234,-3.911585783521759,-0.4448063595773394,5.185031197184472
501,1790564274.4770625,0.8099771822415867,-0.9563036639873799,-0.02390413724459202,1.253455679824826,3.3866864699729153,-3.9220355703263783,-0.4471362957731752,5.201147866365724
502,1790564274.5016532,0.9488883150540867,-0.9131933124248799,0.028786292442907986,1.3172470197105464,3.4028303236053223,-3.9364046384345888,-0.4495623243353294,5.222704469161455
503,1790564274.5216532,0.8578775728665867,-0.43418940617487983,-0.15802523099459204,0.9743953735998826,3.416700986135526,-3.9483592879231186,-0.45143333671782904,5.240913923419122
504,1790564274.5465999,0.6279556978665867,-0.2856981952373798,-0.13886507474459203,0.7037295831701471,3.434187149058811,-3.962380940482208,-0.45397253240153534,5.263097486502831
505,1790564274.5665998,0.4363541353665867,-0.5970507342998799,0.11979703463040799,0.7491500786129481,3.4476996015777344,-3.9732601526856586,-0.45573147565960376,5.280257565833868
506,1790564274.5920367,0.4746744478665867,-1.0473144061748798,0.526950354942908,1.2648557124879292,3.464045515623376,-3.988158388407698,-0.45639917096024823,5.302199436893176
507,1790564274.6120367,0.9872086275540867,-1.1143749530498799,0.407199378380408,1.543445413370857,3.4771626454260596,-4.001357713725871,-0.45544418206522624,5.320615849590811
508,1790564274.6218998,1.1404898775540866,-1.07126460148738,0.16769742525540798,1.573673229625688,3.484235067220616,-4.008507451590095,-0.45461859472000615,5.330544443091003
509,1790564274.6418998,0.9249381197415867,-1.2053856952373798,0.301818519005408,1.5490511992986613,3.4995231455512505,-4.024245624095228,-0.4524913492730108,5.35219240222784
510,1790564274.666987,0.7716568697415866,-0.7934423358623799,0.229967933067908,1.1304381076368841,3.519015549680047,-4.044786581927131,-0.44922269843446044,5.380108731709468
511,1790564274.686987,0.6519058931790866,-0.26174799992487985,-0.06222444974459202,0.705241229064435,3.5343596849305303,-4.060288698865516,-0.44675612153420446,5.4015954802933495
512,1790564274.7118864,0.8435074556790867,-0.42460932804987983,-0.32567659818209205,0.9989310065548254,3.5533899206314636,-4.077975234642731,-0.444870308423898,5.427188179317342
513,1790564274.7318864,0.9728385103665866,-0.6880614764873798,-0.48853792630709203,1.2878325466141576,3.569107224902172,-4.091719623504434,-0.4448041005998978,5.447801992375515
514,1790564274.7418919,0.6806461275540867,-0.9227733905498798,-0.440637535682092,1.2283937964322686,3.577031534531668,-4.098772979450204,-0.44547320992046396,5.4583459872805715
515,1790564274.7618918,0.4842545259915867,-0.8700829608623799,-0.39273714505709206,1.0704154659915828,3.592242827083989,-4.113446394862003,-0.44786013318080004,5.479528124850926
516,1790564274.7873776,0.4650943697415867,-0.6641112811748798,-0.311306480994592,0.8684862069476408,3.6105334867878507,-4.13227234716669,-0.45179124975660856,5.505973314840127
517,1790564274.8073776,0.6566959322415866,-0.6497411639873799,-0.028694176307092017,0.924249145715734,3.624416748192857,-4.146800762383094,-0.45492345707892384,5.526238203270154
518,1790564274.8314872,0.9153580416165867,-0.3958690936748798,0.03836637056790799,0.9980303913557331,3.64148497745862,-4.1635781282130555,-0.45811541223646046,5.5502851640000905
519,1790564274.8514872,0.8626676119290867,-0.15636714054987982,-0.14844515286959203,0.8892030447123175,3.6561870366657234,-4.17623641357539,-0.460531218006895,5.5696268485343285
520,1790564274.8622546,0.7285465181790867,-0.21384760929987984,-0.18676546536959202,0.7819157040300857,3.6641999560353495,-4.1823280366696505,-0.46190743547380114,5.579568764973549
521,1790564274.8822546,0.6279556978665867,-0.5060399921123798,-0.02390413724459202,0.8068309859429158,3.6788857412771336,-4.19302550157215,-0.46439625237615684,5.597439328248909
522,1790564274.9063482,0.6471158541165867,-0.6257909686748798,-0.0047439809945920165,0.900219845637587,3.6962277765177447,-4.206024736986277,-0.46699651929752073,5.618792540491043
523,1790564274.9263482,0.6566959322415866,-0.5491503436748798,-0.11491487943209203,0.863725116513221,3.710419686847728,-4.216959148764861,-0.46901070394486005,5.636482037167661
524,1790564274.9517155,0.7477066744290867,-0.6018407733623798,-0.07659456693209202,0.9628833341328255,3.7283920597473523,-4.230937454642791,-0.4715465709471541,5.65898358937878
525,1790564274.9717155,0.7668668306790867,-0.6497411639873799,-0.10533480130709202,1.0106155236002794,3.7427081846676558,-4.242182450543133,-0.4735188874582148,5.6769883420748775
526,1790564274.9812999,0.7668668306790867,-0.6641112811748798,-0.11970491849459203,1.0214978205024836,3.7496421908201354,-4.2477074098546135,-0.4744840537236909,5.6857690698928565
527,1790564275.0012999,0.7572867525540867,-0.7311718280498799,0.052736487755407985,1.0539813114417609,3.764227327822897,-4.259600002330503,-0.47629643032235547,5.704424409607032
528,1790564275.0271473,0.8195572603665867,-0.5395702655498799,-0.07180452786959202,0.9838526641259493,3.7833061522629796,-4.275127624530585,-0.47832432138442055,5.728779608625497
529,1790564275.0471473,0.8291373384915867,-0.21384760929987984,-0.632239098182092,1.0643898737559894,3.79832742748642,-4.286470342953116,-0.48071413963685083,5.747365077273151
530,1790564275.0717669,0.5417349947415867,-0.5635204608623798,-0.593918785682092,0.98171871649893,3.816575957749088,-4.299773990509873,-0.4854787474677823,5.769748523547318
531,1790564275.0917668,0.5800553072415867,-1.0904247577373798,0.03357633150540799,1.235563710127129,3.8308593735042455,-4.311441163376292,-0.48960925384585074,5.788240290992794
532,1790564275.1014946,0.8387174166165867,-1.1526952655498799,0.48863004244290803,1.5069547433598884,3.8377996488224504,-4.317901235990161,-0.49093593158952537,5.797757783591236
533,1790564275.1214945,0.9297281588040867,-0.7120116717998799,0.756872229942908,1.3943495410087268,3.852581016036685,-4.331987801426892,-0.4913861583289912,5.818071772798525
534,1790564275.1472902,0.7908170259915867,-0.17073725773737983,0.49821012056790803,0.9501347820252386,3.872114798014488,-4.349138994109023,-0.4894515706939758,5.8436158189204415
535,1790564275.1672902,0.7908170259915867,-0.04619624211237983,-0.014324059119592017,0.7922946674395486,3.8873604776607458,-4.360767441388305,-0.48745080264246893,5.862207130948877
536,1790564275.191394,0.8914078463040866,-0.24737788273737985,-0.6992996450570921,1.1596653650502347,3.9060195048742368,-4.373210528029455,-0.4866912665964402,5.883776600441837
537,1790564275.211394,0.6902262056790867,-1.14311518742488,-0.47416780911959205,1.4170249320081991,3.921551791900788,-4.38407212545708,-0.48791578053693824,5.902263859458251
538,1790564275.237637,0.9057779634915867,-1.31076655461238,-0.24903597318209203,1.6126256837146453,3.942016668299215,-4.401016148254048,-0.49070494063828257,5.928678595531095
539,1790564275.257637,0.6662760103665867,-0.8461327655498798,-0.36399691068209206,1.136819303985119,3.9576317277629,-4.415227694527619,-0.4934312843522041,5.94983688175539
540,1790564275.2677047,0.8291373384915867,-0.6880614764873798,-0.311306480994592,1.1215208632103735,3.9654422168488996,-4.422466934180635,-0.4951077325353882,5.960543383442898
541,1790564275.2877047,1.0303189791165868,-0.7838622577373798,-0.04306429349459202,1.2953191773486474,3.98141992932932,-4.43689875565214,-0.4984700825267618,5.982160783926025
542,1790564275.311997,0.9872086275540867,-0.7694921405498799,0.16290738619290798,1.2622352574545939,4.00159142023713,-4.454628551354017,-0.5017230983421544,6.009007862572976
543,1790564275.331997,0.8051871431790867,-0.5443603046123798,0.14374722994290798,0.9825058487840371,4.018396253841614,-4.469006844124481,-0.5035396149279221,6.031010095292622
544,1790564275.3572946,0.6662760103665867,-0.42460932804987983,-0.11970491849459203,0.7990907776772195,4.039255825212041,-4.486304125595601,-0.5054470281544858,6.057886514875936
545,1790564275.3772945,0.8243472994290867,-0.5683104999248798,-0.30651644193209204,1.0471282746519668,4.055509364055188,-4.4994172555472804,-0.5073681389007657,6.078596406229613
546,1790564275.386977,1.0351090181790867,-0.8509228046123799,-0.320886559119592,1.377856481186877,4.06354804820764,-4.505843969963794,-0.5086142902574223,6.088820995726945
547,1790564275.406977,0.9919986666165866,-1.17664546086238,-0.05264437161959202,1.5399114666111005,4.080702693193179,-4.520169076589225,-0.5113625266968378,6.111100930675039
548,1790564275.447645,1.0638492525540868,-1.07126460148738,-0.028694176307092017,1.510035242738972,4.116623189515597,-4.551784830050494,-0.5163606476278411,6.1588927529186615
549,1790564275.467645,1.2123404634915866,-0.9371435077373799,-0.13886507474459203,1.5386002932851457,4.135052905432768,-4.568013411474338,-0.518701293641905,6.183401983549443
550,1790564275.4775681,1.3847818697415868,-1.1143749530498799,-0.08138460599459202,1.7793470197920422,4.144758289091264,-4.576384433718386,-0.5198523501759894,6.1961731920722
551,1790564275.4975681,1.4614224947415868,-1.41135737492488,0.11979703463040799,2.035199419565024,4.165654389133558,-4.594513862218977,-0.5217666664082795,6.2237026418366765
552,1790564275.5066183,1.4518424166165866,-1.5215282733623798,0.15332730806790798,2.1086497937608195,4.17566908262523,-4.603477726036693,-0.5223175858087327,6.237069433808899
553,1790564275.5266182,1.8829459322415867,-1.8328808124248799,0.057526526817907986,2.628354382039864,4.199483101878263,-4.625347272593899,-0.5230361656310234,6.2692154649215
554,1790564275.552499,2.275729135366587,-2.0532226092998798,-0.24903597318209203,3.0751723686381083,4.23374923214304,-4.656945529868005,-0.5241982886996281,6.315580580968387
555,1790564275.572499,2.3667398775540867,-2.4651659686748797,-0.19634554349459202,3.423018035822727,4.263220863586155,-4.684478630796392,-0.5256297085703762,6.355759495499817
556,1790564275.5975995,2.3140494478665867,-2.5322265155498798,-0.014324059119592017,3.4303354284814778,4.303472095351183,-4.723257911071318,-0.5275532986879119,6.411501372761344
557,1790564275.6175995,2.0841275728665867,-2.37415522648738,0.009626136192907983,3.159160243156101,4.337330609006668,-4.756881811427382,-0.5288631499093696,6.459106564459737
558,1790564275.6276605,1.9739566744290868,-2.35499507023738,-0.29693636380709204,3.0871796088851844,4.354870442898403,-4.7748276970344365,-0.529640032095181,6.4841649172730875
559,1790564275.6476605,2.036227182241587,-2.15381342961238,-0.584338707557092,3.0210238583016267,4.390522541543819,-4.811913832219551,-0.5322746311399139,6.53563456746668
560,1790564275.6727538,2.0601773775540866,-2.11070307804988,-0.6753494497445921,3.0258048829931505,4.436253756279274,-4.859490786068711,-0.5374550756273548,6.601807029011547
561,1790564275.6927538,1.8877359713040867,-1.96700190617488,-0.7615701528695921,2.830659409747631,4.473157172759118,-4.897839323744985,-0.5431200516544267,6.655294473119742
562,1790564275.7171981,1.6290738619290868,-1.7610302264873798,-0.9579617544320921,2.5831763062511537,4.517943055040736,-4.944513760753633,-0.5521577750784948,6.720483910214538
563,1790564275.737198,1.5236930025540867,-1.70354975773738,-0.910061363807092,2.4600678504898594,4.55381884749524,-4.982170680681057,-0.5612451533541556,6.773055950559123
564,1790564275.7468376,1.6338639009915867,-1.6795995624248798,-0.43584749661959205,2.383386031966047,4.570799209321362,-5.000043828282824,-0.5659411050774977,6.798009490365418
565,1790564275.7668376,1.3752017916165866,-1.2341259296123799,0.03357633150540799,1.84807309050385,4.6052589448167875,-5.035935048269844,-0.5748261742143871,6.848319274812586
566,1790564275.7925155,1.2075504244290867,-0.2665380389873798,-0.04785433255709202,1.2375421572255993,4.647839266603691,-5.077993634031097,-0.5845500594483048,6.908699441099208
567,1790564275.8125155,1.2171305025540866,0.10708500788762018,-0.0047439809945920165,1.221841382716076,4.679666449356078,-5.106077564525525,-0.5910666237287722,6.951306778287516
568,1790564275.8374417,1.2267105806790868,-0.12283686711237983,0.239548011192908,1.2559024621118011,4.717951690491642,-5.135858114155299,-0.5975310790076984,6.999510705251323
569,1790564275.8574417,1.0351090181790867,0.04002446101262017,0.234757972130408,1.062150621368648,4.74745545060254,-5.1562930560295674,-0.6012284635508548,7.034711579055549
570,1790564275.8815374,0.9057779634915867,0.3130566875751202,-0.14365511380709203,0.9690588220048363,4.7811769443186245,-5.176581812461725,-0.6048502096244842,7.072658341110242
571,1790564275.9015374,0.9009879244290867,0.16456547663762017,-0.38794710599459203,0.9946677802751932,4.807678185787668,-5.190179447367683,-0.608202816492567,7.100819875195118
572,1790564275.911597,1.0015787447415867,0.049604539137620175,-0.37357698880709206,1.0701310007598894,4.8204437751289415,-5.195831302955772,-0.6102107140390166,7.113768216176462
573,1790564275.931597,1.0686392916165868,0.3513770000751202,-0.589128746619592,1.2698536970305527,4.845122016373188,-5.204781055930419,-0.6150479720220934,7.137453131307052
574,1790564275.9574914,0.9297281588040867,0.5238184063251202,-0.8382107778695921,1.3569736475757266,4.876161736504757,-5.212930677462443,-0.6231434461811143,7.165187177115516
575,1790564275.9774914,0.7477066744290867,0.1501953594501202,-0.771150230994592,1.0845720795544977,4.899055831723388,-5.2172699812231675,-0.6308722604431461,7.184612300487199
576,1790564275.9870293,0.8147672213040866,-0.02224604679987983,-0.771150230994592,1.122057569945864,4.909453950601623,-5.218937444910183,-0.6351085101043571,7.1932891618904415
577,1790564276.0070293,0.8914078463040866,0.3370068828876202,-1.039392418494592,1.4101482855324674,4.930546346874986,-5.221437315855392,-0.6453748210066064,7.210423259537455
578,1790564276.047166,0.6231656588040867,0.2891064922626202,-0.890901207557092,1.1249990950253304,4.9710853603429745,-5.223816871566984,-0.6686979484674397,7.242037649292406
579,1790564276.067166,0.46030433067908666,0.11187504695012018,-0.512488121619592,0.6978826389681801,4.989880899462178,-5.224223262797684,-0.68068156210662,7.256359106285043
580,1790564276.0765927,0.5656851900540867,0.3753271953876202,-0.713669762244592,0.9849846533760399,4.998136336892946,-5.224041626245424,-0.6863494515628273,7.2624412785629575
581,1790564276.0965927,0.7237564791165867,0.7681103985126202,-1.2070437856820921,1.6033626308231743,5.014958409957164,-5.2219989068878805,-0.6994520298024213,7.273810114316501
582,1790564276.1218972,0.6614859713040867,0.7537402813251202,-0.9962820669320921,1.4136003886582176,5.035678589329951,-5.216913843612015,-0.7177246911495605,7.286245784969959
583,1790564276.1418972,0.33097327599158666,0.7345801250751202,-0.21550569974459202,0.8340227671942705,5.051087407009989,-5.211265142629327,-0.7318182216271885,7.29426667249998
584,1790564276.1526034,0.4363541353665867,1.2806445782001203,-0.09096468411959202,1.3559978026832724,5.058714761050633,-5.207076755431438,-0.7384770508403773,7.297231785084249
585,1790564276.1726034,0.36450354942908664,1.8171289532001202,-0.31609652005709205,1.8800897532024292,5.07202725872248,-5.195779504059452,-0.7496609672012016,7.299560037000394
586,1790564276.1976159,0.3261832369290867,1.9033496563251202,-0.28735628568209204,1.952359867751716,5.087474554261913,-5.176790781230171,-0.7626818673015039,7.298167150977198
587,1790564276.2176158,0.3261832369290867,1.4961963360126203,-0.08617464505709202,1.5337617316264747,5.098952007420168,-5.158785597285208,-0.7720919443275261,7.294416109821739
588,1790564276.2421575,0.4938346041165867,1.1752637188251203,-0.03348421536959202,1.2752406116841457,5.112432559343885,-5.135088689747431,-0.7821270866212326,7.288197671923977
589,1790564276.2621574,0.6087955416165867,1.0603027813251202,-0.13886507474459203,1.230511076163819,5.1234244846422445,-5.115320489473377,-0.789336955862704,7.282790329931818
590,1790564276.272713,0.6566959322415866,1.4482959453876203,-0.253826012244592,1.6103534821090861,5.129357408590339,-5.104466323946499,-0.7928822501151371,7.279735306995175
591,1790564276.292713,0.4267740572415867,1.2423242657001203,-0.07659456693209202,1.3158162503804636,5.140537778143126,-5.0829494124545604,-0.7990876916966193,7.273241678722759
592,1790564276.317316,0.35013343224158666,0.8208008282001202,0.03836637056790799,0.8931849743126175,5.153661928789585,-5.056643649304383,-0.8056468521156179,7.264911776658361
593,1790564276.337316,0.5608951509915867,0.5333984844501202,-0.177185387244592,0.7940478418033613,5.164096843467509,-5.036435901733582,-0.810387252888553,7.258809151687783
594,1790564276.3620496,0.6662760103665867,0.17893559382512017,-0.24424593411959203,0.7318454379590792,5.177342203404684,-5.0138725994751026,-0.8161520129812165,7.253267873394432
595,1790564276.3820496,0.7524967134915866,-0.22821772648737984,-0.08138460599459202,0.7905429074956036,5.1885742280542715,-4.998438199900044,-0.8206027223063215,7.251143067551869
596,1790564276.3922544,0.8866178072415867,-0.8221825702373798,0.057526526817907986,1.2105307167551573,5.1947001146194625,-4.992548171658336,-0.8225512730805836,7.25169201800538
597,1790564276.4122543,0.9536783541165867,-1.0808446796123798,0.16769742525540798,1.4511547302042616,5.207665563059141,-4.985590615218935,-0.8254594939839879,7.256533454442245
598,1790564276.4371305,1.0782193697415867,-0.9946239764873799,0.215597815880408,1.4826720075936939,5.225164031566375,-4.982107056198055,-0.8278190525352529,7.26698109670954
599,1790564276.4571304,1.0877994478665867,-1.0089940936748798,0.11500699556790799,1.4881543363775143,5.240371260319204,-4.982731865922525,-0.8289356344273378,7.2784780057153915
600,1790564276.4822147,1.2506607759915866,-1.10958491398738,-0.282566246619592,1.695634023508889,5.260982802634181,-4.987383687831281,-0.8304412346723837,7.2966820366178995
601,1790564276.5022147,1.1931803072415867,-1.45446772648738,-0.28735628568209204,1.9030841410467125,5.278617317479011,-4.994382373808731,-0.8323164859139366,7.314397228270062
602,1790564276.5122733,1.2075504244290867,-1.57900874211238,-0.19155550443209202,1.9970328356049685,5.2879670500105345,-4.999662709661221,-0.8334794322196595,7.324882981748399
603,1790564276.5322733,1.1836002291165868,-1.4832079608623798,-0.22029573880709202,1.910326037635183,5.3073556383094225,-5.013180259762811,-0.8360626894674524,7.348401255313286
604,1790564276.55665,1.1644400728665867,-1.3682470233623798,-0.411897301307092,1.8432796822678919,5.331735165309117,-5.032397711955742,-0.8398947693401887,7.37955620805589
605,1790564276.57665,1.1021695650540868,-1.3586669452373799,-0.550808434119592,1.8341601754779937,5.3521370800994985,-5.049890110593862,-0.8440112752851376,7.40669403216159
606,1790564276.6022072,1.0782193697415867,-1.34429682804988,-0.574758629432092,1.8166007963494815,5.378476703171417,-5.074071128990795,-0.8506400464271758,7.4429697001399395
607,1790564276.6222072,1.0207389009915866,-1.38740717961238,-0.40710726224459204,1.7698991239643511,5.399145514251638,-5.094253214634909,-0.8565221160427583,7.472336865676764
608,1790564276.6477637,1.0351090181790867,-1.3251366717998798,-0.37836702786959203,1.7235427137855923,5.425535577882035,-5.121373335877434,-0.8644165073000983,7.510800027320192
609,1790564276.6677637,1.1117496431790868,-1.14311518742488,-0.546018395057092,1.6854778813650946,5.446310282405591,-5.143115757125555,-0.8710543581742128,7.541397156914913
610,1790564276.6778255,0.9345181978665867,-1.14311518742488,-0.320886559119592,1.5109615407709236,5.456738229117382,-5.154138606178849,-0.8745470581143672,7.556849173410228
611,1790564276.6978254,0.7285465181790867,-1.2389159686748799,0.15332730806790798,1.445407233269516,5.476851536839892,-5.17633548980527,-0.8806995467702724,7.587225023108542
612,1790564276.7226763,0.6710660494290867,-1.1526952655498799,0.320978675255408,1.37188313200731,5.500703063483,-5.204236510412689,-0.8863135532407891,7.6241303480188485
613,1790564276.7426763,0.7141764009915866,-1.0521044452373798,0.5125802377554081,1.3710252352013585,5.519097294328402,-5.226630256660561,-0.8889036495655679,7.652989512753414
614,1790564276.7671387,1.2889810884915867,-1.0089940936748798,0.8095626596304081,1.826179900072172,5.541896121726816,-5.25369350621227,-0.8891707424980726,7.687947235155967
615,1790564276.7871387,0.8387174166165867,-0.9563036639873799,0.876623206505408,1.544808029780889,5.560931521589966,-5.275448829832421,-0.8868270801191024,7.7162673627878995
616,1790564276.7976408,0.21122229942908666,-0.19947749211237983,0.919733558067908,0.9645288733220013,5.570254768674758,-5.286069453607679,-0.8843660967368634,7.729965837529016
617,1790564276.8176408,0.23996253380408666,-0.43897944523737986,0.49821012056790803,0.7060441170400648,5.586023293541609,-5.304218978984616,-0.87825553448791,7.7530463688068245
618,1790564276.841444,0.5082047213040867,-1.0473144061748798,0.14853726900540798,1.1735428515485877,5.603310999053596,-5.325233131089014,-0.8709192540216629,7.779055366790287
619,1790564276.861444,0.7141764009915866,-1.4832079608623798,0.15811734713040798,1.653769900065421,5.617491240545249,-5.34403696595778,-0.86521978917596,7.801509098546737
620,1790564276.8872046,0.7764469088040867,-1.2389159686748799,0.191647620567908,1.474622456799834,5.635896132821139,-5.369883220233598,-0.8583040885252555,7.831708429664233
621,1790564276.9072046,0.8195572603665867,-0.9946239764873799,-0.07180452786959202,1.2907776136289815,5.650435904177001,-5.390290002349156,-0.8535605107981006,7.855648780478398
622,1790564276.9172368,0.46988440880408666,-1.0473144061748798,-0.253826012244592,1.1756217365762676,5.65760538938863,-5.400527181296389,-0.8517830101321605,7.8676379475869505
623,1790564276.9372368,0.10584144005408665,-0.8461327655498798,-0.282566246619592,0.8983244130593885,5.6706179987032606,-5.420714718378899,-0.8495755413879722,7.890616905273736
624,1790564276.9625494,0.038780893179086645,-0.8030224139873798,-0.28735628568209204,0.8537696351843949,5.684891381047837,-5.445563090154326,-0.8482827396654428,7.917810997338686
625,1790564276.9825494,0.20643226036658666,-0.8796630389873799,-0.03348421536959202,0.9041805864756708,5.694845203956217,-5.464775282317445,-0.8478957543260742,7.938133155437431
626,1790564277.007655,0.4171939791165867,-0.6641112811748798,0.004836097130407984,0.784294586128405,5.706640003922866,-5.488181168649926,-0.8475367891013686,7.9626748824234115
627,1790564277.027655,0.5992154634915867,-0.4964599139873799,-0.06701448880709202,0.7810394097571963,5.716151376381149,-5.5057711430013905,-0.8473869860081638,7.981601790421954
628,1790564277.037539,0.6758560884915866,-0.4054491717998798,0.028786292442907986,0.7886692170339632,5.721092092462268,-5.513828852817714,-0.8473523963081917,7.990695178276332
629,1790564277.057539,0.5465250338040867,-0.30006831242487986,0.091056800255408,0.63009677476466,5.731423343676566,-5.52874581749145,-0.8471131400096219,8.008360914122617
630,1790564277.0829499,0.4459342134915867,-0.09409663273737984,0.11979703463040799,0.47123542795625256,5.744472167318876,-5.545606806703497,-0.8464529030697245,8.029271315180011
631,1790564277.1029499,0.35492347130408664,0.0017041485126201715,0.220387854942908,0.4177850897423604,5.7544031660363,-5.557025462100243,-0.8455009251631914,8.044163076303887
632,1790564277.1277707,0.4363541353665867,-0.02224604679987983,0.234757972130408,0.49599508417778226,5.7663522406321075,-5.569109072680781,-0.8436494163348489,8.060864616413083
633,1790564277.1477706,0.5944254244290866,-0.09888667179987984,0.15811734713040798,0.6229937837016633,5.776082433056961,-5.577566941004886,-0.8417919895044093,8.07347477908079
634,1790564277.156666,0.5177847994290866,-0.17073725773737983,0.047946448692907984,0.547312681784153,5.780502994810799,-5.580944359119024,-0.840952304036962,8.078883313321473
635,1790564277.176666,0.26391272911658664,-0.2665380389873798,-0.11012484036959203,0.3909219043280012,5.790123670695391,-5.588054851485065,-0.8394408495614228,8.090522238092252
636,1790564277.2017653,0.08189124474158664,-0.3862890155498798,-0.12928499661959203,0.41549968694422584,5.801037198308493,-5.596868669667328,-0.8382792264184132,8.104300311754695
637,1790564277.2217653,0.22559241661658666,-0.46771967961237987,-0.08138460599459202,0.5256206723717342,5.808890261333484,-5.604119365923607,-0.8378084519134467,8.114880340327428
638,1790564277.2468414,0.46030433067908666,-0.4054491717998798,-0.13407503568209203,0.6278894989950737,5.81854953830938,-5.613488882853462,-0.837711947289183,8.12825550006339
639,1790564277.2668414,0.4076139009915867,-0.40065913273737985,-0.14365511380709203,0.5893332034175378,5.826399769969671,-5.621049961426116,-0.8380631183174352,8.139133045886098
640,1790564277.2778065,0.38366370567908664,-0.32880854679987986,0.11500699556790799,0.5182079780682795,5.830708849246297,-5.625173458839534,-0.8382503299173496,8.145084759676742
641,1790564277.2978065,0.4650943697415867,-0.20905757023737984,0.35929898775540803,0.6237897105923932,5.838662655506193,-5.6323732069188335,-0.8378291190046977,8.155707644310944
642,1790564277.3217826,0.6614859713040867,-0.18510737492487983,0.459889808067908,0.8266359936806698,5.848793286508574,-5.64041843000196,-0.8359268408590765,8.168321532425262
643,1790564277.3417826,0.5608951509915867,-0.18989741398737983,0.292238440880408,0.6603542265884128,5.857809870031147,-5.646685314461977,-0.8334498599585966,8.17885262020657
644,1790564277.3669531,0.40282386192908665,-0.14199702336237985,0.04315640963040798,0.4292932495106669,5.869274661794694,-5.6540158620045995,-0.8301669537633742,8.191792086869977
645,1790564277.386953,0.26870276817908667,-0.34796870304987987,0.378459144005408,0.5800988877860616,5.878025172943943,-5.659701798919738,-0.8273172843088665,8.201698499419141
646,1790564277.3964763,0.3357633150540867,-0.6641112811748798,0.665861487755408,0.9985751440906666,5.881998537574687,-5.662725957657273,-0.8254180331371755,8.206441798793449
647,1790564277.4164762,0.25433265099158664,-0.9036132342998798,0.12458707369290799,0.9469550746966087,5.88997661850608,-5.6704760323582875,-0.8208419677091977,8.21704962477718
648,1790564277.4421422,0.07710120567908665,-1.2437060077373798,-0.019114098182092018,1.24624017683131,5.899317150417374,-5.68306334207387,-0.8156473380073784,8.231915474009128
649,1790564277.4621422,0.13458167442908664,-1.73708003117488,0.747292151817908,1.8957860696732893,5.905821415671905,-5.695871775262271,-0.8111143867813497,8.244973524668346
650,1790564277.5017102,0.4363541353665867,-1.69875971867488,1.293356604942908,2.179211054669401,5.918453551038257,-5.727607125234706,-0.7974357763494148,8.274628670474508
651,1790564277.5217102,0.6950162447415866,-1.2341259296123799,1.2981466440054081,1.9212753836810645,5.92557787909965,-5.745641233993531,-0.7876716432387875,8.291278128769068
652,1790564277.5314753,0.6998062838040867,-0.7934423358623799,1.1400753549429081,1.5553299939686864,5.929556160629226,-5.754610698091132,-0.7818336206671413,8.29978580199793
653,1790564277.5514753,0.5992154634915867,-0.3671288592998799,0.675441565880408,0.9747123062407932,5.9384304154441425,-5.771966343875006,-0.7689470316266557,8.3169604310316
654,1790564277.5620239,0.45072425255408666,-0.8509228046123799,0.598800940880408,1.133924396972347,5.943239535956138,-5.780710804844503,-0.7621616633144693,8.325839536768914
655,1790564277.5820239,0.41240394005408665,-1.1143749530498799,0.450309729942908,1.2707035054009692,5.952284547975413,-5.797751217138881,-0.749652780580524,8.342996452554344
656,1790564277.6067424,0.34055335411658666,-0.8700829608623799,0.244338050255408,0.9657753509930337,5.963182578312581,-5.819331786864716,-0.7352239210120193,8.364491802968848
657,1790564277.6267424,0.25433265099158664,-0.5204101092998799,0.095846839317908,0.5871102075668195,5.971569947287699,-5.836259403790797,-0.7247903013139158,8.381341923854725
658,1790564277.6673517,0.17769202599158665,-0.0030858905498798287,-0.30651644193209204,0.35431103284570475,5.987361521076902,-5.867069181082102,-0.7074245597984348,8.412576791178891
659,1790564277.6873517,0.16811194786658665,-0.32401850773737984,-0.37836702786959203,0.5257482554899493,5.994490931565374,-5.880457497203972,-0.7011821972786965,8.42646772846265
660,1790564277.6813765,0.24954261192908667,-0.6018407733623798,-0.550808434119592,0.8531551809296449,5.994490931565374,-5.880457497203972,-0.7011821972786965,8.42646772846265
661,1790564277.7013764,-0.21030113807091336,-0.5156200702373799,-0.44542757474459205,0.7130893000518036,6.0002333018538465,-5.8929872147264994,-0.6993511405305742,8.439146284273505
662,1790564277.727122,-0.4977034818209134,-0.34796870304987987,-0.359206871619592,0.7055639947854552,6.005149446005555,-5.9083646332682465,-0.6989013025151359,8.453345819211066
663,1790564277.747122,-0.32526207557091336,-0.29048823429987986,-0.49332796536959206,0.6584461356003708,6.0071611563506755,-5.919476113306851,-0.6998830729912718,8.462624825090527
664,1790564277.7724192,0.10105140099158665,-0.8126024921123799,-0.35441683255709205,0.892269851014487,6.008898615488051,-5.933515284879416,-0.702547019904887,8.473903381694242
