imu_index,t_imu,ax,ay,az,mag,vx,vy,vz,velocity
0,1791274651.0308638,-0.006658154296874935,-0.008574169921874963,-0.05604345703125022,0.05708516869120884,0.0,0.0,0.0,0.0
1,1791274651.0508637,-0.011448193359374935,-0.042104443359374966,-0.04167333984375022,0.06033665996331874,-3.564863421567106e-05,-8.694990365029646e-05,-0.00021803039509715838,0.0002374202267130194
2,1791274651.0609114,0.03645219726562507,0.010585986328125038,0.11639794921874978,0.12243083097962681,-3.202914151664176e-05,-0.00014783136090160305,-0.0002548245250474227,0.00029633682818366945
3,1791274651.0809114,0.012502001953125065,0.05369633789062504,0.08286767578124979,0.09953214779701305,4.752602363834899e-05,-0.0001544152663078759,-1.817954696400835e-05,0.00016258318892069292
4,1791274651.1059408,-0.021028271484374937,0.0057959472656250385,-0.04646337890625022,0.051328615661366324,0.000116147372875659,-4.973959670627091e-05,0.00030189026499304495,0.0003272643760081301
5,1791274651.1259408,0.007711962890625066,-0.07084467773437497,-0.08478369140625022,0.11075521235311724,0.0001427805525736911,-7.621687977699083e-05,0.00032241127819037594,0.0003607552234695166
6,1791274651.1505365,0.03166215820312507,-0.037314404296874965,0.025387207031249782,0.055130457198883265,0.00024325340956060236,-0.0003034130379436428,0.00023429477523046513,0.0004540107207515509
7,1791274651.1705365,0.05561235351562507,0.02016606445312504,0.06370751953124978,0.08693705805868417,0.00044360948114153447,-0.00048616805827242284,0.00030703272430238147,0.0007262353932683132
8,1791274651.1952605,-0.0018681152343749347,0.010585986328125038,0.020597167968749785,0.023233516509582577,0.0007537958557631911,-0.000621178242686274,0.0005397898966013476,0.0011159945043885578
9,1791274651.2152605,0.03645219726562507,-0.06126459960937496,-0.03209326171875022,0.0781798650455299,0.0010189530295134704,-0.000790027764945748,0.0006825873146796005,0.0014588812795773896
10,1791274651.225352,0.15141313476562507,-0.07563471679687496,0.015807128906249784,0.1699894499336815,0.001274865387088659,-0.0009660602069326596,0.0007315054254314506,0.001758878695661283
11,1791274651.245352,0.03645219726562507,-0.05647456054687496,0.06849755859374979,0.0959690273356924,0.001987767244334455,-0.0014607641757542495,0.0009403686711111017,0.0026399514829676786
12,1791274651.2710488,-0.06892866210937494,-0.07563471679687496,-0.012933105468750218,0.1031457030719054,0.002703746225139459,-0.002255645338226395,0.001275557917185678,0.00374502704154635
13,1791274651.2910488,-0.040188427734374935,-0.10437495117187497,-0.07999365234375022,0.13750718007138804,0.0030137348851406523,-0.0030515223681242425,0.0013579162185748935,0.004498702388216524
14,1791274651.3157542,0.03645219726562507,-0.09479487304687496,-0.05604345703125022,0.11599870567156677,0.0033322941826519,-0.004256220981928972,0.001192326921960455,0.005535453464313452
15,1791274651.3357542,0.022082080078125066,-0.12353510742187497,0.06849755859374979,0.14297012471007745,0.0036392986324797886,-0.005412678078111145,0.001097064780201301,0.006614010103227265
16,1791274651.3453314,-0.006658154296874935,0.0057959472656250385,0.07328759765624979,0.07381731499838809,0.0037753389872324595,-0.00596796758589654,0.001160133447715025,0.007156516693988518
17,1791274651.3653314,0.012502001953125065,0.09680668945312504,0.05412744140624978,0.11161368683497888,0.0040255809519743994,-0.006799721315620366,0.0014632048284363606,0.008036322563272367
18,1791274651.390323,0.046032275390625065,0.10159672851562504,0.05891748046874978,0.12614331186195119,0.004401087532290327,-0.007311280350160963,0.001996996417970568,0.008764267597404729
19,1791274651.410323,0.007711962890625066,-0.003784130859374962,0.05412744140624978,0.05480487141828047,0.004737134764795923,-0.00751253954665955,0.0025296648495775494,0.009234603427930732
20,1791274651.4357994,-0.021028271484374937,-0.05168452148437497,0.025387207031249782,0.061302432607009426,0.0050755461140556185,-0.007836438871806685,0.0032583431629346522,0.00988876851356684
21,1791274651.4557993,-0.021028271484374937,-0.06605463867187497,0.011017089843749783,0.07019102335995529,0.005238277207984886,-0.008229179677376089,0.0037991835780796187,0.010468655220714045
22,1791274651.465849,-0.025818310546874935,-0.042104443359374966,0.025387207031249782,0.05553268939053129,0.0052724717576727136,-0.008478443782465738,0.004057619238013799,0.010777162951750708
23,1791274651.485849,-0.025818310546874935,-0.08042475585937496,0.015807128906249784,0.08593364788482878,0.005252860780135307,-0.00908389533611379,0.004556583317183691,0.011439936729693496
24,1791274651.5104299,0.022082080078125066,-0.06605463867187497,-0.008143066406250218,0.07012234366551998,0.005225485347912503,-0.009986450752566878,0.005091976150473377,0.012367825874893351
25,1791274651.5304298,0.046032275390625065,-0.06605463867187497,0.006227050781249782,0.0807524725884141,0.005308724163101841,-0.010808814277027338,0.005459375347345505,0.013221868154628348
26,1791274651.5555024,0.07477250976562506,-0.027734326171874962,-0.022513183593750218,0.08286714970592599,0.005624588756622577,-0.011861477684360829,0.005820245435226869,0.014359871464048496
27,1791274651.5755024,0.03166215820312507,0.03453618164062504,-0.07041357421875022,0.08457725189821086,0.005998406604477468,-0.012565013373445039,0.005925536551647961,0.015131834862051845
28,1791274651.5856686,-0.05455854492187494,-0.013364208984374962,-0.03688330078125022,0.06719832425210072,0.0061424616622908395,-0.012852841967435708,0.0058892190450718284,0.01541454776739902
29,1791274651.6056685,-0.021028271484374937,-0.08521479492187496,-0.012933105468750218,0.08871873923959694,0.006269972075658537,-0.013482020628247047,0.005753763953415006,0.015943124840558535
30,1791274651.6302464,0.11309282226562507,-0.09958491210937497,0.006227050781249782,0.15081749676104714,0.006572870533428546,-0.014479883958984141,0.005599911465764914,0.016859082861747397
31,1791274651.6502464,0.07956254882812507,-0.05168452148437497,-0.008143066406250218,0.09522498867205606,0.007071361778433221,-0.015396988877178755,0.005490620929773803,0.01781062441577843
32,1791274651.6758323,-0.021028271484374937,0.001005908203125038,-0.022513183593750218,0.030822775482743182,0.007725745701112006,-0.01649149931334353,0.0053129506953327335,0.01897061257132456
33,1791274651.6958323,0.017292041015625065,-0.008574169921874963,0.020597167968749785,0.02822719257503546,0.008154932417708899,-0.017230075168802487,0.0051920275809085375,0.019756911789571226
34,1791274651.7204823,0.08914262695312507,0.02974614257812504,0.11160791015624978,0.14590259266999914,0.008801333213727235,-0.017964687640412393,0.005309759983306287,0.020697512397313954
35,1791274651.7404823,0.07956254882812507,0.09680668945312504,0.039757324218749786,0.1314624628094893,0.00950018221104822,-0.01828148538957691,0.005618001982024225,0.021354814828568734
36,1791274651.7508085,0.08435258789062507,-0.013364208984374962,-0.012933105468750218,0.08637839071602048,0.009933826134450117,-0.018355892829190402,0.005774051892271211,0.021655469943662006
37,1791274651.7708085,0.05561235351562507,-0.05168452148437497,0.015807128906249784,0.07754926788097016,0.010857683346908745,-0.01857596314447489,0.006035268613679597,0.022346815469902977
38,1791274651.7953844,0.017292041015625065,-0.003784130859374962,0.04933740234374979,0.052416730142922696,0.011957009734365908,-0.01890806153357524,0.006428178095134104,0.02327673401420291
39,1791274651.8153844,0.08435258789062507,0.02495610351562504,0.011017089843749783,0.08865406056776799,0.01286991638270319,-0.019106026871962677,0.006790498026427369,0.024016366793852186
40,1791274651.8259282,0.046032275390625065,-0.05647456054687496,-0.003353027343750218,0.07293551370196091,0.013382108263538528,-0.019219662074830782,0.006958918906078743,0.02443159397561148
41,1791274651.8459282,0.0029219238281250654,0.010585986328125038,0.07807763671874979,0.07884616731954497,0.014281355087904903,-0.019471710821890156,0.007342553533974714,0.02523920992973881
42,1791274651.870771,0.06519243164062506,0.14949711914062505,0.08286767578124979,0.1829384963968769,0.01535770658610895,-0.019439560567618242,0.008047475837240536,0.02604836912357629
43,1791274651.890771,-0.0018681152343749347,0.11596684570312504,0.05891748046874978,0.13008869536453516,0.016189244521136913,-0.019019364455030215,0.008742534465183582,0.02646242187165323
44,1791274651.915602,-0.19346967773437496,-0.14748530273437496,0.1068178710937498,0.2656924694271444,0.01670300060843101,-0.01863462045466974,0.00978469816219995,0.026869678579026612
45,1791274651.935602,-0.21741987304687493,-0.12832514648437496,0.2217788085937498,0.3360425335537432,0.01643839757958191,-0.018784930036993462,0.010991084942077543,0.02727450200614316
46,1791274651.9609432,-0.10724897460937494,0.14949711914062505,0.2217788085937498,0.2881624040838286,0.015536354640461996,-0.018906574869658306,0.013133393237829217,0.0277727007465183
47,1791274651.9809432,0.0029219238281250654,0.49437993164062505,0.05891748046874978,0.4978868585859964,0.014774736139202108,-0.018022364648395846,0.014991587140922203,0.027710036818933623
48,1791274652.0057843,0.03166215820312507,0.590180712890625,0.06849755859374979,0.594985446598041,0.014035093000975106,-0.015068239280507593,0.017190753275024114,0.02682457210699557
49,1791274652.0257843,-0.025818310546874935,0.5518604003906251,0.09244775390624979,0.5601455827560425,0.013537684059477377,-0.011333523856404144,0.018937170128400994,0.02589081043864623
50,1791274652.0353653,-0.044978466796874936,0.566230517578125,-0.12789404296875023,0.5822344439648701,0.013284267527085607,-0.009009320519767106,0.019622834204630863,0.025351434716431902
51,1791274652.0553653,0.11309282226562507,0.5614404785156251,-0.23327490234375023,0.6184032482347942,0.012936795197589238,-0.0031939191839734874,0.020297673504428914,0.024280801869594783
52,1791274652.0807974,0.26158403320312507,0.5949707519531251,-0.06562353515625022,0.6532402700943079,0.013275885995899666,0.005297496950864594,0.02045696281385551,0.024955960219715283
53,1791274652.1007974,0.22805375976562509,0.6332910644531251,0.034967285156249785,0.6740094959943875,0.01423700576199923,0.012815938296269288,0.020517454732442215,0.028069673246740805
54,1791274652.1110644,0.19931352539062508,0.6524512207031251,-0.06562353515625022,0.6853648117368158,0.01498547326776551,0.017086656229448466,0.020520244181390184,0.030620232713455046
55,1791274652.1310644,0.16099321289062507,0.7099316894531251,-0.09436376953125022,0.7340479134816483,0.01676523465969488,0.026201622368028837,0.020284882182927504,0.03713589305626934
56,1791274652.1554797,0.10351274414062507,0.5374902832031251,0.006227050781249782,0.5474024743264597,0.01909635136076829,0.03794397006891062,0.01987926793563006,0.0468999018500132
57,1791274652.1754797,0.05561235351562507,0.31235844726562506,0.1068178710937498,0.33476945951914444,0.020958161158884218,0.047394766482372695,0.01976641190360346,0.05546367684010246
58,1791274652.20056,0.06040239257812507,0.278828173828125,0.006227050781249782,0.2853635851171647,0.023160928710331125,0.05858059934307203,0.019858757671407132,0.06604911425878657
59,1791274652.22056,0.21847368164062508,0.590180712890625,-0.017723144531250217,0.6295698001729206,0.025072318662065753,0.0674660740617995,0.019904107202023586,0.07467573766568383
60,1791274652.2309701,0.21368364257812508,0.7722021972656251,0.07328759765624979,0.8045669670931933,0.02625538100168758,0.07246094820839659,0.019967553363202165,0.07961555899518659
61,1791274652.2509701,-0.0018681152343749347,0.9542236816406251,0.2696791992187498,0.9916013286344387,0.028505083292730726,0.08320737659524502,0.020585612713938738,0.09033147150465734
62,1791274652.2752984,0.18015336914062507,1.2176758300781252,0.16908837890624978,1.2424896552689333,0.0311564672358206,0.09828154084121854,0.022025238648993004,0.1054281644452087
63,1791274652.2952983,0.21847368164062508,0.844052783203125,0.12118798828124978,0.88025131576511,0.03360713062897781,0.11190759455786528,0.02346662879403438,0.11917815074835547
64,1791274652.3205283,0.04124223632812507,0.49437993164062505,-0.1614243164062502,0.5216993854640422,0.03672635712497626,0.1290510875776355,0.02493605566810128,0.13647276426058236
65,1791274652.3405282,0.2472139160156251,-0.23849604492187498,-0.48714697265625023,0.5960765527038511,0.03926078272202068,0.140986236935925,0.024953302772653972,0.14846277440679276
66,1791274652.3500912,0.16578325195312507,-0.267236279296875,-0.20453466796875022,0.3751449666484646,0.04058705158698979,0.1454742761603252,0.02446422268703832,0.15299860121117623
67,1791274652.3700912,0.3957051269531251,0.508750048828125,-0.18537451171875022,0.6706510786352121,0.04378697673298074,0.15381488378205663,0.02300992725755881,0.1615728150299435
68,1791274652.395424,0.7645381347656252,1.002124072265625,-0.09436376953125022,1.263991984438702,0.049436551323914155,0.16566530610190602,0.02091268493696229,0.17414449932143383
69,1791274652.4154239,0.4819258300781251,0.9925439941406251,-0.10873388671875023,1.1087015577341275,0.05509750015398854,0.17660975702209097,0.01920064432687162,0.18599840198557568
70,1791274652.4403312,0.3478047363281251,0.887163134765625,-0.2715952148437502,0.990853431656504,0.06263995269248347,0.19170654160911496,0.016677866515914064,0.20236924914760773
71,1791274652.4603312,0.3765449707031251,0.7722021972656251,-0.3913461914062502,0.9440520059572217,0.06887441720983825,0.20449957732700855,0.013961586872057029,0.21623757393410148
72,1791274652.4704256,0.21847368164062508,0.705141650390625,-0.17579443359375022,0.758853859163786,0.0719995578800867,0.21110641864310842,0.012366897707021077,0.22338933834483513
73,1791274652.4904256,0.15620317382812507,0.7099316894531251,0.039757324218749786,0.7279993681541095,0.07782462129933354,0.2243556065441815,0.00947722658760551,0.23765926805404639
74,1791274652.5154245,0.16099321289062507,0.647661181640625,0.011017089843749783,0.6674617570090454,0.08460820270768662,0.24097763952324505,0.0065022806352326035,0.255481996174054
75,1791274652.5354245,0.17536333007812507,0.6141309082031251,0.05412744140624978,0.6409671207321571,0.08972577036875999,0.2541737933714281,0.004576947271331168,0.26958482811800333
76,1791274652.559977,0.15620317382812507,0.6811914550781251,0.06370751953124978,0.7017691059246319,0.09567644063999137,0.2703290558603096,0.0027848756972162604,0.28677436299033626
77,1791274652.579977,0.09393266601562507,0.5949707519531251,0.015807128906249784,0.6025474311195168,0.10017183356637754,0.28342905293876014,0.0016633336326227935,0.30061468854429907
78,1791274652.6205206,0.16099321289062507,0.45126958007812507,-0.04167333984375022,0.4809362907438636,0.10869302775320476,0.30918306713196303,-0.0003478517326858119,0.32773230582918556
79,1791274652.6405206,0.3382246582031251,0.4177393066406251,-0.08478369140625022,0.5441418216399849,0.11301480542065474,0.3212852822592744,-0.0013808306278250465,0.3405855039985008
80,1791274652.6355538,0.36217485351562506,0.47521977539062504,-0.09915380859375023,0.6056698252348607,0.11301480542065474,0.3212852822592744,-0.0013808306278250465,0.3405855039985008
81,1791274652.6555538,0.25200395507812506,0.503960009765625,-0.09436376953125022,0.571302201832037,0.11795156564548945,0.33263642270957317,-0.0026519540587655295,0.3529399303161571
82,1791274652.680061,0.19452348632812508,0.42731938476562503,-0.11831396484375023,0.4841894645763874,0.12391423855772357,0.3461710576873857,-0.004366817629797903,0.3677066885357889
83,1791274652.700061,0.3094844238281251,0.31714848632812503,-0.12310400390625022,0.45991125964711665,0.12880638090925664,0.35667633750004973,-0.0059184947691521056,0.3792678764089075
84,1791274652.7251334,0.3478047363281251,0.33630864257812504,-0.08957373046875022,0.4920315954032891,0.13525531009569147,0.36909928149809246,-0.007971848183867689,0.39318167413417987
85,1791274652.7451334,0.15620317382812507,0.2596680175781251,-0.08957373046875022,0.3159910822428716,0.1403839369688979,0.3784164673452194,-0.009632819704910728,0.4037319206260391
86,1791274652.7551875,0.10351274414062507,0.22134770507812504,-0.05125341796875022,0.24967300133645715,0.14277124093714627,0.38276041614021317,-0.010448744966159211,0.408654303383593
87,1791274652.7751875,0.14662309570312507,0.20218754882812504,-0.008143066406250218,0.24988886854998124,0.1471830147345939,0.3907406796512527,-0.011917445974729145,0.4177117954753578
88,1791274652.800683,0.18015336914062507,0.32672856445312504,0.05412744140624978,0.37701004118657794,0.15258829128207552,0.40039915686221556,-0.01342094344440758,0.42869895401702884
89,1791274652.820683,0.14662309570312507,0.37462895507812505,-0.03209326171875022,0.4035779523515176,0.15668260167587647,0.4078912999262446,-0.014390398662877255,0.43718626899425783
90,1791274652.8457546,0.13704301757812506,0.3985791503906251,-0.09436376953125022,0.43191509442618203,0.16157867095527295,0.41732843334418007,-0.01566118293915272,0.44779008568327383
91,1791274652.8657546,0.16578325195312507,0.33151860351562507,-0.008143066406250218,0.3707492152865602,0.1653527231354087,0.4248224916886893,-0.016676607002846358,0.45617297345854346
92,1791274652.8748047,0.2424238769531251,0.34588872070312504,0.039757324218749786,0.424251090812579,0.16708141492120332,0.4281647351708034,-0.017045712014730423,0.45992585919259277
93,1791274652.8948047,0.2376338378906251,0.40336918945312505,-0.017723144531250217,0.46849829643529606,0.17104871709989117,0.4355667716328194,-0.01770599652246791,0.4682836517379279
94,1791274652.9203868,0.15141313476562507,0.39378911132812505,-0.03688330078125022,0.4235046392386605,0.17610857082951428,0.44514402831692274,-0.018528654705812782,0.47907279792432234
95,1791274652.9403868,0.15620317382812507,0.31235844726562506,0.015807128906249784,0.3495956184170942,0.1799324050935392,0.45256759585267137,-0.019106947641691477,0.48739939953470884
96,1791274652.9648497,0.20889360351562508,0.27403813476562505,0.05891748046874978,0.3495778974711524,0.18457780380288555,0.46136157364197755,-0.01957108608950728,0.49729920038224606
97,1791274652.9848497,0.22326372070312508,0.39378911132812505,0.0014370117187497823,0.4526793768060097,0.18845425737394508,0.46847449602943186,-0.019803097297643308,0.5053469335169407
98,1791274652.995444,0.17536333007812507,0.33151860351562507,-0.060833496093750224,0.37994420150862673,0.19051641362593738,0.4722534813267129,-0.019954758028062503,0.509625398556673
99,1791274653.015444,0.14183305664062507,0.2500879394531251,0.015807128906249784,0.2879417627580124,0.19430119446239458,0.47918974318860585,-0.020265656057667173,0.5174808798034213
100,1791274653.0406861,0.14183305664062507,0.2500879394531251,0.11160791015624978,0.3084103095316015,0.19889849337912302,0.4875778059139333,-0.020357967667189864,0.5269792921319286
101,1791274653.060686,0.22805375976562509,0.36504887695312505,0.04933740234374979,0.4332474802904274,0.2025495011784595,0.4941496830912243,-0.02017871973518704,0.5344318389251818
102,1791274653.084837,0.19452348632812508,0.36504887695312505,-0.07520361328125022,0.4204231829342216,0.20706235945018805,0.5022175729333063,-0.0200415893208677,0.5435981756468706
103,1791274653.104837,0.06040239257812507,0.29798833007812503,-0.08478369140625022,0.3156481715777581,0.2106213865138368,0.5088911828044428,-0.020185042805656923,0.5511252492366704
104,1791274653.1148872,-0.0018681152343749347,0.24050786132812504,0.011017089843749783,0.2407673098320924,0.21218570380368126,0.5121476388059,-0.020301920461085424,0.55473430109155
105,1791274653.1348872,0.07477250976562506,0.28361821289062505,0.030177246093749784,0.294857397875185,0.2149410884771132,0.5184420922886226,-0.020437826486165173,0.5616044687534185
106,1791274653.1605575,0.19452348632812508,0.31714848632812503,-0.022513183593750218,0.3727323336511002,0.21846564907090563,0.526465906957372,-0.020571342975265004,0.5703654715743462
107,1791274653.1805575,0.12267290039062508,0.24529790039062505,-0.03209326171875022,0.27613344215079316,0.22127556069135842,0.5326232951851421,-0.020741672997870227,0.5771314107999188
108,1791274653.2050076,-0.006658154296874935,0.25487797851562505,0.025387207031249782,0.25622573101017776,0.22440816309129738,0.5399388139079887,-0.020930965072394773,0.5850906354790151
109,1791274653.2250075,-0.035398388671874934,0.21655766601562504,0.04933740234374979,0.22490986617027092,0.22652315814298693,0.5457324033323796,-0.0209504919181314,0.5912491186747084
110,1791274653.2352734,0.09393266601562507,0.20218754882812504,-0.03688330078125022,0.2259724065509959,0.2274909941127636,0.5485825426740889,-0.020949422569189517,0.5942506515227093
111,1791274653.2552733,0.10351274414062507,0.23571782226562504,0.006227050781249782,0.25752001105662364,0.2293898770028352,0.5539591681031821,-0.020993636082031298,0.5999426708885527
112,1791274653.2802086,0.0029219238281250654,0.22134770507812504,0.04933740234374979,0.22679842030366754,0.23160126423553545,0.5605118193148264,-0.0209365778095811,0.6068368689174147
113,1791274653.3002086,0.06040239257812507,0.25487797851562505,0.08286767578124979,0.2747331153151358,0.23320389757987792,0.5656935270230921,-0.020699370034371046,0.6122268274766238
114,1791274653.3405814,0.14183305664062507,0.22134770507812504,0.05412744140624978,0.2684049224819887,0.23656613390122322,0.5760265423199218,-0.019877541385844244,0.6230290762216175
115,1791274653.3605814,0.13704301757812506,0.25487797851562505,0.1259780273437498,0.3156169133182699,0.23840020015675215,0.5810918511508107,-0.01926133221493598,0.6283895239637192
116,1791274653.370563,0.08914262695312507,0.24050786132812504,0.16908837890624978,0.30721542796851226,0.2393475749740111,0.5836115122655937,-0.018779030773080532,0.6310644268944728
117,1791274653.390563,0.13704301757812506,0.34109868164062507,0.1355581054687498,0.39179726803816217,0.24130035240861683,0.5887752232218132,-0.017500641047149854,0.636544103726898
118,1791274653.3996186,0.11309282226562507,0.33630864257812504,0.17866845703124978,0.3972605027669789,0.24222179113803094,0.5912226250503059,-0.016795221291088305,0.6391382228686586
119,1791274653.4196186,0.06519243164062506,0.35067875976562507,0.2361489257812498,0.42777559636053664,0.24421902335200577,0.5968475798516425,-0.014848720748177165,0.645050734012161
120,1791274653.4454982,0.026872119140625067,0.3794189941406251,0.2553090820312498,0.45810873302026356,0.24659444371125142,0.6044514820697665,-0.01175388802859081,0.6529230948047308
121,1791274653.4654982,0.11309282226562507,0.48000981445312507,0.25051904296874977,0.5531357874060456,0.24836477338803775,0.6107355276456793,-0.008962191560050384,0.6593658061093983
122,1791274653.4905965,0.15620317382812507,0.4895898925781251,0.2792592773437498,0.584878994674277,0.2507600641162155,0.6192637415530857,-0.004987104298213829,0.6681265318539421
123,1791274653.5105965,0.0029219238281250654,0.43689946289062503,0.3271596679687498,0.5458233474837776,0.2526211667941209,0.6264299356370271,-0.0013850093349913155,0.6754508393846964
124,1791274653.5355253,-0.006658154296874935,0.3794189941406251,0.2984194335937498,0.4827600464824519,0.254585973739746,0.6355485801589189,0.0036009421291553446,0.6846524538415457
125,1791274653.5555253,0.03645219726562507,0.36504887695312505,0.3654799804687498,0.5178465616122865,0.2559705477570604,0.6428836611663622,0.007996916505290445,0.6920146485352086
126,1791274653.5658026,0.13704301757812506,0.6380811035156251,0.3415297851562498,0.7365941063296055,0.2567090374555803,0.6468607183769971,0.010461969572283597,0.696015640411842
127,1791274653.5858026,0.3669648925781251,0.7290918457031251,0.3894301757812498,0.9043749298076985,0.2586866095153022,0.6554900613783035,0.015635936546294974,0.704862018426255
128,1791274653.6104088,0.4196553222656251,0.585390673828125,0.4660708007812498,0.8579130619425767,0.26220636822833554,0.6669401663782233,0.022625492545729892,0.7169890361651582
129,1791274653.6304088,0.4052852050781251,0.547070361328125,0.17387841796874978,0.7026918114893743,0.26587551346986027,0.6765495202434804,0.028414369302007227,0.7274726238061308
130,1791274653.6400237,0.4244453613281251,0.527910205078125,-0.1662143554687502,0.6974742012020823,0.26797319257556734,0.6812514345281542,0.030785436733756177,0.7327079173181481
131,1791274653.6600237,0.06040239257812507,0.23092778320312504,-0.10394384765625023,0.2603467179548404,0.27240932641311777,0.6907030475077596,0.034572434942311964,0.7432851365466656
132,1791274653.6845253,0.3669648925781251,0.5806006347656251,0.020597167968749785,0.6871568764142978,0.2778140871483358,0.7020364549476857,0.038362742717976905,0.7559811843706316
133,1791274653.7045252,1.0232002441406252,0.7099316894531251,0.2026186523437498,1.2617432629409204,0.2836493323313204,0.711835739711802,0.04132740541955698,0.7673819247947952
134,1791274653.730334,0.8794990722656251,0.585390673828125,0.2026186523437498,1.0757579548386518,0.2937328504900405,0.7250916400707613,0.045363673347764435,0.7836419697904864
135,1791274653.750334,0.5489863769531251,0.647661181640625,-0.14226416015625024,0.8608659242583672,0.3025174805799699,0.7356727337702997,0.04811285087233393,0.7968977623814627
136,1791274653.759878,0.6878975097656251,0.6380811035156251,-0.35302587890625026,1.002485785327152,0.3069660185156776,0.7408849184681028,0.048873436403038824,0.8034470808477037
137,1791274653.779878,0.9896699707031251,0.6907715332031251,-0.23327490234375023,1.2292392533834928,0.31740628802817156,0.7521623555703539,0.04934877263381096,0.8178815697748848
138,1791274653.8053153,0.8315986816406251,0.48479985351562505,-0.19016455078125022,0.9811981561585977,0.33216776389085656,0.7665970214929574,0.049054814745621865,0.8369066803293261
139,1791274653.8253152,0.7597480957031251,0.13991704101562505,-0.27638525390625024,0.8204771513381195,0.3444199918204036,0.7771808963361143,0.048158536344868705,0.8514426116998449
140,1791274653.8509681,0.8651289550781252,0.13991704101562505,-0.2620151367187502,0.9147003985736981,0.36090417589758567,0.789258343189519,0.04614550574427133,0.8690857058857744
141,1791274653.870968,0.7884883300781251,0.20697758789062504,-0.48235693359375026,0.9472179157640429,0.3743085504029009,0.7977823223251524,0.04369492771570408,0.8823110400688156
142,1791274653.8800144,0.4819258300781251,0.18781743164062506,-0.5637875976562502,0.7651041423202313,0.38032405683233733,0.8013273844213581,0.042042975352275844,0.8879975095716508
143,1791274653.9000144,0.5537764160156251,-0.11395502929687497,-0.49672705078125023,0.7525900813955769,0.39318204580944277,0.8081001160145652,0.03734782926575787,0.8994513766738682
144,1791274653.9402752,0.5825166503906251,-0.415727490234375,-0.3290756835937502,0.7876838195948804,0.41861426590047096,0.8180894295433259,0.02682047350295271,0.9193625814360932
145,1791274653.9602752,0.7022676269531251,-0.386987255859375,-0.7122788085937503,1.0725110988869417,0.4312801097925564,0.8211033125802271,0.020813302724625896,0.927710286998699
146,1791274653.970336,0.5777266113281251,-0.559428662109375,-0.6164780273437502,1.0132983882469198,0.4376616514861462,0.8216778736476632,0.017242107950020395,0.9311281004836478
147,1791274653.990336,0.5825166503906251,-0.578588818359375,-0.42487646484375025,0.9244515558378027,0.4501850780284339,0.8209417004044381,0.009645733463928875,0.9363252213394951
148,1791274654.0154164,0.6112568847656251,-0.573798779296875,-0.4200864257812502,0.9377380356056942,0.46577957422270333,0.8179893194438281,-4.079589402626073e-05,0.9413060820750947
149,1791274654.0354164,0.683107470703125,-0.592958935546875,-0.8032895507812503,1.2097562639513988,0.4782913543868797,0.814238006586609,-0.008441565333144893,0.9443608479160094
150,1791274654.0755754,0.5968867675781251,-0.674389599609375,-0.6691684570312503,1.12199000408058,0.5035011878995731,0.8040182636867125,-0.027214582282274788,0.94905186794341
151,1791274654.0955753,0.6495771972656251,-0.741450146484375,-0.6260581054687503,1.167753230075724,0.5160426343297942,0.7975683147122951,-0.03710435836249962,0.9506797307655913
152,1791274654.0906024,0.4100752441406251,-1.057592724609375,-0.7984995117187502,1.3871789888903152,0.5160426343297942,0.7975683147122951,-0.03710435836249962,0.9506797307655913
153,1791274654.1106024,0.4531855957031251,-1.196503857421875,-0.8895102539062503,1.5582769833320984,0.5277497749748149,0.7872333074566168,-0.04859804304392716,0.949008890971392
154,1791274654.1353703,0.5202461425781251,-1.239614208984375,-0.6979086914062502,1.5147197686449336,0.541881367115847,0.7718289994495888,-0.06364548072362225,0.9452016544818538
155,1791274654.1553702,0.3957051269531251,-1.2444042480468749,-0.8272397460937503,1.5457846155177473,0.5529548261085716,0.757529885002724,-0.07626134560553688,0.9409709661953275
156,1791274654.164841,0.2663740722656251,-1.2970946777343748,-1.0332114257812504,1.6795641100437753,0.5578822273466391,0.7499691840154146,-0.08266077992986481,0.9383598249608769
157,1791274654.184841,0.3286445800781251,-1.3785253417968748,-1.2439731445312503,1.8856851705165114,0.5676194787701759,0.7323842395856888,-0.09756358888693162,0.9317173396204087
158,1791274654.2110693,0.3669648925781251,-1.632397412109375,-1.3924643554687504,2.1767731909175247,0.579842038701508,0.706859256625335,-0.11936210867005057,0.9220163293069181
159,1791274654.2310693,0.39091508789062507,-1.862319287109375,-1.2296030273437504,2.2656061745001095,0.5889009229733815,0.6850731413751174,-0.13742394007161662,0.9137914671396749
160,1791274654.255515,0.6974775878906251,-1.881479443359375,-0.9469907226562503,2.2188355752940856,0.6003081122968684,0.6555745335569547,-0.160179851742626,0.9032194548625145
161,1791274654.275515,0.6735273925781251,-1.795258740234375,-1.1146420898437503,2.217886399568798,0.6102973610309684,0.6295456244437654,-0.1790971255844721,0.8949113601526549
162,1791274654.2851405,0.4340254394531251,-1.7281981933593749,-1.3014536132812502,2.206542223739647,0.6151833274359372,0.6163540721894468,-0.18858002781685382,0.8910136337627335
163,1791274654.3051405,0.3094844238281251,-1.9629101074218749,-0.8080795898437503,2.1451781562222814,0.6249279518917747,0.5875191248781302,-0.20849257403823332,0.8827133286533633
164,1791274654.330637,0.49150590820312506,-1.9677001464843749,-0.48235693359375026,2.0847278325141567,0.6370189248197686,0.5487572758785348,-0.23253745952916421,0.8723539009441307
165,1791274654.350637,0.22805375976562509,-1.819208935546875,-0.8751401367187502,2.03160033653594,0.646160016161114,0.5172321449459137,-0.2506058228359607,0.8647861797519492
166,1791274654.390817,0.06040239257812507,-1.8958495605468748,-1.1338022460937502,2.2098419713866813,0.6626390651186106,0.4522029269749679,-0.28751421122807314,0.8521985915525181
167,1791274654.410817,0.20889360351562508,-2.1449315917968748,-0.7170688476562502,2.271245430013472,0.6700152284651366,0.4186281588627665,-0.30590630680550934,0.8472004546218121
168,1791274654.4057257,0.26158403320312507,-2.317372998046875,-0.4392465820312502,2.3730953158964585,0.6700152284651366,0.4186281588627665,-0.30590630680550934,0.8472004546218121
169,1791274654.4257257,0.03645219726562507,-2.255102490234375,-0.6595883789062502,2.3498665565803827,0.6763914188171068,0.38182224928407826,-0.3223171474965647,0.8409410948860175
170,1791274654.450727,-0.15514936523437495,-2.255102490234375,-0.8703500976562503,2.422203100378693,0.6829439077624051,0.33425684930717814,-0.34262336268714816,0.8339848866242092
171,1791274654.470727,0.022082080078125066,-2.283842724609375,-0.7745493164062502,2.4117113949552795,0.6871997658094914,0.2951056624413408,-0.35889821155179374,0.829541316866519
172,1791274654.4953182,0.2663740722656251,-2.480234326171875,-0.5781577148437502,2.560621760887378,0.6921796906883615,0.2454011070588663,-0.3784023531055375,0.8261493620302329
173,1791274654.5153182,0.2855342285156251,-2.317372998046875,-0.7122788085937503,2.4411244353581214,0.6964501910325365,0.20384377797806377,-0.39382128416945617,0.8256454192172971
174,1791274654.5254784,-0.016238232421874936,-2.164091748046875,-0.9182504882812502,2.350902110549378,0.6984994402902869,0.18248399328218912,-0.4017218098206489,0.8261853837823783
175,1791274654.5454783,-0.021028271484374937,-2.2646825683593748,-0.8703500976562503,2.4262602119563925,0.7018723291539772,0.14010180578001158,-0.4176238087055211,0.8286512704464736
176,1791274654.570752,0.21368364257812508,-2.3077929199218747,-0.7074887695312503,2.4232435328212123,0.7058604230087425,0.08591073192895755,-0.4376954017893601,0.8349831467629748
177,1791274654.590752,0.4052852050781251,-2.293422802734375,-0.6691684570312503,2.4231860583625844,0.7094714229626893,0.04255788376901507,-0.453261322491315,0.8429749106220041
178,1791274654.6149642,0.28074418945312507,-2.207202099609375,-0.8751401367187502,2.3909054074404197,0.7144330161958944,-0.010226143469189063,-0.4720834159558714,0.8563771717307624
179,1791274654.6349642,0.09393266601562507,-2.3077929199218747,-0.8943002929687502,2.476793193020024,0.7184786650537048,-0.054059353613314244,-0.487952943355613,0.8701908300940945
180,1791274654.660527,0.21368364257812508,-2.456284130859375,-0.6212680664062502,2.54262982774788,0.7234636969211474,-0.11081428584987393,-0.5080995497084512,0.8909796176822241
181,1791274654.680527,0.4771357910156251,-2.326953076171875,-0.4200864257812502,2.412227557030954,0.7278151168024967,-0.1557328215940148,-0.523059661318747,0.9097026795974317
182,1791274654.6899388,0.40049516601562507,-1.9677001464843749,-0.5446274414062502,2.0805910925526026,0.7301752024363305,-0.17673187808596708,-0.5297247195345667,0.919237869906753
183,1791274654.7099388,0.18494340820312508,-1.958120068359375,-0.5877377929687503,2.0527722668706554,0.7353162387275297,-0.2205499225043122,-0.5434619554123414,0.9405759598425134
184,1791274654.7358146,0.3094844238281251,-2.207202099609375,-0.34823583984375023,2.255834638723314,0.741929482678333,-0.2768212070521938,-0.5603855379075477,0.9701140598079713
185,1791274654.7558146,0.3478047363281251,-2.173671826171875,-0.42487646484375025,2.241949453686183,0.747260209083347,-0.3203618294656298,-0.5726637234240783,0.994471347995397
186,1791274654.7951114,0.3142744628906251,-2.116191357421875,-0.6787485351562502,2.2444896687730562,0.7581144759954539,-0.40572318624313075,-0.596422421902143,1.0464552393278737
187,1791274654.8151114,0.06519243164062506,-2.303002880859375,-0.7410190429687502,2.420161470735397,0.7633792757960004,-0.44927964131544035,-0.6088301808070941,1.074836873147249
188,1791274654.810643,-0.025818310546874935,-2.465864208984375,-0.5973178710937502,2.537309898581094,0.7633792757960004,-0.44927964131544035,-0.6088301808070941,1.074836873147249
189,1791274654.830643,0.11309282226562507,-2.269472607421875,-0.6500083007812503,2.3634311272746613,0.7673642072511444,-0.4939324782967593,-0.6213721520275186,1.104047313751483
190,1791274654.8556283,0.18973344726562508,-2.135351513671875,-0.7026987304687502,2.255994320417154,0.7721631793379374,-0.5496024847484425,-0.6372250163898285,1.142083441907793
191,1791274654.8756282,0.022082080078125066,-2.168881787109375,-0.6739584960937502,2.271289474983821,0.7757461184277255,-0.593936648659778,-0.6500762742871453,1.1735169130728142
192,1791274654.9004345,-0.06892866210937494,-2.293422802734375,-0.5637875976562502,2.3627094124824555,0.7794363365927209,-0.6489786810483595,-0.6659277216442798,1.2133235601894043
193,1791274654.9204345,0.06998247070312506,-2.293422802734375,-0.6021079101562502,2.37217613886078,0.7819668614613484,-0.6935798092471468,-0.6785397218334958,1.2461706457483654
194,1791274654.945515,0.12746293945312506,-2.1880419433593747,-0.5158872070312502,2.251646943286714,0.7850355994413684,-0.7495508196696965,-0.6940860887148446,1.2883566362639087
195,1791274654.965515,0.03166215820312507,-2.053920849609375,-0.48714697265625023,2.1111384420947688,0.7873543337356743,-0.7938519350166978,-0.7061282511012374,1.32240116779493
196,1791274654.9760754,0.06998247070312506,-1.977280224609375,-0.49672705078125023,2.0399197032762966,0.7884755396419737,-0.8169281257737483,-0.7123123070972485,1.340318642016187
197,1791274654.9960754,0.12746293945312506,-1.991650341796875,-0.5063071289062503,2.0589474965853136,0.7905765897806584,-0.8600288482519168,-0.7237717574396528,1.3742294280803398
198,1791274655.0211706,0.06519243164062506,-2.015600537109375,-0.5542075195312502,2.0914209411411657,0.793180065448408,-0.9135400544039123,-0.7379898508739523,1.417151744598299
199,1791274655.0411706,-0.040188427734374935,-2.211992138671875,-0.5446274414062502,2.278408080481338,0.7949812155075867,-0.956130949358491,-0.7492697095030909,1.4517529483041995
200,1791274655.0799122,-0.06413862304687494,-2.279052685546875,-0.5206772460937502,2.3386533948117543,0.7976437087797068,-1.0393069365863423,-0.7709375817115299,1.5201115582376035
201,1791274655.0999122,0.022082080078125066,-2.140141552734375,-0.5877377929687503,2.2194884990205868,0.7987489380802815,-1.0824337199168006,-0.7821081627252974,1.556070628955781
202,1791274655.0954344,-0.021028271484374937,-2.125771435546875,-0.5733676757812503,2.201839430117336,0.7987489380802815,-1.0824337199168006,-0.7821081627252974,1.556070628955781
203,1791274655.1154344,0.06040239257812507,-2.164091748046875,-0.4105063476562502,2.2035101552885603,0.7996078709799378,-1.1254666433847356,-0.7931351251962853,1.592203265768821
204,1791274655.140971,0.20410356445312508,-2.106611279296875,-0.3913461914062502,2.1523524777813376,0.8010466666407762,-1.1803498640319037,-0.8066384704703813,1.638770022211545
205,1791274655.160971,0.050822314453125066,-2.073081005859375,-0.5973178710937502,2.158016775567155,0.8023868788880557,-1.2231558248530903,-0.8171108065474291,1.6755909242593638
206,1791274655.1708422,-0.040188427734374935,-2.092241162109375,-0.6116879882812503,2.180195033742649,0.8029570085653667,-1.2441979048232497,-0.8223993272039809,1.6938444548884548
207,1791274655.1908422,0.07477250976562506,-2.1018212402343748,-0.34344580078125025,2.1310087921431227,0.8039907461802364,-1.2867270798198185,-0.8329397703375427,1.730854228089428
208,1791274655.215928,0.08435258789062507,-2.015600537109375,-0.34823583984375023,2.0472003039348956,0.8053922535419433,-1.3398163823457159,-0.8454788546659064,1.7772448098544287
209,1791274655.235928,-0.14556928710937495,-2.082661083984375,-0.6356381835937502,2.182361910530622,0.8062501883134557,-1.3819408056093643,-0.8554520277083751,1.814276144382137
210,1791274655.2600136,-0.10245893554687494,-2.173671826171875,-0.7601791992187502,2.3050421810222113,0.8066803592441728,-1.4327495668290906,-0.868182347401621,1.8593668577177134
211,1791274655.2800136,-0.04976850585937494,-2.2646825683593748,-0.5829477539062502,2.33903658017369,0.8067556404899436,-1.4752688071647826,-0.8791823188989968,1.8974283297980867
212,1791274655.2905674,-0.15514936523437495,-2.235942333984375,-0.4488266601562502,2.2858160068787554,0.806627206793436,-1.4979027376977958,-0.8849329179446263,1.917672112641763
213,1791274655.3105674,-0.10245893554687494,-2.029970654296875,-0.5781577148437502,2.113183625247278,0.8060339153743674,-1.5407600434983397,-0.8957363835682266,1.9560101874025666
214,1791274655.3347173,0.03166215820312507,-1.991650341796875,-0.6404282226562502,2.092324517042309,0.8052967478642359,-1.5920316901908813,-0.9090319069875505,2.002350309664663
215,1791274655.3547173,0.07477250976562506,-1.982070263671875,-0.5206772460937502,2.0506823871454882,0.8049374808586269,-1.6340842307355152,-0.9201327630313436,2.0407841441056935
216,1791274655.3803527,0.06040239257812507,-1.9629101074218749,-0.5206772460937502,2.031691249537658,0.8048059517529114,-1.6874857113080355,-0.9342294170756266,2.090001255878848
217,1791274655.4003527,-0.011448193359374935,-1.876689404296875,-0.5925278320312503,1.9680405008695847,0.8047921604062819,-1.7286579108028264,-0.9452473173033219,2.1282483607186755
218,1791274655.4251692,0.04124223632812507,-1.953330029296875,-0.5685776367187503,2.0348168601589074,0.8048330684534616,-1.7792109248907697,-0.959029021821652,2.1755653168827354
219,1791274655.4451692,-0.025818310546874935,-2.087451123046875,-0.3913461914062502,2.123975192368624,0.8048842274406871,-1.819902275094666,-0.969909747165995,2.213731652239073
220,1791274655.4555223,-0.13598920898437494,-2.073081005859375,-0.33386572265625025,2.104192064090133,0.8047810971703339,-1.8410373175912471,-0.9752604526822327,2.2334332248115714
221,1791274655.4755223,-0.10724897460937494,-2.058710888671875,-0.46798681640625023,2.1139547123864695,0.8042468982205138,-1.8819391734502033,-0.9852491987136743,2.2713925485106463
222,1791274655.5151684,-0.016238232421874936,-1.9724901855468748,-0.5685776367187503,2.0528667129766633,0.802979608382257,-1.962843903958607,-1.0051620495846427,2.346887979582832
223,1791274655.5351684,0.10830278320312507,-2.020390576171875,-0.6116879882812503,2.1137336086037966,0.802574300296672,-2.0035245867153706,-1.0154709337588155,2.3852499857202996
224,1791274655.5457711,-0.12640913085937494,-2.044340771484375,-0.6931186523437503,2.162341768672281,0.8023772638731804,-2.025088230106449,-1.0211538657267136,2.4057320779307267
225,1791274655.565771,-0.25574018554687494,-2.178461865234375,-0.6835385742187503,2.2974603637993374,0.8014881197821593,-2.0659967488383346,-1.0323306452933103,2.444674279648357
226,1791274655.5901031,-0.15035932617187495,-2.360483349609375,-0.5110971679687503,2.419857410232188,0.7998275519363349,-2.1165839153043042,-1.0460687928588248,2.492771851324242
227,1791274655.6101031,-0.016238232421874936,-2.274262646484375,-0.5206772460937502,2.3331607445664932,0.7984174728473503,-2.1588795820820397,-1.0572148353595094,2.532969545609048
228,1791274655.635601,0.05561235351562507,-2.1018212402343748,-0.49193701171875026,2.159339547931887,0.796964720070904,-2.21308237937679,-1.0712298482793436,2.5846508024857657
229,1791274655.655601,0.07477250976562506,-1.9677001464843749,-0.27638525390625024,1.9884223905569218,0.7961917169940357,-2.2553247765168187,-1.08172642823287,2.6249844120142867
230,1791274655.665603,-0.13598920898437494,-1.8431591308593749,-0.13268408203125023,1.8529257168745212,0.795817206787139,-2.2761399064512413,-1.0864951858182226,2.6447324418860454
231,1791274655.685603,-0.016238232421874936,-1.670717724609375,-0.19495458984375022,1.6821321849418551,0.7949523199026869,-2.316789689586331,-1.0950919852796857,2.683037478850416
232,1791274655.6950536,0.10351274414062507,-1.6132372558593748,-0.23327490234375023,1.6332992720122343,0.7946667948219265,-2.3354445079306405,-1.0988484537339436,2.7006044302506473
233,1791274655.7150536,-0.05934858398437494,-1.637187451171875,-0.25722509765625023,1.658333427136979,0.7942194351212882,-2.3738766472635424,-1.1063413827250248,2.736798513350498
234,1791274655.7406638,-0.26053022460937497,-1.6850878417968749,-0.32428564453125025,1.7356722650764773,0.7931181009863905,-2.42208884120921,-1.1156138939921538,2.7821116148154026
235,1791274655.7606637,-0.31801069335937493,-1.871899365234375,-0.3913461914062502,1.9386309283058352,0.7915192279613303,-2.4594274345583327,-1.1228424074076067,2.8171015363248078
236,1791274655.7854598,-0.25095014648437497,-2.029970654296875,-0.41529638671875024,2.08715785750591,0.7887761885179208,-2.506032326624032,-1.1319601555003154,2.8607166394625345
237,1791274655.8054597,-0.22699995117187494,-2.044340771484375,-0.3386557617187502,2.08459729749673,0.786178653915562,-2.544095801159579,-1.1393421518933837,2.8963081432111695
238,1791274655.8300347,-0.20304975585937496,-1.9677001464843749,-0.36260595703125026,2.0111081895073997,0.7826730541231656,-2.59124544266046,-1.1483447042927402,2.9403784813585254
239,1791274655.8500347,-0.16472944335937495,-1.996440380859375,-0.4200864257812502,2.0467981309745915,0.7796963542466931,-2.6298078554246898,-1.155746341980018,2.976502203640908
240,1791274655.8600912,-0.10724897460937494,-2.034760693359375,-0.3913461914062502,2.0748265622271336,0.7782189720999089,-2.6493299691690955,-1.159521825478223,2.994839714881935
241,1791274655.8800912,-0.12640913085937494,-1.9629101074218749,-0.34344580078125025,1.9967349288921286,0.7753710474630029,-2.688327589341661,-1.1670062712446991,3.031535770196993
242,1791274655.9058614,-0.09287885742187493,-1.828789013671875,-0.2907553710937502,1.8540858730120366,0.7718280716071954,-2.7383675689503537,-1.1764292520072028,3.0786947396223256
243,1791274655.9258614,-0.12640913085937494,-1.8048388183593749,-0.35302587890625026,1.8433799662031205,0.7691619224698841,-2.7768281978440688,-1.1836110407505387,3.1150152486153386
244,1791274655.9359293,-0.15514936523437495,-1.8910595214843748,-0.5063071289062503,1.963803541118773,0.7678085061053405,-2.7960757897040587,-1.187332919350855,3.13326174859221
245,1791274655.9559293,-0.021028271484374937,-1.948539990234375,-0.46319677734375025,2.002948211084309,0.7652589604104164,-2.8343352537440842,-1.1950716647304718,3.1697435055453047
246,1791274655.9801922,-0.11682905273437494,-1.977280224609375,-0.26680517578125024,1.9986173010403405,0.7623790725897198,-2.880931320827239,-1.204380058858545,3.2142679495994497
247,1791274656.0001922,-0.15993940429687495,-1.871899365234375,-0.24764501953125023,1.894971214111267,0.7599461056147574,-2.9193529634750117,-1.2116737285549595,3.2508911137193826
248,1791274656.04023,-0.11203901367187494,-1.833579052734375,-0.4105063476562502,1.882307186586963,0.754989434218615,-2.9958586175163986,-1.2260610414162139,3.323913894674112
249,1791274656.06023,-0.06892866210937494,-1.900639599609375,-0.49193701171875026,1.9644806111443929,0.7526133921722069,-3.0339440574433776,-1.2335235237128752,3.360479689765431
250,1791274656.05595,-0.17430952148437495,-1.948539990234375,-0.46798681640625023,2.0115177262835013,0.7526133921722069,-3.0339440574433776,-1.2335235237128752,3.360479689765431
251,1791274656.07595,-0.19346967773437496,-1.910219677734375,-0.34344580078125025,1.9504678288760717,0.750034905132641,-3.0721566210692726,-1.2413562166508854,3.3973024475184572
252,1791274656.1009047,-0.12161909179687494,-1.8527392089843748,-0.2907553710937502,1.8793542683106366,0.7467104905812882,-3.119726885784068,-1.2508503898883605,3.4430944071448244
253,1791274656.1209047,-0.18388959960937495,-1.761728466796875,-0.36739599609375023,1.8090003851610101,0.7439875332971013,-3.1575549273519656,-1.2583053423683543,3.479511877200439
254,1791274656.1458242,-0.26053022460937497,-1.790468701171875,-0.47277685546875026,1.8700727587123533,0.7402730988904732,-3.2042567823677635,-1.2677709869607225,3.524557995503845
255,1791274656.1658242,-0.15035932617187495,-1.881479443359375,-0.4009262695312502,1.9295892558653536,0.7371227937787651,-3.2416245064345226,-1.2755389629293226,3.56068520088141
256,1791274656.1907513,-0.07850874023437494,-1.876689404296875,-0.2620151367187502,1.8965175122742983,0.7333574696254902,-3.2882380687165655,-1.28500778353892,3.6057686806793305
257,1791274656.2107513,-0.12161909179687494,-1.742568310546875,-0.3290756835937502,1.7775337763160455,0.73048937621414,-3.3254567914607485,-1.2923520310480152,3.641764870607117
258,1791274656.220293,-0.14556928710937495,-1.8431591308593749,-0.46319677734375025,1.9060370546139584,0.7291350849697733,-3.3431159636601295,-1.295897280183843,3.6588812606315826
259,1791274656.240293,-0.025818310546874935,-1.953330029296875,-0.4009262695312502,1.9942183085391303,0.7264651414705385,-3.380273017279897,-1.3035098287676827,3.695014904816529
260,1791274656.2653923,-0.06892866210937494,-1.9341698730468748,-0.30512548828125025,1.9593023814259054,0.7234387024690566,-3.427227208980427,-1.3129593931344716,3.740736861398556
261,1791274656.2853923,-0.15993940429687495,-1.8048388183593749,-0.38176611328125026,1.8516935865724589,0.7210455642437179,-3.4646382455576656,-1.3203900110387312,3.7771754869938596
262,1791274656.3108337,-0.13119916992187494,-1.910219677734375,-0.41529638671875024,1.9592405488386204,0.717902434358074,-3.512178059773316,-1.329945326906125,3.8235498167762563
263,1791274656.3308337,-0.10245893554687494,-2.020390576171875,-0.34823583984375023,2.0527406348365598,0.7154517038381909,-3.549840138523698,-1.3374754993078788,3.860320823564769
264,1791274656.3402562,-0.12640913085937494,-1.876689404296875,-0.33386572265625025,1.9103425633455278,0.7143085494133238,-3.56767626241433,-1.34097305452783,3.8777260540333875
265,1791274656.3602562,-0.24137006835937494,-1.8479491699218749,-0.39613623046875024,1.905282015242034,0.7116944218336131,-3.6054428390811735,-1.3483782846363048,3.9145690713576045
266,1791274656.4010274,-0.15514936523437495,-1.867109326171875,-0.4296665039062502,1.9221815382501317,0.7059522205253931,-3.682244060181402,-1.3637350918230562,3.9896194376250462
267,1791274656.4210274,-0.13119916992187494,-1.915009716796875,-0.4200864257812502,1.9649295261510786,0.7031284291602523,-3.7199402800425356,-1.371412896237585,4.026551701759592
268,1791274656.4305718,-0.20304975585937496,-1.9245897949218749,-0.32428564453125025,1.9622528535642456,0.7017437323825534,-3.737979724813523,-1.3750601341297817,4.044221440713675
269,1791274656.4505718,-0.21262983398437493,-1.8862694824218749,-0.32428564453125025,1.9257167979392398,0.6986538573571618,-3.7758270118364687,-1.3825292773096245,4.081222125581041
270,1791274656.4602578,-0.030608349609374936,-1.8431591308593749,-0.38655615234375024,1.8835068653049558,0.6972051942799102,-3.7941162822001826,-1.3861203788778143,4.099114922825145
271,1791274656.4802577,-0.05455854492187494,-1.905429638671875,-0.48714697265625023,1.9674732312591634,0.6945348809657799,-3.8318388418133504,-1.3937337106895866,4.136165043469639
272,1791274656.5203702,-0.21741987304687493,-1.915009716796875,-0.47277685546875026,1.9844524614334014,0.6891643470958866,-3.9076411598464214,-1.4096006574210773,4.210888379527047
273,1791274656.5403702,-0.21741987304687493,-2.015600537109375,-0.3913461914062502,2.0647200216783625,0.6862360145771279,-3.945662674457829,-1.417621374702912,4.248390774202273
274,1791274656.5506601,-0.044978466796874936,-1.9724901855468748,-0.3913461914062502,2.0114403883989005,0.6847528877571081,-3.965368080983028,-1.4217330441005878,4.26782794682005
275,1791274656.57066,-0.006658154296874935,-1.938959912109375,-0.46798681640625023,1.9946482226487692,0.6822251550902896,-4.003790605663009,-1.4298149424555295,4.305826418459346
276,1791274656.5953028,-0.05455854492187494,-1.943749951171875,-0.5158872070312502,2.0117853061107596,0.6794646793401787,-4.051207166330985,-1.4400976427817933,4.35291086237107
277,1791274656.6153028,-0.025818310546874935,-1.938959912109375,-0.37697607421875023,1.975434910712087,0.6774397761031108,-4.089741950007494,-1.4485305461714186,4.391258886821569
278,1791274656.6251218,-0.0018681152343749347,-1.881479443359375,-0.3099155273437502,1.9068340304617986,0.676574376302357,-4.108636345828474,-1.4525555201161657,4.410052499455265
279,1791274656.6451218,-0.025818310546874935,-1.823998974609375,-0.38176611328125026,1.8637017491501742,0.6750345539553031,-4.146906994893793,-1.4605616002434259,4.448117518843038
280,1791274656.6704612,-0.0018681152343749347,-1.8479491699218749,-0.4296665039062502,1.8972435081055081,0.6733236655191458,-4.195099939463433,-1.470725629441604,4.496138580796931
281,1791274656.6904612,-0.10245893554687494,-1.958120068359375,-0.3386557617187502,1.9898290782201442,0.6720193532872624,-4.23314131124535,-1.478697080233158,4.534053421305786
282,1791274656.7009037,-0.15514936523437495,-1.938959912109375,-0.36260595703125026,1.9786662038793643,0.6712387355615863,-4.253076461344296,-1.4827840808808006,4.55388509480342
283,1791274656.7209036,-0.16472944335937495,-1.862319287109375,-0.45361669921875025,1.923833939418674,0.669488101948489,-4.2912320380542885,-1.4906618947331753,4.591836191272904
284,1791274656.7458265,-0.13119916992187494,-1.8958495605468748,-0.47277685546875026,1.958309662305961,0.6670806384595445,-4.338672086082895,-1.5007378762020245,4.639104032227544
285,1791274656.7658265,-0.12161909179687494,-1.9293798339843748,-0.39613623046875024,1.9733782355050593,0.6650592700210592,-4.376768989586701,-1.5089141157520738,4.67709658116706
286,1791274656.7908864,-0.17430952148437495,-1.8958495605468748,-0.36739599609375023,1.9389711662249156,0.6623502183396704,-4.4245335366542555,-1.5190572618889073,4.724694677289766
287,1791274656.8108864,-0.14556928710937495,-1.8479491699218749,-0.4200864257812502,1.9006786043648052,0.6600326532654608,-4.462551405002709,-1.5271193201305897,4.762572998242065
288,1791274656.835708,-0.09287885742187493,-1.905429638671875,-0.4105063476562502,1.9513595392831375,0.6571439193137777,-4.50964438988808,-1.5371703542618638,4.809534629458618
289,1791274656.855708,-0.10245893554687494,-1.948539990234375,-0.34344580078125025,1.9812271311210765,0.6548724510433012,-4.547678802117142,-1.5451851232617844,4.847456805326954
290,1791274656.865125,-0.16472944335937495,-1.876689404296875,-0.38176611328125026,1.9221977720722498,0.6537746423449071,-4.565602816635576,-1.5489050387823877,4.865311622230315
291,1791274656.885125,-0.12640913085937494,-1.8527392089843748,-0.43445654296875025,1.9071901668687965,0.6513561342164149,-4.603553979882803,-1.5568446865102088,4.903135673953069
292,1791274656.910763,-0.10245893554687494,-1.9245897949218749,-0.37697607421875023,1.9638367225215552,0.6482807975941082,-4.652169609367235,-1.5670561584448868,4.951627517349158
293,1791274656.930763,-0.10245893554687494,-1.867109326171875,-0.3386557617187502,1.9003375474627393,0.64593424245139,-4.690092957957923,-1.5749005762586892,4.989440331836598
294,1791274656.955815,-0.12640913085937494,-1.867109326171875,-0.3913461914062502,1.9118651484272613,0.6430058108779849,-4.737486721963942,-1.5846242423934926,5.036692456681136
295,1791274656.975815,-0.10724897460937494,-1.910219677734375,-0.41529638671875024,1.9577825846043355,0.6406681314570392,-4.775313453664233,-1.5924325485798405,5.074437471995075
296,1791274656.9858756,-0.10724897460937494,-1.9724901855468748,-0.32428564453125025,2.001844413005805,0.6395067536139691,-4.794416834868508,-1.5963292202716473,5.0934927754814305
297,1791274657.0058756,-0.15035932617187495,-1.881479443359375,-0.32428564453125025,1.9151328940832832,0.6371578835252372,-4.832478047806741,-1.603886543687649,5.131400032748832
298,1791274657.0307171,-0.17909956054687495,-1.8958495605468748,-0.37697607421875023,1.9412452625434125,0.6340642044422891,-4.879699413279766,-1.6131718464527227,5.178400060395645
299,1791274657.050717,-0.11682905273437494,-1.9245897949218749,-0.4200864257812502,1.973364515594091,0.6315031936266218,-4.917745383082655,-1.6207217130692946,5.216297039817198
300,1791274657.0757282,-0.16951948242187495,-1.9293798339843748,-0.36739599609375023,1.9713506072365397,0.6282437718644385,-4.9654165429942845,-1.630224186571608,5.263808752301971
301,1791274657.0957282,-0.13598920898437494,-1.862319287109375,-0.29554541015625024,1.8905219600851488,0.6255700849159,-5.003506106025124,-1.6376774154934743,5.301735432986992
302,1791274657.105908,-0.12640913085937494,-1.756938427734375,-0.3913461914062502,1.8044289259326725,0.624213004273802,-5.022748417146593,-1.6414264107024354,5.320895056135257
303,1791274657.125908,-0.17909956054687495,-1.800048779296875,-0.5015170898437502,1.8771711834144476,0.6214884452891658,-5.060218151344254,-1.6490264481998844,5.358296730649072
304,1791274657.1503725,-0.13119916992187494,-1.900639599609375,-0.47277685546875026,1.96294729039228,0.6180862435630132,-5.105967379121905,-1.6587162417649048,5.4040978018383
305,1791274657.1703725,-0.10245893554687494,-1.915009716796875,-0.33386572265625025,1.9465935296472723,0.6153716323686164,-5.143481103779305,-1.6666594551656835,5.441675647293944
306,1791274657.195778,-0.12640913085937494,-1.823998974609375,-0.32428564453125025,1.8569094504013173,0.6120044965062804,-5.1911101564638855,-1.6764900327743388,5.489334476079784
307,1791274657.2157779,-0.17430952148437495,-1.800048779296875,-0.43445654296875025,1.8599225534566322,0.6093003058636153,-5.228417120510627,-1.684206258845157,5.5266755985047045
308,1791274657.2258427,-0.19825971679687496,-1.871899365234375,-0.49193701171875026,1.9455889011731144,0.6078623330210068,-5.24714722063204,-1.688206222020959,5.545456772797221
309,1791274657.2458427,-0.18867963867187496,-1.905429638671875,-0.46319677734375025,1.9699780121920694,0.6048531214762105,-5.284449219677585,-1.6963950453301815,5.582921009984947
310,1791274657.2704225,-0.10724897460937494,-1.881479443359375,-0.36739599609375023,1.9200122542016196,0.6011640367479439,-5.33039751476962,-1.7064806084596227,5.62908624304069
311,1791274657.2904224,-0.13119916992187494,-1.833579052734375,-0.32428564453125025,1.8666511575716351,0.5982549009090309,-5.367749095984689,-1.714493559548201,5.666579872342609
312,1791274657.3150802,-0.10724897460937494,-1.8910595214843748,-0.28596533203125024,1.91556378841197,0.5947652901223646,-5.413779932506262,-1.7240193217471753,5.712705272434369
313,1791274657.3350801,-0.044978466796874936,-1.915009716796875,-0.29554541015625024,1.9382033864809625,0.5921310774400637,-5.451224458000157,-1.7314590134431884,5.750166747112913
314,1791274657.3456337,-0.16951948242187495,-1.8862694824218749,-0.3099155273437502,1.9190615022258726,0.5907797789549095,-5.471028177664538,-1.7352751605266628,5.769952335224461
315,1791274657.3656337,-0.18388959960937495,-1.8910595214843748,-0.2811752929687502,1.9206720292692534,0.5880729625500176,-5.50859446179312,-1.7423089351210503,5.807416222312883
316,1791274657.39126,-0.06892866210937494,-1.9341698730468748,-0.19974462890625022,1.9456778189205035,0.5846390239370767,-5.556860372159469,-1.7508938267073346,5.85543586561993
317,1791274657.41126,-0.16472944335937495,-2.001230419921875,-0.3290756835937502,2.034784948996544,0.5820105192843088,-5.594782270078985,-1.7573821308796695,5.89310757139923
318,1791274657.4351182,-0.19825971679687496,-2.029970654296875,-0.49672705078125023,2.0992440390742324,0.5786957474663318,-5.6404476046503085,-1.7654388048921852,5.938544613182607
319,1791274657.4551182,-0.15993940429687495,-2.039550732421875,-0.45361669921875025,2.0954989651583125,0.5757965439476462,-5.679090228623692,-1.7726050164044254,5.977100971964025
320,1791274657.4642513,-0.14077924804687494,-1.9293798339843748,-0.13747412109375023,1.9393876545025022,0.5744652103704607,-5.696808287231628,-1.7757915194732221,5.994753577923779
321,1791274657.4842513,-0.17909956054687495,-1.900639599609375,0.1930385742187498,1.9187942649819902,0.5715073021568261,-5.7355329883701085,-1.7816394007677843,6.033009051167461
322,1791274657.5093462,-0.28448041992187495,-1.7665185058593749,-0.07041357421875022,1.7906632325193992,0.5674800658989367,-5.783736396683024,-1.7876455924740644,6.080239888014332
323,1791274657.5293462,-0.39465131835937495,-1.881479443359375,-0.44403662109375025,1.9730390466838337,0.563733216667255,-5.8218626070863495,-1.7924860145405315,6.117588206776235
324,1791274657.5554652,-0.35633100585937494,-2.298212841796875,-0.46319677734375025,2.371350945448281,0.558102877905551,-5.872372624893743,-1.7996363669593523,6.167246559138896
325,1791274657.5754652,-0.24137006835937494,-2.465864208984375,-0.19974462890625022,2.4856877768188914,0.5535417270291176,-5.912394023252592,-1.8052847045432756,6.20659845601544
326,1791274657.5997767,-0.43297163085937496,-2.523344677734375,0.17866845703124978,2.5664479759615917,0.547599384947272,-5.962842946905524,-1.8111592311473876,6.2558499707414645
327,1791274657.6197767,-0.35633100585937494,-2.279052685546875,0.2840493164062498,2.324163708387607,0.5422602157665288,-6.005323231658843,-1.8145729511470525,6.29687448289539
328,1791274657.6297014,-0.030608349609374936,-1.790468701171875,0.2169887695312498,1.8038290293275014,0.5397201468641196,-6.026270475528242,-1.8156399044562213,6.316944035196782
329,1791274657.6497014,0.046032275390625065,-1.5365966308593748,0.08765771484374979,1.539783118272716,0.5353923857899108,-6.067141709320951,-1.8170105249148762,6.355972055901064
330,1791274657.7050948,-0.06892866210937494,-1.550966748046875,0.15471826171874978,1.5601880510106974,0.5251087427495293,-6.17618906718525,-1.8192303194972081,6.459926434620484
331,1791274657.7250948,-0.31322065429687496,-1.479116162109375,0.3223696289062498,1.5459023180435698,0.5213795190802472,-6.2142002931849785,-1.8191959325497247,6.495967651377437
332,1791274657.7196183,-0.667683544921875,-1.086332958984375,0.2648891601562498,1.302339003909302,0.5213795190802472,-6.2142002931849785,-1.8191959325497247,6.495967651377437
333,1791274657.7396183,-0.36112104492187497,-0.688759716796875,0.1068178710937498,0.7849894356948883,0.5158912979048536,-6.247596984954139,-1.8178647737230378,6.527116074745807
334,1791274657.7652807,-0.06892866210937494,-0.645649365234375,0.09244775390624979,0.6558664883114934,0.5090778388359769,-6.286589532535867,-1.8160294171523848,6.563408492585714
335,1791274657.7852807,0.12267290039062508,-0.463627880859375,0.030177246093749784,0.48053107972555303,0.5046449024637427,-6.314083926578428,-1.814629654145939,6.589021406185028
336,1791274657.7957394,-0.04976850585937494,-0.41093745117187497,-0.11831396484375023,0.43051676765041325,0.5027316686007949,-6.326991072910292,-1.8140766004945328,6.601093021595928
337,1791274657.8157394,0.17536333007812507,-0.631279248046875,-0.21411474609375022,0.6892828962374654,0.4998102171428993,-6.349534165898892,-1.8136762885224766,6.6223723888517805
338,1791274657.839966,0.2999043457031251,-0.559428662109375,-0.08478369140625022,0.6403837278457153,0.497665751941902,-6.374908823059739,-1.81380721203385,6.64658034672017
339,1791274657.859966,0.03166215820312507,-0.10437495117187497,-0.06562353515625022,0.12729128430735,0.4966583182538487,-6.393710063351972,-1.8141246924030954,6.664626490575871
340,1791274657.884694,-0.025818310546874935,0.2500879394531251,-0.35781591796875023,0.43731315298218987,0.4956104003510253,-6.41319886546546,-1.815243659054898,6.6835513687472
341,1791274657.904694,0.10830278320312507,0.14470708007812505,-0.5206772460937502,0.5511573518279982,0.49501370700105224,-6.426004785729179,-1.8173306618989367,6.69636220727428
342,1791274657.9150515,0.2376338378906251,0.527910205078125,-0.49193701171875026,0.7597111615838151,0.49501977388836654,-6.4311193203538926,-1.8190359400248668,6.7017335100906354
343,1791274657.9350514,0.2472139160156251,1.045234423828125,-0.3290756835937502,1.1233523608199643,0.49575700265154826,-6.437154296830756,-1.8230663993956235,6.708673605377596
344,1791274657.9597363,0.2855342285156251,1.212885791015625,-0.2811752929687502,1.2773728050485786,0.4975167491953615,-6.439305036625657,-1.8284245917337871,6.712325137990511
345,1791274657.9797363,0.12267290039062508,1.112294970703125,-0.4392465820312502,1.2021590170055914,0.499340960322665,-6.4372984387856125,-1.833195299664179,6.711837124912857
346,1791274657.9895854,0.505876025390625,1.3038965332031252,-0.5110971679687503,1.4890523958107793,0.5005688461970763,-6.434673711929969,-1.8358942511843674,6.710149227127329
347,1791274658.0095854,0.8938691894531251,1.4380176269531253,-0.5398374023437502,1.777166633788383,0.5047878536725637,-6.426030436443093,-1.8421291751418643,6.703888263181093
348,1791274658.0352037,0.6591572753906251,1.5625586425781253,-0.5542075195312502,1.784159129646503,0.5123653662218172,-6.410854587969245,-1.8510197010367515,6.6923724306269845
349,1791274658.0552037,0.2663740722656251,1.5865088378906254,-0.6356381835937502,1.7297402520386687,0.5187820016746549,-6.396060493618903,-1.858704106393746,6.68083120265877
350,1791274658.0805063,0.34301469726562506,1.4715479003906253,-0.8224497070312503,1.7203301503723276,0.5268386540421416,-6.3743481931112544,-1.8697346475235543,6.663766315422809
351,1791274658.1005063,0.9896699707031251,1.5673486816406252,-1.2870834960937503,2.2566817380102675,0.5342506681925246,-6.355202100794351,-1.880309987468566,6.64902873864891
352,1791274658.1100032,1.5501045410156251,1.6918896972656252,-1.4116245117187503,2.6940672964638486,0.5390513078483908,-6.345152902730618,-1.8865006115174108,6.641568054968602
353,1791274658.1300032,1.3393428222656252,1.7876904785156253,-1.1385922851562502,2.5072033891065173,0.5519788643978182,-6.321944960775478,-1.901407465603388,6.624727851321039
354,1791274658.17016,1.3345527832031252,1.6727295410156253,-1.0427915039062503,2.380434701721644,0.5820950435954135,-6.2719147579280925,-1.9334183184328082,6.588919165124588
355,1791274658.19016,1.6123750488281252,1.6248291503906254,-1.3541440429687503,2.659610714963822,0.5992648043804977,-6.245788655228333,-1.9505651820800296,6.570669582401099
356,1791274658.1997554,1.9237275878906253,1.6775195800781253,-1.6080161132812503,3.016706083550254,0.6088114848774495,-6.2327577590090355,-1.9596894846946287,6.561882624904892
357,1791274658.2197554,2.1680195800781252,1.5481885253906253,-1.5601157226562503,3.0872573067097218,0.631862778505481,-6.204832601648762,-1.9806070374990288,6.543852261652511
358,1791274658.2456682,2.1584395019531253,1.3565869628906253,-1.6750766601562503,3.050421460860234,0.6656573042831941,-6.168433502914952,-2.0099308584997333,6.521694073059443
359,1791274658.2656682,2.4410518066406253,1.1506152832031251,-2.07264990234375,3.402723478381637,0.6947273243816102,-6.140793191724054,-2.0347902412377996,6.506332177548539
360,1791274658.2754347,2.7571943847656253,1.045234423828125,-2.2498813476562503,3.708989344103042,0.7106013890488665,-6.127711806225842,-2.0482750991783294,6.499941322519131
361,1791274658.2954347,2.838625048828125,0.9733838378906251,-2.38879248046875,3.835570072159444,0.7466259572887937,-6.101914051179042,-2.078705229400928,6.489362128808378
362,1791274658.320532,2.7715645019531254,1.0691846191406251,-2.4127426757812502,3.8270161690055122,0.7956112509655137,-6.070552420876474,-2.1202011435154584,6.479186433977371
363,1791274658.340532,3.025436572265625,0.944643603515625,-2.6666147460937504,4.142034789152548,0.8374874796931342,-6.046288531102896,-2.1559278929538843,6.473562802630848
364,1791274658.3656092,3.7295723144531254,0.743461962890625,-2.73846533203125,4.686324542083854,0.8948229461586283,-6.01725365215877,-2.2041704569820175,6.4704263401125575
365,1791274658.3856091,3.9594941894531255,0.48000981445312507,-2.8917465820312502,4.926479671426018,0.9452247382878121,-5.995735453336993,-2.245319813795676,6.47176594898926
366,1791274658.3954287,3.6433516113281255,0.46084965820312507,-2.9540170898437506,4.71302560340193,0.9718581066904887,-5.986062366551341,-2.2667978421643893,6.474243067187344
367,1791274658.4154286,3.9211738769531252,0.08243657226562504,-3.2366293945312505,5.085092939100547,1.029313798066537,-5.968500944650468,-2.3132675549066026,6.483339972712155
368,1791274658.4397655,4.122355517578125,-0.42051752929687497,-3.45697119140625,5.396415460652146,1.1034226584861209,-5.950953977714716,-2.3735494734735,6.501163888963691
369,1791274658.4597654,3.830163134765625,-0.674389599609375,-3.5671420898437503,5.2772581574254795,1.1671186523052826,-5.940339262327548,-2.4261943334116385,6.521979411466111
370,1791274658.4847362,3.547550830078125,-0.774980419921875,-3.5479819335937504,5.076798926918213,1.248533621770403,-5.931788694326669,-2.4953894100710228,6.555297218793928
371,1791274658.5047362,4.050504931640625,-0.837250927734375,-3.6389926757812505,5.509069523215938,1.3153576264125766,-5.928385852187172,-2.5532775474876965,6.587499581197674
372,1791274658.5148938,4.510348681640625,-0.995322216796875,-3.7635336914062503,5.958027978415067,1.3507272208499517,-5.928312941619889,-2.5839071123065662,6.606506968432815
373,1791274658.5348938,4.491188525390625,-1.062382763671875,-3.8545444335937504,6.013064468114081,1.4234249350851609,-5.931277471232223,-2.64659660999704,6.64911006094928
374,1791274658.5598862,4.175045947265625,-1.0815429199218751,-3.7156333007812505,5.692686059786437,1.5168873453354959,-5.93844498694452,-2.7273739975677587,6.7085501417231885
375,1791274658.5798862,3.9211738769531252,-1.234824169921875,-3.6725229492187506,5.51251486315105,1.5926052004400884,-5.946794909550316,-2.7934013508617697,6.760462419666182
376,1791274658.6053433,4.007394580078126,-1.239614208984375,-3.7108432617187503,5.600554652942773,1.6896644953932505,-5.960553348350682,-2.8789352577565506,6.831649181850663
377,1791274658.6253433,3.973864306640625,-1.230034130859375,-3.7970639648437503,5.632253211973543,1.766451437761207,-5.973445542334624,-2.9473156535524234,6.8912315220779785
378,1791274658.6359906,3.6720918457031253,-1.321044873046875,-3.8832846679687503,5.505389894672673,1.8073039966834639,-5.981316553294222,-2.9843916254827905,6.924528057665108
379,1791274658.6559906,3.5523408691406253,-1.431215771484375,-3.9599252929687503,5.508948407909266,1.8833677860791986,-5.9980121731053115,-3.0553537003349462,6.98987914634515
380,1791274658.6800508,3.5331807128906254,-1.718618115234375,-3.8689145507812506,5.514119510601937,1.9739336503013916,-6.020768406488486,-3.1420440790183726,7.072376351330329
381,1791274658.7000508,3.6050312988281252,-1.747358349609375,-3.7012631835937504,5.454251646349529,2.0486310773476517,-6.042045985916719,-3.2146511951528143,7.144031865375767
382,1791274658.7253616,3.590661181640625,-1.522226513671875,-3.6629428710937506,5.350436595004469,2.1426433355446983,-6.07114112509013,-3.3067347793939517,7.237690924968289
383,1791274658.7453616,3.6098213378906254,-1.3018847167968748,-3.6581528320312504,5.301678606801623,2.2165874392276503,-6.09491905575789,-3.3795644076481945,7.313190395266962
384,1791274658.7547967,3.571501025390625,-1.503066357421875,-3.5527719726562506,5.25709204207721,2.25132046304022,-6.106438787249849,-3.4138714797623297,7.34925553849284
385,1791274658.7747967,3.5523408691406253,-1.5365966308593748,-3.41386083984375,5.160881774498795,2.3245870078833764,-6.131754141500446,-3.4861347457868845,7.426658001740126
386,1791274658.8003838,3.5954512207031253,-1.541386669921875,-3.29410986328125,5.114127700599122,2.4179776955661674,-6.165190120384503,-3.577590384955001,7.526974047999942
387,1791274658.8203838,3.6289814941406253,-1.474326123046875,-3.4473911132812503,5.218012043857708,2.4908628391762817,-6.19192845367187,-3.6484654909688206,7.606291875662608
388,1791274658.8456016,3.461330126953125,-1.661137646484375,-3.7156333007812505,5.342856478906724,2.582388091291873,-6.226515636822235,-3.737973996697979,7.707832044721015
389,1791274658.8656015,3.394269580078125,-1.637187451171875,-3.8976547851562504,5.421546048570446,2.6543711359992517,-6.254779278044183,-3.8097340294491335,7.789866707448825
390,1791274658.8755634,3.581081103515625,-1.3018847167968748,-3.7826938476562506,5.369154349698136,2.6900587790261206,-6.268941396465851,-3.845853984894618,7.831132443016688
391,1791274658.8955634,3.7247822753906252,-1.388105419921875,-3.4473911132812503,5.261686530363738,2.76191887708445,-6.297144172046165,-3.918338160824047,7.914265256465718
392,1791274658.9203293,3.408639697265625,-1.474326123046875,-3.3994907226562505,5.034778969954832,2.850805515680543,-6.332145951506914,-4.007349442193827,8.017606500151475
393,1791274658.9403293,3.058966845703125,-1.579706982421875,-3.6150424804687504,4.992122238989848,2.921520941431515,-6.36075309888982,-4.078970815088615,8.101386764412869
394,1791274658.9649143,3.1595576660156253,-1.675507763671875,-3.6150424804687504,5.085141398879336,3.0068751202504598,-6.396645884604518,-4.1671367770171654,8.205084123894046
395,1791274658.9849143,3.571501025390625,-1.6132372558593748,-3.57672216796875,5.3057605943821144,3.075992204954911,-6.4263980562565175,-4.238889205152288,8.290265479220645
