imu_index,t_imu,ax,ay,az,mag,vx,vy,vz,velocity
0,1791286462.170741,0.08588540039062503,0.026009912109374998,-0.03051254882812448,0.0947830847998949,0.0,0.0,0.0,0.0
1,1791286462.190741,0.09067543945312503,0.040380029296875,-0.04488266601562448,0.10893592517945547,0.0003743447882603215,0.00013274742345089906,-0.00015199617706649366,0.0004252748955362239
2,1791286462.2006474,0.06672524414062504,0.040380029296875,0.012597802734375524,0.07900322528464733,0.0006488948956539464,0.00024863890688539683,-0.00023997602076639637,0.0007351696281578728
3,1791286462.2206473,0.061935205078125034,0.069120263671875,0.026967919921875524,0.09664806869799117,0.001313035175142975,0.0006117681796484402,-0.00033160789273908685,0.0014860301044460596
4,1791286462.2308154,0.08109536132812503,0.09786049804687501,0.007807763671875523,0.12733458242157722,0.0017091150825383431,0.000896032654560969,-0.00034468588853408047,0.00196029519337118
5,1791286462.2508154,0.07151528320312503,0.121810693359375,0.017387841796875525,0.14231871904520513,0.0026002359812068955,0.0017008002951531776,-0.00032875758957675514,0.0031244248038095656
6,1791286462.275708,0.014034814453125034,0.09786049804687501,0.003017724609375523,0.09890783465698814,0.003702701249652387,0.0029623058038943436,-0.0002738104597477461,0.0047497604558367715
7,1791286462.295708,0.05235512695312503,0.078700341796875,-0.04009262695312448,0.10267532251337316,0.0045551971865666,0.004088671933352665,-0.00029189749187449605,0.006127990187072162
8,1791286462.3059595,0.08109536132812503,0.083490380859375,-0.08320297851562448,0.14307283794925618,0.005029226526210567,0.004704121141471195,-0.00039457540426023714,0.006897649231094851
9,1791286462.3259594,0.028404931640625034,0.026009912109374998,-0.03530258789062448,0.05224584558815428,0.005979554333734293,0.005888963926989914,-0.0007426032121108583,0.00842534424781008
10,1791286462.350528,-0.02428549804687497,0.054750146484375,0.012597802734375524,0.0612051353170592,0.006979443724162386,0.0072749468005304,-0.0011478383504666143,0.01014667524502973
11,1791286462.370528,-0.02907553710937497,0.10744057617187501,0.017387841796875525,0.11265523205202806,0.007591266361520545,0.008477250541544428,-0.0013832585912033001,0.011463180450721625
12,1791286462.3958833,-0.019495458984374967,0.083490380859375,-0.020932470703124477,0.08825465963218092,0.00815820317710882,0.010135940520715923,-0.0016436887792050684,0.013114697179933818
13,1791286462.4158833,-0.06260581054687497,0.069120263671875,-0.020932470703124477,0.09557858909838483,0.008415165284789654,0.011476957460139414,-0.0018810966529038482,0.01435528069839614
14,1791286462.4259365,-0.04344565429687497,0.035589990234375,0.003017724609375523,0.05624303462638293,0.008444993407415717,0.012128869993349669,-0.0019960389321531896,0.014913469495243022
15,1791286462.4459364,-0.03865561523437497,0.049960107421875004,0.03175795898437552,0.0707024531512635,0.008372281254640934,0.01335958520259675,-0.0021382439247433133,0.01591055301596886
16,1791286462.4703178,-0.019495458984374967,0.088280419921875,-0.011352392578124478,0.09111740931261099,0.008190600820542905,0.014887652476938061,-0.002248284504967083,0.017140096886856655
17,1791286462.4903178,-0.02907553710937497,0.140970849609375,0.003017724609375523,0.14396969806041024,0.007991067316582872,0.016296977296241202,-0.0023375125297876,0.01830061722126536
18,1791286462.516079,-0.005125341796874967,0.093070458984375,0.012597802734375524,0.09405893948919083,0.007706529276863961,0.018292162710162152,-0.002405033220832368,0.019994449102276247
19,1791286462.536079,0.033194970703125035,0.088280419921875,0.022177880859375523,0.09688754832782472,0.007560864644438854,0.019880828334921604,-0.002397427214745759,0.021404711320271313
20,1791286462.5458918,0.009244775390625033,0.160131005859375,0.050918115234375526,0.16828564813607677,0.007531349885190775,0.02072619605282461,-0.0023404592581629763,0.022175982130503407
21,1791286462.5658917,0.033194970703125035,0.117020654296875,0.046128076171875525,0.1300905032020724,0.007543877371359286,0.022606458326298068,-0.0020961974643421448,0.023923964714534094
22,1791286462.590275,0.09546547851562504,0.054750146484375,0.022177880859375523,0.11226350487888057,0.007792147036587357,0.024869083671943962,-0.0017181566585743548,0.02611782801890981
23,1791286462.610275,0.07151528320312503,0.09786049804687501,0.007807763671875523,0.12145811616833789,0.008215710965365532,0.02667549647514814,-0.0014096090764774778,0.027947576220677096
24,1791286462.6360233,0.018824853515625035,0.078700341796875,-0.011352392578124478,0.08171288592429927,0.008853675282361115,0.02899321722644707,-0.0010788100050319054,0.030334106912391478
25,1791286462.6560233,-0.019495458984374967,0.078700341796875,-0.0017723144531244773,0.08109844522848235,0.009273877878128224,0.03075956613310355,-0.0008800908162841712,0.032139232713929475
26,1791286462.6660466,-0.04823569335937497,0.10744057617187501,0.007807763671875523,0.11803016858227386,0.00940196424223169,0.03165195017252586,-0.0007909006710876245,0.033028297037658326
27,1791286462.6860466,-0.05302573242187497,0.09786049804687501,-0.03051254882812448,0.1154097960003716,0.009467311486975563,0.033473418019302696,-0.0006736880120571092,0.03479301016330705
28,1791286462.710986,0.033194970703125035,0.064330224609375,-0.05925278320312448,0.09354772148796804,0.009499482020568106,0.03570739962497489,-0.000717353161198884,0.03695636808717323
29,1791286462.7309859,0.023614892578125032,0.073910302734375,-0.025722509765624478,0.0817437674101579,0.009606625921471774,0.0374375637117055,-0.000874580522135384,0.03866035862938678
30,1791286462.7551265,-0.04344565429687497,0.117020654296875,0.022177880859375523,0.12678019091626638,0.009680648546061871,0.039558360140978306,-0.001042309781283726,0.04073898897856783
31,1791286462.7751265,0.018824853515625035,0.112230615234375,0.012597802734375524,0.11449362750609882,0.009695844651434742,0.04139571700804673,-0.0011082624714621651,0.04253049536298274
32,1791286462.8006058,0.06672524414062504,0.121810693359375,0.003017724609375523,0.13892159617617317,0.009875781940810605,0.04383258024732751,-0.0011498403200050785,0.04494605981443041
33,1791286462.8206058,0.023614892578125032,0.064330224609375,0.003017724609375523,0.06859407854608919,0.010131347473276408,0.04573768407833892,-0.0011685281950888334,0.046860915533276974
34,1791286462.8306592,-0.02428549804687497,0.073910302734375,0.017387841796875525,0.0797173463433455,0.010240037253998016,0.04665591131997584,-0.0011611270654277586,0.04778054667040537
35,1791286462.8506591,0.009244775390625033,0.054750146484375,0.022177880859375523,0.05979049097888628,0.010401267267578866,0.04840159583193128,-0.0010892634554344825,0.04951855545878312
36,1791286462.8760722,0.028404931640625034,0.069120263671875,-0.025722509765624478,0.07903226240100147,0.01064716406493929,0.05052312549063742,-0.0010184027825139844,0.05164286452353184
37,1791286462.8960721,0.037985009765625036,0.117020654296875,-0.020932470703124477,0.12479929017707,0.010911240897574514,0.05222152828353251,-0.0010409831258019109,0.05335941191637041
38,1791286462.9201396,0.023614892578125032,0.10744057617187501,0.007807763671875523,0.1102819193393764,0.011292547214156621,0.05436393089809282,-0.001087770601092313,0.05553505064513013
39,1791286462.9401395,0.009244775390625033,0.083490380859375,0.012597802734375524,0.08494006240756383,0.011611171981269382,0.056163610874294924,-0.001090210564204915,0.05736165147807495
40,1791286462.9508884,0.04756508789062504,0.078700341796875,0.003017724609375523,0.09200699998807627,0.011802526525541895,0.05711650594129284,-0.0010787365179679956,0.05833316857331734
41,1791286462.9708884,0.061935205078125034,0.073910302734375,-0.006562353515624478,0.09665281662745476,0.012269415709199072,0.058852483446757836,-0.0010659065512297716,0.06012727772377526
42,1791286462.9958823,0.028404931640625034,0.09786049804687501,-0.01614243164062448,0.10317022496225954,0.01293471123094304,0.06101850261440072,-0.0010948391054012335,0.062383997055320425
43,1791286463.0158823,-0.005125341796874967,0.136180810546875,-0.006562353515624478,0.13643513760539358,0.01342214158206795,0.06284281555232503,-0.0011485751731544645,0.06427046425941708
44,1791286463.0398128,-0.019495458984374967,0.131390771484375,0.007807763671875523,0.13305851692329415,0.013873693096429766,0.06517846692803957,-0.001200992153582229,0.06664948832043976
45,1791286463.0598128,-0.014705419921874968,0.083490380859375,0.007807763671875523,0.08513433058806552,0.014143168764624082,0.06716000788855582,-0.0012148052974216203,0.06864380259139322
46,1791286463.069616,-0.06260581054687497,0.136180810546875,0.022177880859375523,0.15151422070171405,0.014198600365032964,0.06814711060156735,-0.001198513552519308,0.06962086878518352
47,1791286463.089616,-0.03386557617187497,0.160131005859375,0.026967919921875524,0.1658797305034613,0.014150017868386414,0.07030332174820939,-0.0010965432577582659,0.07172156204116054
48,1791286463.1160543,-0.019495458984374967,0.169711083984375,0.022177880859375523,0.17226080038005073,0.013989621432589612,0.07338013012666308,-0.0008845171501226196,0.0747069968331082
49,1791286463.1360543,-0.00033530273437496735,0.140970849609375,0.012597802734375524,0.141533026185576,0.013856739209611805,0.07582456339955283,-0.0006960193002761465,0.0770834488014279
50,1791286463.1609867,-0.04344565429687497,0.150550927734375,-0.04009262695312448,0.1617421573213582,0.013634066297572538,0.07895987673220925,-0.0005476951875677051,0.08013020571164639
51,1791286463.1809866,-0.04823569335937497,0.140970849609375,-0.04009262695312448,0.15429478698080204,0.01334471633415786,0.08153495193250429,-0.0005668391246540686,0.08262173531987914
52,1791286463.1907668,-0.02428549804687497,0.09786049804687501,0.017387841796875525,0.10231715171817658,0.013171250624084127,0.08278048721701009,-0.0005914506937149219,0.0838238672503906
53,1791286463.2107668,0.028404931640625034,0.126600732421875,0.03654799804687552,0.1347974100363141,0.01287590998915282,0.0852821802516904,-0.0005533270791167107,0.0862504811429308
54,1791286463.2360291,0.004454736328125033,0.150550927734375,0.09881850585937553,0.1801402887133069,0.012621075624904074,0.08849323863311982,-0.0002559198577025919,0.08938909513291542
55,1791286463.2560291,0.04756508789062504,0.131390771484375,0.14192885742187553,0.199172721491627,0.012527617714784318,0.09107699202588451,0.00030533728225826004,0.09193504725047323
56,1791286463.2803478,0.11462563476562504,0.030799951171875,0.10839858398437553,0.1607417996273218,0.012726844714443655,0.09404323878998705,0.0013419948418503492,0.0949099799212477
57,1791286463.3003478,-0.014705419921874968,-0.007520361328125002,0.09881850585937553,0.10018933231568954,0.013015994527884125,0.09615171294189682,0.002377495647222401,0.09705782039981838
58,1791286463.3110986,-0.005125341796874967,0.093070458984375,0.041338037109375524,0.10196672386692204,0.013132119746604198,0.09718407174999502,0.0029636337534741765,0.09811207619845819
59,1791286463.3310986,0.004454736328125033,0.140970849609375,-0.011352392578124478,0.14149735662757096,0.013314740382492628,0.09916758222333007,0.003935460931121498,0.1001348067767372
60,1791286463.3558915,-0.04823569335937497,0.112230615234375,-0.05925278320312448,0.13576923593753648,0.013425758386822927,0.1017284266198413,0.004828186820858572,0.10272407292736642
61,1791286463.3758914,-0.06260581054687497,0.045170068359375,-0.011352392578124478,0.07803011858936053,0.01333561903197293,0.10372044529685233,0.005334402780768597,0.10471019702288181
62,1791286463.4004776,-0.13445639648437496,0.006849755859374999,0.046128076171875525,0.14231388239456763,0.012878055287505864,0.10589785728818499,0.005927480336266366,0.10684257348713422
63,1791286463.4204776,-0.10092612304687497,-0.012310400390625002,-0.011352392578124478,0.10230593867561308,0.012208602086697204,0.1073952250359663,0.006389723797242041,0.1082756338962843
64,1791286463.4457295,0.014034814453125034,0.049960107421875004,-0.08799301757812449,0.10215556515845362,0.011325578789764782,0.10907351244261511,0.006697656661270832,0.10986427288361193
65,1791286463.4657295,-0.03865561523437497,0.131390771484375,-0.020932470703124477,0.13854948484258053,0.010694181373426119,0.11047539003000723,0.006741574208071364,0.11119634049883514
66,1791286463.4758377,-0.14403647460937496,0.117020654296875,0.06528823242187552,0.1967305081646939,0.010284430800733092,0.11126596208284122,0.0067940680753577,0.11194660868524746
67,1791286463.4958377,-0.23504721679687499,0.016429833984375,0.007807763671875523,0.235750068382317,0.009026688980193483,0.11279571844707044,0.006991995934754745,0.11337214482000224
68,1791286463.5211165,-0.345218115234375,0.073910302734375,-0.020932470703124477,0.3536614882426391,0.00657530253032312,0.11461048948320622,0.007179756521719259,0.11502324898322325
69,1791286463.5411165,-0.35479819335937496,0.169711083984375,0.046128076171875525,0.3959942038080183,0.0038767230106989295,0.11619635375240547,0.007343818786788093,0.11649271771672691
70,1791286463.5802047,-0.27336752929687497,0.20324135742187502,0.05570815429687553,0.3451669942154502,-0.002447840460494419,0.11992422856766471,0.007914912578174211,0.12021005931946654
71,1791286463.6002047,-0.19672690429687498,0.20803139648437502,0.017387841796875525,0.28684642901703383,-0.005903615673916226,0.12216243795399728,0.008272932524283854,0.1225844824496188
72,1791286463.5958774,-0.23504721679687499,0.231981591796875,0.041338037109375524,0.332823506334251,-0.005903615673916226,0.12216243795399728,0.008272932524283854,0.1225844824496188
73,1791286463.6158774,-0.19672690429687498,0.246351708984375,0.07007827148437552,0.32295758781609674,-0.009598585308981642,0.12505805952756469,0.008773601663055023,0.1257323632915395
74,1791286463.6391625,-0.07218588867187498,0.227191552734375,0.11797866210937553,0.2659807678579841,-0.013724826187259957,0.12875061354920805,0.009597493827157732,0.12983529270167776
75,1791286463.6591625,-0.00033530273437496735,0.21761147460937502,0.09402846679687553,0.23705741683769668,-0.016846086916016443,0.132113671123724,0.010517010031667719,0.1335979799329903
76,1791286463.6848586,-0.05781577148437497,0.20803139648437502,0.11318862304687553,0.24378554047116985,-0.020366830704637993,0.13660670833768226,0.011920547162626832,0.1386300833169496
77,1791286463.7048585,-0.02907553710937497,0.18408120117187501,0.10360854492187553,0.21322759217302825,-0.02282642096867716,0.1401673799139234,0.01317429459979591,0.1426236373269719
78,1791286463.7145162,0.028404931640625034,0.19845131835937502,0.041338037109375524,0.20469147322773049,-0.023836443805459753,0.14190593163882187,0.013793882298819242,0.14455359101885537
79,1791286463.7345161,0.023614892578125032,0.19845131835937502,-0.011352392578124478,0.200173588985406,-0.025536323130472126,0.1455615987372282,0.014929499961920228,0.1485367725348666
80,1791286463.760438,-0.009915380859374968,0.19366127929687502,-0.011352392578124478,0.19424696315190246,-0.02738240985930986,0.15035128892726934,0.016136444285428885,0.15367397725695528
81,1791286463.780438,-0.014705419921874968,0.160131005859375,-0.03051254882812448,0.16367407873149173,-0.02863003697679914,0.15402313941272675,0.016865182121331573,0.15756662355914983
82,1791286463.8055196,-0.03865561523437497,0.26551186523437503,-0.03051254882812448,0.2700404095785919,-0.030060349307381787,0.15873791007068255,0.017527199455093075,0.16250708112211149
83,1791286463.8255196,-0.014705419921874968,0.36131264648437506,-0.03530258789062448,0.36333091059858497,-0.031109836631109274,0.16287375206041457,0.01787718300529477,0.16677911954935037
84,1791286463.8354676,0.009244775390625033,0.35173256835937505,-0.04488266601562448,0.35470511587144554,-0.03155762467153097,0.16515435288524896,0.01796532660845368,0.16909936993378474
85,1791286463.8554676,-0.05302573242187497,0.3182022949218751,-0.04488266601562448,0.3256975322305871,-0.03238851295097935,0.17005653184131203,0.017981305752607438,0.17404472743993046
86,1791286463.8796027,-0.12008627929687497,0.3373624511718751,-0.006562353515624478,0.35815806904176667,-0.0335541468565207,0.17627156859716828,0.01790457390113458,0.18032781381017282
87,1791286463.8996027,-0.09613608398437497,0.37089272460937506,-0.011352392578124478,0.3833176706457248,-0.034699514478483955,0.18171161889757415,0.017823654401923742,0.18585169195802057
88,1791286463.9249713,-0.06739584960937497,0.37089272460937506,-0.03051254882812448,0.3781991926865047,-0.03624556024156587,0.1889882793753533,0.017656754989618245,0.1932409671245851
89,1791286463.9449713,-0.09613608398437497,0.3277823730468751,-0.0017723144531244773,0.34159416245394525,-0.037526889031378505,0.19491250291020937,0.01749648565331248,0.1992618332780072
90,1791286463.9550204,-0.07697592773437498,0.289462060546875,0.026967919921875524,0.3007338468671645,-0.03820459991189155,0.19790787042488217,0.017447026141899788,0.20231538585025063
91,1791286463.9750204,-0.02907553710937497,0.30862221679687507,0.03654799804687552,0.31213589303386824,-0.03951015461253746,0.20387223339156796,0.017458629698848194,0.208398041297259
92,1791286463.9999502,-0.05781577148437497,0.3182022949218751,0.05570815429687553,0.3281748960250402,-0.04105587403643116,0.21136356466879525,0.017643418145110418,0.2160357180334736
93,1791286464.0199502,-0.07697592773437498,0.289462060546875,0.06528823242187552,0.3065552662072262,-0.042312110976457755,0.2173835130664217,0.017950922604057867,0.22218942844050904
94,1791286464.045047,-0.02907553710937497,0.236771630859375,0.06528823242187552,0.24732315971372276,-0.04385165431611289,0.2247950166141637,0.018524692467828164,0.22978018041565207
95,1791286464.065047,0.004454736328125033,0.241561669921875,0.08923842773437553,0.2575565608477124,-0.04493143215995776,0.23053287591503657,0.019145139042503236,0.23564969090274512
96,1791286464.074603,-0.005125341796874967,0.27509194335937504,0.046128076171875525,0.2789796513029055,-0.04537044590675119,0.2332334961428506,0.01949414043473555,0.23840378058261522
97,1791286464.094603,-0.07697592773437498,0.31341225585937504,0.017387841796875525,0.323194790514611,-0.04627459220693642,0.23892058767341387,0.0202102789989148,0.244198362966138
98,1791286464.120106,-0.06260581054687497,0.231981591796875,0.041338037109375524,0.24381095085926566,-0.0475215545491362,0.24612786998376185,0.021098809890514547,0.2515599060031351
99,1791286464.140106,-0.06739584960937497,0.246351708984375,0.06528823242187552,0.26361699178327735,-0.04854776910187185,0.25164966937410277,0.021851034679099463,0.25721957487215297
100,1791286464.164778,-0.08176596679687498,0.236771630859375,0.03175795898437552,0.2524976167509093,-0.04989982840546886,0.2583335927999108,0.022819363760700505,0.2640965001779625
101,1791286464.184778,-0.08655600585937497,0.246351708984375,0.050918115234375526,0.2660333834857413,-0.051083932272565157,0.2636637588489386,0.023610593939553292,0.26960268176143526
102,1791286464.2100003,-0.05781577148437497,0.21761147460937502,0.10839858398437553,0.24989531873129966,-0.05262633517083855,0.2702550905843046,0.024760127244672567,0.27644241541669484
103,1791286464.2300003,-0.05781577148437497,0.21761147460937502,0.09881850585937553,0.24589126542900944,-0.053839371204423114,0.2753505218508969,0.025845744985018106,0.28175271127192286
104,1791286464.2404811,-0.08655600585937497,0.18887124023437502,0.07965834960937553,0.22250784300893453,-0.05449318912815422,0.2779397420945908,0.02646961482160339,0.2844655487150746
105,1791286464.260481,-0.10571616210937497,0.21282143554687502,0.06049819335937553,0.2452119527248146,-0.05584208947989128,0.28274199459091903,0.027691766026667067,0.2895310145190099
106,1791286464.2849941,-0.09134604492187497,0.19845131835937502,0.007807763671875523,0.21860463594123314,-0.057609672967655894,0.2885011141537615,0.0290905865704798,0.29563157732964956
107,1791286464.304994,-0.10571616210937497,0.121810693359375,-0.011352392578124478,0.16168682310279706,-0.0591311005747831,0.2929755064029479,0.030055363890008825,0.30039051134449923
108,1791286464.3300226,-0.19193686523437498,0.140970849609375,0.017387841796875525,0.23877788364490715,-0.061308194584567655,0.29822824251461905,0.031092937364652698,0.30604828068548245
109,1791286464.3500226,-0.20151694335937498,0.22240151367187502,-0.011352392578124478,0.3003337952373902,-0.06337711342870411,0.3023410950875297,0.031806737333621965,0.31054543117729416
110,1791286464.3605096,-0.13445639648437496,0.169711083984375,-0.020932470703124477,0.21752825773322462,-0.06456348670297794,0.30448260756505047,0.03209948586921586,0.3129033063390768
111,1791286464.3805096,-0.13924643554687496,0.145760888671875,-0.04009262695312448,0.20553156744142043,-0.06689720002415749,0.3084272941419049,0.03248250562618158,0.31726604658318575
112,1791286464.405618,-0.15361655273437497,0.179291162109375,-0.020932470703124477,0.237026442436831,-0.06993901571570373,0.31324880406314504,0.03277631015513287,0.3226306954920092
113,1791286464.425618,-0.15361655273437497,0.18408120117187501,-0.006562353515624478,0.23984786507813105,-0.0724593727629149,0.3170583391095399,0.032933992807234955,0.32689600637254973
114,1791286464.4496636,-0.11050620117187497,0.20324135742187502,-0.011352392578124478,0.2316194004857389,-0.07551136154422197,0.3216499768992584,0.03306282761047747,0.33204491252111634
115,1791286464.4696636,-0.07218588867187498,0.227191552734375,-0.025722509765624478,0.23976749501516523,-0.07794311357432897,0.3255418505110219,0.03309829974665531,0.3363749735546935
116,1791286464.4797325,-0.06739584960937497,0.19845131835937502,-0.05446274414062448,0.21654402970867295,-0.0790891368022716,0.32752872513014464,0.033052926022155524,0.3385596745983378
117,1791286464.4997325,-0.03865561523437497,0.140970849609375,-0.06404282226562448,0.15958859643622234,-0.081183121236168,0.33139243072414015,0.032798560359227784,0.3427643328535486
118,1791286464.5253277,-0.02907553710937497,0.179291162109375,-0.08320297851562448,0.19978349106620472,-0.083590969613377,0.33621014375865377,0.03223920347483522,0.3479426349383056
119,1791286464.5453277,-0.05781577148437497,0.22240151367187502,-0.06883286132812448,0.2398813446570856,-0.08532056734234038,0.3400125431648851,0.03163963252413851,0.3519789696378666
120,1791286464.5701694,-0.04823569335937497,0.174501123046875,-0.04967270507812448,0.18773572299447594,-0.08734422472963643,0.34476651133609043,0.03078582763289064,0.35698841453963437
121,1791286464.5901694,-0.02907553710937497,0.126600732421875,-0.08320297851562448,0.15425909354662143,-0.08884504131264512,0.34847144763877475,0.030002229832628905,0.36086829312124225
122,1791286464.600217,-0.03865561523437497,0.160131005859375,-0.07841293945312448,0.18244118148149172,-0.08953697039634997,0.3502696278738209,0.029545822953230473,0.3627376971485118
123,1791286464.620217,-0.04823569335937497,0.164921044921875,-0.04009262695312448,0.17644560608863336,-0.09083800435304698,0.353799604581353,0.028595855263559823,0.36639244830512047
124,1791286464.6595364,-0.03386557617187497,0.112230615234375,-0.020932470703124477,0.11908298188690336,-0.0932542364741764,0.3605157510002695,0.026828432238212453,0.37334665408441825
125,1791286464.6795363,-0.04823569335937497,0.09786049804687501,0.003017724609375523,0.10914424333724665,-0.0944220643135626,0.36373466357054646,0.026037401563602854,0.37669135640759993
126,1791286464.6903915,-0.04344565429687497,0.18408120117187501,0.022177880859375523,0.1904344294017669,-0.09503547886384554,0.36544923710976573,0.025692975194622807,0.37847723329328764
127,1791286464.7103915,-0.019495458984374967,0.174501123046875,0.03175795898437552,0.17843565457745642,-0.09609053966446915,0.36867224973884405,0.02523448358116361,0.3818237796446386
128,1791286464.7205465,-0.03386557617187497,0.155340966796875,0.08923842773437553,0.1823216668400776,-0.09658653042077123,0.3703144729522009,0.025128758406268246,0.3835273409232117
129,1791286464.7405465,-0.04344565429687497,0.18408120117187501,0.11797866210937553,0.22291787325219595,-0.09753281383927098,0.3735727806066001,0.025262593799825872,0.38692049678331575
130,1791286464.7650409,-0.05302573242187497,0.179291162109375,0.10360854492187553,0.213756355906052,-0.09869513328160197,0.3776322668950463,0.025808991822988354,0.3911687134634923
131,1791286464.7850409,-0.005125341796874967,0.179291162109375,0.09402846679687553,0.20251652403504292,-0.09958905048037389,0.38098756647006826,0.02648466654921911,0.3946782770087435
132,1791286464.8101163,0.009244775390625033,0.22240151367187502,0.10839858398437553,0.2475846363678127,-0.10053395707981466,0.38531877923103036,0.027585433841863016,0.39917238671338645
133,1791286464.8301163,-0.014705419921874968,0.19366127929687502,0.08923842773437553,0.21373918091562968,-0.10118275094208966,0.38887923444144323,0.02862815831002886,0.4028456025777072
134,1791286464.855537,-0.06260581054687497,0.20324135742187502,0.07486831054687552,0.2254590889830369,-0.10203109213772067,0.39348259133042485,0.030067573956875558,0.40760636948724727
135,1791286464.875537,-0.08655600585937497,0.22240151367187502,0.10360854492187553,0.26017130128954974,-0.1028221599392883,0.39719953429691046,0.031297893304780826,0.41148441616369946
136,1791286464.8850958,-0.06739584960937497,0.20803139648437502,0.07486831054687552,0.23113746211281314,-0.10325390561729533,0.39901814384457657,0.03192566925292977,0.4133958109362551
137,1791286464.9050958,-0.04823569335937497,0.164921044921875,-0.006562353515624478,0.17195551068705764,-0.10419518768149606,0.4028118647035299,0.0331445915933322,0.4173878285645209
138,1791286464.9306784,-0.07218588867187498,0.136180810546875,-0.03530258789062448,0.15812111938740964,-0.10544965739672073,0.4075143452685387,0.03438955057873759,0.4223389788235738
139,1791286464.9506783,-0.08176596679687498,0.117020654296875,-0.020932470703124477,0.1442833156953137,-0.10651419862174404,0.41101901492379295,0.03513249171284469,0.426047177095343
140,1791286464.9752526,-0.10571616210937497,0.078700341796875,-0.07362290039062448,0.1509635127837466,-0.10797155674486672,0.4150400472415368,0.03573415303197067,0.4303405948467787
141,1791286464.9952526,-0.11050620117187497,0.045170068359375,-0.13589340820312448,0.1808838687282272,-0.1093040605019488,0.41800752053752993,0.035836095855016535,0.43354571919726886
142,1791286465.004571,-0.12487631835937497,0.064330224609375,-0.13589340820312448,0.19544690091773168,-0.10999627568380635,0.4192592571253863,0.03568652291791778,0.43491497245738714
143,1791286465.024571,-0.06739584960937497,0.088280419921875,-0.09757309570312449,0.14783822946465222,-0.1115475300513963,0.42177178507061686,0.03506344932524263,0.43767994656004705
144,1791286465.0651329,-0.04823569335937497,0.078700341796875,-0.09757309570312449,0.1343165474463057,-0.11457347885307152,0.42661106875504967,0.03339568061217241,0.4429891167109765
145,1791286465.0851328,-0.04344565429687497,0.10265053710937501,-0.06404282226562448,0.12855403817023064,-0.11597921210067315,0.4289112965225673,0.03245427513894698,0.4454989987631365
146,1791286465.0955906,-0.05302573242187497,0.10265053710937501,-0.01614243164062448,0.1166595009718098,-0.1166796627887956,0.43009466830841225,0.03197297096795226,0.4467861214142039
147,1791286465.1155906,-0.03386557617187497,0.078700341796875,0.007807763671875523,0.08603244865720071,-0.11794864279954288,0.43229036754937483,0.031178067422286175,0.44917581869732964
148,1791286465.12544,-0.03386557617187497,0.078700341796875,0.022177880859375523,0.0885012963058207,-0.11852986572934597,0.43332575023301784,0.03086747426432249,0.45030360408538056
149,1791286465.1454399,-0.03386557617187497,0.112230615234375,0.022177880859375523,0.11930820024102302,-0.11963465755561793,0.4353992247772243,0.0303979216920222,0.45255825024879637
150,1791286465.1704016,-0.03386557617187497,0.09786049804687501,0.017387841796875525,0.10500424453225052,-0.12093350353589122,0.4379922368670483,0.029973857831054208,0.45536858036819167
151,1791286465.1904016,-0.014705419921874968,0.016429833984375,-0.0017723144531244773,0.022120802841523516,-0.12189092919191359,0.43992962347376724,0.029708475614522067,0.45746919650658163
152,1791286465.2150314,-0.00033530273437496735,0.078700341796875,-0.04488266601562448,0.0905997237056423,-0.1229209163094825,0.4421333473973232,0.029344498960034007,0.45983969833664895
153,1791286465.2350314,-0.06260581054687497,0.093070458984375,0.012597802734375524,0.11287294841337171,-0.12372624482894073,0.4439120560345784,0.029044848016483285,0.46174635932362074
154,1791286465.2453792,-0.05302573242187497,0.126600732421875,0.08444838867187553,0.16115521740827266,-0.12417015550895849,0.44486478742442187,0.028988382807266233,0.4627777360105773
155,1791286465.2653792,-0.009915380859374968,0.21282143554687502,0.07007827148437552,0.22428161391442006,-0.1249938470208357,0.44693911768318173,0.029127408545774187,0.4650015512200809
156,1791286465.2894142,0.009244775390625033,0.21761147460937502,0.03175795898437552,0.2201108532365977,-0.12583644644892547,0.4498339284837247,0.029452993958103805,0.4680308251847202
157,1791286465.3094141,-0.005125341796874967,0.18887124023437502,0.03654799804687552,0.1924431621997524,-0.12642623944291628,0.45249115702353704,0.029785739962031668,0.47076430568731803
158,1791286465.3347924,-0.019495458984374967,0.179291162109375,0.050918115234375526,0.18739810081898586,-0.12710923824680548,0.456057927301781,0.03031111182885733,0.4744094803044952
159,1791286465.3547924,-0.04823569335937497,0.18887124023437502,0.046128076171875525,0.20031681635062243,-0.12766835180764807,0.4589994246139773,0.030808609153059406,0.47741894625914205
160,1791286465.365359,-0.014705419921874968,0.18408120117187501,0.007807763671875523,0.1848326247541674,-0.12796932273586634,0.4606159749490089,0.031074772403311014,0.47907083549264395
161,1791286465.385359,-0.03386557617187497,0.160131005859375,0.017387841796875525,0.16459390428974408,-0.12852638855113568,0.46373303848452524,0.031540775722425855,0.4822470156146744
162,1791286465.4106421,-0.08176596679687498,0.140970849609375,-0.0017723144531244773,0.16297728327695685,-0.12934423825958813,0.467653384262704,0.03207112219509236,0.4862696542682526
163,1791286465.4306421,-0.06260581054687497,0.136180810546875,-0.006562353515624478,0.15002588163080094,-0.13011070584729512,0.4707050942604827,0.03241521738149837,0.4894311267755056
164,1791286465.4697442,-0.009915380859374968,0.140970849609375,0.022177880859375523,0.14304878054911246,-0.1315971319431077,0.47658933805743914,0.0330328434510828,0.4955263575554215
165,1791286465.4897442,0.009244775390625033,0.140970849609375,-0.0017723144531244773,0.14128477416244428,-0.13224437511333176,0.47957047870604247,0.03333197032205595,0.498585438055514
166,1791286465.4849284,-0.014705419921874968,0.10744057617187501,-0.03051254882812448,0.11265319533511614,-0.13224437511333176,0.47957047870604247,0.03333197032205595,0.498585438055514
167,1791286465.5049284,-0.03386557617187497,0.054750146484375,-0.04967270507812448,0.08131318109194793,-0.13279182704361545,0.48228436294244603,0.03338664855875329,0.5013447360553097
168,1791286465.530266,0.009244775390625033,-0.036260595703125,-0.0017723144531244773,0.03746248485204028,-0.13342813993496153,0.48524195381943763,0.03334776661778878,0.5043559217570498
169,1791286465.550266,0.004454736328125033,0.006849755859374999,0.11318862304687553,0.11348316270854387,-0.13383451619766948,0.48718219311731015,0.03348880360996237,0.5063394780023408
170,1791286465.5754344,0.04756508789062504,0.136180810546875,0.09881850585937553,0.17485064440123227,-0.13417100589793918,0.4895275761910479,0.03403985638997364,0.5087217495824187
171,1791286465.5954344,0.07630532226562503,0.251141748046875,-0.05446274414062448,0.2680687790799743,-0.13421248209708314,0.4916927461658342,0.03447859802751439,0.5108458874305462
172,1791286465.6201205,-0.00033530273437496735,0.088280419921875,-0.14068344726562448,0.16608846228454888,-0.13411534202161432,0.4945927819342803,0.034577603426585904,0.5136190763258228
173,1791286465.6401205,-0.02907553710937497,0.040380029296875,-0.04488266601562448,0.06701035243068952,-0.13409256311066117,0.4967828705822862,0.03436743419848375,0.5157084026065023
174,1791286465.6506119,-0.02428549804687497,0.073910302734375,0.07486831054687552,0.10797121000440406,-0.1341243936474563,0.49784932508242336,0.0342973174550342,0.5167394018660989
175,1791286465.6706119,0.023614892578125032,0.236771630859375,0.06528823242187552,0.24674079845874164,-0.13417697704647713,0.5000434066209344,0.03439393646200473,0.5188735997714206
176,1791286465.694923,0.17210610351562505,0.41400307617187504,-0.10715317382812448,0.46097815632472944,-0.1338744433839022,0.5034969553470001,0.03441743167522357,0.5221265270393446
177,1791286465.714923,0.037985009765625036,0.18887124023437502,-0.08799301757812449,0.21179701956606886,-0.13334775448827504,0.5068162268309304,0.03414114215042134,0.5251760933187474
178,1791286465.7401621,-0.13924643554687496,0.164921044921875,-0.011352392578124478,0.21614207755058007,-0.13297447404999446,0.5110464123547128,0.03365672002718574,0.5291345964237116
179,1791286465.760162,-0.13924643554687496,0.19845131835937502,0.041338037109375524,0.24592952015392566,-0.13314078842590105,0.5144407287603519,0.03337541399226652,0.5324374622519603
180,1791286465.770032,-0.07218588867187498,0.20803139648437502,0.10360854492187553,0.24335692927758576,-0.13336706172721752,0.5161654273054694,0.033364709939892205,0.5341598312944941
181,1791286465.790032,0.028404931640625034,0.299042138671875,0.09402846679687553,0.31476085114119357,-0.13382247119301874,0.5198966954530728,0.03364272828036344,0.5378967009616045
182,1791286465.8150518,0.07151528320312503,0.33257241210937505,-0.006562353515624478,0.34023801890960864,-0.13411922965258438,0.5250495440585465,0.034102487396636745,0.5429806360500603
183,1791286465.8350518,-0.009915380859374968,0.136180810546875,-0.011352392578124478,0.1370124255534445,-0.13422846507380018,0.5292538222428615,0.03438800274219435,0.5470917874793443
184,1791286465.8604214,-0.04823569335937497,0.160131005859375,0.046128076171875525,0.17348319965550899,-0.13445688930075334,0.534350720230814,0.034762017005275966,0.5521030203846922
185,1791286465.8804214,-0.014705419921874968,0.251141748046875,0.03654799804687552,0.254212869753585,-0.13470436602138663,0.5383830169671326,0.03513665478979746,0.5560900320035174
186,1791286465.890982,0.018824853515625035,0.241561669921875,-0.01614243164062448,0.24283120389398447,-0.13481217632057588,0.5405830413510201,0.035320962541604606,0.5582579313144366
187,1791286465.910982,0.018824853515625035,0.20324135742187502,-0.06404282226562448,0.21392266724290218,-0.13492925147172183,0.544791775906545,0.035497377647124066,0.5623735820768512
188,1791286465.9351964,-0.03386557617187497,0.169711083984375,-0.0017723144531244773,0.1730660867273696,-0.13507705083308064,0.5498003726990733,0.035559403440746706,0.5672660140135881
189,1791286465.9551964,-0.08176596679687498,0.20324135742187502,0.003017724609375523,0.2190931978741742,-0.13535426168192263,0.5538761254533439,0.03560481724864783,0.5712856041543287
190,1791286465.9806294,-0.12008627929687497,0.174501123046875,-0.05446274414062448,0.21871796204087768,-0.13603892968997341,0.5590021681340307,0.03555577498286629,0.5764149785565715
191,1791286466.0006294,-0.04823569335937497,0.09786049804687501,-0.05446274414062448,0.1219407630416064,-0.13674905861479,0.5628370627443028,0.03535960604512358,0.5802897258872777
192,1791286466.009926,0.023614892578125032,0.112230615234375,-0.04009262695312448,0.12149400348727141,-0.13704680323897658,0.5644987470677774,0.03521616942656641,0.5819629200457653
193,1791286466.029926,-0.02907553710937497,0.155340966796875,-0.03051254882812448,0.16095719449460824,-0.13759945383720074,0.5679386813279581,0.03484797172320558,0.5854078378174119
194,1791286466.0555089,-0.08655600585937497,0.22240151367187502,-0.08320297851562448,0.25273921553201995,-0.1384221973617869,0.572403595372789,0.03422945450592598,0.5898968013762528
195,1791286466.0755088,-0.12487631835937497,0.179291162109375,-0.01614243164062448,0.21908900884525082,-0.13928606567956034,0.5759731075181029,0.033669426533035535,0.5935311777485782
196,1791286466.1004355,0.009244775390625033,0.126600732421875,0.046128076171875525,0.13505928599358374,-0.14041740722835222,0.5803264569588245,0.03313219991999068,0.597991293892021
197,1791286466.1204355,0.04756508789062504,0.155340966796875,0.08444838867187553,0.18309774411692478,-0.14110376745097356,0.5837183534229038,0.032961675880368586,0.6014348355295417
198,1791286466.130072,-0.04344565429687497,0.231981591796875,0.06528823242187552,0.24487861707929573,-0.14138189419346883,0.5853874670658615,0.03300005831117196,0.6031221521815121
199,1791286466.150072,-0.07218588867187498,0.260721826171875,0.05570815429687553,0.2762065741811918,-0.14204598433053056,0.5890710024745421,0.03324926310936098,0.6068667243457223
200,1791286466.1749492,-0.005125341796874967,0.18887124023437502,0.012597802734375524,0.18936028926345683,-0.14289235702911907,0.5938043599640608,0.033640185409292575,0.6116808854983428
201,1791286466.1949492,0.05235512695312503,0.150550927734375,-0.020932470703124477,0.160763209378564,-0.14339988926781677,0.5975480776762305,0.03389482389811311,0.6154478795671203
202,1791286466.220383,-0.005125341796874967,0.136180810546875,-0.006562353515624478,0.13643513760539358,-0.14385840706165776,0.6021417496469392,0.03411762467192674,0.6200273705760492
203,1791286466.240383,-0.06739584960937497,0.126600732421875,0.022177880859375523,0.14512685621116905,-0.14427366286883794,0.6056063402501844,0.03428996838133002,0.6234979800130919
204,1791286466.265221,-0.04823569335937497,0.136180810546875,0.022177880859375523,0.1461634484899565,-0.14492742327064184,0.60975317506377,0.03455452751809272,0.6276917299823338
205,1791286466.285221,-0.019495458984374967,0.155340966796875,-0.04009262695312448,0.1616115949503676,-0.14547647229963973,0.6130286701713651,0.03470872729688092,0.631008914513408
206,1791286466.295957,-0.005125341796874967,0.121810693359375,-0.05446274414062448,0.13353016380036986,-0.1457468170116561,0.6147463751998922,0.03470294966036651,0.6327397057286398
207,1791286466.315957,-0.019495458984374967,0.069120263671875,-0.011352392578124478,0.07270873804659812,-0.1462118275921174,0.6177526846072484,0.03459507840644079,0.6357618243628956
208,1791286466.3400328,-0.06260581054687497,0.155340966796875,0.03175795898437552,0.17046662851852354,-0.1468358845146031,0.6212341065080557,0.034521548303389715,0.6392842320652931
209,1791286466.3600328,-0.02907553710937497,0.19845131835937502,0.003017724609375523,0.20059267005200038,-0.1474140555681421,0.6242230407724184,0.03452179187042813,0.6423216192252577
210,1791286466.3857815,-0.009915380859374968,0.155340966796875,-0.006562353515624478,0.15579536330275787,-0.14812205839982406,0.6281771251064014,0.03451521318433933,0.64632650002356
211,1791286466.4057815,-0.009915380859374968,0.093070458984375,0.022177880859375523,0.09618879099230504,-0.14861924647321573,0.6311603316291059,0.03453429303265659,0.649340944373366
212,1791286466.4155903,-0.03386557617187497,0.131390771484375,0.03654799804687552,0.1405210597808981,-0.14885871883214932,0.632569078149764,0.03458544910224658,0.6507677850763629
213,1791286466.4355903,-0.07218588867187498,0.145760888671875,0.026967919921875524,0.16487664447906428,-0.14943283492771264,0.6354263597521012,0.03476938350294731,0.6536862709675909
214,1791286466.4607081,-0.07697592773437498,0.117020654296875,0.012597802734375524,0.1406336788126183,-0.15032670706499537,0.6389715768769276,0.03504027095129758,0.6573512116836271
215,1791286466.4807081,-0.05302573242187497,0.140970849609375,0.007807763671875523,0.15081601344691872,-0.15112668938285231,0.6417579958691757,0.03525421812450022,0.6602540885154835
216,1791286466.5052845,-0.06260581054687497,0.117020654296875,0.022177880859375523,0.13455548835225037,-0.15217540593008597,0.6451439461230575,0.03553295624756027,0.6638001629774641
217,1791286466.5252845,-0.08655600585937497,0.117020654296875,0.050918115234375526,0.15420256204557053,-0.15312456574265404,0.6478371343268282,0.0358354086300919,0.6666515294802517
218,1791286466.535617,-0.05781577148437497,0.140970849609375,0.046128076171875525,0.15919561326632353,-0.15365325529684543,0.6492197371392031,0.03604343148133467,0.6681277713935885
219,1791286466.555617,-0.02428549804687497,0.145760888671875,0.03175795898437552,0.1511442689639696,-0.15464624888884254,0.6519246016674559,0.03650251604507242,0.6710093756664519
220,1791286466.5803792,-0.08655600585937497,0.09786049804687501,0.06049819335937553,0.1439744790859094,-0.1558971185061876,0.6552236251643453,0.03715698778813084,0.6745387700299562
221,1791286466.6003792,-0.03865561523437497,0.088280419921875,0.07007827148437552,0.11915810196947779,-0.15694369641163392,0.6577677178685231,0.037802167377966676,0.6772877515294248
222,1791286466.6249835,-0.005125341796874967,0.09786049804687501,0.026967919921875524,0.10163766482672607,-0.15811887688305554,0.6607715267907802,0.038655903421879564,0.6805254357579438
223,1791286466.6449835,-0.014705419921874968,0.112230615234375,-0.0017723144531244773,0.11320380501328459,-0.15896059620093056,0.6631620995830078,0.039283572823737616,0.6830780633000127
224,1791286466.6552403,-0.009915380859374968,0.040380029296875,0.03654799804687552,0.05535898937695088,-0.1593464523516109,0.6643215782897435,0.03958393354829155,0.684310849726625
225,1791286466.6752403,0.009244775390625033,0.035589990234375,0.07965834960937553,0.0877357734302007,-0.15998699195707822,0.6663573004389615,0.040256073000680924,0.6864753752737317
226,1791286466.701108,0.033194970703125035,0.073910302734375,0.06049819335937553,0.10111711195448908,-0.16060885091598961,0.6688077683007545,0.04126692310619987,0.6890587731642659
227,1791286466.721108,0.037985009765625036,0.064330224609375,0.026967919921875524,0.07942611327579839,-0.16091076028739484,0.6706255508872154,0.04206244232721574,0.6909414963175818
228,1791286466.7452538,0.033194970703125035,0.049960107421875004,0.041338037109375524,0.07284745517616059,-0.16109167691686757,0.6726979307269281,0.04300250141387866,0.6930528475549538
229,1791286466.7652538,0.004454736328125033,0.140970849609375,0.06049819335937553,0.1534687476820298,-0.16116257754247187,0.6744433948424343,0.04381710826324711,0.694814513538163
230,1791286466.775593,-0.03386557617187497,0.160131005859375,0.041338037109375524,0.16881246873096895,-0.1612165390968068,0.6754438726721729,0.04425403031428721,0.6958258523566027
231,1791286466.795593,-0.019495458984374967,0.09786049804687501,0.046128076171875525,0.10992974761324718,-0.16138530506024582,0.6774758618820281,0.04510362387777796,0.6978918949300769
232,1791286466.8201373,-0.014705419921874968,0.073910302734375,0.05570815429687553,0.09371435685384673,-0.1616243076855299,0.6799116919014359,0.046177323351049404,0.7003818035978429
233,1791286466.8401372,-0.03865561523437497,0.078700341796875,0.050918115234375526,0.10139356413063966,-0.16186988864953483,0.6818277274161759,0.04708093502245969,0.7023585445963543
234,1791286466.8657188,-0.07218588867187498,0.117020654296875,0.012597802734375524,0.1380700571780547,-0.16234955164269863,0.6842863917554813,0.04818522166990528,0.7049305344838591
235,1791286466.8857188,-0.07218588867187498,0.126600732421875,-0.04009262695312448,0.1511488230490265,-0.16288486413138675,0.6862857031784915,0.04887782162368169,0.7070421393361029
236,1791286466.9104297,-0.05302573242187497,0.073910302734375,-0.05446274414062448,0.10602193946768929,-0.16367911361991183,0.6887570185016862,0.04942995869949353,0.7096621756778121
237,1791286466.9304297,-0.07697592773437498,0.035589990234375,-0.06883286132812448,0.10922409832114634,-0.1644205238618999,0.6906214226136387,0.049624860951098276,0.7116562968626945
238,1791286466.940195,-0.08176596679687498,0.011639794921874998,-0.07841293945312448,0.11388479804491175,-0.16484449405206814,0.691429796277972,0.049597907688588815,0.7125368922711061
239,1791286466.960195,-0.00033530273437496735,-0.007520361328125002,-0.04967270507812448,0.050239883481230034,-0.16570571046126212,0.6928432253120012,0.04935885806484955,0.7140913206374055
240,1791286466.9853995,0.014034814453125034,0.049960107421875004,-0.03051254882812448,0.06019970088237663,-0.16660233927945536,0.6944374999585688,0.04895121405540258,0.7158184142361748
241,1791286467.0053995,-0.02907553710937497,0.093070458984375,-0.025722509765624478,0.10084217719983796,-0.16722966233678277,0.6957273587053231,0.0485919120935748,0.7171913911483249
242,1791286467.0305152,-0.00033530273437496735,0.117020654296875,-0.011352392578124478,0.11757050130555821,-0.16795467978456044,0.6974999234005698,0.048138548944187336,0.7190495375840158
243,1791286467.0505152,-0.00033530273437496735,0.150550927734375,0.06528823242187552,0.16409828628714415,-0.16844642538576243,0.6991010692493589,0.047912586503968936,0.7207025178229493
244,1791286467.0603395,-0.02428549804687497,0.19366127929687502,0.11318862304687553,0.2256238925768605,-0.16866988608815447,0.7000232217597063,0.047949745366882165,0.7216517301001771
245,1791286467.0803394,-0.03865561523437497,0.169711083984375,0.12755874023437552,0.21579467284082923,-0.1691509753559656,0.7021639778059953,0.04837516597806083,0.7238690909795897
246,1791286467.105584,-0.014705419921874968,0.164921044921875,0.14671889648437553,0.22122756387664422,-0.16976816213740523,0.7050943470148456,0.04935089561061554,0.7269214386475156
247,1791286467.125584,-0.014705419921874968,0.19366127929687502,0.16587905273437553,0.2554149576865745,-0.17022790060603255,0.707605571789126,0.050476862132158,0.7295417033881354
248,1791286467.1655335,-0.04823569335937497,0.155340966796875,0.17545913085937553,0.23925593969883996,-0.17119705875694374,0.7129149738183581,0.0534113235932173,0.7351251337761743
249,1791286467.1855335,-0.02907553710937497,0.18408120117187501,0.16587905273437553,0.24949375867771262,-0.1717254363785368,0.7156834439235871,0.055172046961171235,0.7380625801187938
250,1791286467.1794837,-0.005125341796874967,0.27509194335937504,0.18503920898437554,0.33157405702397136,-0.1717254363785368,0.7156834439235871,0.055172046961171235,0.7380625801187938
251,1791286467.1994836,-0.05781577148437497,0.303832177734375,0.25209975585937555,0.39901245915823613,-0.1722452068690411,0.7191374941290508,0.05754729777344897,0.7417134475203988
252,1791286467.224577,-0.05302573242187497,0.289462060546875,0.28563002929687553,0.4101030680585711,-0.17300812851485187,0.7239377036892228,0.061092431158120165,0.7468265504786544
253,1791286467.244577,-0.02907553710937497,0.3373624511718751,0.28563002929687553,0.4429935935823772,-0.17364813726379572,0.7281299402659703,0.06435104396291727,0.7513108160715037
254,1791286467.269961,-0.05781577148437497,0.500223779296875,0.30479018554687554,0.5886115442395612,-0.1745040221627731,0.7342472551416976,0.06899058029274735,0.7578458851265426
255,1791286467.289961,-0.09134604492187497,0.691825341796875,0.29521010742187553,0.757704039186322,-0.1753009573079196,0.7401321394701958,0.07299771268137241,0.7641038382095163
256,1791286467.2997465,-0.07697592773437498,0.6822452636718751,0.3479005371093755,0.769687389122536,-0.175755919589956,0.7435879866972142,0.0751361836055911,0.767762126780255
257,1791286467.3197465,-0.00033530273437496735,0.677455224609375,0.40059096679687556,0.7870316489555664,-0.17666228227790107,0.7516313027631013,0.07997403823130315,0.7762441781192407
258,1791286467.344778,0.014034814453125034,0.7061954589843751,0.38143081054687555,0.8027443338581296,-0.17760079049465644,0.7627857458261865,0.08658889632125955,0.787960514103386
259,1791286467.364778,-0.11050620117187497,0.7828360839843751,0.3383204589843755,0.8599445841755322,-0.17838287761798774,0.7725947398073195,0.09216094897824675,0.7982585568108773
260,1791286467.3901236,-0.12966635742187496,0.658295068359375,0.26167983398437555,0.7201681031449685,-0.17968188025493276,0.7859003365653014,0.09930364534007421,0.8122722025794243
261,1791286467.4101236,-0.14882651367187497,0.773256005859375,0.34311049804687554,0.8589522662169846,-0.18097089682996587,0.7969720997470647,0.10500163766160879,0.8239783596589824
262,1791286467.4201784,-0.07697592773437498,0.9169571777343751,0.3287403808593755,0.9771417488045044,-0.18169201331586043,0.8029780123818735,0.10794321463263817,0.8303236800529916
263,1791286467.4401784,-0.06260581054687497,0.8642667480468751,0.19940932617187554,0.8891797223610497,-0.18312059803730238,0.8158042143752011,0.1137088469436482,0.8438005519618558
264,1791286467.4649005,-0.15361655273437497,0.696615380859375,0.14192885742187553,0.7273340599015862,-0.18502250834131748,0.8321747006251645,0.12039963517437192,0.860955360691608
265,1791286467.4849005,-0.08655600585937497,0.653505029296875,0.12276870117187554,0.6705467317451238,-0.1866906025471516,0.8454569330656401,0.12539755624735147,0.8748573334327057
266,1791286467.5104315,0.018824853515625035,0.8211563964843751,0.05570815429687553,0.8232591335978323,-0.18863029645465224,0.8626928202700221,0.13116240717774041,0.8927619324000515
267,1791286467.5304315,0.009244775390625033,0.811576318359375,0.012597802734375524,0.8117267342077105,-0.18987974725204357,0.8766185214696675,0.135103421764509,0.9070652044768582
268,1791286467.539981,0.04277504882812504,0.691825341796875,0.007807763671875523,0.6931904280413624,-0.1903495788427872,0.8833469949638026,0.13671749316754417,0.913907297604754
269,1791286467.5599809,0.22958657226562504,0.734935693359375,-0.03530258789062448,0.7707702253266401,-0.19077743978925205,0.8974652888809436,0.13954965108184414,0.9280700843124735
270,1791286467.5852637,0.29185708007812505,0.8451065917968751,-0.08799301757812449,0.8984032935340137,-0.19024841702471076,0.9156318133614247,0.14235907375915052,0.9459609842385163
271,1791286467.6052637,0.36849770507812507,0.8019962402343751,-0.11673325195312448,0.8902893799824133,-0.18890217530274553,0.9303174846007524,0.14394101699374542,0.9601529411303045
272,1791286467.629852,0.39244790039062505,0.7397257324218751,-0.10715317382812448,0.8442104692489485,-0.18609206543497464,0.9485072246311304,0.14518128195013943,0.977432256795319
273,1791286467.649852,0.512198876953125,0.6103946777343751,-0.13589340820312448,0.8083293700909024,-0.18279223219723428,0.9631084944259196,0.1456742114911285,0.9910660664560014
274,1791286467.6754227,0.579259423828125,0.6247647949218751,-0.1837937988281245,0.8715805697439205,-0.1771129331930652,0.9813452515981145,0.1455968088060104,1.0077727544803499
275,1791286467.6954226,0.296647119140625,0.6678751464843751,-0.09278305664062449,0.73665827911287,-0.172023337110985,0.9954084539135862,0.14513048471157217,1.0205355830278784
276,1791286467.7051282,0.516988916015625,0.5624942871093751,-0.1933738769531245,0.7880804645476103,-0.16933169152160235,1.0021049331900467,0.14472983441156761,1.0265642911411808
277,1791286467.7251282,0.6463199707031251,0.136180810546875,-0.4280857910156245,0.7871036540128404,-0.16287211173085211,1.0148823280417798,0.14309587689800418,1.0377812363578263
278,1791286467.7497044,0.5888395019531251,0.054750146484375,-0.5095164550781245,0.7806001252855673,-0.1538484887468619,1.0285801023848309,0.139661024712201,1.0493577018039868
279,1791286467.7697043,0.5648893066406251,0.073910302734375,-0.4759861816406245,0.7423782773761869,-0.14587602395981314,1.038248197393041,0.13580679613963975,1.0572050981876397
280,1791286467.795662,0.833131494140625,-0.26139243164062503,-0.5286766113281245,1.0207512180807712,-0.1343591204383399,1.0485490304853449,0.12959892094856518,1.0650367706740238
281,1791286467.815662,0.895402001953125,-0.582325048828125,-0.6244773925781245,1.237262794007609,-0.12422374203714952,1.0540296146286317,0.1238035676091996,1.068521076045138
282,1791286467.8248622,0.8618717285156251,-0.668545751953125,-0.6388475097656245,1.2640816585975847,-0.11904809822855743,1.0553094707587733,0.12066577401124993,1.0688361697578974
283,1791286467.8448622,1.005572900390625,-0.9655281738281251,-0.6580076660156245,1.5415562269963488,-0.10668360119212153,1.0552232255011689,0.11292261260068501,1.06659690738206
284,1791286467.8705916,1.096583642578125,-1.358311376953125,-0.6867479003906245,1.8759339435654803,-0.08910646281829694,1.0506445882970894,0.1018604722012921,1.0593250532442906
285,1791286467.8905916,1.0678434082031252,-1.516382666015625,-0.7346482910156246,1.9948468727518156,-0.0742462291933379,1.0433073465446911,0.0924193841163402,1.0500209828684366
286,1791286467.914577,1.0774234863281251,-1.4493221191406251,-0.7394383300781245,1.9514469036872228,-0.05523887705922096,1.0304928919521303,0.08014358871260568,1.0350796726408862
287,1791286467.934577,1.139693994140625,-1.755884619140625,-0.8352391113281246,2.2538095680662606,-0.03844147253407415,1.016602659268715,0.06908093001221133,1.0196719514305388
288,1791286467.94562,1.2690250488281252,-1.8900057128906251,-0.7921287597656245,2.41039709204941,-0.02856295563343776,1.0070639053783943,0.0625410458648533,1.0094082099767026
289,1791286467.96562,1.297765283203125,-1.8516854003906251,-0.7681785644531245,2.38810214588747,-0.00950553518685538,0.9867671752070618,0.05013292414265641,0.9880855850321905
290,1791286467.9903464,1.2690250488281252,-1.7654646972656252,-0.8496092285156245,2.334336311036468,0.01528144560297219,0.9587299673122277,0.034093414853400186,0.9594576768876196
291,1791286468.0103464,1.331295556640625,-2.1103475097656252,-0.9645701660156245,2.675128048574957,0.0362235636163329,0.9336400050209938,0.020344602943609742,0.9345639134942034
292,1791286468.0347588,1.211544580078125,-2.316319189453125,-0.8927195800781246,2.7622677469065753,0.06260735255606559,0.8995035590209478,0.0026792629034405463,0.9016837093655053
293,1791286468.0547588,1.1109537597656252,-2.210938330078125,-0.7250682128906245,2.578408514780082,0.08446389509051251,0.8689411868035622,-0.01204897524449855,0.8731197589688868
294,1791286468.0654423,1.211544580078125,-2.158247900390625,-0.4232957519531245,2.510986571584719,0.09624881149326034,0.851563442166642,-0.019656486736084996,0.8572108884162467
295,1791286468.0854423,1.240284814453125,-2.330689306640625,-0.3179148925781245,2.659227132829187,0.11867908661811936,0.817178021719308,-0.03287361636329766,0.8264050577255648
296,1791286468.140334,1.168434228515625,-2.6037215332031254,-0.4951463378906245,2.8965107051000234,0.18092293598398826,0.71664613568423,-0.06705505381556812,0.7421665397998045
297,1791286468.1603339,1.1540641113281251,-2.7665828613281254,-0.7585984863281245,3.092137830871938,0.20368366780004396,0.6774558526806371,-0.07952169749427929,0.7118687865274747
298,1791286468.1553264,1.058263330078125,-2.7426326660156253,-0.7298582519531245,3.0289681880845314,0.20368366780004396,0.6774558526806371,-0.07952169749427929,0.7118687865274747
299,1791286468.1753263,1.2259146972656252,-2.642041845703125,-0.7202781738281245,3.000342081681924,0.2263752751083641,0.6340396260472851,-0.0926018306478255,0.6795786279878858
300,1791286468.1848416,1.3169254394531251,-2.7474227050781255,-0.8256590332031245,3.156633804001904,0.23736645027625108,0.6126359311299536,-0.09899468928541755,0.6644287503825596
301,1791286468.2048416,1.1923844238281252,-2.8049031738281256,-0.8256590332031245,3.157685112206241,0.2607672158442264,0.5660676657626545,-0.11289312828544068,0.6333853499215171
302,1791286468.2304103,1.3121354003906252,-2.7857430175781253,-0.8208689941406245,3.186830615907439,0.2909989708638269,0.5047423187804309,-0.13115364142093977,0.5971988672708823
303,1791286468.2504103,1.2690250488281252,-2.8432234863281254,-0.8400291503906245,3.224902066926542,0.3149710206986838,0.4555252382528171,-0.14578592967211212,0.5726809965902645
304,1791286468.2755864,1.139693994140625,-2.8959139160156253,-0.7490184082031245,3.2009761612796037,0.34516886024815746,0.3920271351979706,-0.16444267576330074,0.5476022374212272
305,1791286468.2955863,1.0726334472656252,-2.7570027832031254,-0.6675877441406245,3.0327018077795724,0.3688782681021311,0.34067103434493207,-0.1791654449318459,0.5331305534081684
306,1791286468.3049467,1.2259146972656252,-2.7330525878906253,-0.6723777832031245,3.06994058191566,0.37992383018204445,0.31638672594974543,-0.18596305149997183,0.5282281075639345
307,1791286468.3249466,1.206754541015625,-2.8336434082031254,-0.6627977050781245,3.1504114469338265,0.4036335238233938,0.26393209312991156,-0.20031146796473637,0.5222115045996346
308,1791286468.350534,1.173224267578125,-2.8192732910156253,-0.6580076660156245,3.1237367302645134,0.43398421428166717,0.1960414410153022,-0.21844951805622068,0.5239224530214631
309,1791286468.370534,1.360035791015625,-2.5845613769531255,-0.6819578613281245,2.9991201024148,0.45794882448863317,0.14282976261334057,-0.232510220568324,0.5330839236062506
310,1791286468.39538,1.326505517578125,-2.5510311035156255,-0.7106980957031245,2.961835303068928,0.48826072789124836,0.07707044765080333,-0.24995290262422845,0.5539086981012881
311,1791286468.41538,1.1109537597656252,-2.6564119628906253,-0.7250682128906245,2.9692535570863945,0.5126566810967815,0.02426597868703146,-0.2640410422500696,0.5771684176973907
312,1791286468.440317,1.0247330566406252,-2.5318709472656256,-0.5334666503906245,2.7829902978736323,0.5425063051201027,-0.041400729516160716,-0.28132573083733886,0.6125122679022021
313,1791286468.460317,1.1492740722656252,-2.440860205078125,-0.5813670410156245,2.7598219272799653,0.5661163869885798,-0.09362610235928825,-0.2947812910797234,0.6450965975965336
314,1791286468.4703732,1.134903955078125,-2.479180517578125,-0.6580076660156245,2.8048738143678125,0.5779299026689344,-0.11965756411185652,-0.3014668413266655,0.6627240462421625
315,1791286468.4903731,1.0678434082031252,-2.598931494140625,-0.5717869628906245,2.8673462969461103,0.6012046289202274,-0.17128060268323503,-0.31461337503037845,0.6998325702899559
316,1791286468.5154006,1.0726334472656252,-2.6324617675781252,-0.5861570800781245,2.9024089292308894,0.6299790758715571,-0.23601015499805905,-0.33077048749561644,0.7496556173979334
317,1791286468.5354006,1.015152978515625,-2.7091023925781252,-0.6340574707031245,2.9617225088478683,0.6526558476282283,-0.2879901590126041,-0.34357555542399076,0.7917967854293991
318,1791286468.5756283,1.005572900390625,-2.5270809082031254,-0.6484275878906245,2.7960280955924603,0.6975224779751354,-0.39265711896549316,-0.36933743544058517,0.8815482752366335
319,1791286468.5956283,1.082213525390625,-2.287578955078125,-0.5143064941406245,2.5823854786166125,0.7196145452599344,-0.4441107821151365,-0.3819683633688669,0.927889708508113
320,1791286468.5897958,1.0343131347656251,-2.4552303222656255,-0.5238865722656245,2.715219463822674,0.7196145452599344,-0.4441107821151365,-0.3819683633688669,0.927889708508113
321,1791286468.6097958,0.9193521972656251,-2.5797713378906253,-0.5334666503906245,2.790164024837628,0.7412051279946488,-0.49488562509002715,-0.3940039320157719,0.9744413384756414
322,1791286468.6353796,0.991202783203125,-2.4696004394531252,-0.4999363769531245,2.7076457798201203,0.7683467241622803,-0.5597822653165553,-0.40907320196653096,1.0349172709260348
323,1791286468.6553795,0.9433023925781251,-2.4887605957031256,-0.5526268066406245,2.7182981981353715,0.7892836304614389,-0.6103425667020624,-0.42066533118691934,1.0827954649449967
324,1791286468.6802197,0.9480924316406251,-2.5079207519531255,-0.6196873535156245,2.751828151087666,0.8149105322690514,-0.673028239126872,-0.43508724259532705,1.1429554212367392
325,1791286468.7002196,1.000782861328125,-2.4839705566406254,-0.5382566894531245,2.7315556603383877,0.8353722833228243,-0.7234166493424571,-0.4466941694938002,1.1919371549497115
326,1791286468.7096906,1.053473291015625,-2.335479345703125,-0.4137156738281245,2.5952707773679897,0.8450676317646406,-0.7471221102573422,-0.4520423408291809,1.215184359590761
327,1791286468.7296906,1.091793603515625,-2.268418798828125,-0.3610252441406245,2.5432413071632163,0.8656883182703564,-0.7965783700343217,-0.46280421938765237,1.264176059526247
328,1791286468.7549763,0.8858219238281251,-2.163037939453125,-0.3993455566406245,2.3712634779494226,0.8915986261567976,-0.8581301941206831,-0.4758113986148179,1.3257948662135026
329,1791286468.7749763,0.751700830078125,-2.167827978515625,-0.3897654785156245,2.3273266660737155,0.9114748113382534,-0.906008736444097,-0.4857399931436504,1.3738928281188192
330,1791286468.7999501,0.890611962890625,-2.311529150390625,-0.3849754394531245,2.5069030237589214,0.9356473225218414,-0.9652165804014406,-0.497729229526046,1.4334620138492449
331,1791286468.81995,0.876241845703125,-2.364219580078125,-0.4951463378906245,2.5695337886302454,0.9547520913149191,-1.0125336185298475,-0.5072106142084946,1.4812287101218085
332,1791286468.8300848,0.813971337890625,-2.321109228515625,-0.5861570800781245,2.528572227984316,0.9642657283379175,-1.0364755803451111,-0.5121163851101197,1.5054412029026725
333,1791286468.8500848,0.8475016113281251,-2.364219580078125,-0.5143064941406245,2.5636505951365085,0.9827161505918812,-1.083663915437262,-0.5219960398734068,1.5532348115782306
334,1791286468.875154,0.9241422363281251,-2.5031307128906253,-0.4232957519531245,2.7016442275776136,1.0057050664269824,-1.1430919807915778,-0.5342851275474068,1.6135558728179396
335,1791286468.895154,0.871451806640625,-2.4935506347656253,-0.3274949707031245,2.6616678934970652,1.023987728752865,-1.190886433474486,-0.5437448048475577,1.6620528808881927
336,1791286468.9205537,0.852291650390625,-2.378589697265625,-0.4232957519531245,2.5618878388573756,1.0470073272731608,-1.2517612665037965,-0.5553866481363335,1.7238285705402925
337,1791286468.9405537,0.9624625488281251,-2.3402693847656253,-0.4999363769531245,2.579366459456474,1.0651364503181675,-1.2995830134389974,-0.564563369116832,1.7726148663384609
338,1791286468.9499428,0.9816227050781251,-2.373799658203125,-0.5286766113281245,2.6225954533201565,1.0737396912403265,-1.3219853791204181,-0.5689495817838257,1.795624095896749
339,1791286468.9699428,0.8666617675781251,-2.388169775390625,-0.5861570800781245,2.6073046653578213,1.0920891130401857,-1.3696899709172243,-0.5785634919438951,1.844842801287535
340,1791286468.9951348,0.8810318847656251,-2.4264900878906253,-0.6101072753906245,2.6526029133833235,1.1150372364422614,-1.4298622895463968,-0.5911169638096038,1.9071532373207833
341,1791286469.0151348,0.914562158203125,-2.3833797363281253,-0.5430467285156245,2.6099468688285983,1.1332163894701517,-1.4776823404467148,-0.6013179788551566,1.9568617213094792
342,1791286469.0400229,0.871451806640625,-2.325899267578125,-0.4807762207031245,2.529897513460031,1.1557790338240959,-1.5370540016790584,-0.6140190984333673,2.018756952271841
343,1791286469.0600228,0.8618717285156251,-2.321109228515625,-0.5047264160156245,2.526879435615971,1.1737906203434412,-1.5845788195548842,-0.6241729573644365,2.0683970451761087
344,1791286469.0852299,0.8475016113281251,-2.364219580078125,-0.5478367675781245,2.57058715626197,1.196318057543399,-1.644349919170255,-0.6370406902337497,2.130935098141923
345,1791286469.1052299,0.8187613769531251,-2.311529150390625,-0.5813670410156245,2.5202231730295326,1.2140102698322537,-1.6916740050264332,-0.6474126741882327,2.1805332020494235
346,1791286469.115564,0.7900211425781251,-2.325899267578125,-0.5717869628906245,2.5220787338171244,1.2230277163444438,-1.7160533632130168,-0.6528618876061816,2.206097138529969
347,1791286469.135564,0.7181705566406251,-2.359429541015625,-0.4520359863281245,2.5073917205690757,1.240123820870712,-1.7631857173486791,-0.6633616489253537,2.255389022368051
348,1791286469.1596458,0.7181705566406251,-2.2732088378906252,-0.2939646972656245,2.4020122007034064,1.2602154471481366,-1.8197915719171576,-0.6754552493809056,2.314308564640359
349,1791286469.1796458,0.852291650390625,-2.254048681640625,-0.2604344238281245,2.4238322148296696,1.2767544069052845,-1.8665421858832962,-0.6848240747870676,2.362851150758765
350,1791286469.204996,0.895402001953125,-2.244468603515625,-0.3514451660156245,2.441904535804951,1.297896165322839,-1.9254637548976221,-0.6960813063009401,2.424144037050151
351,1791286469.224996,0.7900211425781251,-2.3067391113281253,-0.3466551269531245,2.462792827359663,1.3146020033348147,-1.9718034826185387,-0.7046775778307499,2.472399217346567
352,1791286469.2356775,0.737330712890625,-2.345059423828125,-0.3514451660156245,2.483238608384753,1.3234093460295215,-1.9965664199562982,-0.7091391884544989,2.4981129187963664
353,1791286469.2556775,0.7038004394531251,-2.301949072265625,-0.4520359863281245,2.4492123474322565,1.3395883804186974,-2.042948416807243,-0.7174452922386038,2.5461466984530454
354,1791286469.2803297,0.6990104003906251,-2.3833797363281253,-0.5861570800781245,2.5519981641685203,1.3591331820522758,-2.100206613118054,-0.7280673082501439,2.605416056925067
355,1791286469.3003297,0.751700830078125,-2.436070166015625,-0.5382566894531245,2.6056116854651568,1.3747871812839738,-2.146920562336002,-0.7370787821772627,2.653788391326593
356,1791286469.325228,0.8187613769531251,-2.436070166015625,-0.4280857910156245,2.6053916194328726,1.3942845413703222,-2.2054503500101825,-0.7484190495834521,2.7144376401832635
357,1791286469.345228,0.713380517578125,-2.2732088378906252,-0.4472459472656245,2.424132653315327,1.4098951038696597,-2.2524770630884663,-0.7574749213386335,2.7631911588075573
358,1791286469.370037,0.6798502441406251,-2.301949072265625,-0.5047264160156245,2.4527361539282238,1.4289470668833184,-2.3105744215192026,-0.7687946500269476,2.8234179802578456
359,1791286469.390037,0.6990104003906251,-2.3402693847656253,-0.4664061035156245,2.4865661033888014,1.4440703548105243,-2.3573478635354186,-0.778007978365794,2.8718851916047106
360,1791286469.4004195,0.737330712890625,-2.364219580078125,-0.3849754394531245,2.5062715120231305,1.4518620027216786,-2.381650081973805,-0.7827363418929274,2.8970392763704047
361,1791286469.4204195,0.751700830078125,-2.330689306640625,-0.3514451660156245,2.47400090677931,1.4668534566063978,-2.4284844681543025,-0.7915831119045498,2.9454710486231765
362,1791286469.4456434,0.737330712890625,-2.254048681640625,-0.3179148925781245,2.3927937475471213,1.4857415380445027,-2.487365252970301,-0.8023333180862335,3.006352037414467
363,1791286469.4656434,0.8043912597656251,-2.225308447265625,-0.2891746582031245,2.3838340896979324,1.5007839576364657,-2.5337676616316145,-0.8104891761381628,3.05437780165883
364,1791286469.4755735,0.7996012207031251,-2.373799658203125,-0.3945555175781245,2.535736773777306,1.5083269158685257,-2.5567761526492188,-0.814440416710823,3.078224743624367
365,1791286469.4955735,0.8043912597656251,-2.378589697265625,-0.5047264160156245,2.561148766032439,1.5236461389121398,-2.6032943273841305,-0.8225537009100493,3.1265369824284956
366,1791286469.5202117,0.770860986328125,-2.3833797363281253,-0.4664061035156245,2.547991420939035,1.5425981076641004,-2.660804068324023,-0.8328438313140115,3.186395464962932
367,1791286469.5402117,0.8187613769531251,-2.388169775390625,-0.3945555175781245,2.5552688948388247,1.558059122282426,-2.7076422722494065,-0.8412353131295461,3.235205056106271
368,1791286469.5650544,0.8043912597656251,-2.354639501953125,-0.4424559082031245,2.527279112731564,1.5774073976411287,-2.765931691835503,-0.8516547100364938,3.296044290837171
369,1791286469.5850544,0.7469107910156251,-2.3067391113281253,-0.3706053222656245,2.452808464262561,1.5929744491980542,-2.8128114314850254,-0.8600043348809472,3.3450086996754886
370,1791286469.5952036,0.6606900878906251,-2.321109228515625,-0.24127426757812448,2.4253397112843147,1.6007606459659596,-2.836555371161763,-0.8640716466985617,3.3697330502531453
371,1791286469.6152036,0.7038004394531251,-2.2732088378906252,-0.2843846191406245,2.39659927623335,1.6158492639639892,-2.8832179545920664,-0.8716728839598414,3.4181469006123613
372,1791286469.6407084,0.737330712890625,-2.287578955078125,-0.32270493164062447,2.4250386654223273,1.6349613501379214,-2.9425223092684707,-0.8810735708058174,3.479630266876063
373,1791286469.6607084,0.6798502441406251,-2.4743904785156254,-0.2077439941406245,2.574482892102481,1.6498260865166678,-2.9891939720256184,-0.8881351757960154,3.527887584466293
374,1791286469.684792,0.737330712890625,-2.7282625488281256,-0.08320297851562448,2.8273655319296456,1.6676007685790333,-3.0463623681590852,-0.8958886430695701,3.5866185275663547
375,1791286469.704792,1.019943017578125,-2.7282625488281256,-0.32270493164062447,2.930501453224293,1.6827833526915958,-3.094900800625764,-0.9019704709959308,3.6364435247035782
376,1791286469.7155998,0.9097721191406251,-2.7234725097656254,-0.4424559082031245,2.9052977559827755,1.6913213591825977,-3.1216150304043992,-0.9053842617345379,3.663982669100732
377,1791286469.7355998,0.8043912597656251,-2.8096932128906253,-0.6963279785156246,3.00437912105224,1.7073224032730618,-3.171934744101055,-0.9124621357527833,3.7160068566589137
378,1791286469.7603884,0.8235514160156251,-3.0156648925781253,-0.8591893066406245,3.2420175730238068,1.7272063633098853,-3.2357776249727355,-0.9228107325835545,3.78220548197791
379,1791286469.7803884,0.876241845703125,-3.1210457519531256,-0.6771678222656246,3.3116887863230504,1.743392430058399,-3.288765999807948,-0.9322123127044863,3.8372410352537862
380,1791286469.8057349,0.9385123535156251,-2.9869246582031255,-0.3466551269531245,3.1500308139010613,1.7642783421928383,-3.357457745558811,-0.9442862342555252,3.908564579759178
381,1791286469.8257349,0.895402001953125,-2.7234725097656254,-0.1550535644531245,2.871077996920383,1.7810374537257883,-3.4120950888064723,-0.9531368112276598,3.965218416121427
382,1791286469.8504324,0.7038004394531251,-2.440860205078125,0.012597802734375524,2.5403331088544614,1.8015908249614505,-3.4790109617095633,-0.9626906617988239,4.034354977266532
383,1791286469.8704324,0.5840494628906251,-2.234888525390625,0.09402846679687553,2.3118567967315107,1.8176700372235055,-3.5320845765449236,-0.9691068953323989,4.088852405586124
384,1791286469.8804872,0.36849770507812507,-2.191778173828125,0.11318862304687553,2.2254199123546194,1.8252595029987773,-3.5581027557367664,-0.9716924830025222,4.1153193989279275
385,1791286469.9004872,0.15294594726562505,-2.086397314453125,0.003017724609375523,2.0919979261949595,1.8388733950716214,-3.608509694226723,-0.9758897008376919,4.165952266244964
386,1791286469.9255784,0.018824853515625035,-1.937906103515625,-0.05446274414062448,1.9387626548013361,1.8537141648572346,-3.6698355198399866,-0.9804623235311757,4.226731043671425
387,1791286469.9455783,-0.397908544921875,-1.751094580078125,-0.006562353515624478,1.7957467814211705,1.8632005844471728,-3.716919010611833,-0.9836519433136216,4.272537243245118
388,1791286469.9706335,-0.541609716796875,-1.502012548828125,0.10839858398437553,1.6003540343235834,1.871536673727554,-3.7731687017524966,-0.9868570320554068,4.3258916277120285
389,1791286469.9906335,-0.714051123046875,-1.224190283203125,0.10839858398437553,1.4213588951504361,1.8753092377764575,-3.8154235318171277,-0.9887064958363803,4.364834704698754
390,1791286470.0005698,-1.030193701171875,-1.137969580078125,-0.07362290039062448,1.5367804523025788,1.8756025162192722,-3.8350278564240163,-0.9894615985906485,4.382277685574229
391,1791286470.0205698,-0.747581396484375,-0.716446142578125,-0.3274949707031245,1.0860138007504525,1.8734376236112573,-3.871350343030385,-0.9913551734509417,4.4136047725155025
392,1791286470.0456395,-0.397908544921875,-0.065000830078125,-0.2795945800781245,0.4906418726950971,1.86897722595517,-3.9115199381103625,-0.9945141760873227,4.447709808858108
393,1791286470.0656395,-0.565559912109375,0.39963295898437506,-0.04967270507812448,0.6942851674359387,1.864507391456133,-3.9382573309087476,-0.9971502228196631,4.469962772117945
394,1791286470.0901349,-0.709261083984375,0.6056046386718751,0.017387841796875525,0.9327971916113043,1.8575120124310036,-3.96424562426145,-0.9999538018398914,4.490601502206089
395,1791286470.1101348,-0.522449560546875,0.6630851074218751,0.017387841796875525,0.844356405816084,1.8508095975807084,-3.98037868103931,-1.001847345289791,4.502511378578993
396,1791286470.1205587,-0.239837255859375,0.9840177246093751,-0.07362290039062448,1.0154964909370663,1.8472443697370464,-3.9862381927303385,-1.0027301796980967,4.506425912403824
397,1791286470.1405587,-0.17277670898437497,1.300160302734375,-0.1837937988281245,1.3244050605692679,1.8408110398866646,-3.992368008370799,-1.0045560891525687,4.509625320920215
398,1791286470.165602,-0.388328466796875,1.223519677734375,-0.2125340332031245,1.301141850528845,1.8329099031110636,-3.9941521248658494,-1.0072438762312363,4.508586267966747
399,1791286470.185602,-0.38353842773437496,1.348060693359375,-0.1694236816406245,1.4117626367170153,1.8263886146396764,-3.991505860881649,-1.009641349341894,4.5041303337535545
400,1791286470.2101796,-0.15361655273437497,1.381590966796875,-0.23648422851562448,1.4100767479628005,1.8185866551932828,-3.9837100813982755,-1.0128938479770004,4.494792251300498
401,1791286470.2301795,-0.00033530273437496735,1.424701318359375,-0.3897654785156245,1.4770548693956427,1.8129592247627802,-3.9741084187087687,-1.0160829280560317,4.484727794525694
402,1791286470.2397697,0.19126625976562503,1.544452294921875,-0.4568260253906245,1.6219142057730347,1.8108029162231674,-3.9680593596335654,-1.0179916591887614,4.478929481601129
403,1791286470.2597697,-0.13445639648437496,1.7264737792968752,-0.3753953613281245,1.7719232236363605,1.807065749188839,-3.9524301066615295,-1.0226235035735178,4.464633154022497
404,1791286470.2998917,-0.503289404296875,1.8079044433593752,-0.3753953613281245,1.913828722248349,1.7987741025182835,-3.9151438093953854,-1.032780912719209,4.430640555700111
405,1791286470.3198917,-0.23025717773437498,1.6498331542968752,-0.6101072753906245,1.7740345803844826,1.7941605553917426,-3.894158744736625,-1.038562930090975,4.411586719933259
406,1791286470.3300686,0.20084633789062503,1.2522599121093752,-0.8352391113281246,1.5185909627060377,1.7921426624062124,-3.8828672425930155,-1.0421669453892075,4.401652563308488
407,1791286470.3500686,0.24874672851562504,1.357640771484375,-0.8496092285156245,1.6207711869732968,1.7894462647787088,-3.8600905209542513,-1.0507145379254987,4.382512727271802
408,1791286470.360263,0.11462563476562504,1.6881534667968752,-0.7729686035156245,1.8602369810388744,1.7885558320469606,-3.8478933026828077,-1.0556585469603974,4.372599890334232
409,1791286470.380263,0.10025551757812504,1.6402530761718752,-0.6867479003906245,1.781040145922345,1.7873933055035613,-3.8225611322953497,-1.066092539998477,4.352390348134512
410,1791286470.405458,0.751700830078125,1.3241104980468752,-0.7059080566406245,1.6782815417587804,1.7877583617485315,-3.78983435103533,-1.0798966735728077,4.327250997328766
411,1791286470.425458,1.2642350097656252,1.271420068359375,-0.6819578613281245,1.9182975980726447,1.7910285805042103,-3.7638590058410624,-1.0912926650862513,4.308751289283805
412,1791286470.4500372,1.3121354003906252,1.381590966796875,-0.7106980957031245,2.03361370268029,1.79919411962804,-3.73183393930419,-1.105764440181208,4.2879364533323026
413,1791286470.4700372,1.3169254394531251,1.309740380859375,-0.7011180175781245,1.985265461570605,1.8087853093181328,-3.7056471733858913,-1.1178914008518097,4.272377143105038
414,1791286470.4960709,1.412726220703125,1.189989404296875,-0.4664061035156245,1.9050996851602264,1.824727004161972,-3.671792550415876,-1.133588660748476,4.254023087006577
415,1791286470.5160708,1.537267236328125,0.9361173339843751,-0.4280857910156245,1.8500712589906905,1.8395619272262325,-3.646496302537338,-1.1451807182299631,4.241740473664609
416,1791286470.5255406,1.733658837890625,0.792416162109375,-0.5382566894531245,1.9807111359078742,1.8478555727222,-3.6350877986898675,-1.1505324380879562,4.236998750639072
417,1791286470.5455406,1.8342496582031251,0.7588858886718751,-0.5574168457031246,2.0618179212814125,1.8680960890437308,-3.6122804306348715,-1.1617832938412798,4.229431797451855
418,1791286470.5706573,1.925260400390625,0.7828360839843751,-0.5047264160156245,2.1387399792224016,1.8967840121136252,-3.585030256866201,-1.1757939459776543,4.2228808809453415
419,1791286470.5906572,2.227032861328125,0.514593896484375,-0.4664061035156245,2.332813086625445,1.9224295898619943,-3.564640096691248,-1.1867336180167056,4.220276202696568
420,1791286470.6152716,2.3180436035156253,0.236771630859375,-0.4951463378906245,2.3821328361168295,1.957648242555315,-3.541922665050795,-1.1999528184695016,4.221076826277074
421,1791286470.6352715,2.456954736328125,0.126600732421875,-0.5813670410156245,2.52797190613231,1.9891346301237467,-3.5256877261655264,-1.2106974782397188,4.225271459090858
422,1791286470.646054,2.6916666503906255,-0.031470556640625,-0.6244773925781245,2.763337070753681,2.0077270694622187,-3.5181710400490296,-1.2165964309391422,4.22949197046937
423,1791286470.666054,2.6246061035156254,-0.21828208007812502,-0.6771678222656246,2.719330896490288,2.0450148720139594,-3.506694634443778,-1.2278493637699752,4.241062030447726
424,1791286470.6901822,2.6341861816406253,-0.338033056640625,-0.5765770019531246,2.7176541770632765,2.0927680163514766,-3.495932877137205,-1.241657472519125,4.259452773628919
425,1791286470.7101822,2.9215885253906255,-0.28055258789062504,-0.5813670410156245,2.9920522894236923,2.134747061577283,-3.489278352792187,-1.2531231540238097,4.278145168098855
426,1791286470.7357204,3.1515104003906256,-0.318872900390625,-0.8256590332031245,3.2734401735000027,2.1919422630594627,-3.4832038186742444,-1.2682626848696068,4.306484641194688
427,1791286470.7557204,3.0173893066406254,-0.759556494140625,-0.9502000488281245,3.253374314217988,2.2392686577168517,-3.480777834152757,-1.2810043823731787,4.332563984504034
428,1791286470.7654064,3.0317594238281256,-1.037378759765625,-0.9214598144531245,3.3341877698827194,2.263145210608662,-3.48108454794186,-1.2876092335282974,4.347150033353787
429,1791286470.7854064,2.9934391113281253,-1.147549658203125,-0.8927195800781246,3.3278365614804293,2.3140889772082214,-3.4849002538902476,-1.3019227405210878,4.381157426558288
430,1791286470.8104553,2.8880582519531255,-1.027798681640625,-0.8879295410156245,3.191499563914269,2.379372218273202,-3.4930491547074185,-1.3205059037151803,4.427927324611279
431,1791286470.8304553,3.0365494628906253,-0.9846883300781251,-0.8975096191406245,3.3159866200609645,2.432564894725097,-3.50159829638204,-1.3357958941678558,4.467987608213593
432,1791286470.8557222,3.1371402832031254,-0.9655281738281251,-0.7490184082031245,3.366737647453214,2.5013847570726195,-3.514474430363395,-1.3553351512785492,4.521657837219067
433,1791286470.8757222,3.0173893066406254,-1.1714998535156251,-0.7442283691406245,3.321283787942554,2.5569196983092195,-3.526343247878426,-1.370721358643309,4.566378443416668
434,1791286470.884725,2.8688980957031256,-1.248140478515625,-1.0460008300781245,3.298870818047042,2.582143269686649,-3.532518337674352,-1.3778172978982424,4.587431762716612
435,1791286470.904725,2.9455387207031256,-1.209820166015625,-1.2998729003906246,3.439408778617252,2.63849392091773,-3.547865534260833,-1.3947351800113872,4.636193076466631
436,1791286470.930647,3.0796598144531253,-1.166709814453125,-1.2663426269531246,3.5283338862326006,2.712288029171558,-3.5693935092529543,-1.4183623200467401,4.702002557210367
437,1791286470.9506469,2.8162076660156257,-1.099649267578125,-0.8496092285156245,3.1403964671660805,2.769527288278687,-3.5869114670030733,-1.4370313363068095,4.754079756815841
438,1791286470.9757347,2.5575455566406253,-1.343941259765625,-0.6053172363281245,2.9518852180578667,2.8406689157612424,-3.6101875374594186,-1.4596744464624196,4.8201144627752175
439,1791286470.9957347,2.4904850097656253,-1.712774267578125,-0.3897654785156245,3.0476266837963575,2.8964478479192404,-3.630544905803345,-1.4765104628326884,4.873433040026816
440,1791286471.0052772,2.7012467285156254,-1.506802587890625,-0.5238865722656245,3.137139631541841,2.9227849255361953,-3.6411051440524744,-1.483992283083181,4.8992398887212545
441,1791286471.0252771,3.0173893066406254,-0.658965673828125,-0.9549900878906246,3.2327820921123482,2.9782826015460104,-3.6631669485513103,-1.4995395230391895,4.9535419780988015
442,1791286471.050578,2.8545279785156255,-0.807456884765625,-1.2998729003906246,3.2388248112631604,3.0491012396202652,-3.689672489519641,-1.5205361242203759,5.022223765866175
443,1791286471.070578,2.5000650878906256,-1.286460791015625,-0.9741502441406246,2.9756134676179546,3.104716879875865,-3.7106227037674815,-1.5380549841206648,5.076770714546722
444,1791286471.0959,2.428214501953125,-1.195450048828125,-0.4807762207031245,2.7489038290075207,3.1739290888437703,-3.737882509983603,-1.5596716261749295,5.145694034913571
445,1791286471.1159,2.7251969238281255,-0.817036962890625,-0.5526268066406245,2.898213943067286,3.2281250491796833,-3.759202200719319,-1.5757341349891891,5.199550998230947
446,1791286471.1253161,2.7156168457031256,-0.658965673828125,-0.7250682128906245,2.8869593910020197,3.253655792212058,-3.76877638085476,-1.5830644245859087,5.224561646250649
447,1791286471.1453161,2.5335953613281252,-0.912837744140625,-0.7969187988281246,2.808461816367956,3.3076232152967213,-3.7884194618568787,-1.598581625140878,5.277116311545903
