imu_index,t_imu,ax,ay,az,mag,vx,vy,vz,velocity
0,1790597856.3936043,-0.03717070312499996,0.05125341796875001,-0.02759062500000105,0.06906385894356723,0.0,0.0,0.0,0.0
1,1790597856.4136043,-0.05154082031249996,0.027303222656250015,0.0011496093749989544,0.058337327052387804,-0.00018045975954062286,0.00018318289415066832,-7.483949893992841e-05,0.0002678108439261822
2,1790597856.4390163,-0.06112089843749996,0.03688330078125002,0.005939648437498955,0.07163394115842313,-0.0005900815926838777,0.0005033565769646813,-0.00014215578580569873,0.0007885254574431814
3,1790597856.4590163,-0.06112089843749996,0.04167333984375002,-0.022800585937501047,0.0774099360459188,-0.0010474698438131351,0.0008353788058860514,-0.0002124799108291757,0.0013565391758174525
4,1790597856.484206,-0.046750781249999956,0.027303222656250015,-0.03238066406250105,0.06308414158907656,-0.0017409253467530678,0.001321140835082174,-0.0003920158302119168,0.0022203401947056786
5,1790597856.504206,-0.013220507812499957,0.032093261718750016,-0.018010546875001046,0.03910420787210972,-0.0022988814664347272,0.001738066570389512,-0.0005887677815156296,0.002941492631364811
6,1790597856.5141,-0.0036404296874999564,0.056043457031250014,0.010729687499998955,0.057177338152198304,-0.0025460144198010985,0.0019787870032505666,-0.0006769050152096661,0.0032948426107607142
7,1790597856.5341,0.010729687500000045,0.056043457031250014,0.015519726562498955,0.05913423020921097,-0.002960001514504312,0.002560520267000002,-0.0007889673033330175,0.003992535836948011
8,1790597856.5436437,0.03946992187500004,0.017723144531250016,0.029889843749998955,0.052586950323188886,-0.003091985500280402,0.002849274903164931,-0.0008019174165435411,0.004280398737349786
9,1790597856.5636437,0.049050000000000045,-0.006227050781249987,0.03946992187499895,0.06326573633690508,-0.003194306979106062,0.003380873637700417,-0.0007209457235617461,0.0047067681446174205
10,1790597856.588648,0.06342011718750004,0.008143066406250014,-0.008430468750001046,0.06449413615141752,-0.00309212425683495,0.003949390104634716,-0.0005766889339382585,0.005048909262882485
11,1790597856.608648,0.06342011718750004,0.032093261718750016,-0.041960742187501045,0.08253964257706932,-0.0028323920925126616,0.004396267542557701,-0.0005541983650875368,0.005258968444413817
12,1790597856.6337597,0.05863007812500005,0.012933105468750015,-0.018010546875001046,0.06268278134181691,-0.002325327297833987,0.004957997807609506,-0.0006431438332856029,0.005513848319695227
13,1790597856.6537597,0.029889843750000044,0.03688330078125002,0.05384003906249896,0.07178112873291272,-0.001849277202309034,0.005412999858035859,-0.0006496135308977249,0.005756942884344222
14,1790597856.679149,0.010729687500000045,0.04646337890625002,0.015519726562498955,0.050148117470231644,-0.0012582519643906673,0.006062673966715133,-0.00052452046158616,0.006214043397595557
15,1790597856.699149,-0.008430468749999956,0.060833496093750015,-0.013220507812501047,0.0628217229718624,-0.000859067092584897,0.0066586250224162005,-0.00043731237644005727,0.006728040247597889
16,1790597856.70957,-0.018010546874999957,0.003353027343750014,0.020309765624998956,0.027351584430282926,-0.0007029360104875042,0.006972735244689831,-0.00039314758641635216,0.007019096868692214
17,1790597856.72957,-0.05154082031249996,0.022513183593750014,0.05863007812499896,0.08124521927445814,-0.0005525641546663812,0.007523946901174378,-0.0002026912971067884,0.007546932348884316
18,1790597856.7543352,-0.046750781249999956,0.04646337890625002,0.029889843749998955,0.07237322630828653,-0.0005768603575560485,0.00823222719348094,0.00016218493769529246,0.008254007292898522
19,1790597856.7743351,-0.041960742187499955,0.08478369140625001,-0.003640429687501046,0.09466906010786053,-0.0007266055224546978,0.008915293066325837,0.00045202648302128406,0.008956267860280408
20,1790597856.8133864,-0.03238066406249996,0.060833496093750015,-0.03238066406250105,0.07614282012931568,-0.0011928694262908367,0.010475455395001597,0.0008275708852537661,0.010575583991958421
21,1790597856.8333864,-0.041960742187499955,0.04167333984375002,-0.018010546875001046,0.06182031168956633,-0.0015073575135333265,0.011308392332402582,0.0009154678066987945,0.011445083884456628
22,1790597856.8736143,-0.013220507812499957,0.017723144531250016,0.0011496093749989544,0.022140760615006777,-0.0022115205883331936,0.012911658392588909,0.0010148730313282838,0.013138938809099108
23,1790597856.8936143,-0.0036404296874999564,0.04646337890625002,0.005939648437498955,0.046982738652152606,-0.002534385640149328,0.013685465468553686,0.0010675147588390963,0.013959035189593506
24,1790597856.8885224,0.005939648437500044,0.04646337890625002,0.03467988281249896,0.05828223807332313,-0.002534385640149328,0.013685465468553686,0.0010675147588390963,0.013959035189593506
25,1790597856.9085224,0.005939648437500044,0.05125341796875001,0.010729687499998955,0.05270027012158588,-0.0027469052106569056,0.014509597639683802,0.0012254525504285414,0.014818085094073513
26,1790597856.9186065,-0.022800585937499958,0.09436376953125002,0.029889843749998955,0.10157652523412848,-0.002850738304255845,0.01497293357412812,0.001323862051311296,0.015299282970960004
27,1790597856.9386065,-0.041960742187499955,0.06562353515625002,0.03467988281249896,0.08526339497825595,-0.0031229232683039464,0.015994011532938706,0.0015866164561637297,0.016373100086253065
28,1790597856.9493146,-0.05633085937499996,0.05125341796875001,0.0011496093749989544,0.07616692309080426,-0.0033257318005157498,0.016552563110005553,0.0017349694348407325,0.01697227022114337
29,1790597856.9693146,-0.06591093749999996,0.06562353515625002,-0.013220507812501047,0.09394403586898364,-0.003831069629960723,0.017614625170859502,0.0019523857209306566,0.018131848345460493
30,1790597856.9937022,-0.08507109374999997,0.060833496093750015,0.015519726562498955,0.10572921616745448,-0.004630995785099181,0.018946723526028227,0.0021819374596989574,0.019626138321417064
31,1790597857.0137022,-0.09465117187499997,0.06562353515625002,0.03467988281249896,0.12028294548938775,-0.005458187414475362,0.020064981292052222,0.0024172515697608544,0.020934144101287116
32,1790597857.0387726,-0.09465117187499997,0.060833496093750015,0.010729687499998955,0.11302515108659097,-0.006695497153244578,0.021494253403354084,0.0027533602042531247,0.022680687906478272
33,1790597857.0587726,-0.09465117187499997,0.09436376953125002,0.0011496093749989544,0.13365884534580094,-0.007818456608396645,0.022696222876812704,0.002999090724025232,0.024191761857753805
34,1790597857.0688212,-0.09465117187499997,0.09436376953125002,0.0011496093749989544,0.13365884534580094,-0.008440702796586857,0.02335177844380559,0.003105766941804957,0.025023924721867697
35,1790597857.0888212,-0.08028105468749996,0.060833496093750015,0.0011496093749989544,0.10073273346058244,-0.009755799350637369,0.024693624447629785,0.00328968756828679,0.026753929685700686
36,1790597857.1139743,-0.08986113281249997,0.056043457031250014,-0.013220507812501047,0.10672710102490242,-0.011482622169447093,0.026348558531815676,0.003463529023639901,0.028949839064982563
37,1790597857.1339743,-0.08028105468749996,0.04646337890625002,0.010729687499998955,0.09337569017132218,-0.012904923549788937,0.02762082034996733,0.003577285068537029,0.030695988941434098
38,1790597857.159043,-0.06591093749999996,0.03688330078125002,0.049049999999998956,0.09005849242935925,-0.014695140494493877,0.02913302259347534,0.003810878608262809,0.032851224563960675
39,1790597857.179043,-0.05154082031249996,0.07999365234375001,0.029889843749998955,0.09974388870089987,-0.01608532532277266,0.030333813934841025,0.004087696032275926,0.034577264458387554
40,1790597857.189348,-0.041960742187499955,0.10394384765625002,0.0011496093749989544,0.11209972770808427,-0.016766434976005464,0.03100187203056326,0.0042329203991653686,0.035498549636706435
41,1790597857.209348,-0.046750781249999956,0.07999365234375001,0.029889843749998955,0.09735513711241663,-0.018023125051185983,0.03237986985041926,0.004519055388292471,0.037332437232830556
42,1790597857.2336652,-0.046750781249999956,0.06562353515625002,0.03946992187499895,0.08972156177144629,-0.019492422720701657,0.03406958542965032,0.004941269512839722,0.03956143752784126
43,1790597857.2536652,-0.05154082031249996,0.060833496093750015,-0.003640429687501046,0.07981493051919136,-0.020667032940251767,0.03544053595747455,0.005290179846345723,0.04136597445139158
44,1790597857.2789178,-0.046750781249999956,0.056043457031250014,-0.003640429687501046,0.07307364334565886,-0.022113825307056946,0.03713324735931477,0.005650853336014937,0.04358705625049988
45,1790597857.2989178,-0.07070097656249996,0.07520361328125001,0.020309765624998956,0.10519837506914906,-0.023263980331860577,0.03846964750650571,0.005918661945183516,0.045344868721580396
46,1790597857.310974,-0.09944121093749995,0.07041357421875001,0.025099804687498957,0.12440508857087144,-0.02400714681320201,0.03928606753193974,0.006096942845179513,0.04644255497162221
47,1790597857.3309739,-0.09465117187499997,0.056043457031250014,0.0011496093749989544,0.1100047045132136,-0.025346203197370704,0.04062696374126346,0.006387705795780831,0.04830924326347695
48,1790597857.3545842,-0.09465117187499997,0.07041357421875001,0.0011496093749989544,0.11797557956325236,-0.027025079390651133,0.04219640108734581,0.006683540658266958,0.05055255578628902
49,1790597857.3745842,-0.08986113281249997,0.07041357421875001,0.020309765624998956,0.11595508270165462,-0.028510676079399246,0.04353767168086385,0.006928737422989072,0.05250138005968845
50,1790597857.3985014,-0.07070097656249996,0.04167333984375002,0.025099804687498957,0.08582130001330933,-0.030308772896735947,0.04510210932185595,0.0072594307212649305,0.054822635053264325
51,1790597857.4185014,-0.06591093749999996,0.04646337890625002,0.015519726562498955,0.0821216121011357,-0.031791750674245375,0.04634629295685646,0.007555411769478309,0.0567078348095086
52,1790597857.4437873,-0.05154082031249996,0.04167333984375002,0.025099804687498957,0.07087399810627791,-0.03360818013595672,0.04785050685201937,0.007950521859384373,0.0590117918375863
53,1790597857.4637873,-0.041960742187499955,0.04646337890625002,0.015519726562498955,0.06450125097148375,-0.034969634638599485,0.048994008689589405,0.008277087258439878,0.060760171228499076
54,1790597857.4738526,-0.05154082031249996,0.04167333984375002,0.005939648437498955,0.06654624584286611,-0.0356226169428781,0.049549706076228994,0.008432983881115023,0.0616056769075615
55,1790597857.4938526,-0.06591093749999996,0.04646337890625002,0.005939648437498955,0.0808602293162451,-0.03690165966823586,0.0506204653151555,0.008714106987283449,0.06324634104498843
56,1790597857.5178792,-0.07549101562499996,0.056043457031250014,-0.018010546875001046,0.09572952687047066,-0.038462538162925324,0.05189856979942504,0.008979419297151412,0.06521854306924017
57,1790597857.5378792,-0.07549101562499996,0.04167333984375002,-0.02759062500000105,0.09053619873684422,-0.0397934066811886,0.05294946449625563,0.009098738667948206,0.06685767009911665
58,1790597857.5624342,-0.11860136718749996,0.03688330078125002,0.025099804687498957,0.12671488614450532,-0.041539728855705865,0.05419083636106343,0.009218671676732001,0.06889978030734566
59,1790597857.5824342,-0.12339140624999996,0.07041357421875001,0.06342011718749896,0.15558156007280569,-0.04311173772621616,0.05521121255981125,0.009434483885446652,0.07068174734882735
60,1790597857.5924194,-0.10423124999999996,0.09436376953125002,0.03467988281249896,0.14481494656491098,-0.04394931838380404,0.05576763161985902,0.009599534665301546,0.0716499992231654
61,1790597857.6124194,-0.08507109374999997,0.07041357421875001,-0.041960742187501045,0.11813494957465648,-0.045659266647518,0.05696211011628619,0.00986961508816753,0.07366722420233877
62,1790597857.6386821,-0.08028105468749996,0.05125341796875001,-0.046750781250001046,0.10610181969552734,-0.04789355210239521,0.05853499756193135,0.009996334604118673,0.07628935035820959
63,1790597857.658682,-0.06112089843749996,0.027303222656250015,0.015519726562498955,0.06871748035106268,-0.04955191623853932,0.059670968391261237,0.010031514087769084,0.0782090029763532
64,1790597857.7132528,-0.03717070312499996,0.03688330078125002,0.07300019531249896,0.08983912044866665,-0.05380037496473292,0.06256827807636678,0.010475398703491096,0.08318054908321129
65,1790597857.7332528,-0.041960742187499955,0.06562353515625002,0.11611054687499896,0.1398170638618218,-0.05524256178034336,0.06362461484716286,0.01089734451594085,0.08496225258315587
66,1790597857.714187,-0.046750781249999956,0.15184423828125002,0.14485078124999895,0.2149978071409879,-0.05524256178034336,0.06362461484716286,0.01089734451594085,0.08496225258315587
67,1790597857.734187,-0.041960742187499955,0.18058447265625002,0.12090058593749896,0.2213332494892991,-0.05653071599739069,0.06516373190163238,0.01193355241210409,0.08708871040323138
68,1790597857.7733939,-0.0036404296874999564,0.12789404296875,0.07300019531249896,0.1473063728114473,-0.05881125651497419,0.06863544841060927,0.014230353705945262,0.09149913462974286
69,1790597857.7933939,0.0011496093750000436,0.09436376953125002,-0.041960742187501045,0.1032789740788893,-0.05980382560238906,0.07047415661560327,0.015272796306531453,0.09368224279116265
70,1790597857.8032308,0.020309765625000045,0.12310400390625002,-0.08028105468750105,0.14836485466319166,-0.06020295608325451,0.07140330467387866,0.015618423278111217,0.09469299332689436
71,1790597857.8232307,0.08737031250000005,0.18537451171875002,0.06342011718749896,0.2145213098165046,-0.06073120660873004,0.07347175983084846,0.016190438532526923,0.09668768923016863
72,1790597857.8331249,0.10653046875000005,0.28117529296875005,0.26460175781249895,0.40052762250014856,-0.06080945049927724,0.07468775529249501,0.01667438343512728,0.09774500050435989
73,1790597857.8531249,0.20233125000000005,0.50151708984375,0.35082246093749897,0.6446190543492719,-0.060480596107315494,0.07795110203165645,0.018429027395968016,0.10036884907284371
74,1790597857.8931763,0.31729218750000004,0.5254672851562501,-0.06112089843750105,0.6168678661138237,-0.05835994807289498,0.0865908507168175,0.022285985288151546,0.10677323684892615
75,1790597857.9131763,0.15443085937500006,0.42008642578125005,-0.08507109375000105,0.45558598139625434,-0.056752247628211044,0.09167635177902146,0.023703796910636347,0.1103958381205803
76,1790597857.9233308,0.11132050781250005,0.40571630859375,0.307712109374999,0.5212338446173495,-0.05585602605700707,0.09450000155914348,0.024485236653515482,0.11247076400353041
77,1790597857.9433308,0.12569062500000006,0.6500083007812499,0.42267304687499896,0.785468922906574,-0.05400011345552358,0.10081075896262806,0.026889049264516324,0.11748124252909525
78,1790597857.9836385,0.12090058593750005,0.96615087890625,0.37477265624999895,1.043321147281138,-0.05007531856093132,0.11650738212144165,0.033417719808316496,0.13114210466115572
79,1790597858.0036385,0.020309765625000045,1.09069189453125,0.21191132812499897,1.1112730116238811,-0.04820820288691229,0.12621276655223576,0.03705124185891136,0.14009456730952277
80,1790597857.9986944,-0.06112089843749996,1.14817236328125,0.307712109374999,1.1902614344271887,-0.04820820288691229,0.12621276655223576,0.03705124185891136,0.14009456730952277
81,1790597858.0186944,-0.09465117187499997,1.13380224609375,0.465783398437499,1.2293984512128397,-0.04714490383978082,0.13950241465955424,0.04149922294667499,0.15298938250442815
82,1790597858.0438585,-0.19045195312499996,1.25834326171875,0.40351289062499895,1.3351113675130821,-0.04654580841928622,0.1582300991687527,0.047896865080562956,0.1717480312810131
83,1790597858.0638585,-0.24793242187499998,1.30145361328125,0.25502167968749895,1.34918051069909,-0.046798656930828055,0.17472154419073954,0.05320668404144679,0.18854358520409079
84,1790597858.0884304,-0.15213164062499995,1.34456396484375,0.408302929687499,1.4134028350144885,-0.04779998321810024,0.19681999346924467,0.05997419853763052,0.21123411825535027
85,1790597858.1084304,-0.10423124999999996,1.31103369140625,0.494523632812499,1.4050719258774378,-0.04887729143013236,0.2160921243778669,0.06601051935950901,0.2311756572431399
86,1790597858.1185946,-0.041960742187499955,1.25355322265625,0.278971874999999,1.2849053245114253,-0.04945411366199292,0.22637236315119752,0.06920774903368715,0.24182611249213926
87,1790597858.1385946,-0.0036404296874999564,0.98052099609375,0.30292207031249896,1.0262536027665872,-0.050487265150044765,0.2469174310619926,0.075428036744998,0.2630714169798566
88,1790597858.1785848,0.17359101562500004,0.83202978515625,0.47057343749999897,0.9715177631795726,-0.05173346678785525,0.2872718294790471,0.08831985890039898,0.30496205185943254
89,1790597858.1985848,0.36519257812500006,0.86556005859375,0.24065156249999897,0.9697798764070592,-0.05145505732766233,0.30697302342395005,0.0948670590863464,0.32539179297321924
90,1790597858.208935,0.37477265625000006,0.61168798828125,0.22149140624999897,0.7507830458413706,-0.05075817852855174,0.31678602372653925,0.09810582113771196,0.3354914747905117
91,1790597858.228935,0.46578339843750005,0.30512548828125,0.326872265624999,0.6456788798572229,-0.04835274003987751,0.3342788447185916,0.1042479497186515,0.35347979930443374
92,1790597858.2532537,0.7340255859375001,0.30512548828125,0.09216035156249897,0.8002428723893047,-0.04367827568932202,0.35347150964935425,0.11136039371711592,0.3731635528690028
93,1790597858.2732537,0.729235546875,0.36739599609375,-0.13297148437500106,0.8273123451446197,-0.038215701779059294,0.36789692333371665,0.11627113105340452,0.38772098470074917
94,1790597858.283128,0.5232638671875001,0.30512548828125,0.020309765624998956,0.6060685810060041,-0.03499570718757938,0.3744487457835877,0.11824853661513005,0.3942325191458468
95,1790597858.303128,0.44662324218750005,0.05125341796875001,0.0011496093749989544,0.4495559530439663,-0.027997233030814576,0.38626313909494636,0.12168508981798372,0.40594373842304105
96,1790597858.3288164,0.5615841796875001,-0.08286767578125,-0.28146269531250107,0.6336127298415386,-0.018414146271081837,0.3991006939168856,0.12489691603634588,0.4185925038784407
97,1790597858.3488164,0.5136837890625001,-0.034967285156249986,-0.45390410156250105,0.6863837699072342,-0.010459385040901251,0.4074195326712301,0.1259193777383179,0.4265627316438727
98,1790597858.3589077,0.45620332031250005,-0.38943017578125,-0.573655078125001,0.8299743851058091,-0.006313683204875207,0.41066611909861744,0.1255801860299913,0.4294844666509589
99,1790597858.3789077,0.33645234375000005,-0.6480922851562501,-0.7700466796875011,1.0612236703879458,0.0018592190312546738,0.4145790916447572,0.12299322719047147,0.43244261337098255
100,1790597858.4034765,0.36519257812500006,-1.05524560546875,-0.8514773437500011,1.4042516063363613,0.011686050684347263,0.4155262469910406,0.11730407288773818,0.43192461290728523
101,1790597858.4234765,0.5232638671875001,-1.48155908203125,-0.8850076171875011,1.8033471298486037,0.019818252369208894,0.4123764125139057,0.11076282901062512,0.4274523049595657
102,1790597858.4637563,0.5472140625,-1.80728173828125,-0.9951785156250011,2.1345001264193524,0.036973638151392735,0.39704866888283125,0.09388487708726866,0.40966945886344736
103,1790597858.4837563,0.6382248046875001,-1.8935024414062502,-1.043078906250001,2.254039929014907,0.045992168532422856,0.38502847445070165,0.08370421013584031,0.3966971143058824
104,1790597858.4788063,0.7052853515625,-1.9845131835937502,-0.9616482421875011,2.315272628587906,0.045992168532422856,0.38502847445070165,0.08370421013584031,0.3966971143058824
105,1790597858.4988062,0.8394064453125001,-2.29586572265625,-0.9233279296875011,2.6130704281823482,0.05653806603392834,0.36497885653078316,0.07096519202546048,0.3760879911730569
106,1790597858.522813,0.9974777343750001,-2.54494775390625,-0.8850076171875011,2.8731445113614194,0.07060529337440524,0.33580644639022683,0.05471174384949373,0.3474830237648607
107,1790597858.542813,1.1459689453125002,-2.55931787109375,-0.8802175781250011,2.9390705629094263,0.08378189636811938,0.3074921750107924,0.040554342373502854,0.32127168959815516
108,1790597858.5689833,1.12201875,-2.4347768554687503,-0.554494921875001,2.7376137473469524,0.10288893572509729,0.26619774466659696,0.021991949554876006,0.28623594848559847
109,1790597858.5889833,1.12201875,-2.28628564453125,-0.24793242187500106,2.558808044687612,0.11866676598173274,0.23229163189461582,0.008730330427745903,0.2609931460138458
110,1790597858.5992563,1.1268087890625,-2.1617446289062503,-0.11860136718750106,2.440676990511498,0.1272880610783514,0.21406106401061947,0.002657875697878737,0.24906114494571413
111,1790597858.6192563,1.1938693359375,-2.17611474609375,-0.24793242187500106,2.4944478076871675,0.14503580968439095,0.17738588148560247,-0.007940774416109242,0.22926882243244198
112,1790597858.6438239,1.1076486328125001,-2.1952749023437503,-0.3868435546875011,2.4891294314348187,0.1678073716060197,0.1310378442693251,-0.020176700518411427,0.21386287625458125
113,1790597858.6638238,1.0022677734375,-2.01325341796875,-0.20961210937500105,2.2586870635461778,0.1867294241766592,0.09265372194844641,-0.029538246466895842,0.21053526556989405
114,1790597858.6883898,1.0118478515625,-1.9461928710937502,-0.13776152343750106,2.197835526955464,0.2101959519848837,0.04528359216321269,-0.03995221569554776,0.2186987002453816
115,1790597858.7083898,1.0262179687500002,-1.8120717773437502,-0.3772634765625011,2.116377843481437,0.22949222575500478,0.006865382985835951,-0.047931370366030845,0.2345447322595285
116,1790597858.7933817,0.9495773437500001,-1.84560205078125,-0.5257546875000011,2.1411123401259182,0.3117879642039501,-0.15522281402599042,-0.08250955247273664,0.3579297177740934
117,1790597858.8133817,0.8920968750000001,-1.9701430664062503,-0.5305447265625011,2.226831435779697,0.3310111673174508,-0.19336711205732582,-0.09101028639337451,0.39400774756805973
118,1790597858.7943814,0.9447873046875,-1.9845131835937502,-0.39163359375000106,2.2325529106181587,0.3310111673174508,-0.19336711205732582,-0.09101028639337451,0.39400774756805973
119,1790597858.8143814,1.045378125,-1.7881215820312502,-0.29583281250000104,2.0922980832821403,0.35022720196010204,-0.23162749604675187,-0.09935904151407157,0.43148882841654795
120,1790597858.838573,1.0070578125,-1.52466943359375,-0.21919218750000105,1.840333538930758,0.3737079479369993,-0.2769753418498634,-0.10887721681404743,0.47773132478968217
121,1790597858.858573,0.8346164062500001,-1.52466943359375,-0.13776152343750106,1.743611099028844,0.39297089498458804,-0.3134162777376749,-0.11610127869329413,0.5158831208424496
122,1790597858.8533041,0.7052853515625,-1.5007192382812502,-0.03717070312500105,1.6586040276228988,0.39297089498458804,-0.3134162777376749,-0.11610127869329413,0.5158831208424496
123,1790597858.8733041,0.7340255859375001,-1.3091176757812502,-0.041960742187501045,1.5014470865597358,0.41101071144256096,-0.34781697214617385,-0.1216623988319812,0.5520037955693824
124,1790597858.8983777,0.767555859375,-1.1558364257812501,-0.10902128906250105,1.3917562580755725,0.4330581541921644,-0.3891106276748244,-0.12787239678352416,0.596068616302673
125,1790597858.9183776,0.7627658203125001,-1.0696157226562502,-0.07549101562500105,1.3158983183477924,0.45030191643038675,-0.42044611790635517,-0.13235957618306932,0.6301315826164924
126,1790597858.9281592,0.7148654296875001,-1.00734521484375,0.10653046874999895,1.2398087373474143,0.4585544846487362,-0.434996556319772,-0.13420220786413675,0.6461458442156365
127,1790597858.9481592,0.7244455078125001,-0.8636440429687501,-0.022800585937501047,1.1274848972222256,0.47505604526019785,-0.46309105189216365,-0.1372790250108735,0.677478486144605
128,1790597858.973165,0.7388156250000001,-0.8349038085937501,-0.18087187500000104,1.1294368209486116,0.49533730303504514,-0.4961339463052951,-0.1409308817879344,0.7151010067787783
129,1790597858.993165,0.6621750000000001,-0.9163344726562501,-0.17129179687500107,1.1434533117184429,0.5112268206752989,-0.5212247207184755,-0.1439418093205329,0.744141999981385
130,1790597859.004544,0.5711642578125,-0.8875942382812501,-0.06112089843750105,1.0572548914327065,0.5199636831682695,-0.5348983410731721,-0.1455962651628916,0.760050484853557
131,1790597859.024544,0.5999044921875001,-0.86843408203125,-0.06112089843750105,1.0572600998836614,0.5347729671671764,-0.5579604724681307,-0.148251348729563,0.7869437576153584
132,1790597859.0940764,0.6669650390625,-0.8349038085937501,-0.19045195312500104,1.085439394616355,0.5851429557735568,-0.6349948462972763,-0.15740939942176668,0.8777177522084406
133,1790597859.1140764,0.7148654296875001,-0.9354946289062501,-0.20961210937500105,1.1958762560028418,0.5995306643010807,-0.6564845850932077,-0.16024854789998658,0.9033762366845558
134,1790597859.0940764,0.7244455078125001,-0.9402846679687501,-0.15213164062500106,1.1967040514204288,0.5995306643010807,-0.6564845850932077,-0.16024854789998658,0.9033762366845558
135,1790597859.1140764,0.7244455078125001,-0.86843408203125,-0.15692167968750106,1.1417633126787345,0.6139342378582033,-0.6771156132335656,-0.16322463505525808,0.9284627529352607
136,1790597859.1233728,0.8106662109375001,-0.8971743164062501,-0.14734160156250106,1.218117813319298,0.6206953904664865,-0.6864979308716259,-0.1646126233444481,0.9400210064683177
137,1790597859.1433728,0.9495773437500001,-0.9594448242187501,-0.16650175781250107,1.3601302650254155,0.6356996007503009,-0.7064399233192002,-0.16762154621786718,0.9650224507283744
138,1790597859.168568,0.9687375000000001,-0.9115444335937501,-0.11860136718750106,1.3354519394649684,0.6553909277441811,-0.7313291682847542,-0.17138222245934637,0.9968708475668017
139,1790597859.1885679,0.9016769531250001,-0.9163344726562501,-0.07070097656250104,1.2875126491269446,0.6714829377715107,-0.75086458260141,-0.17420362861792568,1.0222689770051228
140,1790597859.213038,0.8873068359375,-0.9833950195312501,-0.08028105468750105,1.3269605243872264,0.6915015486947612,-0.7746675114197843,-0.17741492498348935,1.0534515654283645
141,1790597859.233038,0.8825167968750001,-0.9642348632812501,-0.08028105468750105,1.3095914691518338,0.7080637110127397,-0.7941254430942719,-0.17988673577369893,1.0790498950141847
142,1790597859.2437332,0.8346164062500001,-0.9642348632812501,-0.10902128906250105,1.2799293178209201,0.7169693799069133,-0.8045168977456002,-0.18116213780516963,1.092754432915487
143,1790597859.2637331,0.8154562500000001,-0.9450747070312501,-0.15213164062500106,1.257489218090366,0.7335999915516423,-0.8238980115610708,-0.183581110380147,1.118337563147757
144,1790597859.3044612,0.8154562500000001,-0.9546547851562501,-0.19524199218750105,1.270611699143028,0.7673684716870985,-0.8632485914845364,-0.18882931014101498,1.1703456798774288
145,1790597859.3244612,0.8394064453125001,-0.9498647460937502,-0.21440214843750105,1.2856183327716386,0.7839457917305007,-0.8825303755812438,-0.19163438441082525,1.195890716363351
146,1790597859.3488388,0.8633566406250001,-0.84927392578125,-0.22877226562500105,1.232472165788087,0.8042338902561469,-0.9057966348650159,-0.1953508410446657,1.226956252303309
147,1790597859.3688388,0.9112570312500001,-0.8540639648437501,-0.25272246093750106,1.2742383118198481,0.8210439428208337,-0.9245766278931855,-0.19866479544472218,1.252366878290147
148,1790597859.3791137,0.9112570312500001,-0.9163344726562501,-0.24793242187500106,1.31587565088711,0.8297890684464218,-0.9341418320996154,-0.20049775631281228,1.2654525715640546
149,1790597859.3991137,0.8873068359375,-0.9402846679687501,-0.18566191406250104,1.3061083508851292,0.8469558778659523,-0.952752558972614,-0.2041808136173199,1.291031177907792
150,1790597859.4237332,0.8873068359375,-0.8971743164062501,-0.13776152343750106,1.2693358154799939,0.8681948472586271,-0.9756183889042789,-0.20863170962619804,1.3225432786249989
151,1790597859.4437332,0.8968869140625001,-0.83011376953125,-0.10423125000000105,1.2265232001305555,0.8855367854107544,-0.993998326698869,-0.21206807183223833,1.3480285378605332
152,1790597859.4840314,0.8729367187500001,-0.9163344726562501,-0.08028105468750105,1.2681216142239522,0.9205869650873725,-1.0307556145843693,-0.21851111121996097,1.3991728281426001
153,1790597859.5040314,0.8154562500000001,-0.98818505859375,-0.16650175781250107,1.2919757896518993,0.9379056254199899,-1.0491186155986205,-0.2215993097436711,1.4245782133210165
154,1790597859.4980679,0.7771359375000001,-0.9738149414062501,-0.19524199218750105,1.2611008052385846,0.9379056254199899,-1.0491186155986205,-0.2215993097436711,1.4245782133210165
155,1790597859.5180678,0.805876171875,-0.9738149414062501,-0.11381132812500105,1.2691355179457944,0.9548234265124258,-1.0678088734838649,-0.2247553355568093,1.4499719055792302
156,1790597859.5738614,0.8441964843750001,-0.9546547851562501,-0.09944121093750105,1.278249591232304,1.0018441262221238,-1.1201974271540687,-0.23313134754411,1.5208169364706912
157,1790597859.5938613,0.825036328125,-0.9450747070312501,-0.14734160156250106,1.2631550546734904,1.0186749249726401,-1.139009526553328,-0.23605364678783022,1.546209115388046
158,1790597859.5738614,0.7819259765625001,-0.9977651367187501,-0.24314238281250106,1.290760132322945,1.0186749249726401,-1.139009526553328,-0.23605364678783022,1.546209115388046
159,1790597859.5938613,0.786716015625,-0.9402846679687501,-0.20482207031250105,1.242984081372355,1.0352370127987243,-1.1579854587423364,-0.23933482063556238,1.5716001882462924
160,1790597859.6185613,0.7915060546875001,-0.8780141601562501,-0.05154082031250105,1.1832358835838028,1.0555466769225585,-1.1812737917179583,-0.24325413673955404,1.602734891740641
161,1790597859.6385612,0.7579757812500001,-0.7774233398437501,-0.018010546875001046,1.0859275823433603,1.0718492371348924,-1.1997853854013212,-0.24605597416965408,1.6275408752451734
162,1790597859.6483548,0.7388156250000001,-0.8636440429687501,-0.18087187500000104,1.1508449921103905,1.0797341844312756,-1.2086957603693314,-0.2473682508651369,1.6395006562061343
163,1790597859.6683547,0.7388156250000001,-0.9115444335937501,-0.23356230468750105,1.196374996533624,1.0956376361688864,-1.2268255258986325,-0.25026780393112513,1.6637778320649392
164,1790597859.6940482,0.7244455078125001,-0.8732241210937501,-0.10902128906250105,1.1398365237693135,1.1158234615300076,-1.2500619687160504,-0.2540941932319159,1.6947804524377883
165,1790597859.7140481,0.729235546875,-0.8636440429687501,-0.09944121093750105,1.1347043977240086,1.1313598810780612,-1.2680416018095186,-0.25693860743935637,1.7186978013675034
166,1790597859.739129,0.748395703125,-0.9211245117187501,-0.19045195312500104,1.2020143264513101,1.1507002997136424,-1.2905640861459147,-0.26051589159068317,1.7485809589441361
167,1790597859.759129,0.786716015625,-0.9738149414062501,-0.19524199218750105,1.267026860354696,1.166112006266288,-1.3086723552619648,-0.2635191346534766,1.7725357200671028
168,1790597859.7833397,0.7962960937500001,-0.9786049804687501,-0.16650175781250107,1.272587133391818,1.184844400784532,-1.3308501636976007,-0.2672661926980411,1.8017906732036588
169,1790597859.8033397,0.7531857421875001,-0.8971743164062501,-0.16171171875000107,1.1825232328519542,1.200321917820787,-1.349236387422311,-0.2703895783976331,1.8260126121282487
170,1790597859.8288026,0.7819259765625001,-0.8923842773437501,-0.11860136718750106,1.1924027069628327,1.2200028920096604,-1.3725510059571817,-0.27430493962600533,1.856756990122626
171,1790597859.8488026,0.825036328125,-0.8875942382812501,-0.07549101562500105,1.2141694148660431,1.2355531048014183,-1.3907867028564875,-0.27721012293425584,1.8808839889488318
172,1790597859.858424,0.8394064453125001,-0.8444838867187501,-0.06112089843750105,1.1922633851568123,1.2431127964988093,-1.3994933193983112,-0.2784966585223802,1.8924775730950485
173,1790597859.878424,0.7771359375000001,-0.84927392578125,-0.12339140625000106,1.1577702300120922,1.2588947990148698,-1.4174176422071507,-0.281046601679994,1.9164749097607932
174,1790597859.8884788,0.7196554687500001,-0.84927392578125,-0.14255156250000106,1.122270530079477,1.2667676791016202,-1.426358148147223,-0.282336821061723,1.9284480807451674
175,1790597859.9084787,0.7388156250000001,-0.8588540039062501,-0.15692167968750106,1.1437233674826637,1.2822662876967073,-1.4440363072730629,-0.28496744138976726,1.9520896833748567
176,1790597859.9336083,0.7531857421875001,-0.8253237304687501,-0.16650175781250107,1.1296773245772627,1.3016309128671237,-1.4660909060697,-0.2883865243482555,1.9816236690192321
177,1790597859.9536083,0.7579757812500001,-0.8636440429687501,-0.21440214843750105,1.1689211261550425,1.3169976976294842,-1.4835441498456658,-0.2912708673393058,2.0050498493212716
178,1790597859.9791853,0.7627658203125001,-0.9546547851562501,-0.15213164062500106,1.2313900647390257,1.336619007362908,-1.506004293807867,-0.2951093389170449,2.035113958904413
179,1790597859.9991853,0.8106662109375001,-0.9498647460937502,-0.10423125000000105,1.2531108869146699,1.3520205988426455,-1.523789367803367,-0.2980451508326597,2.0588163223221914
180,1790597860.0082402,0.7962960937500001,-0.8444838867187501,-0.08986113281250105,1.1641801952616535,1.3590389646144896,-1.5318522350170418,-0.2993067613755035,2.0695754914165905
181,1790597860.0282402,0.748395703125,-0.8636440429687501,-0.03238066406250105,1.1432522332436093,1.3745325249287283,-1.5495519327548501,-0.3018587155570617,2.0932198973230203
182,1790597860.054506,0.7196554687500001,-0.9163344726562501,-0.08028105468750105,1.1679117720194996,1.394719959769919,-1.5728165570039412,-0.3049293990259494,2.124141621115848
183,1790597860.074506,0.7819259765625001,-0.9115444335937501,-0.18087187500000104,1.214510651416852,1.4100381905759818,-1.590615874807165,-0.3073085584974911,2.147720910685827
184,1790597860.0989285,0.8202462890625001,-0.8732241210937501,-0.18566191406250104,1.2123508925695177,1.4288724664503436,-1.612359861170996,-0.3104493877146593,2.176639535988366
185,1790597860.1189284,0.8010861328125001,-0.8157436523437501,-0.10423125000000105,1.148059602982428,1.444414652211737,-1.6300288952649582,-0.31307049989961994,2.2003047572620598
186,1790597860.1434946,0.805876171875,-0.83011376953125,-0.10902128906250105,1.1620718205989402,1.463602447696969,-1.6515089180063673,-0.31620001704150263,2.229259132971348
187,1790597860.1634946,0.825036328125,-0.8636440429687501,-0.13776152343750106,1.202307869483192,1.4793269183110518,-1.6689138956467005,-0.3187358411888646,2.252836935683693
188,1790597860.1731071,0.8489865234375001,-0.8923842773437501,-0.17608183593750104,1.2442397792933406,1.4869577757691481,-1.6772904188886655,-0.3199980749468365,2.2642317337643973
189,1790597860.1931071,0.8633566406250001,-0.8540639648437501,-0.17608183593750104,1.2271164402382657,1.5030215951846297,-1.6947241190719557,-0.3227586027989339,2.288085853073762
190,1790597860.2789106,0.8298263671875001,-0.8780141601562501,-0.16650175781250107,1.2195259326759484,1.5724968422493866,-1.7694451457148925,-0.3350299044470536,2.3908005938287893
191,1790597860.2989106,0.805876171875,-0.9115444335937501,-0.18087187500000104,1.230066784356716,1.5887153095219355,-1.7869337269312415,-0.33798223943796274,2.4148251434274193
192,1790597860.2799726,0.805876171875,-0.9450747070312501,-0.21440214843750105,1.2603852139408507,1.5887153095219355,-1.7869337269312415,-0.33798223943796274,2.4148251434274193
193,1790597860.2999725,0.8202462890625001,-0.8875942382812501,-0.20482207031250105,1.2257975310131661,1.604927315770067,-1.8046854148031377,-0.34124811109656994,2.4390841331604496
194,1790597860.293639,0.825036328125,-0.8540639648437501,-0.12339140625000106,1.193874213603327,1.604927315770067,-1.8046854148031377,-0.34124811109656994,2.4390841331604496
195,1790597860.313639,0.7962960937500001,-0.8780141601562501,-0.08028105468750105,1.1880409850245621,1.6211702199341775,-1.8223297360915667,-0.3443316835534951,2.463258585155804
196,1790597860.3387122,0.805876171875,-0.8444838867187501,-0.09944121093750105,1.1715280593123785,1.641491795553437,-1.8443709562304487,-0.3479555543290353,2.4934459302026366
197,1790597860.3587122,0.8298263671875001,-0.8396938476562501,-0.17129179687500107,1.1929117474264506,1.6577236129712443,-1.861841425468986,-0.35081868022373713,2.5174540347320638
198,1790597860.3841271,0.8106662109375001,-0.84927392578125,-0.17129179687500107,1.1865019116058457,1.678383162523544,-1.8839312871911489,-0.35456425167373234,2.547917373790835
199,1790597860.4041271,0.8010861328125001,-0.8780141601562501,-0.14255156250000106,1.1970667506829198,1.694619902860282,-1.901298062731451,-0.35754041838823236,2.571868209939575
200,1790597860.4136887,0.7915060546875001,-0.86843408203125,-0.14734160156250106,1.1842166765383075,1.7023600309336233,-1.909607730990668,-0.358957717555876,2.5833083447727603
201,1790597860.4336886,0.7915060546875001,-0.8875942382812501,-0.16171171875000107,1.2001900042985376,1.7184961448290363,-1.9270159856722084,-0.3619411909771552,2.6072247763770684
202,1790597860.4591718,0.7962960937500001,-0.8780141601562501,-0.16171171875000107,1.1963055689653348,1.739006769515338,-1.949244211734996,-0.3657905326286296,2.6377073861903817
203,1790597860.4791718,0.7819259765625001,-0.8828041992187501,-0.14255156250000106,1.187885699447834,1.755056888461172,-1.9667140493237436,-0.3688148511516774,2.6616185353976705
204,1790597860.5036104,0.767555859375,-0.8971743164062501,-0.15213164062500106,1.190465365879735,1.774567261094264,-1.9881214783784709,-0.3724961601743719,2.690812027303662
205,1790597860.5236104,0.7723458984375001,-0.9067543945312501,-0.18087187500000104,1.204755723788428,1.7904489099232521,-2.005718796965291,-0.37555645583001496,2.7147113738040103
