imu_index,t_imu,ax,ay,az,mag,vx,vy,vz,velocity
0,1791341535.0810518,-0.26785898437499983,-0.029937744140625,0.12032578124999949,0.29516605100867993,0.0,0.0,0.0,0.0
1,1791341535.1010518,-0.29659921874999984,0.06586303710937501,0.11074570312499948,0.32337848874195646,-0.0011882063766026397,1.5717300684627854e-05,0.0005000221207975388,0.0012892259492528273
2,1791341535.1264558,-0.24390878906249983,0.051492919921875005,0.1251158203124995,0.27892111192321983,-0.003500906141165735,0.00025628489672817524,0.00148926756199132,0.003813127801260076
3,1791341535.1464558,-0.2630689453124998,-0.001197509765625,0.1394859374999995,0.2977633805183632,-0.005808998177324642,0.0004927123922766896,0.0025481589580610272,0.006362416160642959
4,1791341535.1560242,-0.24869882812499983,-0.015567626953125,0.09637558593749948,0.2671735609758125,-0.007114867973597996,0.0005768266794237627,0.0031480295846005243,0.0078015489209095935
5,1791341535.1760242,-0.29659921874999984,0.017962646484375,0.05805527343749948,0.3027609089789098,-0.010252914048836782,0.0007298625418972425,0.004445447841998858,0.011198971039288906
6,1791341535.2007227,-0.28701914062499984,0.017962646484375,0.03889511718749948,0.29019902462769476,-0.014627967628438952,0.0009570498612830315,0.005986920679715712,0.015834664524417542
7,1791341535.2207227,-0.20079843749999982,-0.034727783203125,0.02931503906249948,0.2058771549829666,-0.01837104428571911,0.0010882752956770602,0.00715023213764712,0.01974349084861326
8,1791341535.2460208,-0.21995859374999982,-0.106578369140625,0.05805527343749948,0.25121931953385995,-0.02319381909915312,0.0009612566008188265,0.008566763796896047,0.02474402353314163
9,1791341535.2660208,-0.26785898437499983,-0.058677978515625,0.07721542968749948,0.2848749958401259,-0.027166382356627543,0.000628017519666019,0.009721559228633594,0.02886027460346354
10,1791341535.2762651,-0.34449960937499985,0.013172607421875001,0.08200546874999948,0.35437042110018924,-0.02936647333468223,0.0004479668116358457,0.010346674958953927,0.031139109060587682
11,1791341535.2962651,-0.3301294921874998,-0.015567626953125,0.08200546874999948,0.3405183248018164,-0.034029349437929735,0.00014558975681920117,0.011630037281920361,0.03596214101975683
12,1791341535.3208396,-0.29659921874999984,-0.087418212890625,0.09158554687499948,0.3224917873442572,-0.04005445797243942,-0.00036003034267066,0.013290347685833186,0.04220334781654047
13,1791341535.3408396,-0.24390878906249983,-0.053887939453125006,0.07721542968749948,0.2614529211584064,-0.045033225539935676,-0.0009217636117279577,0.014692106521394976,0.04737825497760167
14,1791341535.3669481,-0.25827890624999983,0.008382568359375,0.08679550781249948,0.27260176272802317,-0.0515410807037223,-0.0016341756257772745,0.01656867158578859,0.05416340469543267
15,1791341535.386948,-0.22953867187499982,0.017962646484375,0.11553574218749948,0.2576027295617766,-0.05651025464149316,-0.0020585294209056484,0.018094052675930707,0.05937205710822632
16,1791341535.3962727,-0.20079843749999982,-0.049097900390625004,0.1251158203124995,0.24162902312776652,-0.05878045987532919,-0.0022484723591411912,0.018866849289434696,0.061775044259112025
17,1791341535.4162726,-0.21516855468749982,-0.058677978515625,0.1394859374999995,0.2630531103204095,-0.06354331722979562,-0.0027564290511782165,0.020672669834836174,0.06687832491757524
18,1791341535.4410374,-0.2534888671874998,-0.010777587890625,0.1538560546874995,0.29672284669830346,-0.06942670832950361,-0.0034200593650775225,0.0231181443300935,0.07325444172743148
19,1791341535.4610374,-0.26785898437499983,0.085023193359375,0.1490660156249995,0.3181164188371054,-0.07424743144268904,-0.0037642455357948705,0.025251243029635658,0.07851417639402634
20,1791341535.4859679,-0.20558847656249982,0.061072998046875,0.1299058593749995,0.25074302599609877,-0.08024045606034044,-0.003855758133674771,0.028032977487308444,0.08508375571377164
21,1791341535.5059679,-0.21516855468749982,0.008382568359375,0.08200546874999948,0.23041846992703155,-0.08495820839160825,-0.003813976925366132,0.030247696788186965,0.0902627650478826
22,1791341535.5165207,-0.24869882812499983,-0.044307861328125,0.0005748046874994772,0.2526155658043449,-0.08744124606666523,-0.0038236717950171856,0.0313063533781631,0.09295525666429806
23,1791341535.5365207,-0.3013892578124998,-0.111368408203125,0.005364843749999478,0.3213521255864496,-0.09226638381705861,-0.004072803758466723,0.03302068728542793,0.09808179801540028
24,1791341535.5607867,-0.27743906249999983,-0.106578369140625,0.08200546874999948,0.3083119833455412,-0.09829601698561141,-0.0047263874033712395,0.034947700064300646,0.10443077818778655
25,1791341535.5807867,-0.20079843749999982,-0.025147705078125002,0.10116562499999948,0.2262452281370332,-0.10323753998072736,-0.005381856045960215,0.03657245973309703,0.109656275911143
26,1791341535.6060927,-0.21037851562499982,0.037122802734375,0.08679550781249948,0.23058768938489163,-0.10933256776166748,-0.006064088017586384,0.03867663824872998,0.11613038311771717
27,1791341535.6260927,-0.25827890624999983,0.046702880859375004,0.10116562499999948,0.2812892393531997,-0.11413005370330147,-0.0063966574714291145,0.04037211875556102,0.12122909864359459
28,1791341535.6506178,-0.19600839843749981,0.003592529296875,0.09637558593749948,0.21845011350324114,-0.11996618214569295,-0.006650788696335043,0.04250270771416424,0.12744645154704212
29,1791341535.6706178,-0.0906275390624998,-0.029937744140625,0.05326523437499948,0.10930143893736295,-0.12444153499583034,-0.006866461324521627,0.0442040182005036,0.13223781285362396
30,1791341535.6806567,-0.1624781249999998,0.013172607421875001,0.05805527343749948,0.1730406699701236,-0.1265415184428046,-0.006971101111735987,0.04501369988379858,0.1344900937532181
31,1791341535.7006567,-0.2534888671874998,0.008382568359375,0.07721542968749948,0.26512090793094134,-0.13072162018418426,-0.0071159673816949395,0.04658773608346243,0.1389575335443812
32,1791341535.7254815,-0.21995859374999982,-0.034727783203125,0.09158554687499948,0.24078146582964693,-0.13601336264440672,-0.007317860836104043,0.04856271923340549,0.14460817267498421
33,1791341535.7454815,-0.1720582031249998,-0.053887939453125006,0.09158554687499948,0.20222721794432147,-0.1402251557240956,-0.007589040290259671,0.050189937806125476,0.14912986852859755
34,1791341535.77056,-0.1768482421874998,-0.034727783203125,0.06284531249999949,0.19086867997194937,-0.14537050271604304,-0.008044750300894072,0.05221475790694816,0.15467282246923672
35,1791341535.79056,-0.22953867187499982,-0.020357666015625,0.06284531249999949,0.2388555416040523,-0.14946795829939682,-0.008436290490185053,0.053775858241361746,0.15907131886364698
36,1791341535.8009253,-0.2534888671874998,-0.0059875488281250005,0.08200546874999948,0.2664908130384202,-0.15164848607058953,-0.008629253725463425,0.05457616561144276,0.16140100743244398
37,1791341535.8209252,-0.24390878906249983,-0.020357666015625,0.09158554687499948,0.2613309096603988,-0.1559708530273793,-0.008985249413696371,0.056149131448134784,0.1660131520798717
38,1791341535.8454988,-0.2534888671874998,-0.06346801757812501,0.07242539062499947,0.27116458517011927,-0.16140174827926887,-0.009511535484864629,0.058094176559863674,0.17180199942099894
39,1791341535.8654988,-0.2822291015624998,-0.039517822265625,0.07242539062499947,0.29404142778285025,-0.16596241599923944,-0.0100300986267116,0.05965703408742386,0.1766439586254628
40,1791341535.8911428,-0.2726490234374998,-0.020357666015625,0.07721542968749948,0.28410235326172717,-0.17200016782186536,-0.010710425800270837,0.06164815640043692,0.18302804741117054
41,1791341535.9111428,-0.25827890624999983,-0.010777587890625,0.09158554687499948,0.2742481763126768,-0.17679911031925624,-0.011208131681329218,0.06322131405141614,0.18809700203845445
42,1791341535.921031,-0.2630689453124998,-0.034727783203125,0.10595566406249948,0.2857234531167498,-0.17920249324642837,-0.0114510388123843,0.0640289290754715,0.190641977628671
43,1791341535.941031,-0.25827890624999983,0.017962646484375,0.12032578124999949,0.2854977122777721,-0.18411646810916016,-0.011893798285357355,0.06575682212632261,0.19586805743356162
44,1791341535.9657078,-0.1816382812499998,-0.0059875488281250005,0.10116562499999948,0.2079971144945615,-0.190084254036282,-0.012335985888324777,0.06797890329680575,0.2022506649526849
45,1791341535.9857078,-0.1720582031249998,-0.010777587890625,0.07242539062499947,0.18699095932832582,-0.19472603897435325,-0.012665759053692431,0.06977009357480889,0.2072354160477526
46,1791341536.0105002,-0.21037851562499982,-0.039517822265625,0.06763535156249947,0.22448901731304968,-0.20032810738292794,-0.013106755162306822,0.07191786735929025,0.21324942504967986
47,1791341536.0305002,-0.23432871093749982,-0.010777587890625,0.09637558593749948,0.25360274985726566,-0.20483646355575752,-0.013484585904364448,0.07363659578276233,0.21808750330432805
48,1791341536.0410628,-0.20079843749999982,-0.020357666015625,0.11553574218749948,0.2325574225666887,-0.20720503253634287,-0.013678864518412784,0.07457603203515392,0.2206413864101844
49,1791341536.0610628,-0.21516855468749982,-0.0059875488281250005,0.10595566406249948,0.2399165696949713,-0.21164105634961952,-0.014031062424999942,0.07642023679933052,0.22545256715775674
50,1791341536.0858235,-0.23432871093749982,0.008382568359375,0.07242539062499947,0.2454091469956116,-0.21714396578975845,-0.014397243778268834,0.07869221529301465,0.23141142421029448
51,1791341536.1058235,-0.1816382812499998,-0.025147705078125002,0.05805527343749948,0.19234158952252947,-0.22154605135519906,-0.014673800799883304,0.08044780967239874,0.23615635367713833
52,1791341536.130291,-0.19600839843749981,-0.034727783203125,0.07242539062499947,0.2118271663206131,-0.22681664535838952,-0.015071258826160535,0.08251283664113443,0.24182907530899816
53,1791341536.150291,-0.23911874999999982,-0.025147705078125002,0.08679550781249948,0.2556240283085462,-0.23113134133703006,-0.015437225595800198,0.08418644738815208,0.24646980100245228
54,1791341536.1608543,-0.2726490234374998,-0.025147705078125002,0.09637558593749948,0.2902725454067522,-0.233473846928477,-0.0156413708002103,0.08508292241621233,0.24898552842881208
55,1791341536.1808543,-0.23911874999999982,-0.034727783203125,0.10116562499999948,0.2619509099228445,-0.23801136898996797,-0.01605972152483754,0.08682196063656102,0.25386094475659415
56,1791341536.2061322,-0.23432871093749982,-0.015567626953125,0.11553574218749948,0.26172658157206413,-0.2437836534559896,-0.016604511797635325,0.08910105729827014,0.2600868660968052
57,1791341536.2261322,-0.2918091796874998,0.037122802734375,0.11553574218749948,0.3160367186824392,-0.24845486416572213,-0.01693856405013484,0.09098041328815348,0.2651304774667959
58,1791341536.250621,-0.26785898437499983,0.013172607421875001,0.08679550781249948,0.28187836609631267,-0.25434449387490826,-0.017193863025597368,0.09330802568787032,0.27146480093742265
59,1791341536.270621,-0.27743906249999983,-0.06346801757812501,0.09158554687499948,0.29897915487968174,-0.2592509661316071,-0.0174465322345212,0.09519140381514454,0.27672522163236185
60,1791341536.2961924,-0.26785898437499983,-0.058677978515625,0.09158554687499948,0.28910111218997286,-0.265629038402573,-0.01795538671668464,0.09758952248385296,0.28355757237895757
61,1791341536.3161924,-0.25827890624999983,-0.039517822265625,0.1346958984374995,0.2939602638898647,-0.27065842503804793,-0.01844096977733173,0.09952322794688627,0.2889652666175867
62,1791341536.3262339,-0.2726490234374998,-0.039517822265625,0.19696640624999948,0.33866637484267564,-0.27320462918202343,-0.018707721298440852,0.10059824051139167,0.29173747485822743
63,1791341536.3462338,-0.2822291015624998,0.056282958984375006,0.19696640624999948,0.3487360067900252,-0.2783476098846724,-0.01913417772933813,0.10300911039885467,0.2974128200179863
64,1791341536.370432,-0.21995859374999982,0.07065307617187501,0.19217636718749947,0.30050856267735676,-0.2845481429286813,-0.019342382950105284,0.10619473055688286,0.30433385322766626
65,1791341536.390432,-0.1481080078124998,0.008382568359375,0.21612656249999948,0.26213916237096907,-0.28945633456306136,-0.019370101077214805,0.10904519442398469,0.30992099777425386
66,1791341536.4156609,-0.1768482421874998,0.061072998046875,0.2448667968749995,0.3081638526288644,-0.2953339309500112,-0.019268399387816056,0.11297383389704103,0.3167909233717889
67,1791341536.4356608,-0.23911874999999982,0.15687377929687502,0.1538560546874995,0.3247442760025955,-0.2999183681227109,-0.018872950117697893,0.11621914372065352,0.322201963294293
68,1791341536.4459229,-0.33491953124999985,0.15687377929687502,0.20175644531249948,0.42129103748921587,-0.30235961506829007,-0.018459004373841206,0.11790823748547052,0.3250606468547802
69,1791341536.4659228,-0.3828199218749998,0.013172607421875001,0.4220982421874995,0.5699925755906377,-0.30748037718911925,-0.017518195183645544,0.12164216047694765,0.3311312197971596
70,1791341536.490966,-0.5696314453124999,-0.101788330078125,0.5705894531249995,0.8126580902485294,-0.31471954031729865,-0.016683297095444454,0.12748083011929134,0.3399677683360737
71,1791341536.510966,-0.49299082031249986,0.080233154296875,0.3310874999999995,0.5992463939124435,-0.3212275971629872,-0.01614888012700082,0.13279677922494182,0.34796974018006305
72,1791341536.5360913,-0.4019800781249998,0.15208374023437501,0.21133652343749948,0.4789369200549343,-0.3298635401540774,-0.015140439674480616,0.13949542249595528,0.35846640140164077
73,1791341536.5560913,-0.3828199218749998,-0.140108642578125,0.3358775390624995,0.5282000052595103,-0.33688389690970355,-0.014440157027381072,0.14484860600607233,0.36698827882365065
74,1791341536.565934,-0.40677011718749984,-0.427510986328125,0.3262974609374995,0.6743126905837066,-0.34040347230363327,-0.014566235573822575,0.1475767247660938,0.37130255704458853
75,1791341536.585934,-0.30617929687499984,-0.298179931640625,0.2544468749999995,0.4973934515706278,-0.34755182950049934,-0.015872531036804128,0.1531597878451366,0.38013436051405003
76,1791341536.6111844,-0.5025708984374998,-0.279019775390625,0.3262974609374995,0.6609837940748393,-0.3567546468109541,-0.01836746560658418,0.1602510248405875,0.3915247537212382
77,1791341536.6311843,-0.6462720703124999,-0.336500244140625,0.3119273437499995,0.7925898503965563,-0.36467375321101775,-0.02097047215200444,0.16598257253141235,0.4012192933639082
78,1791341536.655285,-0.49778085937499983,-0.437091064453125,0.3550376953124995,0.7515890816647688,-0.3748530102985566,-0.02503496185740481,0.17305881431899442,0.4136313356826193
79,1791341536.6752849,-0.45467050781249985,-0.29338989257812503,0.41251816406249947,0.6804220274381007,-0.3834619064551491,-0.028997682454876904,0.17920156983049912,0.4242606532777776
80,1791341536.6858468,-0.47383066406249985,-0.077838134765625,0.3981480468749995,0.62377571342597,-0.38806180189427986,-0.031070547092473977,0.18260111417793784,0.4300005905636471
81,1791341536.7058468,-0.3588697265624998,0.080233154296875,0.29276718749999947,0.47003985551028477,-0.3967146166273117,-0.034403335481751014,0.1891092253314284,0.4408269225483827
82,1791341536.7311883,-0.22474863281249982,0.199984130859375,0.3502476562499995,0.4617131374081588,-0.4071430627406821,-0.037460214650619564,0.19734068276380462,0.4539956897297794
83,1791341536.7511883,-0.3301294921874998,0.15687377929687502,0.4029380859374995,0.5440165120121235,-0.4149711504775994,-0.0389755912092789,0.20399241375195912,0.46403993072489547
84,1791341536.7757502,-0.22953867187499982,0.017962646484375,0.4460484374999995,0.5019660019872386,-0.4241737301425279,-0.040235390603719154,0.2124999822352612,0.4761286406529713
85,1791341536.7957501,-0.1864283203124998,0.037122802734375,0.4508384765624995,0.4892739039092426,-0.43116704965434605,-0.04102470584204136,0.21973364374736015,0.48566544595179006
86,1791341536.8061957,-0.21516855468749982,0.396375732421875,0.4556285156249995,0.64109950275283,-0.4345862702101688,-0.041035501776686814,0.22365508644845358,0.4904801080120534
87,1791341536.8261957,-0.22953867187499982,0.7125183105468751,0.4508384765624995,0.8738567827166575,-0.4408180392884518,-0.03938973245298885,0.2313968503953492,0.4994162564011315
88,1791341536.8514183,-0.1576880859374998,0.7939489746093751,0.3885679687499995,0.8978895105013819,-0.4482307532154372,-0.034775765426200214,0.24128360087936845,0.5102332192658281
89,1791341536.8714182,-0.013986914062499805,0.559237060546875,0.22570664062499948,0.6032289874304149,-0.45348443227428203,-0.029636176016033917,0.24886867856344613,0.518133238090259
90,1791341536.895525,0.019543359375000197,0.310155029296875,0.1346958984374995,0.33870498985059394,-0.45885697722828783,-0.02279860835553451,0.25729148464335816,0.5265628264167667
91,1791341536.915525,-0.1289478515624998,0.358055419921875,0.07242539062499947,0.3873973017009779,-0.46280978246906296,-0.01697446643131723,0.2635418977064874,0.5328558520898743
92,1791341536.9408967,-0.0954175781249998,0.449066162109375,0.03889511718749948,0.4607361091860646,-0.46749904210419513,-0.00915842301881896,0.27049356128171553,0.540190705006479
93,1791341536.9608967,0.0387035156250002,0.281414794921875,-0.05690566406250053,0.2897076173058792,-0.4707260805533129,-0.002825681052303827,0.2751244024373806,0.5452379885912382
94,1791341536.9709392,0.0722337890625002,-0.029937744140625,-0.11438613281250053,0.13855748332859655,-0.4720198363040503,6.65642907467334e-05,0.2769718483631246,0.5472806730380609
95,1791341536.9909391,0.0387035156250002,-0.092208251953125,-0.17186660156250053,0.19884278358197693,-0.47404352085661966,0.004779384476110949,0.279669855573282,0.5504137809852614
96,1791341537.0150733,0.0387035156250002,0.104183349609375,-0.16707656250000053,0.2006656677022267,-0.47597910812543187,0.009635012719084748,0.28182370084149894,0.5532391374423696
97,1791341537.0350733,0.1440843750000002,0.195194091796875,-0.22455703125000054,0.33058569369432983,-0.47706834476948407,0.013504359271807685,0.2827534090984021,0.5547306226063292
98,1791341537.060396,0.3021556640625002,-0.015567626953125,-0.28203750000000055,0.4136248877186338,-0.47739309792063994,0.01800975378458825,0.28279185015477537,0.5551574116298982
99,1791341537.080396,0.3931664062500002,-0.34129028320312504,-0.35388808593750054,0.6295201805986185,-0.4765681337779592,0.02049909383844725,0.2818637694898226,0.5540618950368417
100,1791341537.0904596,0.3740062500000002,-0.360450439453125,-0.34430800781250054,0.6231799086819364,-0.4756362504315092,0.02103414278153466,0.28093984433360003,0.5528105227121556
101,1791341537.1104596,0.3261058593750002,-0.365240478515625,-0.3778382812500005,0.6184718307594814,-0.4730119024719914,0.02084943706348806,0.2782958884820461,0.5492026588173518
102,1791341537.1356678,0.5368675781250002,-0.681383056640625,-0.5263294921875006,1.0146587606999096,-0.4685687518837185,0.01867278752213689,0.27375384822211374,0.5429977142236685
103,1791341537.1556678,0.6853587890625003,-1.0023156738281251,-0.46884902343750057,1.3016039284379266,-0.46373903259710136,0.014679348218997162,0.26919801095781903,0.5364111694604019
104,1791341537.1812022,0.6901488281250002,-0.9496252441406251,-0.33951796875000056,1.2220335348817475,-0.4558635537961209,0.00660749553739976,0.2627058716998872,0.5261840112569967
105,1791341537.2012022,0.6566185546875002,-0.686173095703125,-0.41136855468750055,1.034990594842482,-0.448600161924501,-0.0012201818258333798,0.25725728363331224,0.5171314186014683
106,1791341537.210413,0.6709886718750002,-0.901724853515625,-0.49279921875000054,1.2272671181258639,-0.4448397045531233,-0.005381346562390963,0.2544997671493027,0.5125245878168031
107,1791341537.230413,0.8625902343750003,-1.2370275878906252,-0.45926894531250056,1.5764603165858861,-0.4355988401607217,-0.01626953701439998,0.24798224857532922,0.501503981033556
108,1791341537.255878,1.0158714843750003,-1.337618408203125,-0.44968886718750056,1.7388035990308124,-0.42201015636015704,-0.03297068809889897,0.23919257609782235,0.48620235170672677
109,1791341537.275878,0.9152806640625002,-1.2418176269531251,-0.44489882812500053,1.6055480932956139,-0.41004186996920655,-0.047989226577715,0.2319828685591716,0.4735539592277873
110,1791341537.300484,0.9200707031250003,-1.208287353515625,-0.46405898437500054,1.5880299645768283,-0.3941389203322779,-0.06821649083147187,0.2227658414162486,0.4578466973168456
111,1791341537.320484,0.9200707031250003,-1.351988525390625,-0.45926894531250056,1.6986262201159223,-0.380391553176288,-0.08603167590920166,0.21501291704016928,0.44534227003703275
112,1791341537.331041,0.8865404296875002,-1.409468994140625,-0.6460804687500006,1.7860506014708832,-0.37279292644450557,-0.09621148862507467,0.2106591296890892,0.43887183262528473
113,1791341537.351041,0.8386400390625003,-1.423839111328125,-0.6365003906250005,1.770809893052384,-0.35796925844145366,-0.11685377292850799,0.2017244532141591,0.4271879554263006
114,1791341537.3754427,0.7667894531250002,-1.5579602050781252,-0.5838099609375006,1.8319498182321088,-0.33965791485243285,-0.14371836767486307,0.19022523242875178,0.41497964694862116
115,1791341537.3954427,0.8003197265625003,-1.778302001953125,-0.7370912109375005,2.084747737285468,-0.3245502325420227,-0.1674385971248237,0.18023268459294214,0.4072497487363117
116,1791341537.4203541,0.8290599609375002,-2.1710852050781253,-0.8376820312500005,2.470356770188861,-0.3055109303306398,-0.1999309084452398,0.16671098192154907,0.4013749471460307
117,1791341537.440354,0.7428392578125003,-2.1710852050781253,-0.6987708984375005,2.3986875367916727,-0.2901603261615202,-0.22861748751331382,0.15517885494459135,0.40067374196093075
118,1791341537.4504478,0.6470384765625002,-2.0178039550781253,-0.5981800781250005,2.201819928410786,-0.28252301584921474,-0.2440946198506595,0.14924995137532454,0.4020907682478054
119,1791341537.4704478,0.7428392578125003,-2.1279748535156253,-0.6796107421875005,2.35413633866837,-0.2675752973023719,-0.27638016409543276,0.13734769431378885,0.4084690000051228
120,1791341537.4963467,0.6661986328125002,-2.271676025390625,-0.6700306640625006,2.4603401540193235,-0.2483853146142091,-0.3204630171939378,0.12162524142105377,0.42330191265309836
121,1791341537.5163467,0.6518285156250002,-2.472857666015625,-0.5454896484375006,2.614854567027888,-0.23381202752966312,-0.35651566618170305,0.10948179081226712,0.44017922142006716
122,1791341537.5561457,0.7955296875000002,-2.520758056640625,-0.47842910156250057,2.686258191059521,-0.2048416708027994,-0.43240276858798143,0.08588533476840224,0.4861157836443026
123,1791341537.5761456,0.8098998046875002,-2.602188720703125,-0.48321914062500054,2.767819461174045,-0.1900589489934278,-0.4725020742936991,0.07436372555468987,0.5146946453798679
124,1791341537.5705023,0.6039281250000003,-2.597398681640625,-0.41136855468750055,2.6982277849247933,-0.1900589489934278,-0.4725020742936991,0.07436372555468987,0.5146946453798679
125,1791341537.5905023,0.6422484375000003,-2.549498291015625,-0.5071693359375006,2.67761933939051,-0.1757065405338476,-0.5158236283779986,0.063520959152061,0.5486180057480925
126,1791341537.6155806,0.6374583984375002,-2.674039306640625,-0.5406996093750005,2.801641570718113,-0.15800236769088014,-0.5718217876937426,0.049993520730241714,0.595352212721341
127,1791341537.6355805,0.5560277343750002,-2.918331298828125,-0.48321914062500054,3.0098712844539404,-0.14421090042713003,-0.6181701625134326,0.039287713712936705,0.6359832215339308
128,1791341537.6603742,0.6182982421875002,-2.697989501953125,-0.40178847656250055,2.7969401224981274,-0.1274947319380453,-0.6774525097309705,0.026360992002799045,0.6898490498015608
129,1791341537.6803741,0.6901488281250002,-2.357896728515625,-0.43531875000000053,2.4950921428693893,-0.11407046391405222,-0.7256838348433128,0.016242003154641374,0.7347740479609626
130,1791341537.706181,0.7619994140625003,-2.348316650390625,-0.5167494140625005,2.5223529004616654,-0.09653614237376315,-0.7876926446925273,0.0033008073869443717,0.7935929842283898
131,1791341537.726181,0.7619994140625003,-2.405797119140625,-0.5694398437500006,2.5870378082175276,-0.08269962542126691,-0.8356713572753343,-0.0068533301402890195,0.8397814081945546
132,1791341537.7506223,0.5320775390625002,-2.357896728515625,-0.43052871093750056,2.455226763633249,-0.06595472744754227,-0.8942417212040134,-0.019234014453247,0.8968769309813825
133,1791341537.7706223,0.5081273437500002,-2.3004162597656252,-0.36346816406250054,2.383740227446662,-0.052747591571448774,-0.9419675077271639,-0.029036331684681532,0.9438899313945539
134,1791341537.7811708,0.5608177734375003,-2.305206298828125,-0.34430800781250054,2.397298617069653,-0.04598093699573088,-0.9670074333323587,-0.0339908162670416,0.9686965460233361
135,1791341537.8011708,0.38837636718750024,-2.3243664550781253,-0.32514785156250053,2.37891503535917,-0.03365208774750239,-1.014305829765608,-0.04297958705668224,1.0157736087385945
136,1791341537.8256602,0.3931664062500002,-2.3004162597656252,-0.38262832031250055,2.36493112430421,-0.019384750242896178,-1.0720283921394227,-0.0536350813617128,1.0735442999931082
137,1791341537.8456602,0.4219066406250002,-2.209405517578125,-0.4065785156250005,2.2857786515487377,-0.008258082170882147,-1.1188628021151008,-0.06221569114069596,1.120621683755098
138,1791341537.8562078,0.3931664062500002,-2.3004162597656252,-0.43052871093750056,2.3731518624266577,-0.0026254924421065676,-1.1434250966632034,-0.06672437712770865,1.1453732960886158
139,1791341537.8762078,0.4027464843750002,-2.276466064453125,-0.42094863281250056,2.3498298288918362,0.007646610580988529,-1.1898782920921405,-0.0752683931866003,1.192281070745644
140,1791341537.9005523,0.39795644531250024,-2.108814697265625,-0.40178847656250055,2.183323782600209,0.019736487989860746,-1.2459474118321716,-0.08561055366572362,1.249041091761361
141,1791341537.9205523,0.3644261718750002,-2.056124267578125,-0.32035781250000056,2.112600900904128,0.029322550520980165,-1.2913484756578275,-0.09391581248288651,1.2950910691481008
142,1791341537.9457097,0.3644261718750002,-2.195035400390625,-0.2868275390625005,2.2434921174098537,0.040947103803174734,-1.3479120880832531,-0.1039413774058394,1.3525337232201815
143,1791341537.9657097,0.3261058593750002,-2.348316650390625,-0.29161757812500055,2.388718680358163,0.04983811689301387,-1.3929496016816714,-0.11158375433449289,1.3983001698319102
144,1791341537.975668,0.3644261718750002,-2.3339465332031253,-0.4065785156250005,2.3969603551094005,0.054116769243689807,-1.4155077247415035,-0.11533967450676579,1.4212297435782753
145,1791341537.995668,0.4506468750000002,-2.2141955566406253,-0.36346816406250054,2.288635767281749,0.06264356210564159,-1.4608394148107124,-0.12290655992625893,1.4673384184334217
146,1791341538.0212357,0.4314867187500002,-2.156715087890625,-0.23413710937500054,2.211881765551493,0.07360060595240413,-1.5184798292305062,-0.13227493173891552,1.5260061266400613
147,1791341538.0412357,0.4602269531250002,-2.185455322265625,-0.21976699218750054,2.2441749808909752,0.08222350228678452,-1.5633181304662547,-0.13918480795451182,1.5716541261162218
148,1791341538.066292,0.4314867187500002,-2.156715087890625,-0.19102675781250053,2.2077345811924642,0.09308172616383205,-1.619226200923694,-0.14731508508224905,1.6285758907082617
149,1791341538.086292,0.40753652343750024,-2.185455322265625,-0.22455703125000054,2.2344410584838625,0.10170723627584573,-1.6636713849633853,-0.15345460726886537,1.6738265010295723
150,1791341538.0963461,0.4266966796875002,-2.147135009765625,-0.26287734375000055,2.2048499505577754,0.10602197852304913,-1.6859298445323394,-0.15644557995804445,1.6964891158221997
151,1791341538.1163461,0.4027464843750002,-2.266885986328125,-0.22455703125000054,2.313309894063282,0.11456171945815605,-1.730186562586042,-0.16223401383853087,1.7415481056131275
152,1791341538.1408951,0.4123265625000002,-2.271676025390625,-0.18144667968750053,2.3159119275238496,0.12497221247626367,-1.7847173822948694,-0.169020806722279,1.7970537614834214
153,1791341538.160895,0.35005605468750023,-2.3243664550781253,-0.16707656250000053,2.356508696494169,0.13332496528075255,-1.8293735792810273,-0.1742433888034165,1.8424831064300942
154,1791341538.1859622,0.35005605468750023,-2.305206298828125,-0.17186660156250053,2.337959249070198,0.14353982343166222,-1.8856519092651534,-0.18044450300395107,1.8996965606355278
155,1791341538.2059622,0.49854726562500024,-2.175875244140625,-0.25329726562500054,2.246584509627735,0.15174023318759988,-1.930540327123839,-0.18528771587219928,1.9453386827677035
156,1791341538.2155082,0.5129173828125002,-2.209405517578125,-0.28203750000000055,2.285629483118849,0.15579135932236102,-1.951891534616181,-0.18763591655391426,1.9670685671137258
157,1791341538.2355082,0.35005605468750023,-2.276466064453125,-0.20539687500000053,2.3123634792760943,0.16430023048966538,-1.9966434451140136,-0.19254883989168287,2.0126238268487597
158,1791341538.2605913,0.3165257812500002,-2.2237756347656252,-0.15270644531250052,2.251374225315099,0.1746249469817055,-2.0528163707093765,-0.19845984451406934,2.0697669515782033
159,1791341538.2805912,0.3404759765625002,-2.156715087890625,-0.16228652343750052,2.1894475962307673,0.1826079991272534,-2.0974581585562064,-0.20293850192609927,2.115150217786732
160,1791341538.3059428,0.4314867187500002,-2.0944445800781253,-0.24371718750000054,2.1522725094558046,0.19267704764767044,-2.1536400460655782,-0.20853595117955995,2.1722746455367776
161,1791341538.3259428,0.35963613281250023,-2.123184814453125,-0.23892714843750054,2.166642122411811,0.20061573746632938,-2.19764039925087,-0.21301340121100085,2.217035116463914
162,1791341538.3510687,0.3452660156250002,-2.190245361328125,-0.24850722656250054,2.2311744006282246,0.21042146036287374,-2.252754841662592,-0.21871321443064945,2.273107352894289
163,1791341538.3710687,0.3548460937500002,-2.242935791015625,-0.20060683593750053,2.2796753750245617,0.21810608030154172,-2.2966944804550358,-0.2232433207650893,2.3178035678381708
164,1791341538.3812351,0.36921621093750023,-2.3435266113281252,-0.20060683593750053,2.38089913500068,0.22197847812619217,-2.3191766866904833,-0.2255065736127164,2.3406640432967767
165,1791341538.401235,0.3740062500000002,-2.4201672363281252,-0.20539687500000053,2.4574942529118853,0.22956862721816182,-2.363916343661139,-0.22990012736875343,2.386138366272008
166,1791341538.4256363,0.4506468750000002,-2.544708251953125,-0.26287734375000055,2.5976387723012317,0.2389491912155332,-2.41939983537207,-0.2353134523101937,2.4425324358581397
167,1791341538.4456363,0.35963613281250023,-2.559078369140625,-0.30598769531250053,2.602277601853889,0.2466999290187315,-2.465710120374578,-0.23993814070327163,2.4896099220680346
168,1791341538.4707663,0.3261058593750002,-2.645299072265625,-0.41136855468750055,2.696882700644166,0.2562703836306742,-2.524979739060284,-0.24622947381196983,2.5498678683345286
169,1791341538.4907663,0.41711660156250024,-2.8560607910156253,-0.45926894531250056,2.9226695785538785,0.26385944452792454,-2.5733265268093692,-0.2517913945270033,2.5990440793501772
170,1791341538.501365,0.37879628906250024,-3.0093420410156253,-0.41136855468750055,3.060857761513477,0.2679105580987649,-2.5997664266789346,-0.2549887946142424,2.625943797153049
171,1791341538.521365,0.2829955078125002,-2.947071533203125,-0.31556777343750053,2.977398209660672,0.2754011293134087,-2.6511099741471513,-0.2612077475370124,2.6781447616630008
172,1791341538.5455837,0.2686253906250002,-2.8464807128906253,-0.25329726562500054,2.8703260362056184,0.2841131430098566,-2.7144813467868296,-0.26864220710066866,2.7424984768492577
173,1791341538.5655837,0.3452660156250002,-2.7698400878906253,-0.16228652343750052,2.7959899230363727,0.29114923291840583,-2.767388305068765,-0.2744840779095683,2.7961665572505177
174,1791341538.5911994,0.4266966796875002,-2.721939697265625,-0.023375390625000523,2.7552807807723863,0.3002922754301332,-2.835537095620952,-0.2812006248338121,2.865225970622987
175,1791341538.6111994,0.2159349609375002,-2.765050048828125,0.1538560546874995,2.777733134309972,0.30732404842857275,-2.8889948622980173,-0.2854623743984793,2.9192855551185954
176,1791341538.6209948,0.2686253906250002,-2.630928955078125,0.1251158203124995,2.647565057869094,0.3106074038058922,-2.915213848437133,-0.28703161790638326,2.945731809092035
177,1791341538.6409948,0.3356859375000002,-2.5303381347656253,0.06284531249999949,2.553281351161219,0.3172121397840264,-2.9684588447816487,-0.28947310173510377,2.999360953839484
178,1791341538.6660779,0.1392943359375002,-2.401007080078125,0.1490660156249995,2.4096594339499235,0.3251465420180748,-3.034496670371827,-0.29167714594562694,3.0657732913167277
179,1791341538.6860778,-0.1720582031249998,-2.204615478515625,0.3071373046874995,2.2325471455949106,0.3304749172794524,-3.0861620666329657,-0.2924866269983238,3.1175564789507786
180,1791341538.711077,-0.3828199218749998,-1.8022521972656251,0.3167173828124995,1.869484949313247,0.33509576625972026,-3.148567336815543,-0.29217698452907814,3.17980075434223
181,1791341538.731077,-0.3205494140624998,-1.304088134765625,0.3215074218749995,1.3808565502661772,0.3371829954536578,-3.1956638430831386,-0.29100908432761236,3.2265532782790354
182,1791341538.7406332,-0.22953867187499982,-1.059796142578125,0.3358775390624995,1.1351958363896042,0.337636448449613,-3.216486000754884,-0.290063587727377,3.247139887547054
183,1791341538.7606332,-0.20558847656249982,-1.011895751953125,0.4268882812499995,1.1173330923160956,0.3377904198013319,-3.2566347109907237,-0.2872374671666364,3.2866818177431623
184,1791341538.7857635,-0.46425058593749985,-0.887354736328125,0.4652085937499995,1.1042400419863971,0.3366923741570873,-3.3030946931924237,-0.2825376664388203,3.3322100533982217
185,1791341538.8057635,-0.5265210937499998,-0.5951623535156251,0.3167173828124995,0.8554253852800683,0.33446341836627635,-3.33674745191502,-0.2781854840565021,3.364986849844496
186,1791341538.8313403,-0.43551035156249984,-0.159268798828125,0.1442759765624995,0.48564531708985814,0.33019507847381396,-3.3747757462451893,-0.272570284676513,3.4018281390131597
187,1791341538.8513403,-0.3636597656249998,0.233514404296875,-0.004215234375000523,0.43219806842394654,0.3261593149593878,-3.3999403949221705,-0.2686279760197001,3.4260962591933612
188,1791341538.8617983,-0.29659921874999984,0.540076904296875,-0.06169570312500053,0.6192418904613078,0.3238476851298179,-3.4105184372883945,-0.2669274545861343,3.436242657359903
189,1791341538.8817983,-0.5552613281249998,0.5783972167968751,-0.08085585937500053,0.8058511977435908,0.3188122269866825,-3.426035858398042,-0.26437700008658443,3.4509793011955603
190,1791341538.9068115,-0.38760996093749983,0.803529052734375,-0.14791640625000052,0.9043117181835517,0.31169040321437425,-3.4399393641328544,-0.2620948825073307,3.4639612387847554
191,1791341538.9268115,-0.24390878906249983,0.688568115234375,-0.40178847656250055,0.8336975030535774,0.30590284773726906,-3.447150602953764,-0.2613684200297653,3.4705528785320534
192,1791341538.9508977,-0.29659921874999984,1.124461669921875,-0.5694398437500006,1.2948539992356771,0.2990019134051465,-3.4512573234142256,-0.26237925771666537,3.474107386296545
193,1791341538.9708977,-0.3684498046874998,1.009500732421875,-0.44968886718750056,1.1649322145974572,0.2931336849364035,-3.4509548921399262,-0.26462139511260346,3.473476861529414
194,1791341538.9815204,-0.12415781249999981,1.3400134277343752,-0.45447890625000054,1.420423255631719,0.2900919109968934,-3.448946483621563,-0.2663540012925911,3.4713584686280887
195,1791341539.0015204,0.3308958984375002,1.325643310546875,-0.5886000000000006,1.4877070418602043,0.28553414864845633,-3.4417338680343694,-0.2706913752401188,3.4641500529059948
196,1791341539.026058,0.7428392578125003,1.239422607421875,-0.6652406250000006,1.5907619721021298,0.28275711119960145,-3.429491675309387,-0.2775220590694869,3.4523011497000806
197,1791341539.046058,0.6230882812500003,1.268162841796875,-0.6412904296875006,1.5516859910285279,0.28288202827610126,-3.417248730034484,-0.28421425173188586,3.440695985659211
198,1791341539.0706484,0.5129173828125002,1.330433349609375,-0.6269203125000006,1.5576155551255724,0.285107699113394,-3.3996611087070465,-0.2935471861348628,3.424200929360988
199,1791341539.0906484,1.0541917968750003,1.1819421386718751,-0.7754115234375005,1.7633974578768263,0.28899701906929964,-3.3837338141231696,-0.30210275823552807,3.40946328304104
200,1791341539.115727,1.8253880859375002,0.961600341796875,-0.9143226562500005,2.256701752859357,0.2985585804010808,-3.3627261183588786,-0.31439982291439716,3.3905621099859955
201,1791341539.135727,1.8972386718750003,0.798739013671875,-0.7897816406250006,2.2048250792042103,0.31062400972988574,-3.34584512745082,-0.3252917867891946,3.3759415929277528
202,1791341539.1459959,1.8445482421875004,0.6550378417968751,-0.8328919921875005,2.12723808319449,0.3187715327533507,-3.3373581054169725,-0.33129509811317354,3.3688767944108764
203,1791341539.1659958,2.2133812500000003,0.506546630859375,-1.1921449218750007,2.5645380796234822,0.33834646764243975,-3.321565650715551,-0.3442710013957406,3.3564563495719058
204,1791341539.1911278,2.548683984375,0.228724365234375,-1.2975257812500005,2.8690901067184904,0.36823061770211724,-3.3033116865053973,-0.36282344330607125,3.3435165226193946
205,1791341539.2111278,2.644484765625,-0.07304809570312501,-1.3071058593750007,2.9507899666904494,0.3962348812390641,-3.290730654176042,-0.3792798042819152,3.336130016857938
206,1791341539.2351966,2.7929759765625004,-0.317340087890625,-1.4891273437500006,3.1810249579249787,0.434696680236782,-3.2785658987476274,-0.40116110471248523,3.3314990301925436
207,1791341539.2551966,2.9845775390625002,-0.671802978515625,-1.7046791015625007,3.5021355153567044,0.4705288384854986,-3.2714575605336926,-0.42140672455067174,3.3318786871247426
208,1791341539.2653155,3.1330687500000005,-0.968785400390625,-1.9058607421875007,3.793015965277246,0.4905814996638651,-3.2696456539158487,-0.43285359871870505,3.3344587488686943
209,1791341539.2853155,3.2480296875000003,-1.251397705078125,-2.0112416015625008,4.020047990635415,0.5338418641064743,-3.2699318992267434,-0.45796014087456033,3.3447225971794943
210,1791341539.3110633,3.4683714843750004,-1.294508056640625,-2.0304017578125007,4.22230780029846,0.5941508111609495,-3.275161488033304,-0.493238515711733,3.364963921423416
211,1791341539.3310633,3.5402220703125002,-1.4046789550781251,-1.8196400390625007,4.221064456476172,0.6444827081043274,-3.282663103677322,-0.5223061399759504,3.3858586380926323
212,1791341539.355631,3.669553125,-1.534010009765625,-1.7908998046875007,4.361895110807701,0.7103206147535961,-3.295910591456238,-0.5593093815900473,3.417661332980782
213,1791341539.375631,3.6743431640625004,-1.692081298828125,-1.8819105468750006,4.4615607264247865,0.7668936988306596,-3.3099164659638927,-0.5904233843048912,3.4485174683766813
214,1791341539.4015338,3.5929125,-1.8022521972656251,-1.8579603515625007,4.428221977632025,0.8432913299204299,-3.332123545869426,-0.6319412594438409,3.494787167689024
215,1791341539.4215338,3.2336595703125,-1.6777111816406252,-1.8052699218750006,4.065743292007277,0.9036709736412584,-3.351918001250076,-0.6646842974232477,3.534654259039642
216,1791341539.431308,3.19054921875,-1.739981689453125,-1.9250208984375006,4.112523076691426,0.933462300101067,-3.362646095018416,-0.6810204420980882,3.5556334834468037
217,1791341539.451308,3.516271875,-1.979483642578125,-2.0735121093750006,4.536736256151016,0.995337673130442,-3.386884335963198,-0.7154311970900893,3.6018778972246346
218,1791341539.4763765,3.6503929687500003,-1.9890637207031252,-1.9777113281250007,4.60359483542055,1.0747348379391775,-3.4201694984381383,-0.7597097326233567,3.66466550284871
219,1791341539.4963765,3.4204710937500002,-1.898052978515625,-1.7286292968750006,4.276726184647074,1.139183569893283,-3.4485721900716952,-0.7952963136974038,3.717914144064031
220,1791341539.506403,3.3150902343750004,-1.941163330078125,-1.7621595703125006,4.22648136010706,1.1717118042410277,-3.4635623093748444,-0.813085654123034,3.7457016304105766
221,1791341539.526403,3.4683714843750004,-2.281256103515625,-1.9298109375000005,4.57797994949165,1.2370390284555306,-3.495311873315481,-0.8487856609904382,3.8036702995876697
222,1791341539.5503566,3.4108910156250003,-2.468067626953125,-1.8723304687500006,4.6077279342312485,1.3159030189144014,-3.5361662342917004,-0.8919600627074381,3.8770691437215605
223,1791341539.5703566,3.4013109375000004,-2.520758056640625,-1.9010707031250007,4.640819657340279,1.3820912829168999,-3.5726439076091085,-0.9282611396988694,3.9415262968000615
224,1791341539.5961707,3.4013109375000004,-2.630928955078125,-2.0639320312500007,4.769750380244794,1.4678765691615907,-3.622637451643782,-0.9757634550647392,4.028681924474261
225,1791341539.6161706,3.2863500000000005,-2.7602600097656254,-1.9872914062500007,4.72953050284766,1.5344024063619508,-3.6636477410265433,-1.0131231862171202,4.099161390507693
226,1791341539.6258638,3.2336595703125,-2.525548095703125,-1.8004798828125006,4.480700303389619,1.5665482847692498,-3.6843850105406575,-1.0312675234041502,4.134280970040412
227,1791341539.6458638,3.3342503906250003,-2.305206298828125,-1.6759388671875006,4.386339343243925,1.6327780619666878,-3.7280004682083248,-1.0683039561015604,4.207757720356939
228,1791341539.6710727,3.3007201171875002,-2.218985595703125,-1.5418177734375007,4.26565966908191,1.7162799612920885,-3.783283017802321,-1.1140678211429969,4.301161983514515
229,1791341539.6910727,3.2911400390625003,-2.195035400390625,-1.3502162109375007,4.180055858713705,1.7824783354516505,-3.8271845503114488,-1.1492673264105653,4.375544078860596
230,1791341539.7163408,3.3773607421875003,-2.113604736328125,-1.0532337890625005,4.121066849581664,1.86620590906761,-3.882495486353855,-1.1916226677624469,4.469503359314345
231,1791341539.7363408,3.516271875,-1.9172131347656252,-0.9334828125000005,4.112330758130572,1.9328770038498861,-3.9257540755675002,-1.2230987782061495,4.5435150704158485
232,1791341539.7615235,3.5402220703125002,-2.070494384765625,-1.1969349609375006,4.272326369226509,2.017560492948183,-3.9795839073519836,-1.260810343122033,4.63651605623055
233,1791341539.7815235,3.200129296875,-2.525548095703125,-1.6088783203125006,4.382660168208224,2.0848378975370463,-4.022816617443464,-1.2904768288964188,4.711149864152542
234,1791341539.7914646,2.9462572265625004,-3.167413330078125,-1.9106507812500007,4.729008908483848,2.1178450512288114,-4.0453268892149925,-1.3056349356177028,4.74917044195359
235,1791341539.8114645,2.8887767578125003,-3.603306884765625,-2.1884730468750004,5.1106032852468015,2.183042154017522,-4.093977111788361,-1.337705046793015,4.828641261294935
236,1791341539.835837,2.8552464843750003,-3.464395751953125,-2.3848646484375005,5.083507628011743,2.2610746157109727,-4.157289481810742,-1.37928380305436,4.929293870602041
237,1791341539.8558369,2.9462572265625004,-3.253634033203125,-2.4471351562500008,5.025438940037389,2.3242053923925363,-4.211527614955468,-1.4155334511739661,5.014242765258929
