imu_index,t_imu,ax,ay,az,mag
0,1789713514.1125214,-0.014705419921874968,-0.04579277343750001,0.009436376953124041,0.049012984852774825
1,1789713514.1325214,0.014034814453125034,-0.036212695312500015,-0.00014370117187595844,0.03883755873579603
2,1789713514.1587958,0.014034814453125034,0.01647773437499999,-0.00972377929687596,0.02372854042458274
3,1789713514.1787958,0.009244775390625033,0.05479804687499999,-0.004933740234375959,0.05579098140414903
4,1789713514.203343,0.009244775390625033,0.05479804687499999,0.009436376953124041,0.056367872261947706
5,1789713514.223343,0.028404931640625034,-0.002682421875000011,0.009436376953124041,0.030051301779215993
6,1789713514.233112,0.023614892578125032,0.03563789062499999,-0.014513818359375959,0.04514834795476801
7,1789713514.253112,0.028404931640625034,0.10269843749999999,-0.02409389648437596,0.1092443364859241
8,1789713514.3233788,0.023614892578125032,0.064378125,-0.00972377929687596,0.06925863133073279
9,1789713514.3433788,-0.00033530273437496735,0.002107617187499989,0.02380649414062404,0.02390195894482901
10,1789713514.3243766,-0.005125341796874967,-0.007472460937500011,0.02380649414062404,0.02547265130026366
11,1789713514.3443766,0.018824853515625035,0.011687695312499989,-0.00014370117187595844,0.022158474262217898
12,1789713514.3538494,0.04277504882812504,-0.002682421875000011,-0.01930385742187596,0.04700573476426121
13,1789713514.3738494,0.014034814453125034,-0.01705253906250001,0.004646337890624042,0.022568862643154722
14,1789713514.4135544,0.018824853515625035,-0.041002734375000016,0.03817661132812404,0.0591020557054507
15,1789713514.4335544,0.028404931640625034,0.01647773437499999,0.014226416015624042,0.035787522745940964
16,1789713514.4581265,0.023614892578125032,-0.007472460937500011,-0.01930385742187596,0.031402861896696034
17,1789713514.4781265,0.009244775390625033,-0.012262500000000011,-0.00972377929687596,0.01817654153263101
18,1789713514.473233,0.014034814453125034,0.00689765624999999,0.03817661132812404,0.04125539153826394
19,1789713514.493233,0.018824853515625035,0.03084785156249999,0.03338657226562404,0.0491998807270354
20,1789713514.5182078,0.023614892578125032,0.011687695312499989,-0.00972377929687596,0.028085890710614334
21,1789713514.5382078,0.033194970703125035,-0.02184257812500001,-0.004933740234375959,0.04004180430285777
22,1789713514.5788903,0.04277504882812504,0.011687695312499989,0.009436376953124041,0.0453359926986028
23,1789713514.5988903,0.023614892578125032,0.02126777343749999,0.009436376953124041,0.03315156932132573
24,1789713514.6085792,0.009244775390625033,-0.02184257812500001,-0.00972377929687596,0.0256342734436572
25,1789713514.6285791,0.028404931640625034,-0.026632617187500013,-0.004933740234375959,0.03924892651353413
26,1789713514.6533713,0.023614892578125032,0.073958203125,0.028596533203124042,0.08273596963952572
27,1789713514.6733713,0.014034814453125034,0.064378125,0.009436376953124041,0.06656248346667004
28,1789713514.6834283,-0.019495458984374967,-0.036212695312500015,0.004646337890624042,0.041388653983927236
29,1789713514.7034283,0.009244775390625033,-0.09848320312500002,0.009436376953124041,0.09936524734425296
30,1789713514.7282486,0.05714516601562503,-0.04579277343750001,0.019016455078124044,0.07565826895845465
31,1789713514.7482486,0.037985009765625036,0.04521796874999999,0.004646337890624042,0.05923777612777554
32,1789713514.758367,0.04277504882812504,0.0883283203125,-0.01930385742187596,0.10002117717183795
33,1789713514.778367,0.04756508789062504,0.00689765624999999,0.014226416015624042,0.05012390807225283
34,1789713514.8041806,-0.00033530273437496735,-0.08411308593750001,0.09086704101562404,0.12382222254824876
35,1789713514.8241806,-0.05302573242187497,-0.06974296875000001,0.07170688476562405,0.11321522561798059
36,1789713514.8487668,-0.10571616210937497,-0.002682421875000011,0.02380649414062404,0.10839673187655934
37,1789713514.8687668,-0.12966635742187496,0.09790839843749999,-0.043254052734375964,0.16813783574675228
38,1789713514.8781917,0.014034814453125034,-0.07453300781250001,-0.05762416992187596,0.0952506704936877
39,1789713514.8981917,0.004454736328125033,-0.08411308593750001,-0.07678432617187596,0.11397670221300235
40,1789713514.9540098,0.04756508789062504,-0.007472460937500011,-0.05283413085937596,0.07148230999464841
41,1789713514.9740098,0.028404931640625034,0.10748847656249999,-0.00014370117187595844,0.11117838542298808
42,1789713514.968021,-0.04823569335937497,0.002107617187499989,0.03817661132812404,0.06155142416359954
43,1789713514.988021,-0.02907553710937497,-0.21823417968750003,0.06212680664062405,0.2287603203036667
44,1789713514.9990666,0.05235512695312503,-0.270924609375,0.04775668945312404,0.280039112751766
45,1789713515.0190666,-0.009915380859374968,0.01647773437499999,-0.00972377929687596,0.021549533441210956
46,1789713515.0430498,-0.07697592773437498,0.246399609375,-0.05283413085937596,0.2634947937519563
47,1789713515.0630498,-0.08176596679687498,0.1362287109375,-0.043254052734375964,0.16466586801116
48,1789713515.0888343,0.009244775390625033,-0.08890312500000001,0.028596533203124042,0.09384558177147238
49,1789713515.1088343,0.09067543945312503,-0.07932304687500001,0.014226416015624042,0.1213118790481806
50,1789713515.1184342,0.05714516601562503,-0.02184257812500001,-0.02888393554687596,0.06765315920765386
51,1789713515.1384342,-0.07218588867187498,0.064378125,0.009436376953124041,0.09718225512852335
52,1789713515.178744,-0.07697592773437498,0.04042792968749999,0.07649692382812405,0.11580798894960129
53,1789713515.198744,0.004454736328125033,-0.002682421875000011,0.06212680664062405,0.06234404675853247
54,1789713515.2080472,-0.009915380859374968,0.10269843749999999,0.009436376953124041,0.10360660718568732
55,1789713515.2280471,-0.08176596679687498,0.14101875,0.004646337890624042,0.16307528823701037
56,1789713515.2381625,-0.06739584960937497,0.064378125,0.08128696289062405,0.12367018177016965
57,1789713515.2581625,-0.014705419921874968,0.002107617187499989,0.08128696289062405,0.08263329692847439
58,1789713515.2834442,-0.005125341796874967,0.00689765624999999,-0.004933740234375959,0.009909015237563094
59,1789713515.3034441,-0.03386557617187497,-0.002682421875000011,-0.02888393554687596,0.044590967350402126
60,1789713515.3290617,-0.019495458984374967,0.011687695312499989,-0.004933740234375959,0.023259770751870728
61,1789713515.3490617,-0.014705419921874968,0.02126777343749999,-0.00014370117187595844,0.025857072767316604
62,1789713515.3737767,-0.019495458984374967,0.02126777343749999,-0.02409389648437596,0.03758865461545679
63,1789713515.3937767,-0.03865561523437497,0.00689765624999999,-0.02888393554687596,0.048745420129149473
64,1789713515.4032063,-0.019495458984374967,0.002107617187499989,0.009436376953124041,0.021761437940125708
65,1789713515.4232063,-0.05302573242187497,0.064378125,0.06212680664062405,0.10400005471514616
66,1789713515.4487598,-0.03865561523437497,0.073958203125,0.057336767578124045,0.10125007316014452
67,1789713515.4687598,-0.02907553710937497,0.04521796874999999,-0.00014370117187595844,0.053759391794377796
68,1789713515.5230997,-0.014705419921874968,0.02126777343749999,-0.03846401367187596,0.046347037767453574
69,1789713515.5430996,-0.02428549804687497,0.03563789062499999,-0.014513818359375959,0.04550269867769591
70,1789713515.5240982,-0.03865561523437497,0.05000800781249999,0.004646337890624042,0.06337701389555168
71,1789713515.5440981,-0.03386557617187497,0.00689765624999999,-0.014513818359375959,0.03748474135651983
72,1789713515.5688038,-0.04344565429687497,-0.02184257812500001,-0.02888393554687596,0.05655886163198818
73,1789713515.5888038,-0.04344565429687497,0.04042792968749999,-0.01930385742187596,0.06240658048207039
74,1789713515.6138742,-0.03865561523437497,0.05479804687499999,-0.00014370117187595844,0.06706044423122723
75,1789713515.6338742,-0.03386557617187497,0.03084785156249999,0.004646337890624042,0.046044062063082
76,1789713515.643525,-0.04823569335937497,0.05000800781249999,0.028596533203124042,0.07513484325179687
77,1789713515.6635249,0.009244775390625033,0.04042792968749999,0.02380649414062404,0.04781874668064937
78,1789713515.6883109,0.004454736328125033,0.03084785156249999,0.004646337890624042,0.03151226868330807
79,1789713515.7083108,-0.019495458984374967,0.064378125,-0.00972377929687596,0.06796445970756645
80,1789713515.7340903,-0.03386557617187497,0.10269843749999999,-0.00014370117187595844,0.1081381845807542
81,1789713515.7540903,-0.014705419921874968,0.0787482421875,-0.00014370117187595844,0.08010964781302331
82,1789713515.763141,-0.019495458984374967,0.02605781249999999,-0.02409389648437596,0.040491954276083375
83,1789713515.783141,-0.02907553710937497,0.03563789062499999,-0.014513818359375959,0.048229628132166455
84,1789713515.8088572,-0.02907553710937497,0.11706855468749999,-0.014513818359375959,0.12149520269618787
85,1789713515.8288572,-0.019495458984374967,0.1553888671875,-0.02409389648437596,0.15844964125748529
86,1789713515.852761,-0.03386557617187497,0.10748847656249999,-0.004933740234375959,0.11280510465347068
87,1789713515.872761,-0.014705419921874968,0.05479804687499999,0.009436376953124041,0.057516263146998904
88,1789713515.8983414,-0.014705419921874968,0.02605781249999999,-0.004933740234375959,0.03032491978660674
89,1789713515.9183414,-0.014705419921874968,0.02126777343749999,-0.014513818359375959,0.029651618597244668
90,1789713515.9285355,-0.005125341796874967,0.01647773437499999,0.009436376953124041,0.01966799605118174
91,1789713515.9485354,-0.009915380859374968,0.0691681640625,0.019016455078124044,0.07241667805900574
92,1789713515.9883175,-0.03865561523437497,0.08353828125,0.004646337890624042,0.09216555473248123
93,1789713516.0083175,-0.05781577148437497,0.04521796874999999,0.019016455078124044,0.07582185498883387
94,1789713516.0023441,-0.02907553710937497,0.02126777343749999,0.03817661132812404,0.05248960561564661
95,1789713516.022344,-0.009915380859374968,0.05479804687499999,0.019016455078124044,0.05884527408925432
96,1789713516.063639,-0.02428549804687497,0.09311835937499999,-0.014513818359375959,0.09732145288396271
97,1789713516.083639,-0.05302573242187497,0.0691681640625,-0.00972377929687596,0.08769558200084855
98,1789713516.0928693,-0.03865561523437497,0.02126777343749999,0.028596533203124042,0.052576957760736294
99,1789713516.1128693,-0.06260581054687497,-0.060162890625000014,0.04296665039062404,0.09687721077930056
100,1789713516.1384647,-0.09134604492187497,-0.08890312500000001,0.04296665039062404,0.13451393460688355
101,1789713516.1584647,-0.10092612304687497,-0.21823417968750003,0.052546728515624044,0.24611663530700986
102,1789713516.168319,-0.08655600585937497,-0.21344414062500003,0.06691684570312405,0.23985038577481724
103,1789713516.188319,-0.06260581054687497,-0.002682421875000011,0.052546728515624044,0.08177922461751137
104,1789713516.2133684,-0.14882651367187497,0.002107617187499989,0.03817661132812404,0.15365945097660763
105,1789713516.2333684,-0.12966635742187496,-0.2805046875,0.13876743164062405,0.3387515963662243
106,1789713516.2732136,-0.464969091796875,-0.77866875,0.28246860351562403,0.9498998844746956
107,1789713516.2932136,0.018824853515625035,-0.5870671875000001,0.20582797851562404,0.6223884755431074
108,1789713516.3036098,0.37328774414062504,0.2224494140625,0.22019809570312404,0.487149549002797
109,1789713516.3236098,0.10025551757812504,0.438001171875,0.33036899414062404,0.5577094832062824
110,1789713516.3332474,-0.26378745117187496,-0.318825,0.4213797363281241,0.5905879123455827
111,1789713516.3532474,-0.20151694335937498,-0.270924609375,0.22498813476562404,0.4057448498887158
112,1789713516.3785784,-0.04344565429687497,0.2320294921875,0.10523715820312404,0.25845709428983
113,1789713516.3985784,0.009244775390625033,0.27034980468750003,0.30162875976562403,0.40515971108235954
114,1789713516.4078186,0.08109536132812503,0.3326203125,0.18187778320312406,0.3876754543937744
115,1789713516.4278185,0.07630532226562503,0.227239453125,0.028596533203124042,0.2414084360038964
116,1789713516.452684,0.13378579101562504,0.12185859375,-0.08636440429687596,0.20051674513106948
117,1789713516.472684,-0.09134604492187497,0.11706855468749999,-0.06241420898437596,0.16107352328248964
118,1789713516.4979634,-0.26378745117187496,0.2032892578125,0.004646337890624042,0.3330644535123874
119,1789713516.5179634,-0.426648779296875,-0.5439568359375,0.27767856445312405,0.7449990640231688
120,1789713516.5280247,-0.378748388671875,-0.8169890625,0.34473911132812407,0.964244017376035
121,1789713516.5480247,-0.627830419921875,-1.3678435546875,0.4932303222656241,1.5838065466090439
122,1789713516.5727546,-0.340428076171875,-0.8074089843750001,0.19145786132812406,0.896915077228548
123,1789713516.5927546,-0.02907553710937497,0.9313751953125,-0.20132534179687597,0.9533294470177794
124,1789713516.618605,0.2583268066406251,1.5540802734375,-0.42645717773437597,1.632104151014232
125,1789713516.6386049,-0.005125341796874967,1.3912189453125001,-0.354606591796876,1.435709670466406
126,1789713516.648419,-0.27336752929687497,1.0367560546875,-0.26838588867187596,1.105270965982216
127,1789713516.668419,-0.311687841796875,0.591282421875,-0.17258510742187597,0.6903258885817478
128,1789713516.6930997,0.033194970703125035,-0.08890312500000001,-0.11031459960937597,0.145516262327356
129,1789713516.7130997,0.13378579101562504,0.03563789062499999,-0.20611538085937597,0.24829870590214836
130,1789713516.7381244,0.028404931640625034,0.3948908203125,-0.23485561523437598,0.4603289694508754
131,1789713516.7581244,-0.03865561523437497,0.92658515625,-0.311496240234376,0.9783068107971737
132,1789713516.78362,-0.06260581054687497,0.6439728515625001,-0.08636440429687596,0.6527475249997684
133,1789713516.80362,-0.06260581054687497,0.41884101562500003,-0.14384487304687596,0.44725678461694085
134,1789713516.813262,-0.278157568359375,0.1649689453125,-0.11989467773437597,0.34490740714306045
135,1789713516.833262,-0.10571616210937497,0.610442578125,-0.35939663085937595,0.7162276079516224
136,1789713516.8582163,-0.009915380859374968,1.3816388671875,-0.680329248046876,1.5400883610523042
137,1789713516.8782163,0.14336586914062505,1.9516535156250001,-0.790500146484376,2.1105439344106744
138,1789713516.9027522,-0.009915380859374968,1.4630695312500002,-0.43603725585937597,1.5266955349862843
139,1789713516.9227521,-0.326057958984375,0.62002265625,-0.20611538085937597,0.7302228681075167
140,1789713516.933374,-0.469759130859375,0.6008625,-0.282756005859376,0.8134250695556124
141,1789713516.953374,-0.08176596679687498,0.41884101562500003,-0.36897670898437596,0.5641429619067759
142,1789713516.9780042,0.10983559570312504,0.4811115234375,-0.354606591796876,0.6076824754866712
143,1789713516.9980042,0.33975747070312506,0.5577521484375,-0.34981655273437595,0.7408739559143609
144,1789713517.0229876,0.11941567382812504,0.2224494140625,-0.20132534179687597,0.32291754090201363
145,1789713517.0429876,0.18168618164062506,-0.24697441406250004,-0.00014370117187595844,0.3066043875268132
146,1789713517.05274,-0.12966635742187496,0.073958203125,-0.07678432617187596,0.16786605613466118
147,1789713517.07274,-0.08176596679687498,0.188919140625,0.08128696289062405,0.22132258212097988
148,1789713517.0982885,0.05714516601562503,0.01647773437499999,0.12918735351562405,0.14221975262760522
149,1789713517.1182885,0.19126625976562503,-0.49605644531250004,0.30641879882812406,0.6136344672002015
150,1789713517.1433496,0.23916665039062504,-0.91278984375,0.36868930664062405,1.0130734377839372
151,1789713517.1633496,0.10983559570312504,-1.0229607421875,0.33036899414062404,1.0805814223971042
152,1789713517.1733975,0.15773598632812505,-1.008590625,0.2728885253906241,1.0566947702674916
153,1789713517.1933975,0.04756508789062504,-0.8840496093750001,0.35910922851562405,0.9553876634263286
154,1789713517.2184033,-0.009915380859374968,-0.8121990234375001,0.35910922851562405,0.8881019122012417
155,1789713517.2384033,-0.02907553710937497,-0.6924480468750001,0.28725864257812406,0.7502314391006467
156,1789713517.263716,0.018824853515625035,-0.270924609375,0.21540805664062404,0.3466340288266162
157,1789713517.283716,0.08588540039062503,-0.007472460937500011,0.15792758789062405,0.17992571436476562
158,1789713517.2930899,0.22000649414062504,-0.05058281250000001,0.08128696289062405,0.23993550950295106
159,1789713517.3130898,0.07151528320312503,0.5098517578125,-0.20611538085937597,0.5545690226679858
160,1789713517.3380709,-0.09613608398437497,0.5242218750000001,-0.15821499023437596,0.5559520698830342
161,1789713517.3580709,-0.19672690429687498,-0.20865410156250003,0.10523715820312404,0.3054715509499293
162,1789713517.383684,-0.17277670898437497,-0.29487480468750005,0.052546728515624044,0.34578042206674653
163,1789713517.403684,-0.378748388671875,-0.136803515625,-0.08636440429687596,0.4118547731160288
164,1789713517.4132278,-0.345218115234375,-0.6924480468750001,0.17229770507812406,0.792683003401842
165,1789713517.4332278,-0.02428549804687497,-1.4444841796875,0.36868930664062405,1.4909916618190724
166,1789713517.4582524,-0.17277670898437497,-1.3534734375000002,0.14355747070312405,1.371987931645252
167,1789713517.4782524,-0.302107763671875,-0.7690886718750001,-0.06720424804687596,0.8290252692366011
168,1789713517.5029974,0.20084633789062503,1.357688671875,-0.584528466796876,1.4917544401400933
169,1789713517.5229974,0.7900211425781251,1.875012890625,-0.37855678710937596,2.069568067688748
170,1789713517.5487022,0.5217789550781251,0.8930548828125,0.14834750976562405,1.0448958251095322
171,1789713517.5687022,-0.18235678710937497,-0.6780779296875,0.4836502441406241,0.8526202174423413
172,1789713517.5782437,-0.436228857421875,-1.7989470703125001,0.4932303222656241,1.9156675934607688
173,1789713517.5982437,-0.22546713867187498,-2.771325,0.569870947265624,2.838279511038915
174,1789713517.6233325,0.14815590820312505,-1.9091179687500002,0.18187778320312406,1.9234763112038844
175,1789713517.6433325,0.42118813476562506,-0.27571464843750004,-0.273175927734376,0.5727504689861873
176,1789713517.6679916,1.1109537597656252,0.8020441406250001,-0.5509981933593759,1.4768520809253611
177,1789713517.6879916,1.1492740722656252,1.089446484375,-0.26838588867187596,1.6061617355475921
178,1789713517.6978452,0.44513833007812503,0.9505353515625,-0.00014370117187595844,1.0496025953306396
179,1789713517.7178452,-0.37395834960937496,0.457161328125,0.15792758789062405,0.6113775021969096
180,1789713517.7430224,-0.21588706054687498,-0.3715154296875,0.19624790039062406,0.47238138809142993
181,1789713517.7630224,0.33975747070312506,-0.5295867187500001,0.009436376953124041,0.6292744049975162
182,1789713517.7885773,0.416398095703125,-0.17033378906250002,-0.22048549804687598,0.5010138008583757
183,1789713517.8085773,0.5074088378906251,0.04521796874999999,-0.354606591796876,0.620688511584665
184,1789713517.8185432,0.39244790039062505,-0.24218437500000004,-0.09115444335937596,0.4700827145931961
185,1789713517.8385432,0.43555825195312503,0.2320294921875,-0.043254052734375964,0.49539841457881073
186,1789713517.8637073,0.38286782226562505,0.6631330078125001,-0.02888393554687596,0.7662685150190837
187,1789713517.8837073,0.33496743164062504,0.7301935546875,0.06212680664062405,0.805757747508794
188,1789713517.9080937,0.277486962890625,0.4236310546875,0.14834750976562405,0.5277018748531871
189,1789713517.9280937,0.32538735351562503,0.150598828125,0.04775668945312404,0.36171485765454503
190,1789713517.93876,0.23437661132812504,-0.24218437500000004,0.019016455078124044,0.3375607989615114
191,1789713517.95876,0.21521645507812504,-0.3810955078125,0.03338657226562404,0.43893800452787135
192,1789713517.9834902,0.13857583007812505,-0.7068181640625001,0.2633084472656241,0.7668940709980476
193,1789713518.0034902,0.08588540039062503,-0.64454765625,0.15313754882812405,0.6680337506733565
194,1789713518.028062,0.26311684570312505,-0.17512382812500002,-0.06720424804687596,0.32313347184323493
195,1789713518.048062,0.12420571289062504,-0.07932304687500001,0.07170688476562405,0.16389350872744263
196,1789713518.058293,0.40202797851562505,-0.04579277343750001,0.12439731445312405,0.423318042908175
197,1789713518.078293,0.30143715820312506,0.05000800781249999,0.02380649414062404,0.30648313225073004
198,1789713518.1030772,0.13378579101562504,0.31346015625,-0.07199428710937596,0.34833760177497086
199,1789713518.1230772,0.04277504882812504,0.09790839843749999,-0.04804409179687596,0.11714945174191543
200,1789713518.148171,0.09546547851562504,-0.4098357421875,0.11002719726562404,0.4349539944646155
201,1789713518.168171,0.21042641601562503,-0.5535369140625,0.04775668945312404,0.5941069711546386
202,1789713518.193604,0.05235512695312503,-0.615807421875,0.014226416015624042,0.6181927135345917
203,1789713518.213604,0.061935205078125034,-0.7547185546875,-0.02409389648437596,0.7576388204583093
204,1789713518.2236497,0.05235512695312503,-0.9463201171875001,0.04775668945312404,0.9489697175882715
205,1789713518.2436497,0.11941567382812504,-0.7116082031250001,0.04296665039062404,0.722836406772934
206,1789713518.2683206,0.14815590820312505,-0.17512382812500002,-0.01930385742187596,0.23019810430151566
207,1789713518.2883205,0.34454750976562504,-0.17991386718750002,-0.00014370117187595844,0.38869268933449425
208,1789713518.3137376,0.20563637695312503,-0.42420585937500005,0.14355747070312405,0.4927937479810071
209,1789713518.3337376,0.06672524414062504,0.03084785156249999,-0.09594448242187596,0.12086848993368667
210,1789713518.3443637,-0.009915380859374968,-0.04579277343750001,-0.07678432617187596,0.089950684390691
211,1789713518.3643637,-0.06739584960937497,-0.4002556640625,0.09565708007812404,0.4170096810959609
212,1789713518.4037936,0.09546547851562504,-0.06495292968750001,-0.06720424804687596,0.1335999686330525
213,1789713518.4237936,-0.009915380859374968,-0.48647636718750004,0.028596533203124042,0.48741700044291764
214,1789713518.4330444,0.061935205078125034,-0.37630546875000004,-0.01930385742187596,0.38185653634655875
215,1789713518.4530444,-0.15840659179687497,-0.4385759765625,-0.05283413085937596,0.4692898687656894
216,1789713518.4631946,-0.16319663085937497,-0.38588554687500004,-0.12468471679687597,0.4371350754784911
217,1789713518.4831946,-0.345218115234375,-0.64454765625,0.13397739257812405,0.7433486194144543
218,1789713518.5086434,-0.15361655273437497,-0.5247966796875,0.11002719726562404,0.5577773609811947
219,1789713518.5286434,0.05235512695312503,-0.26613457031250004,-0.06241420898437596,0.2783239161783303
220,1789713518.5687714,-0.07218588867187498,-0.5870671875000001,0.03338657226562404,0.5924300366880095
221,1789713518.5887713,-0.12008627929687497,-0.4194158203125,0.04296665039062404,0.43837937662436227
222,1789713518.5832698,-0.14403647460937496,-0.28529472656250005,-0.03846401367187596,0.32189915714400225
223,1789713518.6032698,0.037985009765625036,-0.46731621093750003,-0.07199428710937596,0.47435269509961037
224,1789713518.6285179,0.13857583007812505,-0.6253875000000001,-0.09115444335937596,0.647009983216835
225,1789713518.6485178,0.09067543945312503,-0.654127734375,-0.07199428710937596,0.6642953451402285
226,1789713518.6731472,0.061935205078125034,-0.615807421875,-0.15342495117187596,0.6376472113218219
227,1789713518.6931472,-0.16319663085937497,-0.4289958984375,-0.21569545898437598,0.507144113863633
228,1789713518.7031226,-0.07218588867187498,-0.1272234375,-0.07199428710937596,0.16303307317551244
229,1789713518.7231226,0.16252602539062505,-0.09369316406250001,-0.03846401367187596,0.19150090931655367
230,1789713518.7487116,0.15773598632812505,-0.290084765625,-0.014513818359375959,0.3305154513089919
231,1789713518.7687116,-0.019495458984374967,-0.290084765625,0.019016455078124044,0.2913603777668833
232,1789713518.8082268,-0.13924643554687496,-0.20865410156250003,0.08607700195312405,0.265208133692393
233,1789713518.8282268,-0.17756674804687497,-0.10806328125000002,0.052546728515624044,0.21440331490943343
234,1789713518.8234906,-0.20630698242187498,-0.3523552734375,0.10044711914062404,0.4204835709738086
235,1789713518.8434906,-0.15840659179687497,-0.5295867187500001,0.21061801757812404,0.5915358740851077
236,1789713518.868843,-0.25420737304687496,-0.328405078125,0.16750766601562406,0.4478058753786983
237,1789713518.888843,-0.388328466796875,-0.1415935546875,0.07170688476562405,0.4195111562004569
238,1789713518.9132538,-0.35479819335937496,-0.3523552734375,0.009436376953124041,0.5001250263087154
239,1789713518.9332538,-0.40269858398437497,-0.44336601562500005,0.06691684570312405,0.6026752339304016
240,1789713518.9594007,-0.40269858398437497,-0.21823417968750003,0.014226416015624042,0.4582517841095071
241,1789713518.9794006,-0.340428076171875,-0.26134453125,-0.02409389648437596,0.4298520151263292
242,1789713518.9880495,-0.25420737304687496,-0.251764453125,0.004646337890624042,0.3578104481768486
243,1789713519.0080495,-0.258997412109375,-0.2805046875,0.08128696289062405,0.39034614065571055
244,1789713519.0334527,-0.302107763671875,-0.06495292968750001,0.02380649414062404,0.30992698028580595
245,1789713519.0534527,-0.311687841796875,-0.17033378906250002,0.009436376953124041,0.3553195120316128
246,1789713519.0788631,-0.340428076171875,-0.19907402343750003,0.10523715820312404,0.4081624692697108
247,1789713519.0988631,-0.450598974609375,-0.22302421875000003,0.25851840820312405,0.5653414945393139
248,1789713519.1088676,-0.35479819335937496,-0.23739433593750003,0.23935825195312405,0.489418227617585
249,1789713519.1288676,-0.287737646484375,-0.20386406250000003,0.20582797851562404,0.4083119713199691
250,1789713519.1531692,-0.18714682617187497,-0.22781425781250003,0.22498813476562404,0.3708678085169712
251,1789713519.1731691,-0.36437827148437496,-0.4002556640625,0.43574985351562406,0.6948770079538835
252,1789713519.1987379,-0.493709326171875,-0.38588554687500004,0.550710791015624,0.8342295423785705
253,1789713519.2187378,-0.436228857421875,-0.12243339843750002,0.45491000976562407,0.6420503641347074
254,1789713519.228878,-0.19672690429687498,-0.01705253906250001,0.26809848632812405,0.33297006221902475
255,1789713519.248878,-0.25420737304687496,-0.08890312500000001,0.15792758789062405,0.3121958954936939
256,1789713519.2731085,-0.37395834960937496,-0.21823417968750003,0.16750766601562406,0.46425189563473557
257,1789713519.2931085,-0.39311850585937497,-0.34756523437500003,0.22019809570312404,0.5690614669317703
258,1789713519.3177116,-0.340428076171875,-0.43378593750000005,0.19624790039062406,0.585298857872255
259,1789713519.3377116,-0.345218115234375,-0.49126640625,0.11002719726562404,0.6104295316692114
260,1789713519.3481932,-0.321267919921875,-0.47689628906250003,0.06212680664062405,0.5783622454793131
261,1789713519.3681931,-0.278157568359375,-0.34756523437500003,0.04296665039062404,0.44723523790902164
262,1789713519.3931935,-0.23025717773437498,-0.41462578125000005,0.07170688476562405,0.4796611133896127
263,1789713519.4131935,-0.311687841796875,-0.5631169921875,0.16750766601562406,0.6650630615124348
264,1789713519.4380732,-0.26378745117187496,-0.47689628906250003,0.10044711914062404,0.5541692103148538
265,1789713519.4580731,-0.21588706054687498,-0.37630546875000004,0.07170688476562405,0.4397213959378345
266,1789713519.4677386,-0.11529624023437497,-0.3331951171875,0.028596533203124042,0.3537371493651917
267,1789713519.4877386,-0.07218588867187498,-0.5870671875000001,0.10044711914062404,0.5999569225420766
268,1789713519.5132186,-0.13924643554687496,-0.596647265625,0.08128696289062405,0.6180494314585857
269,1789713519.5332186,-0.10092612304687497,-0.520006640625,0.028596533203124042,0.5304816210940849
270,1789713519.5577233,-0.19193686523437498,-0.318825,0.03338657226562404,0.37363592448886174
271,1789713519.5777233,-0.17277670898437497,-0.3619353515625,0.13876743164062405,0.4243882537986615
272,1789713519.6025734,-0.15361655273437497,-0.44336601562500005,0.17708774414062406,0.5015291997580957
273,1789713519.6225734,-0.12487631835937497,-0.3810955078125,0.13876743164062405,0.424363383253073
274,1789713519.6330328,-0.20151694335937498,-0.21344414062500003,0.19145786132812406,0.3504619698232456
275,1789713519.6530328,-0.06739584960937497,-0.309244921875,0.19145786132812406,0.3699063866904484
276,1789713519.6785066,-0.12487631835937497,-0.43378593750000005,0.19145786132812406,0.49032687783160034
277,1789713519.6985066,-0.18714682617187497,-0.4289958984375,0.09565708007812404,0.4777150744863265
278,1789713519.7227533,-0.23504721679687499,-0.31403496093750005,0.004646337890624042,0.3922840033327489
279,1789713519.7427533,-0.17756674804687497,-0.33798515625000003,0.028596533203124042,0.3828598667508997
280,1789713519.7682261,-0.19672690429687498,-0.32361503906250005,0.07170688476562405,0.3854478508234878
281,1789713519.7882261,-0.22546713867187498,-0.38588554687500004,0.08128696289062405,0.45425835847442814
282,1789713519.797703,-0.278157568359375,-0.3715154296875,0.09565708007812404,0.47386245293392976
283,1789713519.817703,-0.21109702148437498,-0.41462578125000005,0.12918735351562405,0.4828725124348231
284,1789713519.842655,-0.23504721679687499,-0.28529472656250005,0.10523715820312404,0.384337266726762
285,1789713519.862655,-0.239837255859375,-0.22302421875000003,0.10523715820312404,0.3440008298156743
286,1789713519.8735268,-0.239837255859375,-0.18949394531250002,0.09565708007812404,0.32028134753264154
287,1789713519.8935268,-0.19672690429687498,-0.251764453125,0.11002719726562404,0.3379242501947599
288,1789713519.933312,-0.20630698242187498,-0.3331951171875,0.11002719726562404,0.4070473452213394
289,1789713519.953312,-0.268577490234375,-0.4194158203125,0.08128696289062405,0.5046296354010382
290,1789713519.9628632,-0.340428076171875,-0.46731621093750003,0.07170688476562405,0.5825955658721206
291,1789713519.9828632,-0.335638037109375,-0.4289958984375,0.11960727539062405,0.5576703983153496
292,1789713519.9931302,-0.321267919921875,-0.36672539062500004,0.10044711914062404,0.49778530738023785
293,1789713520.0131302,-0.239837255859375,-0.3523552734375,0.06212680664062405,0.4307387701620696
294,1789713520.0384648,-0.19193686523437498,-0.318825,0.052546728515624044,0.37583280795946133
295,1789713520.0584648,-0.22067709960937498,-0.270924609375,0.09086704101562404,0.36104756667222876
296,1789713520.0830302,-0.249417333984375,-0.309244921875,0.14834750976562405,0.4240853827367905
297,1789713520.1030302,-0.23025717773437498,-0.328405078125,0.18187778320312406,0.4403950400031425
298,1789713520.1122682,-0.17756674804687497,-0.25655449218750004,0.15313754882812405,0.3475647656690972
299,1789713520.1322682,-0.16319663085937497,-0.309244921875,0.17229770507812406,0.3898102887360904
300,1789713520.1577039,-0.29252768554687497,-0.29487480468750005,0.2728885253906241,0.4969826400798844
301,1789713520.1777039,-0.22067709960937498,-0.3715154296875,0.41658969726562406,0.6002241853305798
302,1789713520.2027013,-0.25420737304687496,-0.21344414062500003,0.37826938476562405,0.5032569096689101
303,1789713520.2227013,-0.23025717773437498,-0.041002734375000016,0.33036899414062404,0.404775572896777
304,1789713520.232614,-0.345218115234375,-0.026632617187500013,0.35910922851562405,0.49884294260750733
305,1789713520.252614,-0.306897802734375,-0.05058281250000001,0.2633084472656241,0.40752450312224353
306,1789713520.2782938,-0.35479819335937496,0.02605781249999999,0.11002719726562404,0.3723798487317622
307,1789713520.2982938,-0.26378745117187496,-0.05058281250000001,-0.05762416992187596,0.2747052698354178
308,1789713520.3235755,-0.15361655273437497,-0.251764453125,-0.20611538085937597,0.35981514053487096
309,1789713520.3435755,-0.17277670898437497,-0.539166796875,-0.273175927734376,0.6286316198804002
310,1789713520.3676057,-0.302107763671875,-0.6014373046875,-0.254015771484376,0.719388590751472
311,1789713520.3876057,-0.26378745117187496,-0.5631169921875,-0.19174526367187597,0.6507309831463756
312,1789713520.3976915,-0.484129248046875,-0.5918572265625001,-0.043254052734375964,0.7658635769682713
313,1789713520.4176915,-0.23504721679687499,-0.5295867187500001,0.12918735351562405,0.593631753790782
314,1789713520.443585,-0.244627294921875,-0.29487480468750005,0.13876743164062405,0.4074924096770645
315,1789713520.463585,-0.287737646484375,-0.041002734375000016,0.12918735351562405,0.31806217904517475
316,1789713520.488566,-0.278157568359375,-0.1320134765625,0.13397739257812405,0.3357813761240353
317,1789713520.508566,-0.258997412109375,-0.24218437500000004,0.07170688476562405,0.3617662343230564
318,1789713520.5182574,-0.26378745117187496,-0.10806328125000002,-0.004933740234375959,0.2851067062399116
319,1789713520.5382574,-0.29252768554687497,-0.318825,0.02380649414062404,0.43334579333331363
320,1789713520.5628238,-0.302107763671875,-0.24697441406250004,0.02380649414062404,0.3909376052973214
321,1789713520.5828238,-0.369168310546875,-0.31403496093750005,0.03817661132812404,0.4861693654021711
322,1789713520.6077814,-0.38353842773437496,-0.19907402343750003,0.03817661132812404,0.43380830560173617
323,1789713520.6277814,-0.306897802734375,-0.22302421875000003,0.09565708007812404,0.3912497162188209
324,1789713520.6378868,-0.23504721679687499,-0.26134453125,0.12439731445312405,0.3728576805986284
325,1789713520.6578867,-0.26378745117187496,-0.36672539062500004,0.15792758789062405,0.4785524574607929
326,1789713520.6835654,-0.27336752929687497,-0.43378593750000005,0.13397739257812405,0.5299528161720292
327,1789713520.7035654,-0.21109702148437498,-0.4002556640625,0.11002719726562404,0.4656957517863096
328,1789713520.7428908,-0.14882651367187497,-0.4385759765625,0.10044711914062404,0.47390699734560376
329,1789713520.7628908,-0.17277670898437497,-0.40504570312500005,0.10044711914062404,0.45166739591335103
330,1789713520.7574074,-0.18235678710937497,-0.40504570312500005,0.11960727539062405,0.46002382519957397
331,1789713520.7774074,-0.12008627929687497,-0.2805046875,0.14355747070312405,0.3372126059024455
332,1789713520.80319,-0.06260581054687497,-0.251764453125,0.12439731445312405,0.2877143013732737
333,1789713520.82319,-0.12008627929687497,-0.3523552734375,0.16271762695312406,0.40626589730844814
334,1789713520.8485377,-0.17756674804687497,-0.4002556640625,0.17708774414062406,0.4723289274974278
335,1789713520.8685377,-0.14403647460937496,-0.318825,0.14355747070312405,0.3781595351668069
336,1789713520.8780851,-0.12008627929687497,-0.318825,0.15313754882812405,0.3735253725805694
337,1789713520.898085,-0.15840659179687497,-0.38588554687500004,0.25851840820312405,0.49074644266830575
338,1789713520.9236598,-0.14882651367187497,-0.4194158203125,0.31599887695312406,0.54581521757438
339,1789713520.9436598,-0.17277670898437497,-0.31403496093750005,0.22977817382812404,0.42575551320714117
340,1789713520.9678874,-0.16798666992187497,-0.318825,0.17708774414062406,0.4015332751108631
341,1789713520.9878874,-0.249417333984375,-0.328405078125,0.16271762695312406,0.4433237281619569
342,1789713521.013202,-0.244627294921875,-0.29966484375,0.16271762695312406,0.4196648163972791
343,1789713521.033202,-0.22546713867187498,-0.19428398437500002,-0.01930385742187596,0.2982521351421845
344,1789713521.0428858,-0.287737646484375,-0.002682421875000011,-0.15821499023437596,0.3283780317352949
345,1789713521.0628858,-0.340428076171875,-0.19428398437500002,-0.02888393554687596,0.39302903628534275
346,1789713521.0878947,-0.287737646484375,-0.3715154296875,0.052546728515624044,0.4728401700130284
347,1789713521.1078947,-0.18235678710937497,-0.39546562500000004,-0.07199428710937596,0.44139578128691015
348,1789713521.132941,-0.17277670898437497,-0.35714531250000003,-0.14863491210937596,0.42367074775815716
349,1789713521.152941,-0.20630698242187498,-0.40504570312500005,-0.18695522460937597,0.491504678131132
350,1789713521.1779778,-0.009915380859374968,-0.6110173828125001,-0.16300502929687596,0.6324643835447963
351,1789713521.1979778,0.05235512695312503,-0.64454765625,-0.11031459960937597,0.6560122341714543
352,1789713521.2080514,0.10983559570312504,-0.6253875000000001,-0.10552456054687596,0.6436682500468093
353,1789713521.2280514,0.16252602539062505,-0.6253875000000001,-0.11031459960937597,0.6555101410142342
354,1789713521.253108,0.267906884765625,-0.49605644531250004,-0.06720424804687596,0.5677697656589696
355,1789713521.273108,0.29185708007812505,-0.7259783203125001,-0.02409389648437596,0.7828190037315701
356,1789713521.283537,0.10504555664062504,-0.7307683593750001,-0.00972377929687596,0.7383437654083512
357,1789713521.303537,-0.12008627929687497,-0.6780779296875,0.10044711914062404,0.695916673854208
358,1789713521.3434098,0.014034814453125034,-0.7068181640625001,0.19145786132812406,0.7324240614082501
359,1789713521.3634098,-0.10571616210937497,-0.7738787109375,0.23935825195312405,0.8169189304646316
360,1789713521.3728714,0.25353676757812504,-0.6205974609375,0.17708774414062406,0.6933845759467477
361,1789713521.3928714,0.05714516601562503,-0.8457292968750001,0.29204868164062403,0.8965578877237442
362,1789713521.4029531,0.13378579101562504,-0.8409392578125,0.23456821289062404,0.8832325399953378
363,1789713521.4229531,-0.12966635742187496,-0.6493376953125001,0.21540805664062404,0.6963141802853773
364,1789713521.4484725,-0.07697592773437498,-0.06974296875000001,0.19145786132812406,0.21781985172378202
365,1789713521.4684725,0.20084633789062503,0.09790839843749999,0.23456821289062404,0.3239560964503871
366,1789713521.49353,0.018824853515625035,-0.33798515625000003,0.14355747070312405,0.36769156687351423
367,1789713521.51353,-0.10092612304687497,-0.5104265625000001,0.28246860351562403,0.5920387402787982
368,1789713521.5227826,-0.09134604492187497,-0.4481560546875,0.10523715820312404,0.4693216474259461
369,1789713521.5427825,-0.05302573242187497,-0.6397576171875,0.15313754882812405,0.6599641247139045
370,1789713521.5686686,-0.13445639648437496,-0.3331951171875,0.22019809570312404,0.42140800897044833
371,1789713521.5886686,-0.27336752929687497,-0.79782890625,0.07170688476562405,0.8464057224787292
372,1789713521.6127784,-0.22067709960937498,-1.3965837890625001,0.11002719726562404,1.4181856882306718
373,1789713521.6327784,0.14336586914062505,-0.9079998046875001,0.04775668945312404,0.9204879788104281
374,1789713521.6437087,-0.608670263671875,-1.1858220703125,0.028596533203124042,1.3332183744720334
375,1789713521.6637087,0.4978287597656251,-3.1784783203124998,0.16271762695312406,3.2213405490366287
376,1789713521.703679,0.18647622070312503,0.39010078125000003,0.3543191894531241,0.5590117068848378
377,1789713521.723679,-0.019495458984374967,-0.4194158203125,0.04296665039062404,0.42206141294272437
378,1789713521.7329128,0.36370766601562504,-1.02775078125,-0.043254052734375964,1.0910663810036798
379,1789713521.7529128,0.34454750976562504,-1.1858220703125,0.31599887695312406,1.2746537801150368
380,1789713521.777942,-0.19193686523437498,-0.7834587890625001,0.2633084472656241,0.8485156290821706
381,1789713521.797942,0.04756508789062504,-0.12243339843750002,0.17708774414062406,0.22048229807359512
382,1789713521.8086185,0.29185708007812505,-0.9223699218750001,-0.01930385742187596,0.9676360198353444
383,1789713521.8286185,0.037985009765625036,-1.9522283203125002,0.17708774414062406,1.960611727171363
384,1789713521.8530395,0.11462563476562504,-1.7558367187500001,0.4117996582031241,1.8071194143034377
385,1789713521.8730395,0.41160805664062505,-0.49605644531250004,-0.08157436523437596,0.6497288405873152
386,1789713521.8980644,-0.08655600585937497,-0.500846484375,-0.38813686523437596,0.6395227667683876
387,1789713521.9180644,-0.608670263671875,-1.6744060546875001,0.11481723632812404,1.785300569543005
388,1789713521.9279733,0.28227700195312505,-1.1570818359375001,0.31599887695312406,1.2322231823512233
389,1789713521.9479733,0.42597817382812503,-0.47210625000000006,-0.05762416992187596,0.6384843465788274
390,1789713521.9737444,0.14336586914062505,-0.4098357421875,0.09086704101562404,0.4435943272312676
391,1789713521.9937444,-0.09613608398437497,-1.10439140625,0.15792758789062405,1.1197605314796795
392,1789713522.0185852,-0.014705419921874968,-1.2816228515625,0.11002719726562404,1.2864211468879083
393,1789713522.0385852,-0.407488623046875,-1.0756511718750001,0.11002719726562404,1.1554992019066166
394,1789713522.0484724,-0.22546713867187498,-1.1906121093750002,0.18666782226562406,1.2260658634350197
395,1789713522.0684724,-0.08176596679687498,-1.0708611328125002,0.18187778320312406,1.0892698320974383
396,1789713522.0925112,0.13378579101562504,-0.999010546875,0.28246860351562403,1.0467613016429438
397,1789713522.1125112,0.14336586914062505,-0.77866875,0.13876743164062405,0.8038253508972858
398,1789713522.1378453,0.24874672851562504,-0.9032097656250001,0.19145786132812406,0.956200255350276
399,1789713522.1578453,0.35412758789062504,-1.2145623046875,0.31120883789062403,1.302850291190157
400,1789713522.1678913,0.061935205078125034,-1.3870037109375002,0.23935825195312405,1.4088675014210956
401,1789713522.1878912,0.10025551757812504,-0.979850390625,0.07170688476562405,0.9875726981521985
402,1789713522.2134955,0.20084633789062503,-0.83614921875,0.15313754882812405,0.8734620062265998
403,1789713522.2334955,0.296647119140625,-0.9702703125000001,0.12918735351562405,1.0227968346263352
404,1789713522.258091,0.5600992675781251,-1.3199431640625001,0.02380649414062404,1.434059934263608
405,1789713522.278091,0.45471840820312504,-1.3486833984375002,0.06212680664062405,1.4246316998028195
406,1789713522.288495,0.10504555664062504,-1.1858220703125,0.03817661132812404,1.1910776654201274
407,1789713522.308495,0.037985009765625036,-1.3391033203125,0.009436376953124041,1.3396751877409905
408,1789713522.3334684,0.17210610351562505,-1.4061638671875,-0.10552456054687596,1.4205818403491042
409,1789713522.3534684,0.24395668945312504,-1.1906121093750002,-0.04804409179687596,1.2162977826486006
410,1789713522.3785195,0.651110009765625,-1.0038005859375,-0.014513818359375959,1.196566133595979
411,1789713522.3985195,0.28227700195312505,-1.008590625,-0.03846401367187596,1.0480528779681328
412,1789713522.423795,-0.12966635742187496,-0.7163982421875,-0.03367397460937596,0.7288166725743794
413,1789713522.443795,0.5026187988281251,-0.6876580078125001,0.15313754882812405,0.8654191478729655
414,1789713522.4530246,0.6223697753906251,-1.0517009765625,0.13397739257812405,1.2293774941588635
415,1789713522.4730246,0.21042641601562503,-0.8265691406250001,-0.01930385742187596,0.8531520730222111
416,1789713522.4987864,0.20084633789062503,-0.8792595703125,-0.04804409179687596,0.9031859599145593
417,1789713522.5187864,-0.16798666992187497,-0.6110173828125001,0.04296665039062404,0.6351439965994077
418,1789713522.5429943,-0.22546713867187498,-0.64454765625,0.057336767578124045,0.6852478505727387
419,1789713522.5629942,-0.22067709960937498,-0.6062273437500001,-0.08157436523437596,0.6502802101137464
420,1789713522.5735936,-0.14403647460937496,-0.979850390625,-0.11510463867187597,0.997046825314461
421,1789713522.5935936,-0.15361655273437497,-0.9654802734375001,-0.004933740234375959,0.9776372258990772
422,1789713522.6185772,-0.019495458984374967,-0.6110173828125001,-0.11510463867187597,0.6220702475314439
423,1789713522.6385772,0.35412758789062504,-0.9415300781250001,-0.14863491210937596,1.016846878156718
424,1789713522.663166,0.20084633789062503,-1.161871875,-0.18216518554687597,1.1930924776334058
425,1789713522.683166,-0.345218115234375,-0.7547185546875,-0.12947475585937596,0.8399639017722179
426,1789713522.6935718,-0.20151694335937498,-0.7882488281250001,0.512390478515624,0.9615036640464828
427,1789713522.7135718,0.09546547851562504,-1.8564275390625,1.848811376953124,2.621743765689007
428,1789713522.7385802,-0.10571616210937497,-0.5918572265625001,0.40700961914062406,0.7260356145798813
429,1789713522.7585802,-0.15840659179687497,-0.18949394531250002,0.07170688476562405,0.25718180526154844
430,1789713522.783489,-0.23504721679687499,-0.8169890625,0.37826938476562405,0.9304869960507508
431,1789713522.803489,0.43076821289062506,-1.4923845703125,0.6560916503906241,1.6861877750286596
432,1789713522.8138273,0.46908852539062507,-1.3582634765625001,0.6034012207031241,1.558530317177956
433,1789713522.8338273,0.3972379394531251,-1.3295232421875,0.4836502441406241,1.4694718747614777
434,1789713522.858106,0.11462563476562504,-1.324733203125,0.3830594238281241,1.3837599567088144
435,1789713522.8781059,-0.39311850585937497,-0.8217791015625,0.22498813476562404,0.9383404031583057
436,1789713522.9035676,0.08109536132812503,-1.4684343750000002,0.2728885253906241,1.4957754238522738
437,1789713522.9235675,0.29185708007812505,-1.899537890625,0.08607700195312405,1.9237551828070645
438,1789713522.9329882,0.15773598632812505,-1.1954021484375001,0.08607700195312405,1.208832572417345
439,1789713522.9529881,-0.350008154296875,-0.8169890625,0.34473911132812407,0.9533215046343173
440,1789713522.9789267,0.21042641601562503,-0.8313591796875001,0.5028104003906241,0.9941104872944625
441,1789713522.9989266,0.16731606445312505,-0.8600994140625,0.589031103515624,1.055804578699852
442,1789713523.023328,-0.009915380859374968,-0.5870671875000001,0.7135721191406241,0.9240840690281311
443,1789713523.043328,0.009244775390625033,-0.6110173828125001,0.7854227050781241,0.9951464885248293
444,1789713523.0531197,0.05714516601562503,-0.6876580078125001,0.7854227050781241,1.0454797613344065
445,1789713523.0731196,0.15773598632812505,-0.7642986328125001,0.7375223144531241,1.0737654333318132
446,1789713523.0981214,-0.03386557617187497,-0.7355583984375,0.632141455078124,0.9704616705412332
447,1789713523.1181214,-0.16798666992187497,-0.6780779296875,0.608191259765624,0.926232048925119
448,1789713523.1438694,-0.16319663085937497,-0.960690234375,0.7039920410156241,1.2021495999087166
449,1789713523.1638694,0.05714516601562503,-1.21935234375,0.651301611328124,1.383574897548442
450,1789713523.1881626,-0.10092612304687497,-1.2241423828125,0.5650809082031241,1.3520455201385808
451,1789713523.2081625,-0.12487631835937497,-0.9367400390625,0.4213797363281241,1.0347158440160107
452,1789713523.2186434,-0.16798666992187497,-0.9750603515625,0.3830594238281241,1.0609885638611576
453,1789713523.2386434,-0.014705419921874968,-1.0996013671875,0.29204868164062403,1.1378188997128342
454,1789713523.278375,-0.05302573242187497,-1.1139714843750002,0.19145786132812406,1.1315477493079364
455,1789713523.298375,-0.20151694335937498,-1.29599296875,0.13397739257812405,1.3183917457388667
456,1789713523.323887,-0.08176596679687498,-1.4396941406250001,0.06691684570312405,1.4435659860619607
457,1789713523.343887,-0.09134604492187497,-1.401373828125,0.06691684570312405,1.4059411688671195
458,1789713523.338444,-0.14403647460937496,-1.0900212890625,0.028596533203124042,1.0998684822916824
459,1789713523.358444,-0.06260581054687497,-0.979850390625,-0.09594448242187596,0.9865250220999963
460,1789713523.3829794,-0.11529624023437497,-1.3534734375000002,0.04296665039062404,1.3590547090077132
461,1789713523.4029794,-0.21588706054687498,-1.3678435546875,0.07649692382812405,1.386886798685052
462,1789713523.428899,-0.258997412109375,-0.8696794921875001,-0.09115444335937596,0.9119929885448786
463,1789713523.448899,-0.16798666992187497,-1.1235515625,0.03338657226562404,1.1365308170372155
464,1789713523.4588344,-0.239837255859375,-1.21935234375,0.12918735351562405,1.2494124298305762
465,1789713523.4788344,-0.15840659179687497,-1.06607109375,0.06691684570312405,1.0798509570736503
466,1789713523.503448,0.033194970703125035,-0.9846404296875001,0.028596533203124042,0.9856147541338874
467,1789713523.523448,-0.11050620117187497,-1.0325408203125002,0.019016455078124044,1.0386114729160216
468,1789713523.548917,-0.13924643554687496,-1.133131640625,0.10523715820312404,1.1464954183356704
469,1789713523.568917,-0.17277670898437497,-1.08523125,0.07170688476562405,1.101235912267133
470,1789713523.5788283,-0.07697592773437498,-0.75950859375,-0.11031459960937597,0.7713286642655304
471,1789713523.5988283,-0.12008627929687497,-1.18103203125,0.009436376953124041,1.187158969356619
472,1789713523.63872,0.014034814453125034,-1.2720427734375002,0.052546728515624044,1.2732049921944997
473,1789713523.65872,0.13857583007812505,-1.1235515625,-0.15342495117187596,1.1424143687472272
474,1789713523.6688986,0.04277504882812504,-1.286412890625,-0.19653530273437597,1.302042224810436
475,1789713523.6888986,0.061935205078125034,-1.324733203125,-0.08157436523437596,1.328686722351542
476,1789713523.6979933,0.20563637695312503,-1.0517009765625,-0.06241420898437596,1.073432250825393
477,1789713523.7179933,0.21521645507812504,-0.855309375,-0.11989467773437597,0.8900825710282811
478,1789713523.7436502,0.45471840820312504,-0.8792595703125,-0.16300502929687596,1.0032132686129014
479,1789713523.7636502,0.5074088378906251,-0.9079998046875001,-0.10073452148437596,1.0450238360442976
480,1789713523.8030577,0.47866860351562507,-0.77866875,-0.09115444335937596,0.9185628921104525
481,1789713523.8230577,0.5648893066406251,-0.8265691406250001,-0.17258510742187597,1.015924255195385
482,1789713523.833313,0.43555825195312503,-0.9175798828125,-0.16779506835937597,1.0294751173060914
483,1789713523.853313,0.5505191894531251,-1.0469109375,-0.07199428710937596,1.185021968737138
484,1789713523.8789487,0.531359033203125,-1.0038005859375,-0.12947475585937596,1.1431193073777879
485,1789713523.8989487,0.536149072265625,-1.008590625,-0.17258510742187597,1.1552040927182528
486,1789713523.9089448,0.46429848632812504,-1.14271171875,-0.12468471679687597,1.2397215151710017
487,1789713523.9289448,0.5265689941406251,-1.10439140625,-0.14384487304687596,1.2319280138429332
488,1789713523.953121,0.43555825195312503,-1.0373308593750001,-0.14863491210937596,1.1348385963448282
489,1789713523.973121,0.47387856445312504,-1.018170703125,-0.17737514648437597,1.1369672014357166
490,1789713523.9836922,0.47866860351562507,-1.0804412109375001,-0.10073452148437596,1.1860119249410506
491,1789713524.0036922,0.42597817382812503,-1.0612810546875,-0.05762416992187596,1.1450307535502013
492,1789713524.0283353,0.36370766601562504,-0.8888396484375001,-0.14863491210937596,0.9718083782571512
493,1789713524.0483353,0.32538735351562503,-0.9223699218750001,-0.09594448242187596,0.9827759390190614
494,1789713524.0730302,0.41160805664062505,-0.83614921875,-0.14384487304687596,0.9430048015835228
495,1789713524.0930302,0.5217789550781251,-0.8217791015625,-0.10552456054687596,0.9791371725176718
496,1789713524.103644,0.24395668945312504,-0.855309375,0.03817661132812404,0.8902395446981209
497,1789713524.1236439,0.18168618164062506,-0.6253875000000001,0.052546728515624044,0.6533609664137391
498,1789713524.1487277,0.40202797851562505,-0.6493376953125001,0.08128696289062405,0.7680322313543168
499,1789713524.1687276,0.38286782226562505,-0.75950859375,0.12439731445312405,0.8596020969900401
500,1789713524.1932278,0.22479653320312504,-0.49126640625,0.11960727539062405,0.5533372060292913
501,1789713524.2132277,0.13857583007812505,-0.5870671875000001,0.24893833007812405,0.6525499486653008
502,1789713524.2236884,0.20563637695312503,-0.5535369140625,0.13397739257812405,0.6055075362687702
503,1789713524.2436883,0.3876578613281251,-0.7930388671875,0.17708774414062406,0.9003051324103092
504,1789713524.2834117,0.16731606445312505,-0.79782890625,0.20103793945312406,0.8396081718109416
505,1789713524.3034117,0.12899575195312504,-0.5247966796875,0.04296665039062404,0.5421232259171034
506,1789713524.3133495,0.32538735351562503,-0.5870671875000001,-0.014513818359375959,0.6713683514959813
507,1789713524.3333495,0.267906884765625,-0.79782890625,-0.10073452148437596,0.8476157775617319
508,1789713524.3428984,0.15773598632812505,-1.0421208984375,-0.19653530273437597,1.072157979760437
509,1789713524.3628983,0.11462563476562504,-1.0038005859375,-0.21569545898437598,1.0330920498679543
510,1789713524.388396,0.18168618164062506,-0.8313591796875001,-0.21090541992187598,0.8767263258293583
511,1789713524.408396,0.25353676757812504,-0.7068181640625001,-0.22527553710937598,0.7839782376970456
512,1789713524.4328082,0.09546547851562504,-0.8265691406250001,-0.18216518554687597,0.8517713053672894
513,1789713524.4528081,0.10025551757812504,-0.9559001953125,-0.05283413085937596,0.9625943058147597
514,1789713524.4631603,0.15773598632812505,-0.8840496093750001,-0.02888393554687596,0.8984757286380489
515,1789713524.4831603,0.22479653320312504,-0.91278984375,0.057336767578124045,0.9418101109616529
516,1789713524.5082679,0.21042641601562503,-1.0708611328125002,0.11002719726562404,1.0968722926867014
517,1789713524.5282679,0.33017739257812506,-1.2385125000000001,0.16271762695312406,1.292055474562604
518,1789713524.5533175,0.37328774414062504,-1.2768328125000001,0.14834750976562405,1.3385263369302522
519,1789713524.5733175,0.38286782226562505,-1.2528826171875,0.11481723632812404,1.3150990911467662
520,1789713524.5976346,0.45950844726562506,-1.286412890625,0.12918735351562405,1.372113519568627
521,1789713524.6176345,0.3876578613281251,-1.4349041015625001,0.14834750976562405,1.4937320314514393
522,1789713524.6284506,0.6223697753906251,-1.5067546875000002,0.028596533203124042,1.630482010736162
523,1789713524.6484506,0.5648893066406251,-1.5115447265625002,0.019016455078124044,1.6137623786417776
524,1789713524.6727476,0.3876578613281251,-1.5450750000000002,0.10044711914062404,1.5961281266922611
525,1789713524.6927476,0.5265689941406251,-1.5211248046875,-0.004933740234375959,1.6096955981857426
526,1789713524.7178025,0.5840494628906251,-1.7031462890625002,0.09086704101562404,1.802797236572413
527,1789713524.7378025,0.44513833007812503,-1.6791960937500001,0.18187778320312406,1.7466903509760634
528,1789713524.7482438,0.4068180175781251,-1.324733203125,0.18187778320312406,1.3976761022894042
529,1789713524.7682438,0.36370766601562504,-1.1379216796875,0.22498813476562404,1.2156350917140677
530,1789713524.7932723,0.37328774414062504,-1.3391033203125,0.14355747070312405,1.3975514980823558
531,1789713524.8132722,0.39244790039062505,-1.573815234375,0.13397739257812405,1.6275317779367255
532,1789713524.8380618,0.22958657226562504,-1.4923845703125,0.45491000976562407,1.5769796501085438
533,1789713524.8580618,0.10983559570312504,-1.0133806640625,0.531550634765624,1.1495870152793792
534,1789713524.8682761,0.15773598632812505,-0.8074089843750001,0.4740701660156241,0.9494906169828414
535,1789713524.888276,-0.02428549804687497,-0.9415300781250001,0.46928012695312404,1.052279673367586
536,1789713524.9130914,-0.13445639648437496,-1.0038005859375,0.4309598144531241,1.1006454926803195
537,1789713524.9330914,-0.09613608398437497,-0.9942205078125,0.38784946289062405,1.0715147085613625
538,1789713524.9730666,-0.20151694335937498,-1.0756511718750001,0.4022195800781241,1.165939583604223
539,1789713524.9930665,-0.14882651367187497,-1.0373308593750001,0.3830594238281241,1.1157684191475108
540,1789713524.9882548,-0.14403647460937496,-1.0038005859375,0.30162875976562403,1.057989617654216
541,1789713525.0082548,-0.18235678710937497,-1.0708611328125002,0.19624790039062406,1.1038617676054612
542,1789713525.0332773,-0.244627294921875,-1.1187615234375001,0.11960727539062405,1.1514233626565682
543,1789713525.0532773,-0.18235678710937497,-1.1762419921875,0.06691684570312405,1.1921732618327456
544,1789713525.0783646,-0.17756674804687497,-1.18103203125,0.009436376953124041,1.1943431893976058
545,1789713525.0983646,-0.23504721679687499,-1.2001921875000001,0.08607700195312405,1.226017019182536
546,1789713525.1083603,-0.20151694335937498,-1.094811328125,0.08607700195312405,1.1165259392047147
547,1789713525.1283603,-0.02428549804687497,-1.1954021484375001,0.03817661132812404,1.1962581391810359
548,1789713525.153488,-0.08655600585937497,-1.41095390625,0.10044711914062404,1.4171705936322954
549,1789713525.173488,-0.278157568359375,-1.33431328125,0.22977817382812404,1.3822306517088707
550,1789713525.1976233,-0.18714682617187497,-1.1858220703125,0.4117996582031241,1.269163848950418
551,1789713525.2176232,0.08588540039062503,-1.171451953125,0.569870947265624,1.3055377731103972
552,1789713525.2434146,0.033194970703125035,-1.1666619140625,0.6800418457031241,1.3507993336211228
553,1789713525.2634146,-0.08176596679687498,-1.133131640625,0.7039920410156241,1.3365170339823866
554,1789713525.273267,-0.04823569335937497,-1.2768328125000001,0.8524832519531241,1.5360196639532626
555,1789713525.293267,-0.04344565429687497,-1.2720427734375002,0.9722342285156241,1.6016303373216998
556,1789713525.3185225,0.033194970703125035,-1.1475017578125,0.909963720703124,1.4648877647310157
557,1789713525.3385224,-0.03865561523437497,-1.1666619140625,0.9387039550781241,1.497918353446688
558,1789713525.3629665,-0.009915380859374968,-1.1666619140625,0.8524832519531241,1.444965754390787
559,1789713525.3829665,-0.05781577148437497,-1.2433025390625,0.771052587890624,1.464126347131429
560,1789713525.4086318,-0.10571616210937497,-1.2241423828125,0.8141629394531241,1.4739612519696548
561,1789713525.4286318,0.004454736328125033,-0.9894304687500001,0.771052587890624,1.2543980988742873
562,1789713525.4385436,0.05235512695312503,-0.855309375,0.727942236328124,1.1243643029336883
563,1789713525.4585435,0.05714516601562503,-0.8648894531250001,0.689621923828124,1.1076451299717875
564,1789713525.4835372,-0.04344565429687497,-0.8888396484375001,0.593821142578124,1.0698350316214977
565,1789713525.5035372,0.014034814453125034,-0.979850390625,0.5411307128906241,1.119431200413055
566,1789713525.5135858,-0.02428549804687497,-0.9511101562500001,0.45970004882812404,1.0566572053555798
567,1789713525.5335858,-0.08176596679687498,-0.9415300781250001,0.3830594238281241,1.0197544231450193
568,1789713525.5735736,-0.04823569335937497,-0.9319500000000001,0.15792758789062405,0.9464663795565116
569,1789713525.5935736,-0.03386557617187497,-1.1235515625,-0.00972377929687596,1.1241038843138385
570,1789713525.6027524,-0.02907553710937497,-1.2720427734375002,-0.06241420898437596,1.2739049170938588
571,1789713525.6227524,-0.05302573242187497,-1.2049822265625,-0.11510463867187597,1.2116282319565599
572,1789713525.6329477,-0.07218588867187498,-1.1379216796875,-0.282756005859376,1.1747457216247768
573,1789713525.6529477,-0.16319663085937497,-1.286412890625,-0.402506982421876,1.3577566558070646
574,1789713525.6779428,-0.12966635742187496,-1.48759453125,-0.412087060546876,1.5490534526355537
575,1789713525.6979427,-0.09134604492187497,-1.44927421875,-0.412087060546876,1.5094885248078096
576,1789713525.7227764,0.004454736328125033,-1.3917937500000002,-0.464777490234376,1.4673540140822805
577,1789713525.7427764,0.061935205078125034,-1.3391033203125,-0.579738427734376,1.4605239870306677
578,1789713525.7533875,0.018824853515625035,-1.3295232421875,-0.603688623046876,1.4602829795018772
579,1789713525.7733874,-0.02907553710937497,-1.305573046875,-0.589318505859376,1.4327116489136942
580,1789713525.7979257,0.12420571289062504,-1.08523125,-0.742599755859376,1.3208362209197761
581,1789713525.8179257,0.18647622070312503,-1.18103203125,-0.814450341796876,1.4466994846820365
582,1789713525.842903,-0.02907553710937497,-1.2289324218750002,-0.800080224609376,1.4667135542445708
583,1789713525.8629029,-0.04344565429687497,-1.08523125,-0.766549951171876,1.3293657203702267
584,1789713525.872607,0.028404931640625034,-0.960690234375,-0.766549951171876,1.2293621900020377
585,1789713525.892607,0.023614892578125032,-1.06607109375,-0.656379052734376,1.2521576182530991
586,1789713525.9185817,0.061935205078125034,-1.0996013671875,-0.608478662109376,1.2582549100206621
587,1789713525.9385817,0.17689614257812505,-1.0612810546875,-0.536628076171876,1.2023225084949385
588,1789713525.9635875,0.28227700195312505,-0.9223699218750001,-0.431247216796876,1.0566081301061383
589,1789713525.9835875,0.3780777832031251,-0.8984197265625,-0.301916162109376,1.0204186318228816
590,1789713526.0235026,0.07630532226562503,-1.10439140625,-0.12468471679687597,1.1140238592631806
591,1789713526.0435026,0.23437661132812504,-0.8648894531250001,-0.09115444335937596,0.9007082183530216
592,1789713526.0374498,0.30143715820312506,-0.8265691406250001,-0.02409389648437596,0.8801485218001146
593,1789713526.0574498,0.40202797851562505,-1.0756511718750001,0.11002719726562404,1.153584814048603
594,1789713526.0834017,0.18168618164062506,-1.650455859375,0.32557895507812407,1.6920449368542738
595,1789713526.1034017,0.36849770507812507,-1.4540642578125,0.4932303222656241,1.5790407136289781
596,1789713526.1434805,0.14815590820312505,-0.83614921875,0.4836502441406241,0.9772477924298492
597,1789713526.1634805,0.05714516601562503,-0.8888396484375001,0.6752518066406241,1.117705906312067
598,1789713526.1586084,0.04277504882812504,-1.1283416015625,0.8237430175781241,1.3976898917955978
599,1789713526.1786084,-0.28294760742187497,-1.4061638671875,0.9147537597656241,1.7012144517769694
600,1789713526.2036686,-0.714051123046875,-1.5881853515625002,0.7806326660156241,1.9082948085903464
601,1789713526.2236686,0.6463199707031251,-0.8313591796875001,0.7614725097656241,1.29951066687008
602,1789713526.2479715,-0.929602880859375,-2.02407890625,0.6465115722656241,2.319274487399371
603,1789713526.2679715,0.09546547851562504,-1.9043279296875002,0.612981298828124,2.002829147503379
604,1789713526.2782638,-0.680520849609375,-1.9234880859375,0.550710791015624,2.1133379802666745
605,1789713526.2982638,0.48345864257812504,-1.4828044921875,0.45491000976562407,1.6246182745863331
606,1789713526.3233376,0.516988916015625,-2.4695525390624997,0.47886020507812405,2.5681266282020663
607,1789713526.3433375,-0.05781577148437497,-2.2108904296875003,0.33036899414062404,2.2361848822952006
608,1789713526.3682714,0.014034814453125034,-1.9139080078125001,0.3543191894531241,1.9464796239365738
609,1789713526.3882713,0.49303872070312504,-2.06239921875,0.24414829101562405,2.134522453763144
610,1789713526.3985233,0.512198876953125,-2.7521648437499997,0.33036899414062404,2.818847759105658
611,1789713526.4185233,0.35891762695312507,-2.8862859375,0.26809848632812405,2.9208466536809743
612,1789713526.4433722,-0.278157568359375,-2.7665349609375,0.17708774414062406,2.7861169020789256
613,1789713526.4633722,0.33496743164062504,-2.6755242187499997,0.17708774414062406,2.702220030734457
614,1789713526.4880927,0.713380517578125,-2.7856951171874997,0.23456821289062404,2.88513973583274
615,1789713526.5080926,0.6271598144531251,-2.570143359375,0.02380649414062404,2.6456630680734
616,1789713526.5177748,0.34933754882812507,-2.627623828125,0.25851840820312405,2.6633203848826374
617,1789713526.5377748,-0.02907553710937497,-2.7330046875,0.08607700195312405,2.7345144466651496
618,1789713526.5627081,0.23437661132812504,-2.9293962890625,-0.00014370117187595844,2.93875739641108
619,1789713526.5827081,0.29185708007812505,-3.0635173828125,0.052546728515624044,3.0778369788966686
620,1789713526.6081493,0.26311684570312505,-2.8814958984375,0.13397739257812405,2.89658402759646
621,1789713526.6281493,-0.26378745117187496,-2.225260546875,0.15313754882812405,2.246067547901279
622,1789713526.6536052,0.48345864257812504,-2.1629900390625,0.15792758789062405,2.221980938528508
623,1789713526.6736052,0.651110009765625,-3.0156169921875,0.10044711914062404,3.0867425730259117
624,1789713526.6833572,0.04277504882812504,-3.0156169921875,0.11481723632812404,3.01810512509592
625,1789713526.7033572,0.23437661132812504,-2.541403125,0.17229770507812406,2.557997016978833
626,1789713526.7427971,0.8043912597656251,-2.5222429687499996,0.14834750976562405,2.651558386279624
627,1789713526.762797,0.7085904785156251,-2.531823046875,0.07170688476562405,2.6300894061330315
628,1789713526.7728481,0.22000649414062504,-2.3498015625,0.21540805664062404,2.36988836687663
629,1789713526.792848,0.14815590820312505,-2.2779509765625003,0.12918735351562405,2.2864164531130178
630,1789713526.8028677,0.35891762695312507,-2.0192888671875,0.14355747070312405,2.0559567455274244
631,1789713526.8228676,0.38286782226562505,-2.206100390625,0.17229770507812406,2.245696596162845
632,1789713526.8478112,0.13378579101562504,-2.704264453125,0.22019809570312404,2.716511010775479
633,1789713526.8678112,0.5074088378906251,-2.627623828125,0.25851840820312405,2.68862464436367
634,1789713526.8934734,0.512198876953125,-2.1055095703125,0.057336767578124045,2.1676728870255952
635,1789713526.9134734,0.33975747070312506,-1.9570183593750001,0.12918735351562405,1.9904887264533233
636,1789713526.9235153,-0.014705419921874968,-2.0959294921875,0.24893833007812405,2.1107124337006486
637,1789713526.9435153,-0.268577490234375,-2.0815593750000003,0.15313754882812405,2.1043940716443945
638,1789713526.9683049,-0.723631201171875,-1.8324773437500002,0.028596533203124042,1.9703890713201146
639,1789713526.9883049,-0.431438818359375,-1.4349041015625001,0.028596533203124042,1.4986350444252452
640,1789713527.0131931,0.713380517578125,-1.3391033203125,0.28246860351562403,1.5433398774424454
641,1789713527.033193,0.5217789550781251,-1.7893669921875002,0.41658969726562406,1.90987813395526
642,1789713527.0579972,0.20563637695312503,-1.2768328125000001,0.08128696289062405,1.2958379223263417
643,1789713527.0779972,0.43076821289062506,-1.3534734375000002,0.20582797851562404,1.4352061719470404
644,1789713527.088525,0.47866860351562507,-1.3774236328125,1.206946142578124,1.8929179821920963
645,1789713527.108525,-0.532029638671875,-0.5104265625000001,-0.40729702148437597,0.8423073523607262
646,1789713527.1485915,-0.12966635742187496,-1.4444841796875,-0.373766748046876,1.4976813718411752
647,1789713527.1685915,0.991202783203125,-2.2013103515625003,1.0345047363281241,2.626490104837854
648,1789713527.1633506,0.6990104003906251,-1.0708611328125002,0.20103793945312406,1.294517423104954
649,1789713527.1833506,-0.26378745117187496,-0.5295867187500001,-0.14863491210937596,0.6100313509729708
650,1789713527.2087164,-0.19672690429687498,-1.621715625,0.35910922851562405,1.672609482589543
651,1789713527.2287164,0.32059731445312506,-1.774996875,-0.02409389648437596,1.8038783385090362
652,1789713527.2536755,0.18168618164062506,-1.60255546875,0.30162875976562403,1.6407845098419935
653,1789713527.2736754,-0.455389013671875,-1.1379216796875,0.25851840820312405,1.252627905746851
654,1789713527.2835734,0.033194970703125035,-1.2768328125000001,-0.301916162109376,1.3124623065442667
655,1789713527.3035734,0.9433023925781251,-2.1725701171875,0.17708774414062406,2.3751295516380866
656,1789713527.3276546,0.631949853515625,-2.2204705078125,0.46928012695312404,2.3558594463542732
657,1789713527.3476546,-0.431438818359375,-1.7223064453125,0.004646337890624042,1.7755282408365425
658,1789713527.373099,-0.316477880859375,-1.5594451171875001,-0.06720424804687596,1.5926530487048092
659,1789713527.393099,-0.479339208984375,-1.7318865234375,0.16750766601562406,1.804786919696671
660,1789713527.41793,0.21042641601562503,-1.7127263671875002,-0.08157436523437596,1.727531551804442
661,1789713527.4379299,0.18168618164062506,-1.7893669921875002,0.5602908691406241,1.8838179209710388
662,1789713527.4479825,0.35891762695312507,-1.774996875,-0.13426479492187596,1.8158917380595248
663,1789713527.4679825,-0.07697592773437498,-1.7797869140625,0.34952915039062404,1.815416585770736
664,1789713527.4936306,-0.23025717773437498,-1.1522917968750002,0.5650809082031241,1.30388311817405
665,1789713527.5136306,-0.10571616210937497,-0.9079998046875001,0.20582797851562404,0.9370190547600952
666,1789713527.5537791,-0.14882651367187497,-1.3199431640625001,0.14355747070312405,1.336041928579237
667,1789713527.573779,0.018824853515625035,-1.612135546875,0.2633084472656241,1.6336054404320752
668,1789713527.5688198,0.13378579101562504,-1.4636443359375,0.33036899414062404,1.5064186178778758
669,1789713527.5888197,0.15773598632812505,-1.1475017578125,0.16271762695312406,1.1696657435724702
670,1789713527.6144176,-0.04344565429687497,-1.5307048828125,0.06691684570312405,1.5327827071643811
671,1789713527.6344175,-0.17277670898437497,-1.8707976562500002,0.02380649414062404,1.8789098996389455
672,1789713527.6585162,0.10025551757812504,-1.305573046875,-0.11510463867187597,1.3144661377818416
673,1789713527.6785161,0.39244790039062505,-0.654127734375,0.08607700195312405,0.7676637920762048
674,1789713527.688092,0.16731606445312505,-0.9223699218750001,-0.18216518554687597,0.9549581629731765
675,1789713527.708092,0.09067543945312503,-1.4540642578125,-0.03846401367187596,1.4573964393793422
676,1789713527.7337067,-0.632620458984375,-1.6839861328125,0.03338657226562404,1.7992033247629486
677,1789713527.7537067,-0.503289404296875,-1.25767265625,0.009436376953124041,1.354669620227174
678,1789713527.7782931,-0.00033530273437496735,-0.9367400390625,0.22498813476562404,0.9633803371441896
679,1789713527.798293,0.028404931640625034,-1.4540642578125,0.20103793945312406,1.4681709570376615
680,1789713527.8083797,-0.455389013671875,-1.9474382812500002,0.26809848632812405,2.0178631795596127
681,1789713527.8283796,-0.15840659179687497,-0.9463201171875001,0.24414829101562405,0.9900620185242517
682,1789713527.853238,0.08109536132812503,-0.8648894531250001,0.3830594238281241,0.9493917768441726
683,1789713527.873238,-0.546399755859375,-1.48759453125,0.4117996582031241,1.637397062750603
684,1789713527.8977773,0.416398095703125,-1.458854296875,0.46449008789062407,1.5866298482520993
685,1789713527.9177773,0.4068180175781251,-1.2624626953125,0.37826938476562405,1.3792754198972959
686,1789713527.943083,-0.287737646484375,-1.9953386718750001,0.45970004882812404,2.06772665107766
687,1789713527.963083,-0.541609716796875,-1.8660076171875002,0.37826938476562405,1.979498229395906
688,1789713527.973145,0.21042641601562503,-1.0900212890625,0.18666782226562406,1.1257311237751428
689,1789713527.993145,-0.07697592773437498,-1.497174609375,0.21540805664062404,1.5145486902947167
690,1789713528.034069,-0.27336752929687497,-1.7366765625,0.21540805664062404,1.7712074750509563
691,1789713528.054069,-0.21109702148437498,-1.60255546875,0.17229770507812406,1.6255560531938895
692,1789713528.063127,-0.17756674804687497,-1.5067546875000002,0.16750766601562406,1.5264004902020858
693,1789713528.083127,-0.05781577148437497,-1.267252734375,0.16271762695312406,1.2789641051782898
694,1789713528.1083484,-0.431438818359375,-1.44927421875,0.15313754882812405,1.519863916270744
695,1789713528.1283484,-0.28294760742187497,-1.48759453125,0.17708774414062406,1.5245841751361209
696,1789713528.1383603,-0.469759130859375,-1.286412890625,0.15313754882812405,1.3780358758221827
697,1789713528.1583602,-0.16798666992187497,-1.3199431640625001,0.16750766601562406,1.3410922025725027
698,1789713528.1824558,-0.14403647460937496,-1.401373828125,0.14355747070312405,1.416052209336327
699,1789713528.2024558,-0.19193686523437498,-1.4061638671875,0.11960727539062405,1.4242339983113985
700,1789713528.2126567,-0.608670263671875,-1.324733203125,-0.014513818359375959,1.4579465697561012
701,1789713528.2326567,-0.20630698242187498,-0.8984197265625,0.14834750976562405,0.9336635152592817
702,1789713528.2584765,-0.575139990234375,-1.0373308593750001,0.19624790039062406,1.202228995901447
703,1789713528.2784765,-0.321267919921875,-1.0229607421875,0.09565708007812404,1.0764813205052848
704,1789713528.302536,-0.13924643554687496,-1.161871875,0.10044711914062404,1.1744894411922895
705,1789713528.322536,-0.16319663085937497,-1.25767265625,0.21061801757812404,1.2855868698502333
706,1789713528.3329296,-0.28294760742187497,-0.9367400390625,0.09565708007812404,0.9832047224752586
707,1789713528.3529296,-0.15361655273437497,-0.83614921875,0.09565708007812404,0.8555079416693343
708,1789713528.3783576,0.17210610351562505,-0.9846404296875001,0.12918735351562405,1.0078822644291776
709,1789713528.3983576,0.028404931640625034,-1.2241423828125,0.03817661132812404,1.225066882742274
710,1789713528.4229023,0.08588540039062503,-1.4157439453125,0.057336767578124045,1.419505098830423
711,1789713528.4429023,-1.078094091796875,-0.9750603515625,0.009436376953124041,1.4536569764447582
712,1789713528.4534485,-0.321267919921875,-0.9032097656250001,0.10523715820312404,0.9644043843523137
713,1789713528.4734485,-0.13924643554687496,-0.9559001953125,0.014226416015624042,0.9660937553486387
714,1789713528.4977245,-0.359588232421875,-1.5067546875000002,0.26809848632812405,1.5720973836155772
715,1789713528.5177245,-0.474549169921875,-1.621715625,0.3543191894531241,1.7264705531973026
716,1789713528.5426269,-0.555979833984375,-1.2816228515625,0.4117996582031241,1.456451052366916
717,1789713528.5626268,-0.11050620117187497,-0.68286796875,0.21061801757812404,0.7231045792765586
718,1789713528.572688,-0.22067709960937498,-0.9654802734375001,0.41658969726562406,1.0744289257818873
719,1789713528.592688,-1.188264990234375,-1.0517009765625,0.531550634765624,1.6734977467684125
720,1789713528.6181905,-0.11050620117187497,-1.2289324218750002,0.48844028320312405,1.3270495199081835
721,1789713528.6381905,0.21042641601562503,-1.14271171875,0.4309598144531241,1.2392722503143654
722,1789713528.663177,-0.795481787109375,-1.8228972656250002,0.6225613769531241,2.0840653499157837
723,1789713528.683177,-0.512869482421875,-2.5749333984375,0.6608816894531241,2.7074123660504674
724,1789713528.693231,-0.441018896484375,-2.6803142578125,0.3830594238281241,2.7432310711773447
725,1789713528.713231,-0.455389013671875,-1.48759453125,0.19145786132812406,1.5674733668685696
726,1789713528.7379308,-1.0733040527343751,-0.8265691406250001,0.22019809570312404,1.3724741655859567
727,1789713528.7579308,-0.9439729980468751,-1.4061638671875,0.32557895507812407,1.7246401069252315
728,1789713528.7829678,-0.862542333984375,-1.5402849609375,0.09565708007812404,1.7679387194624483
729,1789713528.8029678,-0.512869482421875,-1.5546550781250001,0.03338657226562404,1.6374071519164621
730,1789713528.8278859,-0.278157568359375,-1.5115447265625002,0.03338657226562404,1.5372877923284733
731,1789713528.8478858,-0.37395834960937496,-1.44927421875,0.03338657226562404,1.4971156507042596
732,1789713528.8580105,-0.766741552734375,-1.8516375,0.009436376953124041,2.0041315039951275
733,1789713528.8780105,-1.092464208984375,-2.3210613281250003,0.03338657226562404,2.5655249755238976
734,1789713528.9032829,-0.608670263671875,-2.2492107421875,0.14834750976562405,2.334830922423227
735,1789713528.9232829,-0.39311850585937497,-1.4253240234375,-0.00014370117187595844,1.478543456272827
736,1789713528.9476905,-0.244627294921875,-1.535494921875,0.019016455078124044,1.5549754962983966
737,1789713528.9676905,-0.479339208984375,-1.8181072265625,0.009436376953124041,1.8802576976995875
738,1789713528.9777465,-0.910442724609375,-2.3258513671875,0.42616977539062406,2.533793838199667
739,1789713528.9977465,-0.814641943359375,-0.8696794921875001,0.21540805664062404,1.2109436592498999
740,1789713529.0227098,-0.5080794433593749,-0.36672539062500004,0.2633084472656241,0.6796790207847121
741,1789713529.0427098,-0.10571616210937497,-0.6876580078125001,0.24893833007812405,0.7389314818180892
742,1789713529.0675032,-0.426648779296875,-1.5163347656250001,0.3543191894531241,1.6145718907293216
743,1789713529.0875032,-0.781111669921875,-2.359381640625,0.42616977539062406,2.5215943060815618
744,1789713529.0981512,-0.8050618652343751,-2.6515740234375,0.4022195800781241,2.8001339252295425
745,1789713529.1181512,-0.488919287109375,-2.6132537109375,0.34473911132812407,2.680854729729953
746,1789713529.1427894,-0.656570654296875,-2.033658984375,0.21061801757812404,2.1473737071458996
747,1789713529.1627893,-0.522449560546875,-1.4253240234375,0.07649692382812405,1.5199848336279056
748,1789713529.202823,-0.651780615234375,-0.9559001953125,0.03338657226562404,1.1574445200533043
749,1789713529.222823,-0.766741552734375,-0.7068181640625001,-0.02409389648437596,1.0431035622535298
750,1789713529.2183483,-0.26378745117187496,-1.7510466796875002,0.13397739257812405,1.7758654891523755
751,1789713529.2383482,-0.25420737304687496,-2.1725701171875,0.10523715820312404,2.189921725102103
752,1789713529.2621403,-0.661360693359375,-2.071979296875,0.19145786132812406,2.1833809301319254
753,1789713529.2821403,-0.560769873046875,-1.8181072265625,0.21540805664062404,1.9147786735446695
754,1789713529.3077395,-0.407488623046875,-1.5594451171875001,0.22019809570312404,1.6267769523766484
755,1789713529.3277395,-0.460179052734375,-1.5115447265625002,0.22019809570312404,1.5953117006797424
756,1789713529.3523796,-0.498499365234375,-1.5498650390625002,0.20582797851562404,1.64102054014784
757,1789713529.3723795,-0.848172216796875,-1.7079363281250002,0.21540805664062404,1.9190735371894752
758,1789713529.3826122,-0.19672690429687498,-1.8564275390625,0.31599887695312406,1.8933779265903354
759,1789713529.4026122,-0.517659521484375,-1.248092578125,0.23935825195312405,1.3722240474981469
760,1789713529.4277885,-0.666150732421875,-1.2337224609375002,0.30641879882812406,1.435172599098503
761,1789713529.4477885,-0.297317724609375,-1.880377734375,0.30162875976562403,1.927484931722659
762,1789713529.4730875,-0.455389013671875,-1.774996875,0.20582797851562404,1.8440060240608318
763,1789713529.4930875,-0.776321630859375,-1.6744060546875001,0.22498813476562404,1.8592822731633931
764,1789713529.5026731,-0.747581396484375,-1.4732244140625002,0.23456821289062404,1.6686192990188105
765,1789713529.5226731,-0.718841162109375,-1.8564275390625,0.22498813476562404,2.003415954043923
766,1789713529.5477695,-0.311687841796875,-1.4732244140625002,0.12439731445312405,1.5109646510613477
767,1789713529.5677695,-0.824222021484375,-1.5211248046875,0.22498813476562404,1.744643881404079
768,1789713529.6077054,-0.910442724609375,-1.5211248046875,0.25851840820312405,1.791524042152269
769,1789713529.6277053,-0.359588232421875,-1.4540642578125,0.20103793945312406,1.5112983874283936
770,1789713529.6223824,-0.613460302734375,-1.7414666015625,0.26809848632812405,1.8657213794562213
771,1789713529.6423824,-0.857752294921875,-2.1055095703125,0.2537283691406241,2.287638003580993
772,1789713529.7130432,-0.493709326171875,-1.8660076171875002,0.17229770507812406,1.9378905607195798
773,1789713529.7330432,-0.503289404296875,-1.5786052734375,0.17229770507812406,1.665827521977403
774,1789713529.7140448,-0.39311850585937497,-1.612135546875,0.19624790039062406,1.6709387839040637
775,1789713529.7340448,-0.565559912109375,-1.976178515625,0.22977817382812404,2.068317564826731
776,1789713529.7426,-0.5272395996093749,-2.1342498046875003,0.22498813476562404,2.2098921885445453
777,1789713529.7626,-0.39311850585937497,-1.8660076171875002,0.21540805664062404,1.919095416574322
778,1789713529.7882705,-0.680520849609375,-1.6265056640625002,0.22498813476562404,1.7774276251835897
779,1789713529.8082705,-0.19672690429687498,-1.7175164062500001,0.20103793945312406,1.7403966024190305
780,1789713529.8328338,-0.239837255859375,-2.1965203125,0.28246860351562403,2.2275573852305848
781,1789713529.8528337,-0.651780615234375,-2.1965203125,0.31599887695312406,2.312871536392809
782,1789713529.8628259,-0.426648779296875,-1.7606267578125,0.22977817382812404,1.8260979629714986
783,1789713529.8828259,-0.326057958984375,-1.7845769531250002,0.19624790039062406,1.8247032450921146
784,1789713529.9076228,-0.421858740234375,-2.1055095703125,0.26809848632812405,2.164026835730346
785,1789713529.9276228,-0.474549169921875,-2.340221484375,0.21540805664062404,2.39754752642561
786,1789713529.9681926,-0.26378745117187496,-1.9809685546875002,0.14355747070312405,2.0036039981620912
787,1789713529.9881926,-0.546399755859375,-1.9905486328125002,0.18187778320312406,2.072176652898536
788,1789713529.9842162,-0.306897802734375,-2.071979296875,0.14834750976562405,2.099831291236386
789,1789713530.0042162,-0.249417333984375,-2.1150896484375,0.20582797851562404,2.13966782098511
790,1789713530.0280845,-0.579930029296875,-2.0480291015625003,0.26809848632812405,2.145371491863031
791,1789713530.0480845,-0.36437827148437496,-2.0815593750000003,0.24893833007812405,2.1278231243602974
792,1789713530.0728066,-0.23504721679687499,-2.13903984375,0.23935825195312405,2.165186139816168
793,1789713530.0928066,-0.369168310546875,-2.0911394531250003,0.26809848632812405,2.140333210577127
794,1789713530.1329207,-0.330847998046875,-2.0288689453125,0.27767856445312405,2.074337238787808
795,1789713530.1529207,-0.345218115234375,-2.0480291015625003,0.24893833007812405,2.091786088517409
796,1789713530.1476486,-0.397908544921875,-1.9665984375,0.20582797851562404,2.016979370553679
797,1789713530.1676486,-0.28294760742187497,-1.8372673828125001,0.18187778320312406,1.8678036065163115
798,1789713530.1927278,-0.350008154296875,-1.9857585937500002,0.22498813476562404,2.028882096503293
799,1789713530.2127278,-0.249417333984375,-2.033658984375,0.16750766601562406,2.0557326405432765
800,1789713530.253251,-0.268577490234375,-2.033658984375,0.12918735351562405,2.0553812554604374
801,1789713530.273251,-0.460179052734375,-1.9953386718750001,0.13876743164062405,2.0524126232654902
802,1789713530.2674916,-0.38353842773437496,-1.9809685546875002,0.17229770507812406,2.0250986739872276
803,1789713530.2874916,-0.18714682617187497,-1.9043279296875002,0.17708774414062406,1.9216786587405559
804,1789713530.3121834,-0.258997412109375,-1.9234880859375,0.21061801757812404,1.9522412826163165
805,1789713530.3321834,-0.378748388671875,-1.9043279296875002,0.16271762695312406,1.9484332762069834
806,1789713530.3733835,0.023614892578125032,-2.2444207031250003,0.30162875976562403,2.2647211449724547
807,1789713530.3933835,-0.005125341796874967,-2.3641716796875003,0.2728885253906241,2.379874397411515
808,1789713530.387905,-0.249417333984375,-2.5270330078125,0.22019809570312404,2.548841311344636
809,1789713530.4079049,-0.09613608398437497,-2.263580859375,0.13876743164062405,2.269867144494772
810,1789713530.4329722,0.25353676757812504,-1.5402849609375,0.13397739257812405,1.5667509678076579
811,1789713530.4529722,-0.07697592773437498,-2.0432390625,0.38784946289062405,2.0811483286495926
812,1789713530.4779844,0.17689614257812505,-2.340221484375,0.3543191894531241,2.373493401971884
813,1789713530.4979844,0.24395668945312504,-2.4887126953125,0.37826938476562405,2.529089455434406
814,1789713530.5082874,0.037985009765625036,-2.1725701171875,0.29204868164062403,2.192440696463881
815,1789713530.5282874,0.16252602539062505,-1.612135546875,0.30162875976562403,1.6481430881889405
816,1789713530.5524995,-0.12487631835937497,-1.3199431640625001,0.3543191894531241,1.372365162504876
817,1789713530.5724995,0.30143715820312506,-1.2241423828125,0.18666782226562406,1.2744543183703494
818,1789713530.5982692,0.17689614257812505,-1.7414666015625,0.32078891601562404,1.7795796408857747
819,1789713530.6182692,-0.20630698242187498,-1.9043279296875002,0.30162875976562403,1.9390738365265128
820,1789713530.6288986,0.05235512695312503,-1.4684343750000002,0.30162875976562403,1.5000068272236855
821,1789713530.6488986,0.31101723632812506,-1.305573046875,0.16750766601562406,1.3525204324496016
822,1789713530.6731143,0.44992836914062506,-1.4780144531250001,0.28246860351562403,1.57058930754542
823,1789713530.6931143,0.028404931640625034,-1.9043279296875002,0.34473911132812407,1.9354887648365964
824,1789713530.71816,0.05235512695312503,-2.9054460937499997,0.507600439453124,2.9499180105790086
825,1789713530.73816,0.16252602539062505,-3.1593181640625,0.3926395019531241,3.1877690865554418
826,1789713530.7477927,0.31580727539062503,-2.5893035156249997,0.019016455078124044,2.6085606293090775
827,1789713530.7677927,-0.21109702148437498,-1.8276873046875002,-0.03846401367187596,1.840239744311372
828,1789713530.793369,0.09546547851562504,-0.87446953125,-0.14384487304687596,0.8913483977517904
829,1789713530.813369,0.21521645507812504,-1.0325408203125002,-0.04804409179687596,1.0558252236542713
830,1789713530.853618,0.04277504882812504,-0.7068181640625001,-0.18216518554687597,0.7311674067381967
831,1789713530.873618,-0.321267919921875,-1.018170703125,-0.00014370117187595844,1.067653819233094
832,1789713530.8831692,0.08588540039062503,-1.1570818359375001,0.02380649414062404,1.160509123712529
833,1789713530.9031692,0.4068180175781251,-0.8457292968750001,-0.26838588867187596,0.9761095882415408
834,1789713530.913227,0.14336586914062505,-0.9032097656250001,-0.16779506835937597,0.9297832210362489
835,1789713530.933227,-0.302107763671875,-1.248092578125,0.18187778320312406,1.2969517001278088
836,1789713530.9583912,-0.05302573242187497,-1.1522917968750002,0.29204868164062403,1.189907788819083
837,1789713530.9783912,0.34454750976562504,-1.10439140625,0.25851840820312405,1.1854219215386659
838,1789713531.0187368,0.49303872070312504,-1.8133171875,0.2728885253906241,1.8988613824830274
839,1789713531.0387368,0.014034814453125034,-1.9234880859375,0.24893833007812405,1.9395808013440239
840,1789713531.0329552,-0.666150732421875,-1.7031462890625002,0.18187778320312406,1.837809459186792
841,1789713531.0529552,-0.13445639648437496,-1.5498650390625002,0.19145786132812406,1.5674234509308924
842,1789713531.0785382,0.598419580078125,-2.148619921875,0.39742954101562405,2.265529475105301
843,1789713531.0985382,0.713380517578125,-2.6228337890624998,0.38784946289062405,2.7456503881180008
844,1789713531.123671,-0.10571616210937497,-2.2587908203125,0.21061801757812404,2.2710508198161685
845,1789713531.143671,-0.05781577148437497,-1.7414666015625,0.03338657226562404,1.742745893983866
846,1789713531.152954,0.35891762695312507,-1.4540642578125,-0.07199428710937596,1.4994358626369673
847,1789713531.172954,0.30143715820312506,-2.29232109375,0.34473911132812407,2.337615325941391
848,1789713531.1981995,0.22958657226562504,-2.895866015625,0.6369314941406241,2.973958927565191
849,1789713531.2181995,0.24874672851562504,-3.2694890625,0.632141455078124,3.3393167690386374
850,1789713531.2437642,0.12899575195312504,-2.493502734375,0.18187778320312406,2.5034526794769727
851,1789713531.2637641,0.20563637695312503,-1.21935234375,-0.40729702148437597,1.301920627935924
852,1789713531.2723298,0.33496743164062504,0.2128693359375,-0.699489404296876,0.8042399897828928
853,1789713531.2923298,0.5840494628906251,-0.34756523437500003,-0.11989467773437597,0.6901377405982129
854,1789713531.3183537,0.296647119140625,-1.5450750000000002,0.6417215332031241,1.6991358965945018
855,1789713531.3383536,-0.12487631835937497,-3.0060369140625,1.0297146972656241,3.179962952827945
856,1789713531.3636265,0.28227700195312505,-2.2971111328125002,0.23456821289062404,2.3262463560039106
857,1789713531.3836265,0.2583268066406251,-1.60255546875,-0.345026513671876,1.6595059700363373
858,1789713531.3929546,-0.03865561523437497,-1.0612810546875,-0.527047998046876,1.1855763686380478
859,1789713531.4129546,0.07630532226562503,-1.928278125,0.2537283691406241,1.9463959296264308
860,1789713531.438453,0.6702701660156251,-2.071979296875,0.48844028320312405,2.231800665916376
861,1789713531.458453,0.30622719726562503,-1.5881853515625002,0.13876743164062405,1.623380487546588
862,1789713531.4830484,0.033194970703125035,-1.5977654296875001,-0.14863491210937596,1.6050073555850843
863,1789713531.5030484,0.16252602539062505,-1.9857585937500002,-0.07678432617187596,1.993877562521561
864,1789713531.5133173,0.19605629882812503,-2.21568046875,0.02380649414062404,2.224465050539943
865,1789713531.5333173,0.20563637695312503,-2.1917302734375,0.10523715820312404,2.203869953172259
866,1789713531.5729759,0.14336586914062505,-2.2444207031250003,0.22498813476562404,2.26022072502574
867,1789713531.5929759,0.30622719726562503,-2.1150896484375,0.19624790039062406,2.1461343284334173
868,1789713531.6030314,0.018824853515625035,-2.0192888671875,0.24893833007812405,2.0346626738698843
869,1789713531.6230314,-0.02907553710937497,-1.8133171875,0.28725864257812406,1.8361596164486724
870,1789713531.6487389,-0.00033530273437496735,-2.0144988281250003,0.34473911132812407,2.0437834268396022
871,1789713531.6687388,0.25353676757812504,-2.44560234375,0.33515903320312407,2.4814478221004586
872,1789713531.678499,0.42118813476562506,-2.541403125,0.32078891601562404,2.5959651032449553
873,1789713531.698499,0.19126625976562503,-2.56056328125,0.28725864257812406,2.583715275943989
874,1789713531.723277,0.20084633789062503,-2.0097087890625,0.15792758789062405,2.02588494029056
875,1789713531.743277,0.296647119140625,-2.0001287109375,0.18187778320312406,2.0301709045382905
876,1789713531.7683556,0.23437661132812504,-2.0671892578125,0.15792758789062405,2.086419168472625
877,1789713531.7883556,0.07630532226562503,-1.880377734375,0.12439731445312405,1.8860322420315272
878,1789713531.797974,0.10025551757812504,-1.9043279296875002,0.13397739257812405,1.9116657590475306
879,1789713531.817974,0.21042641601562503,-2.0863494140625,0.11002719726562404,2.0998188346269893
880,1789713531.8435397,0.30143715820312506,-2.148619921875,0.09086704101562404,2.171563664313492
881,1789713531.8635397,0.23916665039062504,-2.0097087890625,0.13397739257812405,2.028319512605488
882,1789713531.888111,0.18647622070312503,-1.7893669921875002,0.15313754882812405,1.8055632701400823
883,1789713531.908111,0.07630532226562503,-1.7223064453125,0.21061801757812404,1.7368137329891136
884,1789713531.9180503,0.18168618164062506,-1.6456658203125,0.21540805664062404,1.6696186665252801
885,1789713531.9380503,0.13857583007812505,-1.7462566406250002,0.20103793945312406,1.7632446706876248
886,1789713531.9631119,0.22958657226562504,-1.8324773437500002,0.23935825195312405,1.862250139562296
887,1789713531.9831119,0.18168618164062506,-1.9857585937500002,0.25851840820312405,2.0107408656092427
888,1789713532.0088387,0.09546547851562504,-2.0192888671875,0.26809848632812405,2.0392444642825502
889,1789713532.0288386,0.061935205078125034,-1.803737109375,0.25851840820312405,1.8232211321571576
890,1789713532.0378497,0.15294594726562505,-1.7318865234375,0.19624790039062406,1.7496675773578072
891,1789713532.0578496,0.22000649414062504,-1.9905486328125002,0.22019809570312404,2.014739168827331
892,1789713532.0836048,0.12420571289062504,-2.0959294921875,0.13876743164062405,2.104187229174285
893,1789713532.1036048,0.09067543945312503,-1.9091179687500002,0.13876743164062405,1.916301086470568
894,1789713532.1432211,0.17210610351562505,-1.8899578125,0.12918735351562405,1.9021699230629967
895,1789713532.1632211,0.20563637695312503,-1.650455859375,0.07170688476562405,1.6647620672620063
896,1789713532.157751,0.14336586914062505,-1.8612175781250002,0.14355747070312405,1.872242877660539
897,1789713532.177751,0.061935205078125034,-1.9905486328125002,0.17708774414062406,1.999369875321872
898,1789713532.2030926,0.10983559570312504,-1.899537890625,0.18666782226562406,1.911845425726914
899,1789713532.2230926,0.17210610351562505,-1.7606267578125,0.18666782226562406,1.7788400622490144
900,1789713532.24767,0.19605629882812503,-1.8324773437500002,0.22498813476562404,1.856618148261121
901,1789713532.26767,0.08588540039062503,-1.8612175781250002,0.24414829101562405,1.8791262765252366
902,1789713532.2933826,0.13378579101562504,-2.0097087890625,0.22498813476562404,2.0266839209649965
903,1789713532.3133826,0.15773598632812505,-2.0576091796875002,0.33515903320312407,2.0906859532829953
904,1789713532.322933,0.09546547851562504,-1.8372673828125001,0.3638992675781241,1.8753900315611167
905,1789713532.342933,0.24874672851562504,-1.8516375,0.3830594238281241,1.907136830051009
906,1789713532.36848,0.23916665039062504,-1.9713884765625,0.39742954101562405,2.0252218279127785
907,1789713532.38848,0.296647119140625,-1.880377734375,0.30641879882812406,1.9281370328643557
908,1789713532.4281607,0.287067041015625,-1.7941570312500001,0.21540805664062404,1.8297014974270998
909,1789713532.4481606,0.27269692382812505,-1.9186980468750001,0.22019809570312404,1.950449437616506
910,1789713532.4431899,0.43076821289062506,-1.9570183593750001,0.12439731445312405,2.0077242848585932
911,1789713532.4631898,0.34454750976562504,-1.9570183593750001,0.19624790039062406,1.9967841855904807
912,1789713532.4885406,0.19605629882812503,-1.9043279296875002,0.29204868164062403,1.936542116388407
913,1789713532.5085406,0.19126625976562503,-1.6935662109375,0.15313754882812405,1.7111985278789303
914,1789713532.5336494,0.24395668945312504,-1.7031462890625002,0.16750766601562406,1.728664503728325
915,1789713532.5536494,0.27269692382812505,-1.7318865234375,0.08128696289062405,1.7551074362174341
916,1789713532.563191,0.13857583007812505,-1.7893669921875002,0.057336767578124045,1.7956405537657838
917,1789713532.583191,0.2583268066406251,-1.7606267578125,0.07649692382812405,1.7811207423163835
918,1789713532.607958,0.277486962890625,-1.7462566406250002,0.052546728515624044,1.7689467002085926
919,1789713532.627958,0.12420571289062504,-1.7941570312500001,0.052546728515624044,1.799218627787123
920,1789713532.6531165,0.014034814453125034,-1.8612175781250002,0.11002719726562404,1.8645197326057865
921,1789713532.6731164,-0.019495458984374967,-1.7606267578125,0.09565708007812404,1.7633312026432924
922,1789713532.6830568,0.018824853515625035,-1.6600359375,0.13397739257812405,1.6655400417352388
923,1789713532.7030568,0.15773598632812505,-1.8276873046875002,0.24414829101562405,1.8506566167456933
924,1789713532.728481,0.11462563476562504,-1.8133171875,0.21061801757812404,1.8291031157255382
925,1789713532.748481,-0.019495458984374967,-1.4923845703125,0.15313754882812405,1.5003475888902953
926,1789713532.7730575,0.09067543945312503,-1.5163347656250001,0.14355747070312405,1.5258118836074517
927,1789713532.7930574,0.04277504882812504,-1.5833953125,0.13397739257812405,1.5896290014249406
928,1789713532.8027475,0.05235512695312503,-1.5546550781250001,-0.004933740234375959,1.5555442176456535
929,1789713532.8227475,0.09546547851562504,-1.5929753906250002,-0.02409389648437596,1.5960152783018366
930,1789713532.8481116,-0.04344565429687497,-1.7797869140625,0.02380649414062404,1.780476265921191
931,1789713532.8681116,-0.13445639648437496,-1.650455859375,-0.014513818359375959,1.655987233412203
932,1789713532.892584,-0.04344565429687497,-1.5594451171875001,-0.13905483398437596,1.5662352458208957
933,1789713532.912584,-0.05781577148437497,-1.535494921875,-0.14863491210937596,1.5437550503995146
934,1789713532.9228017,-0.21588706054687498,-1.6552458984375,0.08128696289062405,1.6712431832446524
935,1789713532.9428017,-0.07697592773437498,-1.64087578125,0.16271762695312406,1.6507197366799193
936,1789713532.968139,-0.07218588867187498,-1.5833953125,0.2728885253906241,1.6083593085688874
937,1789713532.988139,-0.05302573242187497,-1.7175164062500001,0.593821142578124,1.8180478220909317
938,1789713533.0132375,-0.12966635742187496,-1.6312957031250002,0.6992020019531241,1.7795568197774418
939,1789713533.0332375,-0.06739584960937497,-1.3007830078125,0.44053989257812404,1.3750105566544022
940,1789713533.0579824,-0.009915380859374968,-1.5402849609375,0.27767856445312405,1.5651458273351306
941,1789713533.0779824,0.05714516601562503,-1.8468474609375,0.2633084472656241,1.8663982566354047
942,1789713533.0875535,-0.005125341796874967,-1.8947478515625,0.22977817382812404,1.908636607449682
943,1789713533.1075535,0.06672524414062504,-1.8085271484375,0.15313754882812405,1.8162251550130528
944,1789713533.133232,0.14336586914062505,-1.803737109375,0.10523715820312404,1.812483432100166
945,1789713533.153232,0.12899575195312504,-2.0432390625,0.22977817382812404,2.060161105281725
946,1789713533.1771681,0.20563637695312503,-2.1342498046875003,0.3830594238281241,2.178082429688687
947,1789713533.197168,0.21042641601562503,-1.937858203125,0.31120883789062403,1.9739363294587968
948,1789713533.2070022,0.267906884765625,-1.7366765625,0.19145786132812406,1.7676186507009868
949,1789713533.2270021,0.30143715820312506,-1.9139080078125001,0.10044711914062404,1.9401025350372696
950,1789713533.2522802,0.18647622070312503,-2.1055095703125,0.12439731445312405,2.117408468720289
951,1789713533.2722802,0.22958657226562504,-2.148619921875,0.14355747070312405,2.1656145340843755
952,1789713533.2981374,0.22958657226562504,-1.9905486328125002,0.15792758789062405,2.0099589490269056
953,1789713533.3181374,0.15294594726562505,-1.8516375,0.15792758789062405,1.8646434021571472
954,1789713533.3278418,0.19126625976562503,-1.9186980468750001,0.13397739257812405,1.9328566731469523
955,1789713533.3478417,0.17689614257812505,-1.9330681640625,0.14355747070312405,1.9464463824019564
956,1789713533.3724325,0.21042641601562503,-1.928278125,0.2537283691406241,1.9562499557105317
957,1789713533.3924325,0.26311684570312505,-1.9139080078125001,0.32557895507812407,1.9591518554852603
958,1789713533.4181292,0.18168618164062506,-1.8660076171875002,0.29204868164062403,1.8974421541772886
959,1789713533.4381292,0.05235512695312503,-1.7845769531250002,0.2728885253906241,1.8060797624227607
960,1789713533.4482229,0.17210610351562505,-1.8228972656250002,0.25851840820312405,1.8491637891950812
961,1789713533.4682229,0.20084633789062503,-1.8372673828125001,0.24414829101562405,1.8642690458720328
962,1789713533.4933395,0.19605629882812503,-1.7366765625,0.16750766601562406,1.7557170538617553
963,1789713533.5133395,0.12899575195312504,-1.8612175781250002,0.14834750976562405,1.8715709339474969
964,1789713533.5381637,0.14336586914062505,-1.928278125,0.15792758789062405,1.9400390261035765
965,1789713533.5581636,0.18168618164062506,-1.9522283203125002,0.13876743164062405,1.9655690482182129
966,1789713533.5677066,0.09546547851562504,-1.880377734375,0.16271762695312406,1.8898177445570596
967,1789713533.5877066,0.11941567382812504,-1.7797869140625,0.11960727539062405,1.7877940213990846
968,1789713533.6131501,0.15294594726562505,-1.8899578125,0.17229770507812406,1.9039483960942725
969,1789713533.63315,0.16731606445312505,-1.9618083984375,0.15313754882812405,1.9748766965218556
970,1789713533.6580963,0.22479653320312504,-2.0144988281250003,0.19145786132812406,2.0360243423204647
971,1789713533.6780963,0.28227700195312505,-2.0384490234375,0.2537283691406241,2.0734832558503338
972,1789713533.7030866,0.3876578613281251,-1.8085271484375,0.27767856445312405,1.8703353841602097
973,1789713533.7230866,0.27269692382812505,-1.7606267578125,0.29204868164062403,1.805398190161579
974,1789713533.7330558,0.19605629882812503,-1.8755876953125001,0.2633084472656241,1.9041004735883222
975,1789713533.7530558,0.19126625976562503,-2.0671892578125,0.20103793945312406,2.085730198956635
976,1789713533.7780075,0.287067041015625,-2.1629900390625,0.19145786132812406,2.190340043871134
977,1789713533.7980075,0.37328774414062504,-2.2204705078125,0.19145786132812406,2.2597542186386197
978,1789713533.8229523,0.42597817382812503,-2.0767693359375,0.11481723632812404,2.123113580811507
979,1789713533.8429523,0.2583268066406251,-2.1534099609375,0.19145786132812406,2.177283470648305
980,1789713533.8532362,0.18647622070312503,-2.0576091796875002,0.16271762695312406,2.0724396115069905
981,1789713533.8732362,0.23916665039062504,-2.0384490234375,0.16271762695312406,2.058871568100746
982,1789713533.898317,0.267906884765625,-2.0432390625,0.15313754882812405,2.0664101902313075
983,1789713533.918317,0.16252602539062505,-1.9809685546875002,0.19145786132812406,1.9968242877765425
984,1789713533.9427378,0.22000649414062504,-1.8660076171875002,0.22019809570312404,1.891791343202813
985,1789713533.9627378,0.28227700195312505,-1.8133171875,0.14834750976562405,1.8411427190655854
986,1789713533.9731512,0.277486962890625,-1.9139080078125001,0.14355747070312405,1.9392399604839403
987,1789713533.9931512,0.21042641601562503,-1.8707976562500002,0.16271762695312406,1.8896137629973304
988,1789713534.0184138,0.19605629882812503,-2.0001287109375,0.17708774414062406,2.0175016732958375
989,1789713534.0384138,0.16731606445312505,-1.9234880859375,0.13397739257812405,1.935394281248558
990,1789713534.0622258,0.05714516601562503,-1.7989470703125001,0.13397739257812405,1.8048340847587385
991,1789713534.0822258,0.27269692382812505,-1.8564275390625,0.16271762695312406,1.8833915806799786
992,1789713534.0930336,0.22000649414062504,-1.9474382812500002,0.24893833007812405,1.9755730836706822
993,1789713534.1130335,0.15773598632812505,-1.7893669921875002,0.19624790039062406,1.8069942203894223
994,1789713534.1380925,0.15294594726562505,-1.7366765625,0.17708774414062406,1.7523692575044254
995,1789713534.1580925,0.29185708007812505,-1.9091179687500002,0.24414829101562405,1.9466690426987598
996,1789713534.1830761,0.14336586914062505,-1.8612175781250002,0.2537283691406241,1.8838956263186926
997,1789713534.2030761,0.11941567382812504,-1.7031462890625002,0.19145786132812406,1.7180289571970344
998,1789713534.2127607,0.20563637695312503,-1.8372673828125001,0.08607700195312405,1.8507422850678967
999,1789713534.2327607,0.277486962890625,-2.0192888671875,0.13876743164062405,2.0429838334665735
1000,1789713534.2579665,-0.00033530273437496735,-2.1534099609375,0.23456821289062404,2.166147921724523
1001,1789713534.2779665,0.23916665039062504,-1.8851677734375,0.10523715820312404,1.9031902375046594
1002,1789713534.3029504,0.19126625976562503,-1.9618083984375,0.17229770507812406,1.9786261580904638
1003,1789713534.3229504,0.15773598632812505,-2.2492107421875,0.26809848632812405,2.2706180661938684
1004,1789713534.3325026,0.267906884765625,-2.2492107421875,0.09565708007812404,2.267128875614604
1005,1789713534.3525026,0.014034814453125034,-2.0001287109375,0.12918735351562405,2.0043455811415383
1006,1789713534.3777957,-0.005125341796874967,-2.8862859375,0.30641879882812406,2.902510165772733
1007,1789713534.3977957,0.4068180175781251,-2.4503923828125003,0.03817661132812404,2.484226475751399
1008,1789713534.4233935,0.48824868164062507,-2.3210613281250003,0.057336767578124045,2.3725513627648835
1009,1789713534.4433935,-0.03865561523437497,-2.1342498046875003,0.16750766601562406,2.1411621385527493
1010,1789713534.4684567,0.04756508789062504,-2.3354314453125,0.19145786132812406,2.343748831680736
1011,1789713534.4884567,0.19605629882812503,-2.3977019531250003,0.17229770507812406,2.4118663369898448
1012,1789713534.4987378,0.11462563476562504,-2.4982927734375,0.18666782226562406,2.5078777270482804
1013,1789713534.5187378,-0.00033530273437496735,-2.436022265625,0.22498813476562404,2.4463900449098457
1014,1789713534.5423527,0.18647622070312503,-2.3450115234375,0.24414829101562405,2.3650498544318754
1015,1789713534.5623527,0.15294594726562505,-2.2731609375,0.17708774414062406,2.2851724616942315
1016,1789713534.5880914,0.12899575195312504,-2.4120720703125,0.16271762695312406,2.420993309062385
1017,1789713534.6080914,0.10025551757812504,-2.5988835937499997,0.22019809570312404,2.6101215113513496
1018,1789713534.6175585,0.16731606445312505,-2.5940935546875,0.19624790039062406,2.606881139274102
1019,1789713534.6375585,0.24874672851562504,-2.6515740234375,0.13397739257812405,2.666583896755883
1020,1789713534.66275,0.22000649414062504,-2.5749333984375,0.13876743164062405,2.5880381109900754
1021,1789713534.68275,0.15773598632812505,-2.6036736328125,0.16750766601562406,2.613820163239994
1022,1789713534.7078588,0.18647622070312503,-2.5940935546875,0.15313754882812405,2.6052918953967588
1023,1789713534.7278588,0.23437661132812504,-2.6563640625,0.13876743164062405,2.670291899505238
1024,1789713534.737967,0.20563637695312503,-2.6707341796875,0.09565708007812404,2.6803465550272683
1025,1789713534.757967,0.16252602539062505,-2.7186345703124997,0.11002719726562404,2.7257099295349887
1026,1789713534.7840576,0.26311684570312505,-2.7330046875,0.13397739257812405,2.748907971924809
1027,1789713534.8040576,0.23916665039062504,-2.63720390625,0.22019809570312404,2.6571662219647854
1028,1789713534.8284843,0.15773598632812505,-2.6228337890624998,0.20103793945312406,2.6352521662130197
1029,1789713534.8484843,0.29185708007812505,-2.627623828125,0.09565708007812404,2.645512769632965
1030,1789713534.8575642,0.2583268066406251,-2.6419939453125,0.10044711914062404,2.6564928702785378
1031,1789713534.8775642,0.20084633789062503,-2.7282146484375,0.15313754882812405,2.739880568246381
1032,1789713534.903237,0.19126625976562503,-2.8144353515625,0.22019809570312404,2.82950814305256
1033,1789713534.923237,0.33975747070312506,-2.6659441406249997,0.12439731445312405,2.6903843576103585
1034,1789713534.947872,0.31580727539062503,-2.7282146484375,0.10044711914062404,2.7482683687882905
1035,1789713534.967872,0.24874672851562504,-2.6898943359375,0.08607700195312405,2.7027422599502726
1036,1789713534.9777403,0.27269692382812505,-2.8144353515625,0.11960727539062405,2.8301441413321027
1037,1789713534.9977403,0.3780777832031251,-2.8910759765625,0.13397739257812405,2.918769099146185
1038,1789713535.0231185,0.39244790039062505,-2.876705859375,0.11960727539062405,2.9058144910179373
1039,1789713535.0431185,0.2583268066406251,-2.8623357421874998,0.11002719726562404,2.8760745164496933
1040,1789713535.0682595,0.18168618164062506,-2.761744921875,0.10044711914062404,2.7695368756969367
1041,1789713535.0882595,0.32059731445312506,-2.8623357421874998,0.13876743164062405,2.8835750274828564
1042,1789713535.1135087,0.34933754882812507,-2.8527556640625,0.13397739257812405,2.8771863936116393
1043,1789713535.1335087,0.4068180175781251,-2.9485564453124997,0.09565708007812404,2.9780255686594015
1044,1789713535.1579962,0.44513833007812503,-3.029987109375,0.11960727539062405,3.0648451700224233
1045,1789713535.1779962,0.33496743164062504,-2.9581365234375,0.10044711914062404,2.9787353852429503
1046,1789713535.1877313,0.35891762695312507,-2.9820867187499998,0.07649692382812405,3.004582307149859
1047,1789713535.2077312,0.46908852539062507,-3.0587273437499998,0.07170688476562405,3.09531886651115
1048,1789713535.2332408,0.44513833007812503,-3.1593181640625,0.08607700195312405,3.19168429593925
1049,1789713535.2532408,0.38286782226562505,-3.1018376953124998,0.06691684570312405,3.126093844021135
1050,1789713535.2626011,0.38286782226562505,-2.9964568359375,0.10523715820312404,3.0226505253551337
1051,1789713535.282601,0.3876578613281251,-2.953346484375,0.11481723632812404,2.9808919926722766
1052,1789713535.3078196,0.416398095703125,-3.0395671875,0.10044711914062404,3.0696002484322777
1053,1789713535.3278196,0.42597817382812503,-3.0635173828125,0.06212680664062405,3.093615344459562
1054,1789713535.3536904,0.41160805664062505,-2.9389763671874998,0.06691684570312405,2.9684139103933873
1055,1789713535.3736904,0.3972379394531251,-2.972506640625,0.10523715820312404,3.0007779938821457
1056,1789713535.3830452,0.31580727539062503,-2.9102361328125,0.12439731445312405,2.929963016107926
1057,1789713535.4030452,0.3972379394531251,-2.9102361328125,0.09565708007812404,2.9387791012999753
1058,1789713535.4285307,0.35891762695312507,-2.9677166015625,0.21540805664062404,2.9970926447130437
1059,1789713535.4485307,0.35412758789062504,-2.8719158203124997,0.17708774414062406,2.8990803535934058
1060,1789713535.47362,0.43076821289062506,-2.9150261718749997,0.11481723632812404,2.948918756715964
1061,1789713535.49362,0.42118813476562506,-3.0539373046875,0.10523715820312404,3.0846405569038295
1062,1789713535.5027008,0.30143715820312506,-3.1449480468749997,0.10523715820312404,3.1611133224475076
1063,1789713535.5227008,0.33017739257812506,-3.106627734375,0.06212680664062405,3.1247420262576875
1064,1789713535.5478737,0.32059731445312506,-2.895866015625,0.04296665039062404,2.913875212072775
1065,1789713535.5678737,0.3876578613281251,-2.8527556640625,0.04296665039062404,2.879294988245553
1066,1789713535.5935657,0.36370766601562504,-3.0635173828125,0.03338657226562404,3.0852125833272055
1067,1789713535.6135657,0.32059731445312506,-3.2072185546875,0.09565708007812404,3.2246214929097348
1068,1789713535.622615,0.38286782226562505,-3.106627734375,0.11481723632812404,3.132236684395417
1069,1789713535.642615,0.512198876953125,-3.001246875,0.07649692382812405,3.04560047833009
1070,1789713535.6684332,0.47387856445312504,-2.934186328125,0.10044711914062404,2.9739031466655863
1071,1789713535.6884332,0.4978287597656251,-3.1545281249999997,0.12439731445312405,3.1959905909293513
1072,1789713535.7286065,0.48824868164062507,-3.164108203125,0.09086704101562404,3.202846283440662
1073,1789713535.7486064,0.5217789550781251,-3.0251970703124997,0.03817661132812404,3.0701022858924834
1074,1789713535.7424457,0.46908852539062507,-3.0778875,0.04296665039062404,3.1137247213514545
1075,1789713535.7624457,0.44034829101562506,-3.2263787109375,0.07649692382812405,3.257188662504257
1076,1789713535.788182,0.44034829101562506,-3.02040703125,0.13876743164062405,3.0554904110320744
1077,1789713535.808182,0.46429848632812504,-3.106627734375,0.16750766601562406,3.1455949806941983
1078,1789713535.8327694,0.6463199707031251,-3.0587273437499998,0.12439731445312405,3.128740506941534
1079,1789713535.8527694,0.5696793457031251,-3.1114177734374997,0.09565708007812404,3.1645861332491143
1080,1789713535.877841,0.5457291503906251,-2.9868767578125,0.06212680664062405,3.0369578219082904
1081,1789713535.897841,0.5409391113281251,-3.02040703125,0.09086704101562404,3.069809534113124
1082,1789713535.9083989,0.536149072265625,-3.2838591796875,0.15792758789062405,3.3310851179046903
1083,1789713535.9283988,0.598419580078125,-3.2551189453125,0.06212680664062405,3.3102515134135357
1084,1789713535.952799,0.516988916015625,-2.934186328125,0.08128696289062405,2.980492328085188
1085,1789713535.972799,0.46429848632812504,-2.7665349609375,0.15313754882812405,2.809402050856575
1086,1789713535.9977648,0.49303872070312504,-3.164108203125,0.12918735351562405,3.204895828806899
1087,1789713536.0177648,0.22000649414062504,-3.2455388671875,-0.00972377929687596,3.2530016827189905
1088,1789713536.0276825,0.5696793457031251,-3.5042009765624997,0.06212680664062405,3.5507490450841046
1089,1789713536.0476825,1.0343131347656251,-2.71384453125,-0.16779506835937597,2.909108280128114
1090,1789713536.0728517,0.6079996582031251,-3.2694890625,0.22977817382812404,3.333469712379285
1091,1789713536.0928516,0.512198876953125,-3.3988201171875,0.16271762695312406,3.441046774554474
1092,1789713536.1184428,0.5648893066406251,-3.183268359375,0.10044711914062404,3.234561330427757
1093,1789713536.1384428,0.631949853515625,-3.9257244140625,0.44053989257812404,4.000593479657428
1094,1789713536.148501,0.5505191894531251,-5.559127734375,0.531550634765624,5.611552247139215
1095,1789713536.168501,0.5457291503906251,-4.4238884765625,0.27767856445312405,4.4660625772379525
1096,1789713536.1931014,0.8235514160156251,-2.36896171875,-0.03846401367187596,2.5083253457380774
1097,1789713536.2131014,1.527687158203125,-1.08523125,-0.25880581054687596,1.8917017119218686
1098,1789713536.2435899,1.599537744140625,-1.0612810546875,-0.459987451171876,1.9739369106444844
1099,1789713536.2635899,0.8283414550781251,-1.1666619140625,-0.536628076171876,1.5281424279368894
1100,1789713536.2683196,0.06672524414062504,-1.64087578125,-0.21569545898437598,1.6563363543450058
1101,1789713536.2883196,0.4068180175781251,-2.4408123046875003,0.22019809570312404,2.484261018389852
1102,1789713536.3124316,0.6606900878906251,-3.3700798828125,0.550710791015624,3.478107557870442
1103,1789713536.3324316,0.612789697265625,-2.9389763671874998,0.18666782226562406,3.0079790850055654
1104,1789713536.3581045,0.34454750976562504,-2.1438298828125,-0.07678432617187596,2.172697720731354
1105,1789713536.3781044,0.3876578613281251,-1.5977654296875001,-0.05283413085937596,1.6449694316727115
1106,1789713536.3883188,0.6654801269531251,-2.3929119140625,0.31599887695312406,2.5037464963664835
1107,1789713536.4083188,0.6032096191406251,-2.7473748046875,0.16271762695312406,2.8175179126629724
1108,1789713536.4328265,0.35891762695312507,-2.857545703125,-0.00014370117187595844,2.87999814740146
1109,1789713536.4528265,0.4068180175781251,-3.0778875,0.18666782226562406,3.1102632103974477
1110,1789713536.4771326,0.536149072265625,-3.2215886718749998,0.23935825195312405,3.2746575044151824
1111,1789713536.4971325,1.082213525390625,-2.56056328125,-0.03846401367187596,2.7801348730182
1112,1789713536.523056,0.9433023925781251,-2.44560234375,-0.05762416992187596,2.6218525459221182
1113,1789713536.543056,0.5457291503906251,-2.7665349609375,0.004646337890624042,2.8198506315284364
1114,1789713536.5527005,0.35891762695312507,-3.0060369140625,0.13876743164062405,3.0305669752916193
1115,1789713536.5727005,0.7229605957031251,-2.771325,0.07170688476562405,2.864970533162114
1116,1789713536.598082,1.0247330566406252,-2.359381640625,0.004646337890624042,2.572310469586856
1117,1789713536.618082,1.058263330078125,-2.6898943359375,0.12439731445312405,2.8932555203679873
1118,1789713536.6425147,0.7996012207031251,-2.9677166015625,0.19145786132812406,3.0795064624065884
1119,1789713536.6625147,0.512198876953125,-2.6755242187499997,0.10523715820312404,2.726142401661459
1120,1789713536.6726177,0.48345864257812504,-2.4695525390624997,0.13397739257812405,2.519994433326303
1121,1789713536.6926177,0.5840494628906251,-2.5270330078125,0.19624790039062406,2.6010618670236285
1122,1789713536.7183108,0.655900048828125,-2.6515740234375,0.16750766601562406,2.736623557231661
1123,1789713536.7383108,0.5696793457031251,-2.8096453125,0.13876743164062405,2.8701738168720894
1124,1789713536.7632616,0.43555825195312503,-2.8623357421874998,0.10523715820312404,2.897197223406649
1125,1789713536.7832615,0.598419580078125,-2.953346484375,0.019016455078124044,3.0134238129003346
1126,1789713536.7926927,0.46908852539062507,-2.92460625,0.04296665039062404,2.962298414278684
1127,1789713536.8126926,-0.13445639648437496,-2.7377947265625,0.13397739257812405,2.7443666717607234
1128,1789713536.8375998,0.8570816894531251,-1.9139080078125001,0.19145786132812406,2.1057751535785996
1129,1789713536.8575997,0.516988916015625,-2.0144988281250003,0.30162875976562403,2.101538240555655
1130,1789713536.8827538,1.0774234863281251,-2.1534099609375,0.31120883789062403,2.427934671595908
1131,1789713536.9027538,0.7996012207031251,-2.21568046875,0.16271762695312406,2.361160536234545
1132,1789713536.9133387,1.010362939453125,-2.1725701171875,0.06691684570312405,2.396950572655874
1133,1789713536.9333386,1.091793603515625,-1.9905486328125002,0.06212680664062405,2.271157606237997
1134,1789713536.9577637,0.8666617675781251,-2.8862859375,0.09086704101562404,3.0149636733358545
1135,1789713536.9777637,0.32059731445312506,-3.2263787109375,0.014226416015624042,3.2422992791131926
1136,1789713537.0030925,-0.867332373046875,-2.3833318359375,0.014226416015624042,2.536284383983978
1137,1789713537.0230925,0.07151528320312503,-1.4301140625000002,0.21540805664062404,1.448012879209839
1138,1789713537.0329719,1.561217431640625,-1.4636443359375,0.25851840820312405,2.155571009816274
1139,1789713537.0529718,1.5516373535156252,-2.5893035156249997,0.15313754882812405,3.0225026520607132
1140,1789713537.077562,0.7804410644531251,-2.9964568359375,0.10523715820312404,3.0982118526963207
1141,1789713537.097562,0.42597817382812503,-1.6648259765625002,-0.22048549804687598,1.7325463317511038
1142,1789713537.122634,0.42597817382812503,-1.976178515625,0.057336767578124045,2.02238137726594
1143,1789713537.142634,0.9959928222656251,-2.1534099609375,-0.00972377929687596,2.3726084198099997
1144,1789713537.153193,0.25353676757812504,-3.40361015625,0.17229770507812406,3.4173863532555555
1145,1789713537.173193,0.22958657226562504,-3.911354296875,0.15792758789062405,3.9212681052006833
1146,1789713537.1976116,0.32538735351562503,-4.4143083984375,0.16750766601562406,4.429453057039633
1147,1789713537.2176116,0.7181705566406251,-3.8874041015625,-0.08636440429687596,3.9541292856455774
1148,1789713537.2431202,0.45471840820312504,-3.2215886718749998,-0.18695522460937597,3.2588885616910637
1149,1789713537.2631202,0.46908852539062507,-2.7521648437499997,-0.05283413085937596,2.7923550664645562
1150,1789713537.287553,0.6271598144531251,-2.61804375,0.21061801757812404,2.7003411745754424
1151,1789713537.307553,0.7804410644531251,-2.7377947265625,0.22019809570312404,2.8553625726393213
1152,1789713537.3173947,0.7421207519531251,-3.0587273437499998,0.13397739257812405,3.150318414955135
1153,1789713537.3373947,0.6463199707031251,-2.9677166015625,0.20103793945312406,3.0439263435272084
1154,1789713537.3633127,0.655900048828125,-2.4599724609374998,0.24414829101562405,2.5575921822349796
1155,1789713537.3833127,0.6271598144531251,-2.1917302734375,0.21061801757812404,2.2894040651872345
1156,1789713537.4082448,0.5840494628906251,-2.48392265625,0.21540805664062404,2.560739379202923
1157,1789713537.4282448,0.531359033203125,-2.6132537109375,0.052546728515624044,2.667245496495002
1158,1789713537.4380026,0.5505191894531251,-2.5222429687499996,-0.00972377929687596,2.5816420207396593
1159,1789713537.4580026,0.6223697753906251,-2.1438298828125,0.057336767578124045,2.2330781913484232
1160,1789713537.482997,0.6798502441406251,-2.033658984375,0.06212680664062405,2.145186462592608
1161,1789713537.502997,0.598419580078125,-2.2779509765625003,0.10044711914062404,2.357383352190852
1162,1789713537.5283132,0.5696793457031251,-2.3162712890625,0.12918735351562405,2.3887939663697177
1163,1789713537.5483131,0.46908852539062507,-2.033658984375,0.04775668945312404,2.0876047544422365
1164,1789713537.5583708,0.636739892578125,-1.9665984375,0.09565708007812404,2.069322928435027
1165,1789713537.5783708,0.876241845703125,-2.263580859375,0.29683872070312406,2.4453448233733317
1166,1789713537.6026015,0.5409391113281251,-2.263580859375,0.10044711914062404,2.3294855768682012
1167,1789713537.6226015,0.9385123535156251,-2.2013103515625003,0.07170688476562405,2.3940999517397863
1168,1789713537.647707,0.852291650390625,-2.0384490234375,0.028596533203124042,2.209636449778585
1169,1789713537.667707,0.895402001953125,-2.263580859375,0.10523715820312404,2.4365175787375715
1170,1789713537.6782572,0.876241845703125,-1.976178515625,0.03817661132812404,2.162068165306438
1171,1789713537.6982572,0.8283414550781251,-2.1582000000000003,0.21540805664062404,2.321718638652547
1172,1789713537.7373614,0.852291650390625,-2.2540007812500003,0.2537283691406241,2.4230762811987465
1173,1789713537.7573614,0.9289322753906251,-1.7989470703125001,0.11481723632812404,2.0278828200382684
1174,1789713537.7829998,0.852291650390625,-1.8899578125,0.14355747070312405,2.078208444249527
1175,1789713537.8029997,0.770860986328125,-2.0480291015625003,0.10523715820312404,2.1908274054695274
1176,1789713537.79803,1.005572900390625,-2.110299609375,0.06212680664062405,2.3384612546355465
1177,1789713537.8180299,0.9193521972656251,-2.378541796875,0.08128696289062405,2.551328499514413
1178,1789713537.84251,1.005572900390625,-2.1246697265625003,0.04775668945312404,2.351101658023044
1179,1789713537.86251,0.8810318847656251,-2.1725701171875,0.09565708007812404,2.3463649275078353
1180,1789713537.8870962,0.6990104003906251,-2.5078728515625,0.10523715820312404,2.605593337212305
1181,1789713537.9070961,0.694220361328125,-2.0097087890625,0.004646337890624042,2.1262391482082643
1182,1789713537.917866,0.813971337890625,-1.7702068359375,0.09565708007812404,1.9507259822631116
1183,1789713537.937866,0.9576725097656251,-2.186940234375,0.24414829101562405,2.399885958268605
1184,1789713537.9627273,0.732540673828125,-2.6611541015625,0.15792758789062405,2.76465153574414
1185,1789713537.9827273,0.5217789550781251,-2.4024919921875,0.09086704101562404,2.460178422316239
1186,1789713538.0077732,0.7469107910156251,-2.4024919921875,0.15313754882812405,2.520574262171566
1187,1789713538.0277731,0.7612809082031251,-2.0815593750000003,0.10044711914062404,2.2186770104250453
1188,1789713538.0531373,0.5600992675781251,-2.531823046875,0.16271762695312406,2.5981370549588445
1189,1789713538.0731373,0.5265689941406251,-2.1582000000000003,0.014226416015624042,2.2215545315168206
1190,1789713538.0826802,0.416398095703125,-2.1821501953125,0.13397739257812405,2.2255598825305967
1191,1789713538.1026802,0.516988916015625,-2.2971111328125002,0.16271762695312406,2.360185188051013
1192,1789713538.1274211,0.44992836914062506,-2.4408123046875003,0.15313754882812405,2.4866546509180836
1193,1789713538.1474211,0.22000649414062504,-2.1342498046875003,0.11481723632812404,2.1486293500812814
1194,1789713538.173315,0.49303872070312504,-2.0144988281250003,0.15313754882812405,2.079601841096189
1195,1789713538.193315,0.655900048828125,-1.9953386718750001,0.16271762695312406,2.106669958881524
1196,1789713538.2028444,0.5600992675781251,-2.2875310546875003,0.17708774414062406,2.3617513808244244
1197,1789713538.2228444,0.267906884765625,-2.1629900390625,0.18666782226562406,2.1874974020230993
1198,1789713538.2477877,0.3876578613281251,-2.1725701171875,0.18666782226562406,2.2147650907974405
1199,1789713538.2677877,0.7612809082031251,-2.4695525390624997,0.14834750976562405,2.5884832137833684
1200,1789713538.292754,0.6702701660156251,-2.5366130859375,0.057336767578124045,2.624300963707533
