imu_index,t_imu,ax,ay,az,mag,vx,vy,vz,velocity
0,1790650114.6569197,-0.023040087890625012,-0.04368515625000002,-0.019112255859373956,0.052957689249332016,0.0,0.0,0.0,0.0
1,1790650114.6769197,-0.003879931640625011,-0.053265234375000026,-0.043062451171873954,0.06860476487453067,-6.97560748327815e-05,-0.00020112396834930414,-0.0001176300745866857,0.00024321512096890223
2,1790650114.6866245,-0.037410205078125015,-0.053265234375000026,-0.004742138671873955,0.0652625199957398,-0.00012858088458150098,-0.0003616181670767839,-0.00020094240702494734,0.00043321887491280163
3,1790650114.7066245,-0.09489067382812502,0.05690566406249998,0.043158251953126045,0.11876501712877921,-0.00043007565185992935,-0.0006372958130077335,-0.00028925681487015686,0.0008214502568925031
4,1790650114.7322369,-0.07573051757812502,0.047325585937499984,0.05273833007812605,0.10371187895515042,-0.0010860113536594416,-0.0007371575467524308,-0.00020117905988710873,0.0013278911563634785
5,1790650114.7522368,-0.07094047851562502,0.04253554687499998,4.790039062604557e-05,0.08271533433667906,-0.0017413894189229207,-0.0006686483582545728,-6.35389238775933e-05,0.0018664310676209733
6,1790650114.776999,-0.042200244140625016,-0.03889511718750002,0.014418017578126047,0.059174065074497524,-0.0026412249975951026,-0.0005897889339176662,0.00010817807369249254,0.0027084355207611654
7,1790650114.796999,-0.008669970703125012,-0.029315039062500024,0.03836821289062605,0.04905771771749427,-0.003335295183058147,-0.0006379646386025152,0.0003052463699717337,0.0034094527690846574
8,1790650114.8069043,-0.037410205078125015,0.01858535156249998,0.023998095703126048,0.04817517342019111,-0.0036617159406617263,-0.000666216604489989,0.00043453959888159325,0.0037471099339611773
9,1790650114.8269043,-0.05178032226562501,0.047325585937499984,4.790039062604557e-05,0.07014923486900694,-0.004355719481176934,-0.0006158375776770449,0.0006925073703095716,0.004453213960581332
10,1790650114.8522842,-0.042200244140625016,-0.048475195312500025,-0.009532177734373955,0.06497359139275799,-0.005283195327660761,-0.0005636846833982665,0.0009527101858427792,0.005397920895189451
11,1790650114.8722842,-0.042200244140625016,-0.07721542968750003,0.019208056640626046,0.0900668231218528,-0.006031038605262739,-0.0007172873447793082,0.0011415132631363996,0.0061798851383392545
12,1790650114.896641,-0.07573051757812502,0.023375390624999978,0.043158251953126045,0.09024497155615678,-0.0070206126884840275,-0.0009746447157516002,0.0014508844101036819,0.007234915370280937
13,1790650114.916641,-0.04699028320312501,0.047325585937499984,0.023998095703126048,0.07087810943594633,-0.007895372059965112,-0.0010482172592329241,0.0017675460264884467,0.008158423765874546
14,1790650114.941101,-0.04699028320312501,0.05211562499999998,-0.019112255859373956,0.07272828479130172,-0.008977139798919743,-0.0009422744335390583,0.002105696065373181,0.00926881200570916
15,1790650114.961101,-0.05178032226562501,-0.014944921875000022,4.790039062604557e-05,0.05389392134767387,-0.0098771343196192,-0.0008128871716586441,0.0023121170171397525,0.010176662174927192
16,1790650114.9712186,-0.06615043945312502,0.03774550781249998,0.03836821289062605,0.08528026594872613,-0.010353615495331219,-0.0007399498128438775,0.0024300278070872867,0.010660671399771586
17,1790650114.9912186,-0.05657036132812501,0.01379531249999998,0.03357817382812605,0.06721614527328332,-0.011338304139950232,-0.0005400856400499755,0.00273606691961874,0.011676253485482095
18,1790650115.0161684,-0.05657036132812501,0.004215234374999978,4.790039062604557e-05,0.056727209309803225,-0.012594148316250437,-0.0002944543067059724,0.003123502968626811,0.012979042566594498
19,1790650115.0361683,-0.04699028320312501,-0.010154882812500023,0.019208056640626046,0.051770240489638436,-0.01360518096445484,-0.00013599848065591798,0.003416373339173593,0.014028223389115286
20,1790650115.061448,-0.09010063476562502,0.03774550781249998,0.047948291015626046,0.10882043170522353,-0.014951347097116553,8.655633650406683e-05,0.003858357810740492,0.015441411755844955
21,1790650115.081448,-0.09489067382812502,0.023375390624999978,0.023998095703126048,0.10063079778975889,-0.016134095637419216,0.00032789994437393467,0.004263500392222523,0.01669113525214483
22,1790650115.091735,-0.07573051757812502,-0.01973496093750002,-0.009532177734373955,0.07883807702002281,-0.01678281724290345,0.00043622152787577313,0.00445178518825167,0.017368696991784286
23,1790650115.1117349,-0.061360400390625014,-0.024525000000000022,0.004837939453126046,0.06625692431172707,-0.01806053105569385,0.000548843949894922,0.004755903380486274,0.018684288283462632
24,1790650115.136528,-0.07094047851562502,0.05690566406249998,0.043158251953126045,0.10066499295221484,-0.01965288226326749,0.0007277266941285613,0.005165603949896535,0.020333441212996583
25,1790650115.156528,-0.06615043945312502,0.05211562499999998,0.06231840820312605,0.104764034906802,-0.02095035013358778,0.0010139134789818541,0.005604739268817576,0.02171078749226311
26,1790650115.1816561,-0.09010063476562502,0.03774550781249998,0.004837939453126046,0.09780722572153944,-0.022630448501094795,0.0014888987608176758,0.006200275730966178,0.023511644732359248
27,1790650115.201656,-0.061360400390625014,-0.005364843750000022,-0.028692333984373954,0.06794946882817104,-0.023994280303106626,0.0018588124977176814,0.006567393702817728,0.024946168668024595
28,1790650115.2113144,-0.10447075195312501,0.023375390624999978,4.790039062604557e-05,0.10705395459753055,-0.02467422955228794,0.0020237009713210737,0.006697338858581166,0.025646974819790863
29,1790650115.2313144,-0.10926079101562501,0.047325585937499984,0.05273833007812605,0.1302265832966417,-0.02619162955554761,0.0024199784353024943,0.007005239245433464,0.02722005017056591
30,1790650115.2565777,-0.11405083007812501,0.06169570312499998,0.07668852539062605,0.15064886840659034,-0.02824396860396512,0.0030520261424844906,0.0075810606309228475,0.02940253571319835
31,1790650115.2765777,-0.08531059570312502,0.04253554687499998,0.03836821289062605,0.10275840718694396,-0.029924054005165467,0.003633685347098981,0.008141122686603573,0.031223877976704183
32,1790650115.3018959,-0.023040087890625012,-0.0005748046875000218,-0.03827241210937395,0.044676096283205534,-0.03193760610938403,0.004339241190091996,0.008743943815810016,0.03339605143662941
33,1790650115.3218958,-0.003879931640625011,-0.01973496093750002,-0.03827241210937395,0.04323540310220698,-0.033329994792373425,0.0047825252413093555,0.009033893670089077,0.03486219062804109
34,1790650115.3313446,-0.061360400390625014,0.05211562499999998,0.05273833007812605,0.0962417194602622,-0.03393537349931704,0.0049834829340015,0.009160581074973233,0.035501562251861414
35,1790650115.3513446,-0.07573051757812502,0.10001601562499998,0.08147856445312605,0.14958967591212022,-0.03523019184763173,0.005573238211624398,0.009589839022308472,0.03693497548744601
36,1790650115.376822,-0.01825004882812501,0.03295546874999998,0.019208056640626046,0.042285655282502964,-0.036811788014080735,0.006465902548052652,0.010247028204271124,0.0387545767564769
37,1790650115.396822,-0.013460009765625012,0.01858535156249998,-0.004742138671873955,0.023432350176107463,-0.03791468442116085,0.0071388503737676865,0.010707241246946473,0.040039124547566876
38,1790650115.4219263,-0.003879931640625011,0.004215234374999978,0.004837939453126046,0.007498515087950286,-0.03912404911478901,0.00789977011272823,0.01119843815083614,0.041454826063903334
39,1790650115.4419262,-0.023040087890625012,0.04253554687499998,0.019208056640626046,0.05204870639960752,-0.03998338016390061,0.0084851717411511,0.011567133179791243,0.04247902304440225
40,1790650115.4517696,-0.032620166015625014,0.04253554687499998,0.014418017578126047,0.055508802993087594,-0.04038396632865323,0.008792874106586851,0.011746198562393324,0.04296687738427421
41,1790650115.4717696,-0.04699028320312501,0.05211562499999998,0.009627978515626046,0.07082953518799817,-0.041195215327632054,0.009466268946625639,0.012091522884297738,0.04396431438475205
42,1790650115.495989,-0.05178032226562501,0.02816542968749998,0.014418017578126047,0.06068255461248017,-0.042209671684965526,0.010305242250142071,0.012490654339312578,0.04520918985572382
43,1790650115.515989,-0.032620166015625014,0.05211562499999998,0.009627978515626046,0.06223191761728797,-0.04304833210028778,0.011014549736368413,0.012806878737412243,0.04624386819359279
44,1790650115.5416481,-0.008669970703125012,0.02816542968749998,0.004837939453126046,0.02986411692360356,-0.04404236148325103,0.011942553525820654,0.013179563942986429,0.04749794832901431
45,1790650115.5616481,-0.04699028320312501,0.047325585937499984,-0.014322216796873954,0.06821234267941724,-0.0447844288086684,0.01267062284717596,0.013412253695985728,0.04843633239892909
46,1790650115.5862284,-0.08052055664062502,0.05690566406249998,0.02878813476562605,0.10271597415881353,-0.04579470628725654,0.013623360810601356,0.013682003834614412,0.04969857455342483
47,1790650115.6062284,-0.037410205078125015,0.05690566406249998,0.09105864257812606,0.1137077589021628,-0.04667032206950333,0.014453002441671255,0.014048336203550392,0.05083664024832984
48,1790650115.616784,0.0057001464843749895,0.03774550781249998,0.07189848632812605,0.0814039763539998,-0.04708824467714518,0.014900129417788838,0.014341690100194902,0.051429570466528074
49,1790650115.636784,0.02486030273437499,0.04253554687499998,0.009627978515626046,0.050199655081458974,-0.0477154667358571,0.015740647092476096,0.014936424958602467,0.052417845503745425
50,1790650115.6613984,0.0009101074218749891,0.03774550781249998,-0.023902294921873957,0.044686366579473544,-0.04832403601594362,0.016768126055557227,0.015532231699109137,0.05345683052557535
51,1790650115.6813984,-0.023040087890625012,0.004215234374999978,-0.014322216796873954,0.02745432105918056,-0.048777541650794835,0.017540699375884733,0.015886391185349756,0.054215331124914716
52,1790650115.7060566,0.010490185546874989,0.023375390624999978,0.004837939453126046,0.02607409706646263,-0.04927601340478568,0.01840136175980229,0.01624000144990402,0.05504973441149935
53,1790650115.7260566,0.01528022460937499,0.06169570312499998,4.790039062604557e-05,0.06355979344403585,-0.04958101675782459,0.019122330515995337,0.01649111798940823,0.055640791867507
54,1790650115.7366266,0.010490185546874989,0.04253554687499998,-0.004742138671873955,0.044065912221880395,-0.049697603070727216,0.019528839233270884,0.016600205075701428,0.05591774424393243
55,1790650115.7566266,0.02007026367187499,0.01379531249999998,0.014418017578126047,0.02830203811944278,-0.049839270121572694,0.020267130085112522,0.016790165431910437,0.056361503381021354
56,1790650115.78165,0.01528022460937499,0.047325585937499984,0.02878813476562605,0.05746262308426663,-0.04992358839250868,0.021167010217636166,0.01707327546428072,0.05684983495681717
57,1790650115.80165,-0.013460009765625012,0.14791640625,0.02878813476562605,0.15129174400505008,-0.04997814068750805,0.02207121713826588,0.017351973935277515,0.05732402787658399
58,1790650115.8268216,-0.01825004882812501,0.1335462890625,0.02878813476562605,0.13782754553382134,-0.05009636449120428,0.02356989241084862,0.017758819084865325,0.058142593842926804
59,1790650115.8468215,-0.013460009765625012,0.05211562499999998,0.019208056640626046,0.05715032521290532,-0.050223773853020015,0.024860539110789004,0.018105582622254143,0.05889215556429937
60,1790650115.8562882,-0.032620166015625014,0.023375390624999978,0.023998095703126048,0.04675887846318249,-0.05030775169526096,0.025433407292599866,0.01827577331958818,0.05925986818726713
61,1790650115.8762882,-0.032620166015625014,0.06169570312499998,0.019208056640626046,0.07238359244251813,-0.05055641753198326,0.02658975700536634,0.018646206933762757,0.06008866419125453
62,1790650115.9011817,-0.032620166015625014,0.07127578124999998,0.009627978515626046,0.0789747440260628,-0.05094130457026752,0.028061406553593186,0.019091953984155082,0.061212431384645195
63,1790650115.9211817,-0.042200244140625016,0.03774550781249998,-0.019112255859373956,0.05975669242508346,-0.05131637748951416,0.029229939479597986,0.019382131777709442,0.06215647185028902
64,1790650115.9470317,-0.061360400390625014,0.023375390624999978,-0.009532177734373955,0.06635035821552772,-0.051929221933589245,0.030632221456302643,0.019645394851183228,0.0634107137701101
65,1790650115.9670317,-0.08531059570312502,0.08564589843749998,0.023998095703126048,0.12324376761428957,-0.05255225809792538,0.03171794734416744,0.019840225545283453,0.06450893399061916
66,1790650115.9763246,-0.04699028320312501,0.138336328125,0.043158251953126045,0.15234060885485218,-0.05289053263896581,0.03230285790874452,0.019963978665813814,0.06511100917721299
67,1790650115.9963245,0.02007026367187499,0.07127578124999998,0.014418017578126047,0.07543826421345858,-0.053549739718222376,0.03368728979345623,0.020276732425838575,0.06643458433215878
68,1790650116.0218358,0.01528022460937499,-0.014944921875000022,4.790039062604557e-05,0.021373774781498597,-0.0541968339949888,0.03529611244262975,0.020643507658572518,0.06789158104723057
69,1790650116.0418358,-0.05178032226562501,0.004215234374999978,0.03357817382812605,0.06185841682746182,-0.05468278937444753,0.03635209174064137,0.020938355341236597,0.06892094567028291
70,1790650116.066992,-0.07573051757812502,0.11438613281249999,0.047948291015626046,0.14532149628932656,-0.055442921888578384,0.03770485112007437,0.02140740696524987,0.07038359509506321
71,1790650116.086992,0.02486030273437499,0.10001601562499998,4.790039062604557e-05,0.10305940193884512,-0.056032906065488434,0.03894061567779182,0.021796374777969866,0.07163197655356898
72,1790650116.0967011,0.04881049804687499,0.05690566406249998,-0.028692333984373954,0.08027433806297596,-0.0562227100500891,0.039564806928689245,0.021936019254600092,0.0721633980174093
73,1790650116.1167011,-0.027830126953125013,0.04253554687499998,-0.014322216796873954,0.05281017523317864,-0.056523572909861444,0.0408068834465896,0.02211600511664896,0.07313845577696874
74,1790650116.1416817,-0.07094047851562502,0.07606582031249998,0.02878813476562605,0.10792273724810372,-0.05702804200577745,0.042347768520975,0.02233419394724249,0.07446037397832381
75,1790650116.1616817,-0.05178032226562501,0.09043593749999998,0.019208056640626046,0.10596607950351557,-0.05755542884945537,0.04364613780264662,0.02255467197884362,0.07567249145631173
76,1790650116.186997,0.010490185546874989,0.05211562499999998,-0.019112255859373956,0.05649212941625286,-0.058201240052826966,0.045313709131422374,0.02279206632309624,0.07720229832207302
77,1790650116.206997,0.0057001464843749895,0.04253554687499998,-0.014322216796873954,0.045242571897222104,-0.05861063644660814,0.04657551062869713,0.02290133218565169,0.07828764852055474
78,1790650116.2161832,-0.05657036132812501,0.10001601562499998,0.03357817382812605,0.11971174929774733,-0.05880551971506271,0.04716635283876894,0.02295725818768899,0.07880221883022133
79,1790650116.2361832,-0.06615043945312502,0.10959609374999998,0.05273833007812605,0.13845040940542472,-0.05935024909725889,0.048574175353614024,0.02319022872756879,0.08012296354745799
80,1790650116.261641,-0.023040087890625012,0.09522597656249998,0.009627978515626046,0.09844556989822792,-0.060109919512415046,0.05048845791406944,0.023561371994424426,0.08195989907625206
81,1790650116.281641,0.010490185546874989,0.06648574218749999,-0.06222260742187396,0.09166270114614354,-0.06063602914052805,0.05200932491843771,0.023730318308989102,0.0833356221279264
82,1790650116.307026,-0.032620166015625014,0.009005273437499978,0.004837939453126046,0.03418443854626244,-0.061245760016071994,0.053793851496903466,0.02380333481224296,0.08492008200067239
83,1790650116.327026,-0.09010063476562502,0.047325585937499984,0.07189848632812605,0.12460829749969293,-0.06183817094619105,0.055073425069169825,0.023967337671531336,0.08620600216853241
84,1790650116.351538,-0.061360400390625014,0.138336328125,0.06231840820312605,0.16366313701068097,-0.06273376943185549,0.05674775935643858,0.02438493468709105,0.0880366915484627
85,1790650116.371538,0.07276069335937499,0.07606582031249998,4.790039062604557e-05,0.1052621955518597,-0.06333779854137911,0.05823057289302946,0.024768102503930172,0.0895317555125774
86,1790650116.3821247,0.01528022460937499,0.05690566406249998,-0.009532177734373955,0.0596875387234785,-0.0635396685137531,0.059003325374716975,0.024932973245219224,0.09022380525647966
87,1790650116.4021246,-0.027830126953125013,0.047325585937499984,0.019208056640626046,0.05816507964805215,-0.06388265231758862,0.06040054336169336,0.025212233355322394,0.09145969394373098
88,1790650116.4263875,0.02965034179687499,0.05690566406249998,0.009627978515626046,0.06488524748633522,-0.06423301617572055,0.062030990322101236,0.025552672694934917,0.09287983209085526
89,1790650116.4463875,0.06318061523437499,0.01858535156249998,-0.004742138671873955,0.06602797371780494,-0.06433925489952808,0.06328661145015001,0.02579853278702232,0.0938631940849648
90,1790650116.471795,0.0057001464843749895,0.047325585937499984,0.009627978515626046,0.048630244956902956,-0.06432271694405783,0.06476805646489488,0.026073328220891822,0.09493224688070724
91,1790650116.491795,-0.027830126953125013,0.08085585937499998,0.023998095703126048,0.08881494558278592,-0.06434484647361781,0.06595155107968294,0.026307630640510535,0.09582253277516203
92,1790650116.5165484,0.0057001464843749895,0.09043593749999998,0.03357817382812605,0.09663666084400414,-0.06440921143537477,0.0675146114721518,0.026661011253382175,0.09704421054867413
93,1790650116.5365484,-0.008669970703125012,0.12396621093749999,0.05752836914062605,0.13693904885814684,-0.06445787045075065,0.06890968608002367,0.027040364109324228,0.09815570890100071
94,1790650116.546129,0.03923041992187499,0.1527064453125,0.14853911132812606,0.21661521618154073,-0.06445572416784769,0.06967652955164323,0.027342896587877478,0.09877749309522914
95,1790650116.566129,0.144611279296875,0.138336328125,0.19164946289062607,0.27709001859549526,-0.0641761534850219,0.07147379199994973,0.02838999718801313,0.10016523128970731
96,1790650116.5919576,0.111081005859375,-0.005364843750000022,0.2778701660156261,0.29929851415057845,-0.06337395109091697,0.07370426176855142,0.030448944438955655,0.1018612492421318
97,1790650116.6119576,0.158981396484375,-0.014944921875000022,0.2874502441406261,0.3288253000826996,-0.062440860702717996,0.0751418577489622,0.032652091385040945,0.10301125639015654
98,1790650116.6218264,0.115871044921875,0.1335462890625,0.20601958007812607,0.27148623860007964,-0.061846061412506,0.07583260878512793,0.03394139946671529,0.1035738309861949
99,1790650116.6418264,-0.061360400390625014,-0.048475195312500025,0.48384184570312605,0.49012026580227275,-0.06073970118962314,0.07715009499885708,0.0371971377129309,0.10500035958496583
100,1790650116.6668153,0.07276069335937499,-0.35024765625000004,0.6179629394531261,0.7140348267026638,-0.05954334869251126,0.07780203023243912,0.0427197914445874,0.10688099392724787
101,1790650116.6868153,0.230831982421875,-0.28797714843750005,0.22038969726562604,0.4298672595020945,-0.058274079492426176,0.07728820657689386,0.04773438984463474,0.10792547053592953
102,1790650116.7115798,0.101500927734375,-0.15385605468750002,-0.18197358398437397,0.2590144960481166,-0.05632092613277879,0.0759267757040619,0.05308357567138319,0.1084195000695369
103,1790650116.7315798,0.010490185546874989,-0.14427597656250002,-0.23945405273437398,0.2797567600198202,-0.05481216856964593,0.07454500369579271,0.05612346266091845,0.10821817989767032
104,1790650116.7415695,0.158981396484375,-0.12990585937500002,-0.17718354492187396,0.27119112323075967,-0.054044630728006325,0.07375292728221775,0.05710193257356427,0.10780049673753152
105,1790650116.7615695,0.269152294921875,-0.01973496093750002,-0.12928315429687395,0.2992433132584017,-0.05209627740296016,0.07218055448240433,0.058307338882671915,0.10641334658872571
106,1790650116.7867672,0.091920849609375,0.22455703124999998,-0.10533295898437396,0.26451906382173407,-0.049327408619918064,0.0708837714050321,0.059154829951817055,0.10467567146374371
107,1790650116.8067672,-0.20985161132812502,0.33951796875,-0.028692333984373954,0.4001667151458343,-0.04763625149621307,0.07085499164084931,0.05952556300326323,0.10408138617394921
108,1790650116.832321,-0.41582329101562504,0.3443080078125,0.16290922851562606,0.5639117221076666,-0.046998721642352394,0.07213430731390431,0.06018542189200816,0.10504533847815965
109,1790650116.852321,-0.458933642578125,0.4401087890625,0.3593008300781261,0.7303512312544675,-0.047886729509224756,0.07416201529610694,0.06140771723986952,0.10753627812269413
110,1790650116.8616545,-0.45414360351562505,0.6125501953125,0.44073149414062607,0.8807430977980854,-0.04887815648259032,0.07570324729195838,0.06245261518322119,0.10963751627480213
111,1790650116.8816545,-0.49246391601562506,0.7370912109375,0.4359414550781261,0.9878608778944474,-0.05210382447009673,0.08053486541291073,0.06567077198238025,0.11624682087802692
112,1790650116.906249,-0.49246391601562506,0.72272109375,0.4982119628906261,1.006509636265829,-0.05729230470409617,0.08827796339563816,0.0707577429804831,0.12681508266480268
113,1790650116.926249,-0.458933642578125,0.6508705078125,0.6179629394531261,1.008033085155282,-0.06230572659020692,0.0956904518388715,0.07594816649673068,0.1371378508409554
114,1790650116.9521482,-0.506834033203125,0.6987708984375001,0.646703173828126,1.0786039591784693,-0.06970002325901387,0.10647108997618551,0.08411788331516408,0.152545090174832
115,1790650116.9721482,-0.39666313476562504,0.72272109375,0.608382861328126,1.0245960803121816,-0.07590881764352955,0.1156796399831351,0.09136303931965449,0.165804501315227
116,1790650116.9970236,-0.348762744140625,0.60776015625,0.5988027832031261,0.9217226439647306,-0.08386349756805916,0.12789718997335286,0.10127485106568017,0.1834322024231391
117,1790650117.0170236,-0.36313286132812506,0.5167494140625,0.5556924316406261,0.8412428368152446,-0.09036761098991627,0.13793349207619046,0.10978037767858984,0.1981001884794943
118,1790650117.0270565,-0.20027153320312502,0.617340234375,0.38325102539062605,0.7537234243757299,-0.09356489723485995,0.1430663194364858,0.11411364387901972,0.20553414672754555
119,1790650117.0470564,-0.061360400390625014,0.5838099609375,0.13416899414062605,0.6021631740771354,-0.09937490662623921,0.15356523420327436,0.12223216791198942,0.21999626382133183
120,1790650117.0717409,-0.12842094726562503,0.425738671875,-0.12449311523437397,0.4617833822987229,-0.10582147328149158,0.1664485425973879,0.1307671373870153,0.23665026042803
121,1790650117.0917408,-0.19548149414062502,0.2820375,-0.15323334960937396,0.3758172765988943,-0.11074702925302629,0.17638284504101387,0.1362285184347014,0.24886546917571098
122,1790650117.1170542,-0.09010063476562502,0.27724746093749997,-0.16760346679687396,0.33626656251222775,-0.11658821734912551,0.18813216631694304,0.14149486925995527,0.26269244841571804
123,1790650117.1370542,0.03444038085937499,0.358678125,-0.18676362304687397,0.40585316073778366,-0.12059453870690233,0.1969766749468115,0.14450010038826772,0.27243922671166837
124,1790650117.146187,0.08234077148437499,0.2580873046875,0.004837939453126046,0.2709473475560384,-0.1220695893972214,0.2008321070387791,0.14554195919875298,0.2764362164417921
125,1790650117.166187,0.03923041992187499,0.2580873046875,0.15332915039062606,0.302750575635483,-0.12463290413777474,0.2087829008724329,0.14771853407209226,0.2845073387435406
126,1790650117.1918797,0.06318061523437499,0.4880091796875,-0.03348237304687396,0.49321984845047634,-0.12723455099950726,0.21890238999653916,0.15032616414492359,0.2944568609164501
127,1790650117.2118797,0.08234077148437499,0.329937890625,-0.21550385742187397,0.4025927556258606,-0.12873769008234984,0.22682503008711358,0.15167806499677317,0.3017104945521857
128,1790650117.2368314,0.05839057617187499,0.01858535156249998,-0.10533295898437396,0.12186019418493088,-0.13006832963952417,0.23587879724213862,0.15251127898485,0.30954202877995196
129,1790650117.2568314,0.096710888671875,-0.048475195312500025,0.02878813476562605,0.11194461689412614,-0.13074226335434516,0.24200243669471894,0.15296414367268013,0.3147328200914463
130,1790650117.2665048,0.17335151367187498,0.2580873046875,-0.13407319335937395,0.33857853640000396,-0.13082339892665446,0.24467204945474685,0.15307394002987568,0.31687663941568595
131,1790650117.2865047,0.144611279296875,0.23413710937499999,-0.019112255859373956,0.2758584535779059,-0.13048904306639889,0.2501019700607757,0.1530371184904511,0.32093417615536995
132,1790650117.3115768,0.139821240234375,0.08085585937499998,0.03836821289062605,0.16601135195030786,-0.12959791611115315,0.25648021943249344,0.15303409178328162,0.32557204435950476
133,1790650117.3315768,0.245202099609375,0.10959609374999998,-0.13407319335937395,0.300184933991839,-0.12841615842658224,0.26109063037973845,0.15288848220905216,0.32868513049622117
134,1790650117.3569322,0.427223583984375,0.1431263671875,-0.30172456054687397,0.5422571881809863,-0.12586397428496515,0.2665394125349426,0.15190283791858694,0.33160137307465903
135,1790650117.3769321,0.436803662109375,0.26766738281249997,-0.39273530273437396,0.6455108713784105,-0.12285677279576665,0.2708088453120832,0.15020030459338826,0.3331536414644166
136,1790650117.387005,0.283522412109375,0.11438613281249999,-0.340044873046874,0.45727416418772426,-0.12102520247069165,0.2729252225499207,0.1489178548273938,0.3336342371870555
137,1790650117.407005,0.307472607421875,-0.029315039062500024,-0.368785107421874,0.4810418186459525,-0.11704759284211462,0.2766246120182043,0.14569023671011586,0.3338367266149803
138,1790650117.4315412,0.523024365234375,-0.005364843750000022,-0.359205029296874,0.6345167619925032,-0.11137150586462616,0.28041846766242945,0.14098486496053741,0.33303882877622604
139,1790650117.4515412,0.623615185546875,0.12396621093749999,-0.31130463867187397,0.7079365078575127,-0.10571884259178183,0.28322496162596755,0.13671896078889484,0.3317904863105211
140,1790650117.4763434,0.628405224609375,0.05690566406249998,-0.34483491210937395,0.7190566719864525,-0.09743143409418138,0.2865197240790076,0.1310017649822854,0.3297694635111526
141,1790650117.4963434,0.575714794921875,-0.17780625000000003,-0.39273530273437396,0.7192382120305202,-0.0899448820721879,0.2885966766824039,0.12597671782168748,0.3274877967745254
142,1790650117.5069265,0.604455029296875,-0.30713730468750006,-0.407105419921874,0.7908438716350741,-0.08564079990591551,0.2891459407236649,0.12308166453963885,0.325712784200047
143,1790650117.5269265,0.714625927734375,-0.35024765625000004,-0.474165966796874,0.9263892277910234,-0.07674843143056939,0.2890421600360424,0.11710936619786498,0.32117019733564883
144,1790650117.5515103,0.805636669921875,-0.4029380859375,-0.771148388671874,1.1857821816729293,-0.06465452822018193,0.28754501509650077,0.10857333659019978,0.3140867923752127
145,1790650117.5715103,0.6331952636718751,-0.5945396484375001,-0.699297802734374,1.1150923963554793,-0.05413321319114772,0.28501350746957,0.10046490956564728,0.30701189270863527
146,1790650117.596505,0.705045849609375,-0.8867320312500001,-0.34483491210937395,1.184185146801646,-0.040448053428114104,0.27954757198061964,0.08989422759003833,0.29641839042203993
147,1790650117.616505,1.0020282714843751,-0.6616001953125,-0.33525483398437395,1.246664060202825,-0.028579538787765674,0.2735074420047536,0.08168448747670619,0.2868718640153426
148,1790650117.6263208,0.954127880859375,-0.47478867187500007,-0.45021577148437397,1.156926331650939,-0.022188149687887654,0.2701510321783332,0.07768130937951505,0.2819721262829127
149,1790650117.6463208,0.762526318359375,-0.6903404296875001,-0.27298432617187396,1.0642070932799392,-0.008544072301421284,0.2625904518612674,0.0696634989688026,0.27180829580565213
150,1790650117.6719275,0.877487255859375,-0.8244615234375,-0.30172456054687397,1.2412728943555096,0.009454185744236971,0.2514532282905653,0.05983412600846913,0.2586469220405127
151,1790650117.6919274,0.954127880859375,-0.9969029296875,-0.24903413085937395,1.402210206276365,0.02415046705386998,0.2413272942889465,0.05248236760572875,0.24814614028279122
152,1790650117.7314258,0.9110175292968751,-1.3417857421875001,-0.20592377929687397,1.6348536691409878,0.05434608878929095,0.21740101329872563,0.03879335767350407,0.22742388297975785
153,1790650117.7514257,0.944547802734375,-1.4184263671875001,-0.19634370117187397,1.7154167889387508,0.07012555550919428,0.20296288655406083,0.03229824080001919,0.2171513371190831
154,1790650117.7615833,1.021188427734375,-1.5812876953125001,-0.19634370117187397,1.8925769282317677,0.07843505125170297,0.19444474046157503,0.02919515658348839,0.2116912174039371
155,1790650117.7815833,0.882277294921875,-1.5669175781250002,-0.368785107421874,1.8356596572425783,0.09519722312152859,0.17546625869971133,0.023154066277422166,0.20096524579464825
156,1790650117.8071518,0.7337860839843751,-1.5429673828125001,-0.44063569335937397,1.7644688083768092,0.11651105457985898,0.1488794416227149,0.015037270271953175,0.18964712883256107
157,1790650117.8271518,0.743366162109375,-1.6243980468750001,-0.33525483398437395,1.8175967840449176,0.13289792885494323,0.1264513453924116,0.008476737307931803,0.18364002102175936
158,1790650117.8515387,0.762526318359375,-1.6100279296875002,-0.445425732421874,1.8363116303253333,0.15263630004712997,0.09729007315087561,0.00024923810738393913,0.18100624449287486
159,1790650117.8715386,0.6140351074218751,-1.5573375,-0.526856396484374,1.7549691919145884,0.16846066796189393,0.07221084082363657,-0.006944535534531467,0.1834165443912147
160,1790650117.8816087,0.5326044433593751,-1.5573375,-0.445425732421874,1.705101658287846,0.1760991726736751,0.059125076700815196,-0.010757642207738897,0.1860710084271589
161,1790650117.9016087,0.460753857421875,-1.394476171875,-0.378365185546874,1.5165810643319442,0.1904842785552607,0.0326064082214174,-0.018430487394657375,0.19413171070029878
162,1790650117.9116852,0.470333935546875,-1.19329453125,-0.5364364746093739,1.39029850770599,0.19734839751626393,0.019294038946899517,-0.022407755000361317,0.19955139043684467
163,1790650117.9316852,0.364953076171875,-1.1885044921875,-0.550806591796874,1.359824097934755,0.21018170164229316,-0.006737798657354854,-0.030748619696565692,0.21252581784160016
164,1790650117.9575372,0.38890327148437503,-1.3130455078125,-0.35441499023437395,1.4145473641630621,0.22574342563977925,-0.040189476170074165,-0.041667939207858655,0.23304828978612416
165,1790650117.9775372,0.542184521484375,-1.356155859375,-0.09575288085937396,1.4636568533803458,0.23737328415497833,-0.06619075027988443,-0.04952362152993609,0.25135608316206404
166,1790650118.0018811,0.556554638671875,-1.15497421875,0.047948291015626046,1.2829721549650537,0.2514118390278335,-0.09767699333555735,-0.057738545957071626,0.2758304688022494
167,1790650118.021881,0.427223583984375,-1.0064830078125,0.07668852539062605,1.0960881194750447,0.26269096882494725,-0.1229067844239887,-0.0632882721823811,0.2968468092391518
168,1790650118.0313082,0.345792919921875,-0.8436216796875,0.004837939453126046,0.9117530847576043,0.2677565082293078,-0.13432320257553138,-0.06545413321625895,0.30662764716246704
169,1790650118.0513082,0.542184521484375,-0.9825328125,-0.11012299804687396,1.1275911748835359,0.27822323950211275,-0.15764983698982524,-0.06951779170777928,0.3272527547109339
170,1790650118.0765193,0.6331952636718751,-1.2555650390625002,-0.14844331054687396,1.4140067983212206,0.29166050113540287,-0.1868755539219395,-0.07436079591027446,0.35428498210423137
171,1790650118.0965192,0.5326044433593751,-1.279515234375,-0.20113374023437397,1.4004576071929238,0.30247002016975055,-0.21038523610932286,-0.07815082597555305,0.37663989734881514
172,1790650118.121822,0.422433544921875,-1.1118638671875,-0.24424409179687398,1.2142267232317383,0.31590668425082274,-0.2402050901658805,-0.08307172558184435,0.4054582963599253
173,1790650118.141822,0.47991401367187503,-1.0831236328125,-0.23466401367187398,1.2077008999699343,0.32628775407400573,-0.2635323191030414,-0.08709623997141716,0.42836752524864063
174,1790650118.1517339,0.47991401367187503,-1.0591734375000001,-0.20113374023437397,1.1800934762487605,0.33137430870987883,-0.2749514820392435,-0.08911553485170223,0.4397144852065161
175,1790650118.1717339,0.432013623046875,-1.068753515625,-0.14365327148437396,1.1616824480326144,0.34146630137545875,-0.29772871849176086,-0.09309606812885377,0.46250243533503044
176,1790650118.1970057,0.38890327148437503,-0.9729527343750001,-0.11012299804687396,1.053570051110922,0.3538616305338912,-0.3260625899615461,-0.09785239109586855,0.49102948646666245
177,1790650118.2170057,0.436803662109375,-0.9777427734375,-0.08617280273437396,1.0743389233256482,0.363438322496326,-0.3480483567558847,-0.10134633424405597,0.5133187629184451
178,1790650118.2416444,0.455963818359375,-0.9490025390625001,-0.028692333984373954,1.0532483433784285,0.37511623965932134,-0.37463104554237553,-0.10521725411572032,0.540491705860483
179,1790650118.2616444,0.465543896484375,-0.9346324218750001,0.009627978515626046,1.0442038026860847,0.3845559373082694,-0.39579780972877093,-0.10791667745586496,0.5623034628901437
180,1790650118.271728,0.455963818359375,-0.896312109375,-0.03348237304687396,1.0061806350601135,0.3892982960057185,-0.40625366525955825,-0.10909157367616493,0.5731458586231984
181,1790650118.291728,0.465543896484375,-0.8915220703125001,-0.14365327148437396,1.015962097627812,0.3986756590270543,-0.42656285314727754,-0.11133802457684369,0.5943856530086135
182,1790650118.3166792,0.455963818359375,-0.9873228515625001,-0.14365327148437396,1.0969711387627894,0.41034413146341964,-0.45161524185514423,-0.11425787230641114,0.6208006880524028
183,1790650118.3366792,0.441593701171875,-1.1837144531250001,-0.11012299804687396,1.2681924058085685,0.4196405324575978,-0.4719407079461967,-0.1166279126163577,0.6422057912377482
184,1790650118.3768313,0.384113232421875,-1.3657359375,-0.26340424804687396,1.4429689616168895,0.43799105120711296,-0.514302827715508,-0.12179714479566053,0.6864241429422878
185,1790650118.3968313,0.465543896484375,-1.5812876953125001,-0.598706982421874,1.7537536730399965,0.44703496073964805,-0.5366590543478424,-0.1252789113166248,0.7096041166437085
186,1790650118.4069102,0.422433544921875,-1.7920494140625,-0.565176708984374,1.925958440542116,0.45158019332529514,-0.5487853988082088,-0.12765014044416534,0.7220696942153235
187,1790650118.4269102,0.307472607421875,-1.95970078125,-0.23945405273437398,1.9980752737866467,0.46034144630499857,-0.5748663931888128,-0.13285661203844293,0.7483558622516603
188,1790650118.436795,0.47991401367187503,-1.911800390625,-0.07659272460937395,1.9726035180886297,0.4646058389751036,-0.5886933577744515,-0.13527818650608384,0.7620489766687526
189,1790650118.456795,0.623615185546875,-1.7058287109375,0.11979887695312605,1.8201920947039043,0.4735950534576401,-0.6178994739783695,-0.13937801232306168,0.7908971266362133
190,1790650118.4816852,0.542184521484375,-1.4519566406250002,0.3688809082031261,1.5931777258137398,0.4852804215119513,-0.6546895316849334,-0.14280269708722168,0.8273500351701444
191,1790650118.5016851,0.297892529296875,-1.2843052734375,0.34493071289062605,1.3627755468474978,0.4945216365589443,-0.683921512082685,-0.14407103869759177,0.8561873322502535
192,1790650118.5263107,-0.042200244140625016,-1.4136363281250002,0.12937895507812605,1.4201716244233897,0.5046656089450516,-0.7194981764618719,-0.14452245795695937,0.8906468119505957
193,1790650118.5463107,-0.32481254882812505,-1.2555650390625002,0.06710844726562605,1.2986340142190347,0.5111178755047361,-0.7480619527931768,-0.14453935969808307,0.9174583338654392
194,1790650118.5568824,-0.147581103515625,-1.0160630859375002,0.019208056640626046,1.0269047308098425,0.5136423179426964,-0.7626967392331822,-0.14447851509246606,0.9308108229612495
195,1790650118.5768824,-0.04699028320312501,-0.704710546875,0.019208056640626046,0.706536616908339,0.5174099223979886,-0.7888115487174057,-0.14432304904793553,0.9543405208165151
196,1790650118.6011164,-0.26733208007812503,-0.5897496093750001,0.009627978515626046,0.647582999133825,0.5207190625692888,-0.8180612060401203,-0.1441105159890322,0.9803776414063513
197,1790650118.6211164,-0.688855517578125,-0.24965683593750004,-0.10533295898437396,0.7402334037832622,0.5216061161286022,-0.8398386994848996,-0.14410498319589346,0.9990836940502739
198,1790650118.646285,-0.8756670410156251,0.07127578124999998,-0.23945405273437398,0.9106103706222407,0.5196016998738666,-0.8634701290237127,-0.14474990189936768,1.0180958325854768
199,1790650118.666285,-0.7367559082031251,0.29640761718749997,-0.23466401367187398,0.8280905404070117,0.5158291995933822,-0.8788802790937117,-0.14589668389840585,1.0294640112726337
200,1790650118.6763403,-0.458933642578125,0.5933900390625,-0.12928315429687395,0.761213479080324,0.5133152919389681,-0.8847947802831411,-0.14666123205833775,1.0333750089602272
201,1790650118.6963403,-0.458933642578125,0.8424720703125,-0.004742138671873955,0.9593757165083133,0.5076883581482379,-0.8926403316688872,-0.14815485199699538,1.0375471511654042
202,1790650118.7213147,-0.885247119140625,0.8712123046875,0.08626860351562606,1.2450363905276896,0.49919811760563254,-0.8977578230366409,-0.1495874909560121,1.038048306628844
203,1790650118.7413146,-1.196599658203125,0.9478529296875,-0.023902294921873957,1.5267112490682528,0.4902960619171647,-0.898512693169077,-0.1504691358444724,1.0345802283821253
204,1790650118.7661386,-0.8996172363281251,0.7562513671875,-0.18676362304687397,1.1900033416613633,0.47700152094682075,-0.8961364048218783,-0.15179150241592101,1.026465570410593
205,1790650118.7861385,-0.631375048828125,0.4592689453125,-0.009532177734373955,0.7808029705524518,0.465600625482606,-0.8926857888561932,-0.15299153305745622,1.0183703988543995
206,1790650118.7962437,-0.49725395507812503,0.4688490234375,0.047948291015626046,0.6851130864539479,0.45984892830459473,-0.8905004511033515,-0.15347779349919183,1.0139070585490257
207,1790650118.8162436,-0.727175830078125,0.9382728515625001,-0.14844331054687396,1.1963177037372434,0.44833613779788484,-0.8847133509869227,-0.1544465775255165,1.0037812267518154
208,1790650118.8411024,-1.2205498535156252,1.29752578125,-0.17239350585937396,1.7897023827407514,0.4325415704809676,-0.8744308702655346,-0.15606826355976994,0.987967033841739
209,1790650118.8611023,-0.966677783203125,1.2448353515625001,0.009627978515626046,1.5761261646862343,0.4184593931353711,-0.8635855118308221,-0.1574214246277685,0.9724555027759174
210,1790650118.8861294,-0.12842094726562503,1.1250843750000001,0.15811918945312606,1.1433759087190245,0.40142535347160707,-0.8476014404510238,-0.15854584840688019,0.9511610285916431
211,1790650118.9061294,0.590084912109375,1.058023828125,-0.07180268554687395,1.2135774594277662,0.3905472260764846,-0.8334693650305184,-0.15918015521093598,0.9340966973784834
212,1790650118.9317563,0.7721063964843751,1.1586146484375,-0.39273530273437396,1.446643428450805,0.3813175320739836,-0.8138170795338051,-0.16076385685151948,0.9129875776141212
213,1790650118.9517562,0.676305615234375,0.9334828125,-0.316094677734374,1.195280423884895,0.37736749323873703,-0.7976423004815237,-0.16287767284437418,0.897311874869571
214,1790650118.961411,0.719415966796875,0.7993617187500001,-0.28256440429687396,1.111926766141046,0.3767573346676534,-0.7897505755855688,-0.16417852336110972,0.890284588430377
215,1790650118.981411,1.126569287109375,0.770621484375,-0.397525341796874,1.4216336476776201,0.3784519501693275,-0.7734999504911692,-0.16748917866387114,0.8772574747280906
216,1790650119.0065193,1.7923847167968752,0.4784291015625,-0.478956005859374,1.9159687455117005,0.3857570395990777,-0.753806702628116,-0.17267252087881016,0.8642041645317156
217,1790650119.0265193,1.9217157714843751,0.2437171875,-0.445425732421874,1.987660347483508,0.39627420752411857,-0.7393898696185507,-0.17756855327265605,0.8574737418456321
218,1790650119.0359693,1.6007831542968751,0.3922083984375,-0.488536083984374,1.7190118208553276,0.4029947109347468,-0.7331490184881885,-0.18019685813693995,0.8557938583759519
219,1790650119.0559692,1.888185498046875,0.3251478515625,-0.531646435546874,1.9883695664639236,0.42031799459533703,-0.7208460189411376,-0.18645531404168902,0.8550156628613991
220,1790650119.0826058,2.261808544921875,-0.34066757812500004,-0.622657177734374,2.370555684570877,0.4482195622110491,-0.7069493315531337,-0.19584624467309336,0.8596708002977885
221,1790650119.1026058,2.266598583984375,-0.9154722656250001,-0.42147553710937397,2.4805644999536254,0.4728194762299097,-0.6999644099815882,-0.20340591234627206,0.8688396845912474
222,1790650119.126198,2.371979443359375,-0.7526109375000001,-0.24424409179687398,2.50047293113558,0.5056926750810313,-0.6959123681277224,-0.21216370701282317,0.886020622963804
223,1790650119.146198,3.0138446777343755,-0.561009375,-0.42147553710937397,3.0944519528871908,0.5374590227814706,-0.6949629949375858,-0.21947293711511842,0.9055407973292916
224,1790650119.1712732,3.1767060058593755,-0.8723619140625001,-0.464585888671874,3.3269079345125934,0.5829545169388543,-0.6966469059558387,-0.22892872333818234,0.9367823870923845
225,1790650119.1912732,2.8893036621093753,-1.087913671875,-0.617867138671874,3.1485538919290805,0.6228976535711546,-0.7007289410513433,-0.23696304732012302,0.9670439604519672
226,1790650119.2010765,2.9515741699218756,-1.2603550781250001,-0.728038037109374,3.2909458195150454,0.6438340683093348,-0.7041562398230995,-0.24130004452855885,0.9841666673318296
227,1790650119.2210765,3.2533466308593755,-1.4854869140625,-0.910059521484374,3.690412443754674,0.6894474689848468,-0.7142183090408327,-0.25127801506267244,1.0240050030700993
228,1790650119.2468526,3.3683075683593753,-1.5812876953125001,-1.077710888671874,3.8739421020422706,0.7522174267337282,-0.7311699010425196,-0.266051535140026,1.0822309830266383
229,1790650119.2668526,3.3156171386718754,-1.6100279296875002,-1.336372998046874,3.9206376693769194,0.8036415872734058,-0.7471368488225736,-0.2794161460835766,1.132310317164002
230,1790650119.2927284,3.4162079589843755,-1.7920494140625,-1.326792919921874,4.079497196202585,0.8732582664780904,-0.7712984281587238,-0.2992818814704411,1.2029342915674675
231,1790650119.3127284,3.6700800292968756,-1.758519140625,-1.298052685546874,4.271629403850912,0.9296247131274648,-0.7924980401592923,-0.31627061083766195,1.2618567074724722
232,1790650119.321575,3.6509198730468753,-1.480696875,-1.274102490234374,4.140654092129021,0.9556746334474071,-0.8026178021725461,-0.3243645880551167,1.2894656751396254
233,1790650119.341575,3.4928485839843755,-1.3034654296875001,-1.111241162109374,3.8902275354274933,1.0164492995915142,-0.8262407577984584,-0.3434964518107361,1.3541908214480025
234,1790650119.3666618,3.7515106933593754,-1.3130455078125,-1.226202099609374,4.159506290061691,1.0948772255893415,-0.8563504044414877,-0.368292655627483,1.437960929403319
235,1790650119.3866618,3.7706708496093753,-1.5573375,-1.259732373046874,4.26968200182431,1.1593067327022901,-0.8810596085506182,-0.3888245626602575,1.5071306097469348
236,1790650119.411636,3.4832685058593755,-1.6004478515625,-1.005860302734374,3.963123485093508,1.2412800819360459,-0.9132009946108572,-0.4148609761514553,1.5958765390539313
237,1790650119.431636,3.2677167480468756,-1.2268248046875,-0.957959912109374,3.6194970700459437,1.3072056329065544,-0.9393204720032142,-0.43552963440244136,1.6675717610554848
238,1790650119.4410963,3.1958661621093754,-1.0256431640625001,-1.125611279296874,3.5401278477173945,1.3382976308438979,-0.9514202135438616,-0.44531798824955915,1.701337439228583
239,1790650119.4610963,3.0569550292968755,-1.1885044921875,-1.345953076171874,3.5452935932514613,1.4035491246136214,-0.9764846481981532,-0.4666149875690549,1.7723436348503083
240,1790650119.4864824,2.9132538574218754,-1.4902769531250002,-1.374693310546874,3.549331645938612,1.4853166399902755,-1.0086272041346414,-0.4947725286443131,1.8623356875315344
241,1790650119.5064824,2.9803144042968754,-1.7776792968750001,-1.4225937011718741,3.7504920303356633,1.5489131972718437,-1.035053630958068,-0.5178243580036136,1.9335485971095272
242,1790650119.546339,2.8318231933593756,-1.911800390625,-1.130401318359374,3.5988901723434967,1.6740139883133929,-1.0908464032881409,-0.5645036280372528,2.076278655359826
243,1790650119.566339,2.8366132324218754,-1.6722984375,-0.694507763671874,3.365307969297361,1.735875615849066,-1.1200197218985555,-0.5871510013074679,2.147662596749651
244,1790650119.5613842,3.2820868652343753,-1.2651451171875001,-0.526856396484374,3.5567209647375884,1.735875615849066,-1.1200197218985555,-0.5871510013074679,2.147662596749651
245,1790650119.5813842,3.4545282714843752,-1.0064830078125,-0.565176708984374,3.6422792775786057,1.7984768899964345,-1.148250120492977,-0.6067090144103356,2.218353734468456
246,1790650119.6060495,3.1862860839843754,-0.8675718750000001,-0.866949169921874,3.4141910946096337,1.8763853206404428,-1.1813102609357626,-0.6298605533856552,2.3050032800016447
247,1790650119.6260495,2.8845136230468755,-0.9585826171875,-1.001070263671874,3.200225171503581,1.9391879623165404,-1.206835370743036,-0.6486192030848783,2.374364848939674
248,1790650119.651989,2.8461933105468753,-1.2507750000000002,-0.900479443359374,3.2366831308516426,2.0195722317446636,-1.239273190563802,-0.6729986578933917,2.4632087271708447
249,1790650119.671989,3.1623358886718753,-1.3992662109375,-0.981910107421874,3.594782561005709,2.0812665699313686,-1.264507068700528,-0.6917998374987769,2.531646831031299
250,1790650119.6816814,3.2533466308593755,-1.71061875,-1.010650341796874,3.81207226082478,2.111344004543305,-1.2771623028257681,-0.7009930392888215,2.5652111598095697
251,1790650119.7016814,3.1000653808593754,-1.7776792968750001,-0.914849560546874,3.688834337100758,2.1736282602235,-1.304591321403593,-0.7200056508027086,2.6353418121207057
