imu_index,t_imu,ax,ay,az,mag,vx,vy,vz,velocity
0,1791286432.7851882,-0.28730458785076535,0.08392343949298471,0.034410076530613135,0.3012824642478773,0.0,0.0,0.0,0.0
1,1791286432.8051882,-0.28730458785076535,0.11266367386798472,0.039200115593113136,0.3110846808700859,-0.0012282259417333693,0.0004018826721294615,0.00015428798862148876,0.0013014812444048522
2,1791286432.8151944,-0.21545400191326533,0.08392343949298471,0.029620037468113137,0.2331113837983603,-0.00212784786986012,0.0007203202758422823,0.00027154809256329057,0.0022628159942055634
3,1791286432.8351943,-0.22982411910076533,0.07434336136798471,0.039200115593113136,0.24470944028060496,-0.004324174247935561,0.0014987288118429305,0.0005739969069583846,0.004612390207598983
4,1791286432.8605387,-0.15797353316326535,0.031233009805484706,0.04399015465561314,0.16693193759200053,-0.007427054868317727,0.002537863823918511,0.0010579060491178929,0.007919662998797145
5,1791286432.8805387,-0.18671376753826535,0.08871347855548471,0.08710050621811313,0.2243181010288724,-0.010025372669550387,0.0034147932970078005,0.0015791286147154283,0.010708060403568441
6,1791286432.9053082,-0.20108388472576533,0.09350351761798471,0.07752042809311314,0.23491924841332432,-0.013481056939730143,0.00467645018551132,0.0024336419934961246,0.01447517515964221
7,1791286432.9253082,-0.18671376753826535,0.10308359574298472,0.09189054528061313,0.2322329240473988,-0.01643447900986779,0.00583723856719686,0.0032742330059350906,0.017745029055859843
8,1791286432.93585,-0.24419423628826534,0.10787363480548472,0.06794034996811314,0.27546948519998715,-0.018098363235308168,0.00652408520587059,0.0037772024682239075,0.019605654746949173
9,1791286432.95585,-0.22503408003826533,0.09350351761798471,0.029620037468113137,0.24548032834672845,-0.021485459665158732,0.00793379046464034,0.004734654113402331,0.02338775230186814
10,1791286432.980571,-0.12444325972576534,0.021652931680484707,-0.013490314094386866,0.12703134619415493,-0.025692072499206027,0.009628406811016534,0.005770506281830464,0.028037252892741348
11,1791286433.000571,-0.14360341597576534,0.06955332230548471,0.000879803093113134,0.1595630902719109,-0.028986902483139006,0.010930552443817859,0.006463914724698256,0.03164647983365976
12,1791286433.0258226,-0.16276357222576535,0.08392343949298471,0.04878019371811314,0.18951156017299114,-0.0331031179742763,0.01261867419239531,0.007302126994772699,0.03617137565313858
13,1791286433.0458226,-0.17713368941326535,0.059973244180484706,0.05836027184311314,0.19590573057542054,-0.036384095581334173,0.013971001916433934,0.008027141575371849,0.03979228955076253
14,1791286433.0549455,-0.19150380660076533,0.05518320511798471,0.039200115593113136,0.20311460590560773,-0.03790842771811588,0.01457411997055891,0.008374997414038096,0.04146799303874019
15,1791286433.0749454,-0.14839345503826534,0.012072853555484707,0.015249920280613135,0.14966272535180866,-0.04125879180462556,0.015798885075809274,0.009104884799794294,0.04510866433440023
16,1791286433.100525,-0.14360341597576534,0.021652931680484707,0.010459881218113134,0.14560288336899607,-0.04546124964535871,0.01719506276593347,0.009947688843323565,0.0496120138289669
17,1791286433.120525,-0.16276357222576535,0.059973244180484706,0.05357023278061314,0.1815448713166887,-0.0487137333973965,0.018245395036668638,0.010603857524584129,0.053088266650535836
18,1791286433.1452374,-0.16755361128826535,0.07913340043048471,0.04878019371811314,0.19161371302338256,-0.052741991808415954,0.019606369295925723,0.011482722188087432,0.05742804476678646
19,1791286433.1652374,-0.17234365035076535,0.059973244180484706,0.039200115593113136,0.18664343786019463,-0.05602291073283112,0.02075125493218907,0.012219271067742623,0.06097943664602386
20,1791286433.176002,-0.12923329878826534,0.059973244180484706,0.024829998405613136,0.14461868604731498,-0.05776739426314672,0.02137187358944878,0.012607933537808902,0.06287120810650151
21,1791286433.196002,-0.10049306441326533,0.06955332230548471,0.05357023278061314,0.13344021312583554,-0.060866957645667144,0.022546274752901895,0.01333932865547862,0.06626506415338064
22,1791286433.2204182,-0.10049306441326533,0.0647632832429847,0.06315031090561314,0.13520762041784243,-0.06445139201768432,0.024010901575557235,0.014312030421600834,0.07025197180348142
23,1791286433.2404182,-0.11965322066326534,0.07913340043048471,0.015249920280613135,0.1442620821537959,-0.06727730274411614,0.025246504744570526,0.015106882180019487,0.07342914513694183
24,1791286433.2657702,-0.12923329878826534,0.031233009805484706,0.015249920280613135,0.13382565705339028,-0.07079534441241778,0.026787669769470647,0.016021296412164304,0.07737080832508791
25,1791286433.2857702,-0.12923329878826534,-0.021457419882015296,0.020039959343113135,0.13252647416333008,-0.07354209444856107,0.027835773468836367,0.01668739883620454,0.08038494399082462
26,1791286433.2952,-0.12923329878826534,0.007282814492984706,0.020039959343113135,0.13098047515988756,-0.07482571544005183,0.028245799667524933,0.016982700671581176,0.08176261377961254
27,1791286433.3152,-0.17713368941326535,0.059973244180484706,0.029620037468113137,0.1893422313228077,-0.07759933698283772,0.02908586597748069,0.017589551444718264,0.08471739502523885
28,1791286433.3401926,-0.18671376753826535,0.08392343949298471,0.010459881218113134,0.20497459305914742,-0.08122743296775049,0.030247893269549013,0.01830926389491574,0.08858927733168441
29,1791286433.3601925,-0.12444325972576534,0.05518320511798471,0.015249920280613135,0.1369812800598422,-0.08416201469339407,0.031246969043129545,0.018837380091567584,0.0917303912580098
30,1791286433.3850737,-0.08612294722576533,0.06955332230548471,0.020039959343113135,0.1125007851219547,-0.08765811891713357,0.03253620940067902,0.019461689821374684,0.09550553965586793
31,1791286433.4050736,-0.09570302535076533,0.05518320511798471,0.024829998405613136,0.1132289009449688,-0.09031956457050015,0.03360418518058257,0.0199555531995018,0.09841285032633583
32,1791286433.4300458,-0.11965322066326534,-0.0022972636320152946,0.020039959343113135,0.12134154525866511,-0.09354755276734462,0.03483669960682949,0.020563737665550724,0.101919613299076
33,1791286433.4500458,-0.10528310347576533,-0.031037498007015295,0.000879803093113134,0.10976626172693885,-0.09608243036814527,0.035625739524125774,0.02100914271154663,0.10460597889014028
34,1791286433.4611003,-0.07654286910076533,-0.031037498007015295,-0.008700275031886867,0.08305318704506677,-0.09742410975588162,0.035944978506840766,0.021211917874554623,0.10598794318930886
35,1791286433.4811003,-0.0046922831632653286,-0.011877341757015296,-0.02307039221938687,0.026369144196457125,-0.09960923932859488,0.03637154210439271,0.021476095972645305,0.10819478884354447
36,1791286433.505204,-0.04780263472576533,-0.016667380819515295,0.005669842155613134,0.05094154081078879,-0.10194259750912614,0.03675691392068074,0.021715265286447783,0.11052111406577853
37,1791286433.525204,-0.06217275191326533,0.012072853555484707,0.06794034996811314,0.0928821620507959,-0.10375324750452708,0.03702181984901194,0.021994363465030288,0.1123347832903959
38,1791286433.5509095,-0.0046922831632653286,0.04081308793048471,0.08231046715561313,0.09199314469611856,-0.1058602712497106,0.037413186170885196,0.022588946165638682,0.11452687028550873
39,1791286433.5709095,0.09589853714923467,0.07434336136798471,0.020039959343113135,0.1229840021194933,-0.10711690945929948,0.03784474472440833,0.02313568970213673,0.11593755704413022
40,1791286433.580961,0.08152841996173467,0.07434336136798471,0.04399015465561314,0.11878111107231022,-0.10751997570169412,0.03814119087570754,0.023417522202726325,0.11646319574193914
41,1791286433.600961,-0.0046922831632653286,0.1414039082429847,0.05836027184311314,0.15304575824660013,-0.10808642355826248,0.03896618791711052,0.02404770821867273,0.1173853952967664
42,1791286433.6259968,-0.11007314253826533,0.2515748066804847,0.11105070153061314,0.29620641177228735,-0.10890463204999822,0.04058189733511551,0.02503634306808828,0.11888619662301576
43,1791286433.6459968,-0.10528310347576533,0.2324146504304847,0.20685148278061313,0.3284640582175642,-0.10978325046554249,0.04240498857453409,0.02618450407137249,0.12056605406270093
44,1791286433.6706948,0.043208107461734674,0.19409433793048472,0.18769132653061316,0.2734366226786735,-0.11082049176219877,0.04510867147289148,0.028120522504603493,0.1229094684001063
45,1791286433.6906948,0.028837990274234674,0.059973244180484706,0.10147062340561314,0.12134540417713667,-0.11142637006832708,0.0473507543446444,0.029886852942864684,0.12470426561444903
46,1791286433.7008514,-0.06696279097576534,-0.1076781230070153,0.05836027184311314,0.13958694379912479,-0.11171694329754787,0.0482822266038567,0.030771053043426998,0.12553368683733898
47,1791286433.7208514,-0.09091298628826533,-0.1268382792570153,0.039200115593113136,0.1609029807779966,-0.1124401128883157,0.049489533548282734,0.03239735142376198,0.12704952300752062
48,1791286433.7460446,-0.06217275191326533,-0.0693578105070153,0.07752042809311314,0.12118322379989321,-0.11350367384253635,0.05041150158478646,0.034359192072227894,0.12886022484708787
49,1791286433.7660446,-0.10528310347576533,-0.007087302694515294,-0.0039102359693868665,0.10559380513225518,-0.1144725315454668,0.050918963515800095,0.03579342638618065,0.1302991584639525
50,1791286433.7906702,-0.23461415816326534,-0.0789378886320153,-0.11408113440688687,0.2725609999612936,-0.11611428639373272,0.051291185033145066,0.03707655648027238,0.13224214232711498
51,1791286433.8106701,-0.25377431441326537,-0.1843187480070153,-0.12845125159438686,0.3389314496457373,-0.11798023668961632,0.051153259685595205,0.03759855368628676,0.1339762794867077
52,1791286433.8207242,-0.11965322066326534,-0.1603685526945153,-0.11408113440688687,0.23032470804494204,-0.11905914367749479,0.05083440982348497,0.03763871959484311,0.13481798888894464
53,1791286433.8407242,-0.04780263472576533,-0.1076781230070153,-0.07576082190688686,0.14006916933089128,-0.12113459596296577,0.04989321324049456,0.03742187141604087,0.13624727346575094
54,1791286433.8655744,-0.02385243941326533,-0.0549876933195153,-0.05181062659438687,0.07922705542090751,-0.12346009441589988,0.04859601584578653,0.03695508868421579,0.1377303388833597
55,1791286433.8855743,-0.00948232222576533,-0.0501976542570153,0.005669842155613134,0.05139908596239486,-0.12510097091932482,0.0475508247256547,0.03656655132265737,0.1387387708345444
56,1791286433.9101248,-0.04301259566326533,0.04081308793048471,0.05836027184311314,0.08319683204134093,-0.1269097106054314,0.04644299830667926,0.03627905108544229,0.13992568129306604
57,1791286433.9301248,-0.04780263472576533,0.11266367386798472,0.029620037468113137,0.12591879095579417,-0.12829839755130537,0.04590609733487614,0.03621194149731826,0.14099345124422313
58,1791286433.9403455,0.004887794961734672,0.06955332230548471,-0.02307039221938687,0.07344248212359752,-0.12893451620456456,0.045812556491861375,0.03618781091436403,0.14153606416740178
59,1791286433.9603455,0.07194834183673468,0.06955332230548471,-0.08534090003188687,0.13151919158449374,-0.12987730479619325,0.04586563175621362,0.03598505824337929,0.14236114250138368
60,1791286433.98563,9.775589923467166e-05,0.10787363480548472,-0.08534090003188687,0.13754926339539383,-0.13075379541267998,0.04625912786470334,0.03544351087602116,0.14315273098632306
61,1791286434.00563,-0.052592673788265334,0.0647632832429847,0.000879803093113134,0.0834328846803981,-0.13142184378486066,0.04678264902788833,0.034952711459105716,0.1438124101467686
62,1791286434.0306945,-0.02864247847576533,0.11266367386798472,0.029620037468113137,0.11996183394012752,-0.13228618494183733,0.04767385862132328,0.03448722650732286,0.14478190603276125
63,1791286434.0506945,0.009677834024234671,0.17014414261798472,-0.027860431281886866,0.1726814795217556,-0.13290087155064603,0.048702533136470445,0.0341741505949934,0.14561061417946017
64,1791286434.0597596,0.09589853714923467,0.19888437699298472,-0.15240144690688687,0.26828664867742386,-0.13306591149377556,0.0493497472906781,0.03393097447046803,0.14592205243841197
65,1791286434.0797596,0.05757822464923468,0.1509839863679847,-0.14761140784438687,0.21886192866537443,-0.1331451979006202,0.05108827758621206,0.03302492459535091,0.14638408887324397
66,1791286434.105612,-0.12444325972576534,0.18930429886798472,0.010459881218113134,0.22678547479098085,-0.1333619590724643,0.053658248902892766,0.03176349293633657,0.14721935771659628
67,1791286434.125612,-0.16276357222576535,0.19888437699298472,0.039200115593113136,0.2599685075506128,-0.13393530617690325,0.05593048664980666,0.031008493796060903,0.14841971656449612
68,1791286434.1502001,-0.16755361128826535,0.1414039082429847,0.039200115593113136,0.2227238805890446,-0.13514359196739423,0.05893249345780386,0.03036410152632505,0.1505284288647982
69,1791286434.1702,-0.10049306441326533,0.10787363480548472,0.039200115593113136,0.15255237180663306,-0.13638105888779606,0.06138196833783498,0.030036175081535665,0.15254412828395636
70,1791286434.1960757,-0.04780263472576533,0.1461939473054847,0.06315031090561314,0.1662700330274803,-0.13802970964547262,0.06456874771705448,0.02987417836332958,0.15528615668966161
71,1791286434.2160757,-0.08612294722576533,0.17014414261798472,0.07752042809311314,0.2058533654760121,-0.13931374451289252,0.06713693585849878,0.029978754083570668,0.15752591298918053
72,1791286434.2251184,-0.10049306441326533,0.17493418168048472,0.06794034996811314,0.21287723003923933,-0.1399337847018731,0.06835796774889362,0.030117596589149476,0.1586232816457146
73,1791286434.2451184,-0.08612294722576533,0.09350351761798471,0.06794034996811314,0.144138686686047,-0.14137935883201305,0.07105611428991944,0.030582435717706347,0.16115948577778735
74,1791286434.2702277,-0.02385243941326533,0.0647632832429847,0.07752042809311314,0.10379132186321785,-0.14312910262104622,0.07423347781545268,0.031352418158787976,0.16425444703290923
75,1791286434.2902277,-0.014272361288265329,0.0647632832429847,0.039200115593113136,0.07703656414759986,-0.14437093556082853,0.07657896833443918,0.032048807392886826,0.1665365770069215
76,1791286434.315642,-0.06696279097576534,0.1222437519929847,0.029620037468113137,0.14249525218827053,-0.1458671001352569,0.07946882117798301,0.03293216551984136,0.16934294188750096
77,1791286434.335642,-0.06217275191326533,0.1509839863679847,0.034410076530613135,0.16687021479844413,-0.14706160228421328,0.08181171303717431,0.0336190974323523,0.171611523414493
78,1791286434.3452177,-0.06696279097576534,0.19409433793048472,0.039200115593113136,0.20902936744498526,-0.14764046252467686,0.08301300982283331,0.03395151838974776,0.17274713188737958
79,1791286434.3652177,0.004887794961734672,0.17972422074298472,0.005669842155613134,0.17988005217736242,-0.148761250392683,0.08570645093824532,0.03460898447442558,0.1751379089665496
80,1791286434.390848,-0.03343251753826533,0.18930429886798472,0.020039959343113135,0.19327558244465162,-0.1500369795852974,0.08934975037946365,0.03537457423238626,0.1781736053350047
81,1791286434.410848,-0.10049306441326533,0.20846445511798473,0.029620037468113137,0.23331016193560747,-0.15108403148785363,0.09236292506110438,0.035956863368393065,0.18069363718670123
82,1791286434.435339,-0.13402333785076534,0.1318238301179847,0.010459881218113134,0.18827954320831755,-0.15260464486579087,0.09612430469156891,0.03663657157025666,0.18403884906039342
83,1791286434.455339,-0.11965322066326534,0.10308359574298472,0.010459881218113134,0.15827991041661668,-0.15404066246800155,0.09908755135171554,0.037139756932340326,0.18688560691356884
84,1791286434.4661016,-0.08612294722576533,0.10308359574298472,0.024829998405613136,0.1366013124789722,-0.15486362111398758,0.10060940284476676,0.03739840743317456,0.18842408010616635
85,1791286434.4861016,-0.11007314253826533,0.1366138691804847,0.010459881218113134,0.17575225482425227,-0.1564578020494182,0.10337275732967668,0.03785988817984308,0.19130693116838546
86,1791286434.5109706,-0.09570302535076533,0.08392343949298471,0.000879803093113134,0.12729095337495336,-0.15852655096266444,0.10670477528443252,0.038368792426792996,0.19490700516120454
87,1791286434.5309706,-0.08133290816326533,0.04560312699298471,0.000879803093113134,0.09324945680975892,-0.1602062646993803,0.10917677336461935,0.0387193097567317,0.19769876084405563
88,1791286434.555764,-0.03822255660076533,0.05518320511798471,-0.008700275031886867,0.06768932519845916,-0.16219852640258348,0.11196897959335864,0.039074114654167574,0.20092834741358565
89,1791286434.575764,-0.02864247847576533,0.10787363480548472,0.010459881218113134,0.11210049854696812,-0.1636648501065268,0.11412808568381602,0.039320031739597736,0.203365355944043
90,1791286434.5858738,-0.07654286910076533,0.1414039082429847,0.039200115593113136,0.1655008312338061,-0.16437464321417505,0.11524480428695486,0.03946334955927948,0.2045916523354845
91,1791286434.6058738,-0.09091298628826533,0.1222437519929847,0.034410076530613135,0.15618181502343775,-0.16581935682407167,0.11751805811479485,0.03981475627193914,0.20710327833623257
92,1791286434.6308093,-0.05738271285076533,0.1414039082429847,0.05357023278061314,0.1617331470066446,-0.1676277420637106,0.12042022314465696,0.04035170009486913,0.21030537261832644
93,1791286434.6508093,-0.11965322066326534,0.18930429886798472,0.08231046715561313,0.2385959425228489,-0.16912617812996436,0.12289486131907842,0.04092158708768467,0.21302907631884177
94,1791286434.6750147,-0.18671376753826535,0.17493418168048472,0.12542081871811314,0.28494627682508156,-0.17122384915497088,0.12610184352429282,0.04188496546347899,0.21673401161688094
95,1791286434.6950147,-0.11486318160076534,0.1174537129304847,0.08710050621811313,0.18594467820311145,-0.17314945174257318,0.12879275464877363,0.042880347636079674,0.2200159778338017
96,1791286434.7058198,-0.07175283003826534,0.08871347855548471,0.039200115593113136,0.12064492926943954,-0.17418495477350057,0.13019554546784337,0.043439797605508215,0.2217617968567247
97,1791286434.7258198,-0.11965322066326534,0.09829355668048471,0.034410076530613135,0.1586271410157618,-0.17610124663321386,0.13268310195907776,0.04443040954733357,0.2249233556209733
98,1791286434.7508855,-0.15318349410076534,0.17972422074298472,0.07273038903061314,0.24709449179440776,-0.17865556866240928,0.13585572740054117,0.04568711610413006,0.2290456361940372
99,1791286434.7708855,-0.16276357222576535,0.1366138691804847,0.13500089684311314,0.25175498375325045,-0.1808618761581485,0.1384819659759814,0.046851033827062225,0.2325581486826098
100,1791286434.7959597,-0.13402333785076534,0.08392343949298471,0.15416105309311315,0.22084163800282477,-0.18377116983331485,0.1416953692992342,0.04863515894589918,0.23709660315669706
101,1791286434.8159597,-0.19150380660076533,0.17014414261798472,0.21164152184311313,0.33228733195513394,-0.18623192019946747,0.14425511248010933,0.05039347397440386,0.24089700661701619
102,1791286434.8403215,-0.21066396285076533,0.27552500199298474,0.27870206871811315,0.44493614718853625,-0.1895145471178979,0.1477197175801802,0.053109923151920216,0.24608442142580464
103,1791286434.8603215,-0.20108388472576533,0.32821543168048467,0.32660245934311316,0.5048061655116562,-0.19242282385683887,0.15104296943268947,0.05591344916795136,0.25093193410552883
104,1791286434.8710191,-0.13881337691326534,0.3809058613679847,0.35055265465561314,0.5359529760348833,-0.19401777417252705,0.153122823504835,0.057731363518888336,0.2538156931844534
105,1791286434.891019,-0.09570302535076533,0.5102369160554847,0.29786222496811315,0.5985170712937566,-0.19690414697962644,0.15776471464600975,0.06159290440431344,0.2597202998575008
106,1791286434.9153726,-0.16755361128826535,0.5293970723054847,0.22122159996811314,0.5977244089995067,-0.20037245636835332,0.16446809242991606,0.06653780868767516,0.26763063106374935
107,1791286434.9353726,-0.24898427535076534,0.4958667988679847,0.31223234215561313,0.6366836632736135,-0.2034183188471908,0.17068528519055642,0.07078978337309003,0.2748157063437386
108,1791286434.9599428,-0.19629384566326533,0.5581373066804847,0.4032430843431132,0.71599826258474,-0.20741946079687554,0.17911978336926146,0.07654830133991397,0.2845459048194931
109,1791286434.9799428,-0.23461415816326534,0.7209986348054848,0.45593351403061316,0.8847362340372038,-0.21083418689002031,0.1868742611742085,0.08182134701743926,0.2933731014914805
110,1791286434.9903815,-0.2825145487882653,0.8646998066804847,0.44156339684311313,1.0111866590209413,-0.21275397143728175,0.19155593641743943,0.08486335521577153,0.29859624612103886
111,1791286435.0103815,-0.13402333785076534,0.9605005879304848,0.3840829280931132,1.0430931550710352,-0.2165052557462436,0.20191810819724879,0.09105590649415767,0.3097363819301423
112,1791286435.0355213,9.775589923467166e-05,0.9700806660554847,0.36971281090561314,1.038144532692148,-0.2207658035452424,0.21662958017575495,0.09909356490677973,0.32478523616081223
113,1791286435.0555212,-0.02385243941326533,0.9844507832429847,0.4032430843431132,1.0641039745082417,-0.22368249340390045,0.22950953241600652,0.10568820459322147,0.33745885662601677
114,1791286435.0808392,-0.03822255660076533,0.9892408223054847,0.37929288903061315,1.0601516231265786,-0.22693875762303808,0.2471162473052803,0.1142700296051573,0.3544365656357933
115,1791286435.1008391,-0.06217275191326533,1.0179810566804848,0.37929288903061315,1.088124063932957,-0.2292758044095117,0.26194929714318116,0.12117026677507645,0.3686014952652505
116,1791286435.1105056,-0.03343251753826533,1.1760523457429848,0.31702238121811316,1.218490887676115,-0.23030523203386088,0.2696337105719353,0.12450986816904823,0.37582648263584945
117,1791286435.1305056,0.03362802933673467,1.2191626973054848,0.24517179528061314,1.2440248132812208,-0.23211535167197098,0.2867407981382972,0.13122638110773088,0.3915586608637611
118,1791286435.1554327,0.07673838089923468,1.0802515644929847,0.13979093590561315,1.0919586656343474,-0.2338266665190892,0.3091629589552982,0.1390615861393301,0.4118188556938731
119,1791286435.1754327,0.13900888871173467,0.9652906269929847,0.14937101403061315,0.9866210850848033,-0.23467014032298372,0.32752289047090744,0.14483883626295602,0.4281583901217332
120,1791286435.2008553,0.3162403340242347,0.7018384785554848,0.14458097496811315,0.7832552950140633,-0.2347134598573997,0.3505387725414994,0.15164140236006643,0.4482889182244636
121,1791286435.2208552,0.2443897480867347,0.4958667988679847,0.005669842155613134,0.5528493269413916,-0.23390148315409978,0.3677259668467852,0.15641563001368317,0.4630314674270724
122,1791286435.230534,0.15816904496173467,0.6491480488679847,-0.02307039221938687,0.668537866639112,-0.2332752529479132,0.37562711968108786,0.15836688261682566,0.4696734463301014
123,1791286435.250534,0.3258204121492347,0.8551197285554847,0.010459881218113134,0.9151492229429035,-0.23144935431481348,0.39176115961951974,0.16177516066792796,0.4829252658624405
124,1791286435.2761016,0.5222120137117346,0.5964576191804847,-0.008700275031886867,0.7928068954852421,-0.22783913709372725,0.41207624203404886,0.16548204176965955,0.4991009995870311
125,1791286435.2961016,0.5844825215242347,0.22283457230548473,-0.13803132971938686,0.6405682731497073,-0.22377864479977733,0.426812782358128,0.16772666896010316,0.5102727393592211
126,1791286435.3201962,0.3545606465242347,-0.031037498007015295,-0.35837312659438686,0.5050820489893253,-0.217923677741723,0.4422498998883953,0.1691281643290281,0.5212293537791984
127,1791286435.3401961,0.18211924027423468,0.03602304886798471,-0.37753328284438686,0.42070946909128326,-0.21298767409942665,0.4531490696282199,0.16901313383448338,0.5284631188945524
128,1791286435.3510165,0.14379892777423467,0.08871347855548471,-0.2529922672193869,0.30422573885067594,-0.21045327700151542,0.458262465037395,0.16844854524066907,0.5316671713172857
129,1791286435.3710165,0.17253916214923468,-0.1172582011320153,-0.2625723453443869,0.3353557584827313,-0.20599696241962978,0.4662533370521804,0.16678817021738257,0.536325662786027
130,1791286435.3960934,0.03362802933673467,-0.3807103495695153,-0.39669343909438687,0.5508510681181864,-0.20085981367794584,0.4738331895593762,0.16377867194801854,0.5400796327059627
131,1791286435.4160933,0.12463877152423468,-0.33280995894451537,-0.4014834781568869,0.5361774663044614,-0.19713986349918575,0.47790140585133944,0.16054122368608312,0.541320019949188
132,1791286435.4398904,0.2922901387117347,-0.40945058394451533,-0.3919034000318869,0.6377080686624428,-0.19263347363426525,0.48069112792504376,0.15585093041450754,0.5407967530794925
133,1791286435.4598904,0.3737208027742347,-0.5531517558195154,-0.4493838687818869,0.8047297465073646,-0.1884152103170259,0.48124013077371175,0.15123837704052562,0.5384843559805247
134,1791286435.4702475,0.3833008808992347,-0.7639134745695154,-0.4637539859693869,0.9723945297200584,-0.18597037611767475,0.4804587129408532,0.14849871586907074,0.5361692123284342
135,1791286435.4902475,0.5030518574617346,-0.8453441386320154,-0.3919034000318869,1.0588938374415817,-0.18062795130517093,0.4767622268139943,0.14271841154690276,0.5294310367779858
136,1791286435.5154772,0.6180127949617347,-0.7303832011320154,-0.3152627750318869,1.0073678834234647,-0.17277815837377797,0.4698169879735819,0.1351822864867933,0.5185118559680199
137,1791286435.5354772,0.6850733418367347,-0.7639134745695154,-0.3104727359693869,1.0720459878683088,-0.16553427303692747,0.46289578342876514,0.1291657782293085,0.5082891894695156
138,1791286435.5607843,0.7665040058992347,-1.0082054667570153,-0.3344229312818869,1.3099028022053678,-0.15498791836108475,0.4520880898016153,0.12147064926863237,0.4931125778279426
139,1791286435.5807843,0.7569239277742347,-1.0034154276945153,-0.3392129703443869,1.3018608958803561,-0.1456183121306412,0.4418106415585443,0.11529102797220975,0.47926334822625255
140,1791286435.606028,0.6467530293367347,-0.9219847636320154,-0.2961026187818869,1.1644836392905304,-0.13290847278615792,0.4271390449424183,0.10745832307420583,0.4600649052585847
141,1791286435.626028,0.7090235371492347,-1.1471165995695154,-0.2625723453443869,1.3738759426451836,-0.12231558296085053,0.41415505659909013,0.10134550843690833,0.4435723445188887
142,1791286435.6360834,0.9485254902742347,-1.6021703105070153,-0.2913125797193869,1.8845459210836142,-0.11653866602036686,0.4065329700840326,0.09831548107377527,0.43418458086615586
143,1791286435.6560833,1.0155860371492347,-1.5111595683195154,-0.4589639469068869,1.8776757292824708,-0.1038257656456377,0.38897671067399825,0.09206735617569921,0.41298797698219897
144,1791286435.680662,0.9581055683992348,-1.3387181620695154,-0.5499746890943868,1.7356856732418084,-0.0869077045264155,0.3653841685602183,0.08368075538927838,0.38478696516775746
145,1791286435.700662,0.8096143574617347,-1.6261205058195154,-0.4206436344068869,1.8645869179048558,-0.07255460224843178,0.3446189267348901,0.0764241635195491,0.3603706810230245
146,1791286435.7252517,0.8144043965242347,-1.9710033183195155,-0.4254336734693869,2.1746499516994,-0.05455958619167657,0.3162839322986486,0.0672801783916068,0.32793123773149385
147,1791286435.7452517,0.6371729512117347,-2.057224021444515,-0.7176260562818869,2.2700544488665706,-0.03994148391409617,0.2906523813307189,0.05924395526749309,0.2993058221054418
148,1791286435.755915,0.3833008808992347,-1.9135228495695153,-0.7942666812818869,2.1069762272311734,-0.03250059504548547,0.27586084667479527,0.05439289460608277,0.28304431170767935
149,1791286435.775915,0.3641407246492347,-1.9997435526945155,-0.7272061344068869,2.1587963094767324,-0.01951675191572283,0.24640945966266875,0.04437685494983089,0.25113309354170466
150,1791286435.8004436,0.3976709980867347,-2.1913451151945154,-0.631405353156887,2.3149100104758578,-0.004579980989338879,0.2079970380647353,0.03143603154400021,0.21040904958865486
151,1791286435.8204436,0.37851084183673467,-2.2248753886320154,-0.6793057437818869,2.3568617366878946,0.006936426341637816,0.17475045355472005,0.020501150127276442,0.17608558198931126
152,1791286435.8455226,0.11505869339923468,-2.4068968730070153,-0.5882950015943869,2.4804197364798215,0.020139660726646975,0.13060226109110173,0.00646184503930914,0.13230386229284766
153,1791286435.8655226,0.12942881058673467,-2.3302562480070153,-0.3200528140943869,2.355690939447568,0.02945629648679192,0.09357037687598967,-0.004417316617439918,0.09819674901711992
154,1791286435.875488,0.4743116230867347,-2.1721849589445155,-0.2721524234693869,2.2399611499443957,0.03385341767683581,0.07452108165271396,-0.00946759408280447,0.08239587876107345
155,1791286435.895488,0.3737208027742347,-2.2105052714445153,-0.4541739078443869,2.2874166065841286,0.042626502758036575,0.03545090916701214,-0.019172337795569053,0.05866314204588816
156,1791286435.920083,0.18690927933673468,-2.5026976542570156,-0.3200528140943869,2.5299929705703694,0.05283106915214671,-0.014082829362960902,-0.03074476317674472,0.06272709473121882
157,1791286435.940083,0.12942881058673467,-2.4691673808195156,-0.16198152503188687,2.4778574184090294,0.06035893247867608,-0.055778147423507486,-0.03946662945741365,0.09117026544160495
158,1791286435.9658852,0.2348096699617347,-2.1913451151945154,-0.3344229312818869,2.229118142217135,0.06931878549418764,-0.11051972954668177,-0.04999157865620229,0.13970992297614418
159,1791286435.9858851,0.3066602558992347,-2.3781566386320154,-0.4733340640943869,2.4441183781989406,0.0760342744816267,-0.15344099070498057,-0.05813767645974898,0.18084617205960357
160,1791286435.9959342,0.2875000996492347,-2.6176585917570154,-0.3152627750318869,2.652203504186368,0.07935018339308003,-0.17553737894705487,-0.06221112375231011,0.20243529072432656
161,1791286436.0159342,0.2731299824617347,-2.4260570292570156,-0.26736238440688687,2.455979507472051,0.08580062223854751,-0.22048321469451437,-0.06997607633208247,0.24672098815743804
162,1791286436.041164,0.3066602558992347,-2.2727757792570156,-0.4302237125318869,2.3333758158835534,0.09381428354268764,-0.27756822721842933,-0.07962213850991212,0.3036197053860323
163,1791286436.061164,0.2827100605867347,-2.2488255839445155,-0.4445938297193869,2.3097197143343817,0.10009801208908899,-0.3228149952399498,-0.08743396323611578,0.34910432696134064
164,1791286436.085536,0.3641407246492347,-2.4356371073820156,-0.26736238440688687,2.4771776744513176,0.10778917753150487,-0.3782450533940301,-0.09682696074616254,0.40504726580648565
165,1791286436.105536,0.4503614277742347,-2.3302562480070153,-0.25778230628188686,2.387335609928899,0.11437565743440788,-0.4240573607404373,-0.10416646370297104,0.4513946038358022
166,1791286436.115717,0.4216211933992347,-2.4356371073820156,-0.3392129703443869,2.4950266509256944,0.11789138752834553,-0.4475190236165446,-0.10779804750668392,0.47517583566330185
167,1791286436.135717,0.3737208027742347,-2.4068968730070153,-0.3200528140943869,2.4566753142258957,0.1249549078964295,-0.4939587179507126,-0.11485090437834015,0.5223022824796378
168,1791286436.160938,0.5222120137117346,-2.3446263651945154,-0.3440030094068869,2.4265853065802374,0.1342210139299337,-0.552725242936605,-0.12366696560413715,0.5820773085608503
169,1791286436.180938,0.4695215840242347,-2.2919359355070155,-0.4302237125318869,2.3787629754050243,0.1419543196254158,-0.5992909452626027,-0.1307706640367923,0.6296043460036488
170,1791286436.2057505,0.3018702168367347,-2.3158861308195156,-0.5212344547193869,2.39293534294637,0.15154483637194888,-0.6569707561388178,-0.1400323324008224,0.6886112589627222
171,1791286436.2257504,0.3162403340242347,-2.5362279276945157,-0.5787149234693869,2.620566925824936,0.15904283828714755,-0.7037676077478728,-0.14802778501854302,0.7365430708811886
172,1791286436.2504668,0.3976709980867347,-2.5314378886320155,-0.6026651187818869,2.632399143769311,0.16824248980536516,-0.7623192972903561,-0.1586165421271348,0.7966149972436747
173,1791286436.2704668,0.37851084183673467,-2.2967259745695157,-0.5547647281568869,2.3929029573422382,0.17573430391901626,-0.8098335292198221,-0.16763565787551876,0.8454670924488378
174,1791286436.2806432,0.34977060746173466,-2.2009251933195153,-0.3919034000318869,2.2627415803377215,0.17953034792783593,-0.8338161015180264,-0.1722589367973424,0.8701457224421438
175,1791286436.3006432,0.2539698262117347,-2.1290746073820155,-0.3152627750318869,2.1672217177173425,0.18677735137411425,-0.8803746273642117,-0.18104299688889014,0.9179988181994108
176,1791286436.326081,0.3354004902742347,-1.9614232401945155,-0.20509187659438688,2.0004342763251075,0.1957365739226867,-0.9385134681104813,-0.19153227436877013,0.9776527749260617
177,1791286436.346081,0.35935068558673466,-1.9183128886320153,-0.21467195471938688,1.963451375019612,0.20276610611944848,-0.9831869814594645,-0.19917185447951324,1.0234452412899409
178,1791286436.3707805,0.2443897480867347,-1.9901634745695154,-0.3152627750318869,2.0297457037277624,0.21126360435548677,-1.0373222928049455,-0.20817301483267403,1.0788910296132346
179,1791286436.3907804,0.3018702168367347,-2.0668040995695156,-0.12845125159438686,2.092678794714224,0.2179315988524259,-1.0806676543678855,-0.21503384800395417,1.1231991438577353
180,1791286436.400318,0.2539698262117347,-1.9422630839445154,-0.11408113440688687,1.9621164759277774,0.22103201713839965,-1.1011050892939427,-0.21798832006872146,1.1440308028876123
181,1791286436.420318,0.10068857621173467,-1.8752025370695153,-0.3392129703443869,1.9082945746559556,0.22709032563775206,-1.1432598617779757,-0.2239344410409039,1.1869118591686403
182,1791286436.446383,0.19648935746173468,-2.2488255839445155,-0.4877041812818869,2.309476118741857,0.23438247581907395,-1.1980195754737015,-0.2321378918082722,1.2426077615251145
183,1791286436.466383,0.2731299824617347,-2.3685765605070155,-0.4254336734693869,2.4219307836568014,0.2398429335520301,-1.2406606260445898,-0.23885798804939296,1.2860079938504274
184,1791286436.4907808,0.2922901387117347,-2.1194945292570155,-0.28652254065688687,2.1586536894655013,0.24653956232928984,-1.2930879877987322,-0.24712888552929618,1.3393770888162317
185,1791286436.5107808,0.2491797871492347,-1.8512523417570155,-0.3008926578443869,1.892025948746272,0.2520178571225454,-1.3355745466447686,-0.25377302032827237,1.3826326756592124
186,1791286436.5203333,0.2922901387117347,-2.1530248026945156,-0.39669343909438687,2.208690791130894,0.25462986777210106,-1.3556920790019706,-0.25697018679210754,1.4031290245484531
187,1791286436.5403333,0.3018702168367347,-2.3781566386320154,-0.38711336096938687,2.428293923709319,0.2601695489406783,-1.3982908319385505,-0.26383570468859663,1.4465527034809096
188,1791286436.5658731,0.4072510762117347,-2.2392455058195155,-0.3296328922193869,2.2997242700031304,0.2675408873676503,-1.453374056689655,-0.27266077246223014,1.5027368937747265
189,1791286436.5858731,0.34977060746173466,-2.0236937480070156,-0.35837312659438686,2.0847319159623066,0.27358296724092096,-1.4964332405886063,-0.2795669677877627,1.5467119230745292
190,1791286436.610541,0.3258204121492347,-2.1626048808195155,-0.3008926578443869,2.2076130102583984,0.2811673336697415,-1.549321125988213,-0.28802706099111847,1.600753138000834
191,1791286436.630541,0.3737208027742347,-2.2631957011320156,-0.20509187659438688,2.302994723809341,0.28744342492839237,-1.5924076065584618,-0.29461632626519246,1.6447445052839702
192,1791286436.640724,0.4072510762117347,-2.1673949198820153,-0.19551179846938688,2.2139735863706047,0.29075597999980496,-1.6144379282429009,-0.2977739215950993,1.6672186936442985
193,1791286436.660724,0.3401905293367347,-2.0620140605070154,-0.2434121890943869,2.104015464719487,0.2974073554693754,-1.6575610155297549,-0.303703820307676,1.7111971440371203
194,1791286436.686316,0.3976709980867347,-2.0236937480070156,-0.3631631656568869,2.0941265705138057,0.30605807881009406,-1.712306614688485,-0.3113178272175423,1.7670835520298178
195,1791286436.706316,0.4264112324617347,-2.1578148417570153,-0.35837312659438686,2.2285472237180493,0.31304059230409575,-1.7549445746440884,-0.31745786528334174,1.81069168240567
196,1791286436.7308393,0.4072510762117347,-2.2775658183195153,-0.4110635562818869,2.34992185894684,0.3218513521564517,-1.8075412882271387,-0.3252724373733516,1.8645632089166515
197,1791286436.7508392,0.3066602558992347,-2.2152953105070154,-0.4589639469068869,2.283029068992094,0.32903000256265574,-1.8507416045096765,-0.33199468572117297,1.908854551975224
198,1791286436.761245,0.26833994339923467,-2.2344554667570153,-0.4493838687818869,2.2949386527018953,0.3326534815350657,-1.8733195068380801,-0.3356764783168477,1.9320100961363191
199,1791286436.781245,0.2827100605867347,-2.2105052714445153,-0.3823233219068869,2.2610682554745805,0.33939975522618654,-1.9168725969313538,-0.34293900470492666,1.9766638327398904
200,1791286436.8060148,0.2635499043367347,-2.1147044901945153,-0.3200528140943869,2.1549634420877037,0.3475164763190928,-1.9707567538419477,-0.35188921595209177,2.0318651294882413
201,1791286436.8260148,0.3114502949617347,-2.1003343730070156,-0.2482022281568869,2.1377581974415554,0.3539496393283919,-2.0140610508863954,-0.35888430173731845,2.076179232607771
202,1791286436.8508503,0.3976709980867347,-2.1386546855070154,-0.2386221500318869,2.1883616284897363,0.36206078755708937,-2.0676651516785585,-0.36717450143525976,2.1309960834916164
203,1791286436.8708503,0.3976709980867347,-2.1051244120695154,-0.22904207190688688,2.154565219183147,0.36880588847421386,-2.1107228747640336,-0.37355064706923913,2.17501929263886
204,1791286436.8806202,0.3354004902742347,-2.1290746073820155,-0.17635164221938687,2.162533716358789,0.37214375529081545,-2.131703964970136,-0.37649521175325135,2.19645200570021
205,1791286436.9006202,0.2922901387117347,-2.1530248026945156,-0.19072175940688688,2.1811290919423225,0.37889329100529134,-2.1746349114902053,-0.38216946304371685,2.240234501726093
206,1791286436.9253204,0.3449805683992347,-2.1817650370695154,-0.26736238440688687,2.224992789684438,0.3871592220123443,-2.2277322680125864,-0.3889746602959226,2.294337509497248
207,1791286436.9453204,0.3833008808992347,-2.1147044901945153,-0.34879304846938686,2.177280697752943,0.39394070207487275,-2.270721426792961,-0.394582595847543,2.3381746084913524
208,1791286436.9710891,0.2300196308992347,-2.2344554667570153,-0.36795320471938686,2.2762007434280918,0.40255293540829823,-2.326207435276755,-0.4021094811291689,2.394782230716744
209,1791286436.991089,0.2252295918367347,-2.2536156230070152,-0.39669343909438687,2.299321080214934,0.40891741084312505,-2.369544376366803,-0.4082220340383985,2.4389750366776273
210,1791286437.0152931,0.35935068558673466,-2.1626048808195155,-0.3727432437818869,2.2237199265107757,0.4165255555549774,-2.4221406293386076,-0.4159066032411964,2.4926365698478468
211,1791286437.035293,0.3066602558992347,-2.1626048808195155,-0.36795320471938686,2.215014659986665,0.4228682436590359,-2.4655700535039062,-0.4224149971663744,2.5369839711873623
212,1791286437.0462003,0.19648935746173468,-2.1626048808195155,-0.2961026187818869,2.191607788585724,0.42622002585054836,-2.489240179191331,-0.42597522056191306,2.561139408284778
213,1791286437.0662003,0.2395997090242347,-2.1099144511320156,-0.22904207190688688,2.1357919567138586,0.4320982661268673,-2.5325413482237153,-0.4323119218251774,2.605257797187222
214,1791286437.0907757,0.3066602558992347,-2.0524339823820155,-0.27694246253188687,2.0936147907716713,0.4392446891781137,-2.58543950024873,-0.43986295429629463,2.6591187873015083
215,1791286437.1107757,0.3354004902742347,-2.1578148417570153,-0.34879304846938686,2.211405654972334,0.44515128876960003,-2.6283469512796134,-0.44602495299654843,2.7028328888204776
216,1791286437.1361594,0.2827100605867347,-2.2344554667570153,-0.35837312659438686,2.280602444342789,0.45270012549788474,-2.682997793446619,-0.45401885868182007,2.758540861996423
217,1791286437.1561594,0.2922901387117347,-2.1817650370695154,-0.34879304846938686,2.228719092399856,0.4586182333799026,-2.7262228905573593,-0.4604332870070782,2.8026096311779796
218,1791286437.1661003,0.2875000996492347,-2.1338646464445152,-0.3296328922193869,2.1782315029117116,0.4615508285485913,-2.7477025161504516,-0.4636491104412518,2.824512131715206
219,1791286437.1861002,0.34977060746173466,-2.2105052714445153,-0.3535830875318869,2.2657656614744437,0.4675217984913157,-2.7909516200740803,-0.4701733501479859,2.868632175244513
220,1791286437.2110345,0.38809091996173467,-2.2536156230070152,-0.34879304846938686,2.3132346463509945,0.475229139677815,-2.8451312863804596,-0.47840063572557495,2.9239497157445236
221,1791286437.2310345,0.38809091996173467,-2.1961351542570156,-0.3152627750318869,2.252335409134491,0.481648209661255,-2.8887451324781037,-0.48500601041836083,2.9685121304161393
222,1791286437.2554286,0.3641407246492347,-2.1338646464445152,-0.2721524234693869,2.181752446611234,0.4896794117579938,-2.941883640588914,-0.4929288230891908,3.022820554663547
223,1791286437.2754285,0.3258204121492347,-2.1817650370695154,-0.2817325015943869,2.2238774292677808,0.496311224971444,-2.9853888272270726,-0.4992809865638161,3.0672712278683525
224,1791286437.2856128,0.2779200215242347,-2.1961351542570156,-0.2817325015943869,2.231506745807,0.4996428402695518,-3.0075632273524153,-0.502460797079494,3.0899104173028804
225,1791286437.3056128,0.3449805683992347,-2.1769749980070157,-0.36795320471938686,2.2346412005921605,0.506138443628913,-3.0511372010917968,-0.5087431800139276,3.134395311254799
226,1791286437.3313308,0.36893076371173467,-2.1769749980070157,-0.4206436344068869,2.2477257656412637,0.514615261512927,-3.107162312595871,-0.5171310017841174,3.1916627292375965
227,1791286437.3513308,0.3018702168367347,-2.2296654276945156,-0.3823233219068869,2.282258677219377,0.5212247715316716,-3.1508057439081756,-0.5238799327510666,3.236309979319388
228,1791286437.3906944,0.3210303730867347,-2.2392455058195155,-0.3200528140943869,2.284669503360791,0.534121159841527,-3.237012704202753,-0.5372441995167448,3.3244801082988698
229,1791286437.4106944,0.4120411152742347,-2.2200853495695156,-0.3344229312818869,2.2826290844149,0.5407903345086902,-3.280931929236179,-0.543997543541553,3.3694067486070454
230,1791286437.4057229,0.3641407246492347,-2.1721849589445155,-0.3200528140943869,2.225627948921965,0.5407903345086902,-3.280931929236179,-0.543997543541553,3.3694067486070454
231,1791286437.4257228,0.3066602558992347,-2.2200853495695156,-0.3535830875318869,2.268885292761616,0.5476046446190658,-3.3248521078050484,-0.5507217432678274,3.4143530608435912
232,1791286437.45077,0.3066602558992347,-2.2584056620695154,-0.38711336096938687,2.3117727832243475,0.5560106269489884,-3.3800181705857626,-0.5592710824744831,3.4708003103696865
233,1791286437.47077,0.3018702168367347,-2.1961351542570156,-0.3727432437818869,2.247904083665846,0.5626287437491142,-3.424142375048276,-0.5662134876680602,3.5159493485417537
234,1791286437.495968,0.3306104512117347,-2.1530248026945156,-0.3200528140943869,2.201647763671092,0.5709115573637693,-3.4796154394584464,-0.5749575780076441,3.5727076327846277
235,1791286437.515968,0.3545606465242347,-2.2200853495695156,-0.28652254065688687,2.2664040632114473,0.5775273145010256,-3.5236000098120424,-0.581766642055815,3.61769916576145
236,1791286437.52554,0.34977060746173466,-2.1099144511320156,-0.25778230628188686,2.154188985760505,0.5807243223597964,-3.544601960677375,-0.5849274061061548,3.639173514499166
237,1791286437.54554,0.4264112324617347,-2.1194945292570155,-0.3104727359693869,2.1841421470454416,0.5875665000334236,-3.588245664659111,-0.5913933246494475,3.6838142469926956
238,1791286437.5705628,0.3976709980867347,-2.1913451151945154,-0.3392129703443869,2.252820693232381,0.5963894948378307,-3.6427495115106447,-0.5994888890452189,3.739611124335341
239,1791286437.5905628,0.3354004902742347,-2.2536156230070152,-0.2913125797193869,2.296984955161931,0.6034832782328196,-3.68644583769116,-0.6059346511014442,3.7843403365372064
240,1791286437.6149821,0.3545606465242347,-2.1961351542570156,-0.3200528140943869,2.2474778467510874,0.612108987632348,-3.7399443149252156,-0.6137438859570502,3.839080938067261
241,1791286437.634982,0.3976709980867347,-2.2823558573820155,-0.4158535953443869,2.3537681906267127,0.6192422921365383,-3.7839060675319685,-0.6202842977378407,3.8840904668011897
242,1791286437.6602662,0.38809091996173467,-2.3015160136320154,-0.4541739078443869,2.377785621482305,0.6283975935840665,-3.839838604111912,-0.628962285693417,3.941425833131336
243,1791286437.6802661,0.37851084183673467,-2.1865550761320156,-0.4302237125318869,2.2603950984664953,0.6357031531244857,-3.8841775016465534,-0.6361236123791305,3.9869294718386916
244,1791286437.6906629,0.3833008808992347,-2.0476439433195153,-0.3823233219068869,2.1180029287952227,0.639525220487516,-3.9070707635723254,-0.6399215099302779,4.010448104398396
245,1791286437.7106628,0.3928809590242347,-2.0524339823820155,-0.3296328922193869,2.1155374124872433,0.6469390679251921,-3.9506543266657386,-0.6471994982443391,4.055251774790112
246,1791286437.7351995,0.3449805683992347,-2.0476439433195153,-0.25778230628188686,2.0924409259566117,0.6560281257434575,-4.003648718056705,-0.6558700230169957,4.109713061328721
247,1791286437.7551994,0.3545606465242347,-2.0093236308195155,-0.25778230628188686,2.0565861087893724,0.6633747138891353,-4.046450882319208,-0.66265066941906,4.153665449182315
248,1791286437.7807693,0.34977060746173466,-2.0045335917570153,-0.2625723453443869,2.0516916519950272,0.6727091430199031,-4.10066250474974,-0.6710172569809081,4.209303354253428
249,1791286437.8007693,0.25875986527423467,-2.0428539042570155,-0.19551179846938688,2.068437479199119,0.6798278692861608,-4.142775806961781,-0.6772668511149318,4.252463721917582
250,1791286437.8108308,0.2635499043367347,-2.0955443339445154,-0.23383211096938689,2.124956955734225,0.6832660797436589,-4.163906943419561,-0.680263255059651,4.274076703262384
251,1791286437.8308308,0.3354004902742347,-2.1434447245695156,-0.3440030094068869,2.1966307943398404,0.6899737285273005,-4.205968734513295,-0.686192751637928,4.317070445818746
252,1791286437.8549836,0.3066602558992347,-2.0811742167570153,-0.3344229312818869,2.130062283129188,0.6980221489338242,-4.256797586954068,-0.6935082781511612,4.369040437963966
253,1791286437.8749835,0.3018702168367347,-2.0955443339445154,-0.2817325015943869,2.1358382162033367,0.7045998466892666,-4.29883868688383,-0.6995815639463199,4.412016473724595
254,1791286437.900621,0.2970801777742347,-2.1051244120695154,-0.3392129703443869,2.1528750222823563,0.7129185049270014,-4.3527233137499515,-0.7073929121618907,4.467086049418187
255,1791286437.920621,0.3210303730867347,-2.1003343730070156,-0.36795320471938686,2.1563521372313588,0.7193617175222301,-4.3947620381542905,-0.7136333141215719,4.510065094836517
256,1791286437.930713,0.3114502949617347,-2.1482347636320154,-0.2817325015943869,2.1889008859159165,0.7226040095262667,-4.41600866879268,-0.7168016408795844,4.531787032706104
257,1791286437.950713,0.3306104512117347,-2.1434447245695156,-0.2817325015943869,2.1870143484188542,0.729028732909811,-4.458236080751052,-0.7229838764797687,4.574937981084367
258,1791286437.9755013,0.4312012715242347,-2.1386546855070154,-0.35837312659438686,2.210929600478103,0.737213530737504,-4.510683933726947,-0.7306869444301964,4.628569622534115
259,1791286437.9955013,0.4455713887117347,-2.0955443339445154,-0.3008926578443869,2.163417738096396,0.7441418601384103,-4.5530042028800715,-0.7369586412825145,4.6719056517030415
260,1791286438.0199869,0.4503614277742347,-2.1769749980070157,-0.2721524234693869,2.2396679439539144,0.7529970544951222,-4.604890439810171,-0.7445375613324802,4.725077428674408
261,1791286438.0399868,0.5174219746492347,-2.2057152323820155,-0.2817325015943869,2.283041477649189,0.7605967594581108,-4.647488320302532,-0.7506303206854266,4.768763046763692
262,1791286438.049965,0.4982618183992347,-2.1817650370695154,-0.20509187659438688,2.2473153304550886,0.7645796407180604,-4.668836098292626,-0.7535783806997334,4.790667272476654
263,1791286438.069965,0.5126319355867347,-2.1769749980070157,-0.18593172034438687,2.244233109095682,0.7728817623398351,-4.711745202774406,-0.7591876346585256,4.834692848469649
264,1791286438.094992,0.6132227558992347,-2.2248753886320154,-0.19551179846938688,2.31610394987657,0.7838255751049512,-4.76564787020384,-0.7658698981095641,4.890024422822176
265,1791286438.114992,0.6994434590242347,-2.3685765605070155,-0.23383211096938689,2.4807364897294977,0.7932283187839633,-4.80915222343525,-0.7710529393674453,4.934742030663834
266,1791286438.1401227,0.7617139668367348,-2.6272386698820154,-0.3104727359693869,2.7529955531344203,0.8060249914030061,-4.8650335322969624,-0.7776146363463918,4.992285256252913
267,1791286438.1601226,0.7904542012117347,-2.7661498026945153,-0.4398037906568869,2.9102972269918332,0.8170096976840713,-4.910925160844378,-0.7831787853898791,5.039648776592369
268,1791286438.1703806,0.7856641621492347,-2.8236302714445154,-0.5882950015943869,2.9893556319722863,0.8230112126144561,-4.935232724776512,-0.7863955170046225,5.064808724222375
269,1791286438.1903806,0.7281836933992347,-2.9481712870695156,-0.6218252750318869,3.099779363422848,0.8352279815170998,-4.984174083280881,-0.7935416180824097,5.1155943323515
270,1791286438.2153513,0.7042334980867347,-3.0152318339445157,-0.38711336096938687,3.1204846717298422,0.8508757761977341,-5.0472818348826545,-0.8030150283394644,5.181107665644051
271,1791286438.2353513,0.6659131855867347,-2.7805199198820154,-0.09013093909438687,2.860568996158107,0.8635839399728127,-5.098938917470096,-0.810180347669656,5.234629643176316
272,1791286438.2599237,0.6228028340242348,-2.5314378886320155,0.08231046715561313,2.608224715601344,0.8792304270431749,-5.162675349914411,-0.817677695418466,5.300458444892977
273,1791286438.2799237,0.37851084183673467,-2.3637865214445153,0.11105070153061314,2.3964743759659015,0.8915571558100792,-5.214113161443139,-0.8225745682503183,5.35336148067202
274,1791286438.2901802,0.08152841996173467,-2.0955443339445154,0.19248136559311316,2.1059444472466526,0.8972842929759289,-5.239965346416908,-0.8244756403742264,5.3797877296081
275,1791286438.3101802,0.043208107461734674,-2.0476439433195153,0.22122159996811314,2.060012537693878,0.9069640086221308,-5.2890295831537975,-0.8270060741221971,5.429581631308896
276,1791286438.3354564,-0.14839345503826534,-1.8416722636320155,0.14937101403061315,1.8536690761735763,0.9171629338908844,-5.349109322732096,-0.8290218268216415,5.490121636465758
277,1791286438.3554564,-0.24898427535076534,-1.5159496073820153,0.06794034996811314,1.5377620988460543,0.9234263512278736,-5.394553535212611,-0.8300515933371867,5.535603825963208
278,1791286438.3803406,-0.4310057597257653,-1.3291380839445155,0.10626066246811314,1.401308438387725,0.9287813426062494,-5.447924284291788,-0.8308155400750281,5.5886284767713645
279,1791286438.4003406,-0.5411766581632653,-1.4776292948820153,0.05836027184311314,1.5746956625849593,0.9309814029282096,-5.488595358209087,-0.8310905091374957,5.628686952845302
280,1791286438.4249272,-0.6561375956632653,-1.4105687480070155,0.000879803093113134,1.5557061134257757,0.9310724740426508,-5.536419817940695,-0.8312685951311745,5.675372043281192
281,1791286438.4449272,-0.5028563456632653,-1.0800560526945153,-0.12366121253188687,1.197780312419906,0.9293969541534586,-5.573223051476952,-0.8315759011938136,5.71105177347834
282,1791286438.455918,-0.34478505660076536,-0.8261839823820154,-0.14761140784438687,0.9073289567326732,0.9279155758749292,-5.591985621354261,-0.8319430614321769,5.729176185355905
283,1791286438.475918,-0.6417674784757653,-0.6250023417570154,-0.03744050940688687,0.8966020384627408,0.9241444436064378,-5.6231831887213355,-0.8327885399347216,5.759146540835153
284,1791286438.5003324,-0.7710985331632654,-0.6537425761320154,0.005669842155613134,1.010942357805,0.9176444234620289,-5.657895533233526,-0.8337239902483623,5.7921454440311235
285,1791286438.5203323,-0.6178172831632653,-0.8980345683195153,-0.19551179846938688,1.1074245548175239,0.9110350062135272,-5.684393837368518,-0.8346601186914647,5.817127778774824
286,1791286438.5450099,-0.41663564253826535,-0.8309740214445154,-0.3535830875318869,0.994547174716979,0.9021885003078219,-5.71538520922065,-0.8366581981837445,5.846329542580876
287,1791286438.5650098,-0.49806630660076534,-0.38550038863201536,-0.19551179846938688,0.659473622480154,0.8947222185081203,-5.738559427682703,-0.8388582878393895,5.868157750130355
288,1791286438.5755594,-0.8046288066007654,-0.0885179667570153,-0.027860431281886866,0.8099624376980582,0.8903439524195169,-5.749324780804945,-0.8400214471212093,5.878187120227753
289,1791286438.5955594,-0.8189989237882653,-0.1699486308195153,0.029620037468113137,0.8369702031156051,0.8808531898609273,-5.767060225997149,-0.8418931718119774,5.894376142146859
290,1791286438.6194837,-0.5172264628507653,-0.0837279276945153,-0.17156160315688687,0.5513319902081624,0.8688054921770448,-5.785548554696397,-0.8440510045265852,5.910991216389084
291,1791286438.6394837,-0.10528310347576533,0.3425855488679847,-0.11887117346938687,0.3775973332170874,0.8593109670262793,-5.798297565089954,-0.8460199496887987,5.922366059832098
292,1791286438.6649442,-0.2729344706632653,0.7688990254304847,0.039200115593113136,0.8168448969337443,0.8483149918172358,-5.809970485967889,-0.8483026239004313,5.932538471419817
293,1791286438.6849442,-0.6226073222257653,0.9413404316804848,-0.06139070471938687,1.130278949919657,0.8396296590404175,-5.8151991477573475,-0.8498600531339935,5.936647303178034
294,1791286438.6955264,-0.45974599410076533,0.6970484394929847,-0.25778230628188686,0.8738962315534462,0.8348644535210243,-5.816250375607673,-0.85081381470239,5.937141672117804
295,1791286438.7155263,0.10547861527423467,0.5725074238679847,-0.4781241031568869,0.7533214099464476,0.8266779008660716,-5.8160348079530575,-0.8534498610860074,5.936163230950579
296,1791286438.7410803,0.3066602558992347,0.8024292988679848,-0.5691348453443869,1.0304599771049474,0.8185768310360918,-5.813165563123408,-0.8583198418431722,5.932931387054351
297,1791286438.7610803,0.2204395527742347,1.0084009785554848,-0.4637539859693869,1.1316067733455195,0.8139781722614885,-5.808540530017571,-0.8631089710106876,5.9284619126392375
298,1791286438.7852483,-0.0046922831632653286,1.0179810566804848,-0.25778230628188686,1.0501234054689044,0.8096457622799589,-5.800116943842625,-0.8693359422611417,5.920525973520873
299,1791286438.8052483,0.09110849808673467,0.7688990254304847,-0.27694246253188687,0.8223159960044528,0.8067279330204932,-5.791511405225667,-0.8745181323682417,5.912461101657697
300,1791286438.815317,0.4791016621492347,0.7449488301179847,-0.4637539859693869,0.999777436068052,0.8059099343452657,-5.786685757348073,-0.8772950223460578,5.908034312087617
301,1791286438.835317,0.4982618183992347,0.6730982441804847,-0.6266153140943869,1.0459315646116483,0.8059948637889573,-5.776411032939321,-0.883619094159948,5.89892658417456
302,1791286438.8599198,0.2252295918367347,0.6012476582429847,-0.6170352359693869,0.8904827892831012,0.8074186665079824,-5.763316091918907,-0.8925264991331854,5.887643062385142
303,1791286438.8799198,0.2922901387117347,0.5772974629304847,-0.4254336734693869,0.7744027998501531,0.8091787575548869,-5.752499998061677,-0.9002449958307488,5.878474933339087
304,1791286438.905328,0.8575147480867347,0.42880625199298467,-0.3919034000318869,1.0357579929168204,0.8132704874303153,-5.73890296148848,-0.9101373671129922,5.867262233284086
305,1791286438.925328,1.0251661152742346,0.1557740254304847,-0.3440030094068869,1.092505918238559,0.818832171646129,-5.728928683083574,-0.917859943313303,5.859486057387586
306,1791286438.935354,0.8335645527742347,0.16056406449298471,-0.3344229312818869,0.9123866392135447,0.8225996996509509,-5.724440728512285,-0.9216607088629133,5.856223218284783
307,1791286438.955354,1.0347461933992348,0.10308359574298472,-0.3152627750318869,1.0866078086348891,0.8317903592851631,-5.716435510571531,-0.9290797900471821,5.850871679040403
308,1791286438.980471,1.6909815449617347,-0.031037498007015295,-0.2817325015943869,1.7145714082937291,0.8467357555059055,-5.707754461263208,-0.9381240388794693,5.845981452420606
309,1791286439.0004709,2.0598145527742346,-0.0789378886320153,-0.26736238440688687,2.0785932326162175,0.8624774954247741,-5.702043795536641,-0.9450691348304101,5.843828072927984
310,1791286439.024496,1.9640137715242347,-0.21305898238201532,-0.3296328922193869,2.0028484886140108,0.8858014426385991,-5.696738940656694,-0.9532362980911001,5.843469705044546
311,1791286439.044496,1.9640137715242347,-0.5052513651945153,-0.4877041812818869,2.085781485488738,0.9081972616462337,-5.694062744818557,-0.9602413026084878,5.845445762918992
312,1791286439.0700715,2.318476662149235,-0.8692943339445154,-0.7128360172193869,2.576653228396071,0.9407550007857831,-5.693790430647197,-0.9701582530039218,5.851963471819068
313,1791286439.0900714,2.534028419961735,-0.9794652323820153,-0.8661172672193869,2.8514577491512125,0.9696749007961061,-5.696382559954006,-0.9791184837289924,5.860692509231469
314,1791286439.0996275,2.586718849649235,-1.1375365214445154,-0.8086367984693869,2.9392171094680246,0.9850902793912442,-5.69895257240061,-0.9839578298305335,5.866569380132435
315,1791286439.1196275,2.6825196308992347,-1.2477074198820155,-0.6888858219068869,3.037638729574788,1.0204177038740785,-5.707102422986643,-0.9948131877150996,5.882339979573735
316,1791286439.145309,3.0753028340242348,-1.5542699198820153,-0.6505655094068868,3.506633426356023,1.070066549295062,-5.72139461911958,-1.0092413601565182,5.907450120877984
317,1791286439.165309,3.276484474649235,-1.8129320292570155,-0.7415762515943869,3.8173300082979744,1.1124595020022565,-5.735906201976054,-1.0208803656968841,5.93130532197828
318,1791286439.1904442,3.233374123086735,-1.7650316386320155,-0.8373770328443869,3.7777301651063167,1.1700178224075612,-5.758153189187022,-1.0362902949118002,5.96650378615688
319,1791286439.2104442,3.372285255899235,-1.5207396464445153,-1.0672989078443869,3.850205692961011,1.2188552721540666,-5.778128359354094,-1.0495696511188422,5.997830604825342
320,1791286439.2209544,3.5734668965242347,-1.7937718730070153,-1.278060626594387,4.197704391473568,1.2461452854196189,-5.789663667038982,-1.0573500955238382,6.015901650983757
321,1791286439.2409544,3.468086037149235,-1.8991527323820154,-1.2253701969068869,4.13955722045863,1.3008484877377156,-5.813861107267075,-1.0736899035920966,6.053593789784532
322,1791286439.2648025,3.424975685586735,-1.6740208964445153,-1.057718829719387,3.956206962652001,1.3686215158867543,-5.844777256202928,-1.0943345506529034,6.101812364955831
323,1791286439.2848024,3.4968262715242346,-1.3914085917570154,-1.005028400031887,3.895368265941999,1.4273159179105035,-5.871413838646903,-1.1121451156089246,6.143907384746929
324,1791286439.310945,3.688427834024235,-1.4919994120695155,-1.076878985969387,4.121920727384619,1.506617095062607,-5.906662201358026,-1.13601573253031,6.200732632249427
325,1791286439.330945,3.6069971699617347,-1.5111595683195154,-1.1056192203443869,4.064040561489331,1.5691281178423298,-5.9340882080471715,-1.1548120392841053,6.245731082680668
326,1791286439.340626,3.310014748086735,-1.3147679667570153,-1.0720889469068868,3.719433713489459,1.59987006011628,-5.947424260172281,-1.1641268124772466,6.267904815428414
327,1791286439.360626,3.223794044961735,-1.2093871073820155,-1.0337686344068868,3.595016385124839,1.6636541597023906,-5.974628833176643,-1.1836425027316753,6.3138692124238425
328,1791286439.3855882,3.142363380899235,-1.1758568339445155,-1.1151992984693868,3.535640873569755,1.7432408159644286,-6.0079555679894865,-1.2083698009030608,6.371387307730924
329,1791286439.4055882,2.979502052774235,-1.0608958964445154,-1.119989337531887,3.3551913062840106,1.8066244602856456,-6.0340071810059115,-1.228562598369837,6.417359321328871
330,1791286439.4301717,2.831010841836735,-1.0034154276945153,-0.990658282844387,3.1627312153423177,1.883561126031055,-6.065032098062418,-1.253551640373396,6.473315115233124
331,1791286439.4501717,2.8022706074617347,-0.9650951151945154,-1.0672989078443869,3.1501200131903064,1.9452141200440325,-6.089439145893351,-1.2739189425348134,6.518281718099184
332,1791286439.4610522,2.763950294961735,-1.2045970683195153,-1.043348712531887,3.190462641368016,1.9782659564867726,-6.102496008739085,-1.2850595620140934,6.54258143313439
333,1791286439.4810522,2.490918068399235,-1.5494798808195154,-0.7559463687818869,3.029358948196261,2.0377894645714694,-6.127027567176681,-1.3051649510233458,6.587602618573865
334,1791286439.5058246,2.7160499043367348,-1.5351097636320155,-0.5930850406568869,3.175726520766061,2.1101316792129787,-6.158586037686124,-1.3288388789062342,6.644294579057542
335,1791286439.5258245,2.926811623086735,-1.0704759745695154,-0.8325869937818869,3.225731884608657,2.168240575857034,-6.1841513115832845,-1.3472235418843372,6.6902919152423745
336,1791286439.5514534,2.8358008808992348,-0.9363548808195153,-1.0337686344068868,3.160253896196773,2.2426109192824035,-6.215855104415735,-1.3708360160181612,6.748729495037444
337,1791286439.5714533,2.7352100605867347,-1.0513158183195155,-0.9044375797193869,3.066699587666256,2.300298429486189,-6.239866224912202,-1.3894058427249778,6.7939496587254
338,1791286439.5805116,2.7687403340242347,-0.9315648417570154,-0.8996475406568869,3.0566487840542607,2.3262459108391407,-6.250457021892364,-1.3977804072897202,6.814207443806095
339,1791286439.6005116,2.917231544961735,-1.0321556620695154,-0.8325869937818869,3.204494702738132,2.3834716167066907,-6.27327880482822,-1.416095662743902,6.858592482193084
340,1791286439.6261964,3.1615235371492347,-1.1806468730070154,-0.7942666812818869,3.4669897138128913,2.4576494531734117,-6.302453870500332,-1.4392226239588402,6.916091915654617
341,1791286439.6461964,3.228584084024235,-1.1231664042570153,-0.6840957828443869,3.486150455641827,2.5163305832916767,-6.325219645833352,-1.45674717406342,6.9614966423598155
342,1791286439.6709561,3.223794044961735,-1.1758568339445155,-0.8134268375318869,3.5266344520352395,2.590062175009615,-6.353445117383732,-1.4779689776161669,7.018481262268818
343,1791286439.690956,3.166313576211735,-1.4488890605070155,-1.005028400031887,3.6242107081998287,2.6502712180794856,-6.376761756982032,-1.4952674848418401,7.065610581252998
