imu_index,t_imu,ax,ay,az,mag,vx,vy,vz,velocity
0,1790597782.4739494,0.032572265625000055,0.08583750000000001,0.011064990234374739,0.09247412018009347,0.0,0.0,0.0,0.0
1,1790597782.4939494,0.032572265625000055,0.037937109375,-0.022465283203125262,0.0548166553619691,0.000139246302751126,0.00029510444512870167,-2.9925740503542597e-06,0.00032632058142879065
2,1790597782.5190127,0.0038320312500000546,-0.00038320312500000035,-0.012885205078125262,0.013448413216485124,0.000356000929239585,0.0006800386198444991,-7.263016388657964e-05,0.0007710151274817184
3,1790597782.5390127,0.013412109375000055,0.009196875,0.006274951171874739,0.017431069957463928,0.0005288880034972081,0.0009543532614600776,-0.00012977949961599948,0.0010987972453657359
4,1790597782.5490124,0.037362304687500056,-0.0051732421875000005,-0.022465283203125262,0.04390208646167903,0.0006404431245395871,0.0010739518543547838,-0.00016620983615576844,0.0012614141631030766
5,1790597782.5690124,0.04694238281250006,0.0331470703125,-0.05120551757812526,0.0769696083195232,0.00095654826253321,0.0013192350120361197,-0.0003386489806586812,0.0016643463364451544
6,1790597782.5939107,0.05652246093750006,0.0475171875,-0.022465283203125262,0.07718394034861137,0.0014842512106513482,0.0017294185019493306,-0.0006586911276625226,0.002372290878637353
7,1790597782.6139107,0.08047265625000005,0.0235669921875,-0.0033051269531252617,0.08391767030174654,0.002050047202634655,0.002116108581847074,-0.0009158641693525929,0.0030853551237906025
8,1790597782.6385138,0.09484277343750006,0.02835703125,0.011064990234374739,0.09960776527719739,0.00296516080626802,0.002616256865989518,-0.0011704542657403503,0.004123947354665806
9,1790597782.6585138,0.09005273437500005,0.02835703125,0.01585502929687474,0.09573399680224652,0.0038748183673790026,0.003046914528082108,-0.001305987981325843,0.005099363698441507
10,1790597782.6839728,0.08047265625000005,0.0331470703125,0.006274951171874739,0.08725796059066418,0.005184683684333836,0.003630328433647451,-0.0014103812896552298,0.006484551243143675
11,1790597782.7039728,0.05652246093750006,0.0331470703125,-0.036835400390625266,0.07516890036890732,0.00626482341774381,0.004119337365319531,-0.0015259293310877576,0.007651497442220236
12,1790597782.7142923,0.037362304687500056,0.0331470703125,-0.012885205078125262,0.05158195994501132,0.006811211975092829,0.004385114937016992,-0.0016150879316520852,0.00826016649998447
13,1790597782.7342923,0.037362304687500056,-0.038703515625000004,-0.0033051269531252617,0.053896454405391855,0.00782340270166375,0.0048146141788174045,-0.0017862505779891514,0.009358249336849058
14,1790597782.7581773,0.04215234375000006,-0.0051732421875000005,-0.008095166015625262,0.043233253765697914,0.00899333226558666,0.005172005091338519,-0.0019804223802310796,0.010561805466310852
15,1790597782.7781773,0.037362304687500056,0.06667734375,-0.0033051269531252617,0.07650316232217809,0.009945293004516971,0.005518631545041081,-0.0021357231750276304,0.011572616841318424
16,1790597782.788991,0.05173242187500006,0.0331470703125,0.02064506835937474,0.06481659194155505,0.010455056569712224,0.005758895697921253,-0.0021930336317533728,0.012135999507474448
17,1790597782.808991,0.05652246093750006,0.02835703125,0.011064990234374739,0.06419769326565795,0.011418826040982086,0.006228865381632494,-0.0022355650092561285,0.013197958289346147
18,1790597782.8488202,0.04694238281250006,0.06667734375,-0.008095166015625262,0.08194502539197544,0.013359311480200477,0.007308290294894131,-0.0022986883410131497,0.015400203841136967
19,1790597782.8688202,0.04215234375000006,0.0427271484375,-0.0033051269531252617,0.060111173349008944,0.014321194435560425,0.007933118685721772,-0.0023427311621359733,0.016538421068557838
20,1790597782.8783708,0.037362304687500056,-0.019543359375000003,-0.008095166015625262,0.04293502556238349,0.01476857818774958,0.00820334270799838,-0.0023687740772778895,0.017059215219397596
21,1790597782.8983707,0.037362304687500056,-0.00038320312500000035,-0.012885205078125262,0.03952362794711467,0.01567700651023842,0.00865445070799124,-0.0024466009018402385,0.018073569269847985
22,1790597782.9239697,0.04215234375000006,0.061887304687500005,-0.0033051269531252617,0.07495186741688231,0.016818001147352005,0.009263320837641417,-0.002562357496132795,0.019370595021098422
23,1790597782.9439697,0.07089257812500006,0.018776953125,0.03022514648437474,0.07932144150146034,0.017745288911523823,0.009788660293671075,-0.0025988500397450716,0.020432013371849238
24,1790597782.9685585,0.06610253906250006,0.0139869140625,0.03501518554687474,0.07610021454886427,0.018966969878014505,0.010398075548172705,-0.0025166719713586886,0.021776123605234222
25,1790597782.9885585,0.05173242187500006,0.037937109375,0.006274951171874739,0.06445806972748339,0.019988356168307568,0.010897293156857809,-0.0023979213440945926,0.02289181965746899
26,1790597782.9986873,0.05652246093750006,0.0523072265625,0.0014849121093747388,0.07702622608608378,0.02051027046158435,0.01118074679775601,-0.0023409077375400804,0.02347680008856714
27,1790597783.0186872,0.04215234375000006,0.037937109375,-0.012885205078125262,0.058155591831346935,0.02153425896615196,0.011791859313430778,-0.002262317016238541,0.02465543213109441
28,1790597783.0589356,0.008622070312500054,0.018776953125,-0.0033051269531252617,0.020924577159608677,0.023439120227153245,0.013008401691328938,-0.0021767556142828844,0.026895150800659698
29,1790597783.0789356,-0.0009580078124999456,0.018776953125,-0.022465283203125262,0.02929472131671302,0.024255185320681126,0.013578571650284563,-0.0021792720501654875,0.02788262630512286
30,1790597783.0875716,0.0038320312500000546,0.037937109375,-0.036835400390625266,0.05301655829238037,0.02455656740483833,0.013824574964716226,-0.0022186047011255347,0.02826775694113849
31,1790597783.1075716,0.013412109375000055,-0.00996328125,0.02064506835937474,0.026558812072772043,0.02517570499756997,0.014350793822959184,-0.0023203166004134054,0.029071382399189535
32,1790597783.1189857,0.04215234375000006,0.0235669921875,0.05896538085937474,0.07621771017470265,0.02552361334086129,0.014617706854109638,-0.002301505972057663,0.02950303579948839
33,1790597783.1389856,0.07089257812500006,0.07625742187500001,0.04459526367187474,0.1132682195772274,0.02621135208288197,0.015164981172388044,-0.002118148774688172,0.03035618859809969
34,1790597783.163888,0.07568261718750006,0.07146738281250001,-0.008095166015625262,0.10440774426851025,0.02721297574841846,0.016020091325739595,-0.0018559222230038225,0.03163279662734371
35,1790597783.183888,0.061312500000000054,0.018776953125,-0.05120551757812526,0.0820597444265588,0.028102242665134128,0.016739212341859273,-0.001765860008334702,0.032757526374941295
36,1790597783.1929295,0.061312500000000054,-0.029123437500000002,-0.032045361328125264,0.07506199071911508,0.02852711182149393,0.017008530086429528,-0.0017877059080435844,0.033260819247135975
37,1790597783.2129295,0.06610253906250006,0.0235669921875,0.0014849121093747388,0.07019368743161739,0.029517076271042074,0.01750656860555833,-0.0018746213574340298,0.03436934595195817
38,1790597783.238343,0.04694238281250006,0.018776953125,0.04459526367187474,0.06741586471104394,0.030801777606745753,0.01812519585954356,-0.001880667154411534,0.03578839389561819
39,1790597783.258343,0.022992187500000056,0.061887304687500005,0.03501518554687474,0.0747311339831043,0.03176606081490621,0.018660013439727688,-0.0017652958385610618,0.03688353278449312
40,1790597783.2840316,0.018202148437500055,0.10020761718750001,0.006274951171874739,0.10204048099821338,0.03289820194447503,0.01955621043254961,-0.0015597854748507643,0.03830365502650077
41,1790597783.3040316,0.037362304687500056,0.08583750000000001,0.03501518554687474,0.09995039488012869,0.03373076589080356,0.020428354372167994,-0.001361849679026395,0.03945803928837995
42,1790597783.3140888,0.027782226562500057,0.08583750000000001,0.03022514648437474,0.09514981870199225,0.03413576817863853,0.020930629365161504,-0.0012280354278251567,0.0400605789496296
43,1790597783.3340888,0.008622070312500054,0.057097265625000004,-0.032045361328125264,0.0660404650269485,0.03487496122122888,0.021994040721757865,-0.0010045757909919813,0.04124330151639668
44,1790597783.3587174,0.037362304687500056,0.018776953125,-0.060785595703125264,0.07377943090864714,0.035733627950071595,0.023247283612695367,-0.0009421490411416417,0.04264054416466746
45,1790597783.3787174,0.022992187500000056,-0.019543359375000003,-0.008095166015625262,0.031242843892899594,0.03641685659749758,0.024111188246205742,-0.001002379854911536,0.043686858532746495
46,1790597783.403783,-0.015328124999999946,0.0331470703125,0.03501518554687474,0.050593901857827764,0.037159102186188786,0.02505707253353249,-0.0010159356288309013,0.04482954254101035
47,1790597783.423783,-0.020118164062499947,0.0044068359375,0.02543510742187474,0.032727746909740264,0.03760933717143514,0.025754919151801527,-0.0009344540466320076,0.04559222858509762
48,1790597783.433834,-0.020118164062499947,0.018776953125,0.011064990234374739,0.029660554660877803,0.037771332151901746,0.02607049372918692,-0.0008721329689097514,0.0459032111265467
49,1790597783.453834,-0.010538085937499947,0.08104746093750001,0.01585502929687474,0.08325337310671851,0.037999341328161726,0.02675398369204479,-0.0007263449548535925,0.04647852366159859
50,1790597783.4783976,0.0038320312500000546,0.0475171875,-0.008095166015625262,0.04835389626732956,0.03822501760472837,0.027704364666780553,-0.0005598535442094272,0.047212257184577784
51,1790597783.4983976,-0.020118164062499947,0.0235669921875,-0.0033051269531252617,0.031161956135448646,0.03835677484708252,0.02846873210322147,-0.0004617283109506226,0.04776948897850916
52,1790597783.5236006,-0.024908203124999948,0.0235669921875,-0.0033051269531252617,0.03444917368904831,0.03841279379920172,0.029376561325521546,-0.00036911848041278636,0.04835970772476505
53,1790597783.5436006,-0.015328124999999946,0.061887304687500005,0.03022514648437474,0.07055883628221907,0.03839022540875868,0.030117093894185532,-0.00026627107428865465,0.04879466827278869
54,1790597783.5526032,-0.020118164062499947,0.08104746093750001,0.02064506835937474,0.08602122004031629,0.03835765703075175,0.030496942149294357,-0.00019257252425767434,0.049004187754959114
55,1790597783.5726032,-0.04406835937499995,0.06667734375,-0.0033051269531252617,0.07999257672894458,0.03819987769986565,0.03143580557823583,-2.739592395768165e-05,0.049471620947508746
56,1790597783.5987697,-0.03927832031249995,0.0139869140625,-0.0033051269531252617,0.04182516079753169,0.037860848858482385,0.032638194092476376,0.00014332028719757562,0.049987159657333295
57,1790597783.6187696,-0.029698242187499946,0.0139869140625,-0.012885205078125262,0.03526539187254988,0.0375371216315815,0.03346133045268567,0.00022994684033506832,0.05028666832866693
58,1790597783.6433778,-0.020118164062499947,0.061887304687500005,-0.012885205078125262,0.06633858241351309,0.03710661090065568,0.03446223916282326,0.000272982808570206,0.05064208743981693
59,1790597783.6633778,-0.020118164062499947,0.10499765625000002,0.02064506835937474,0.1088828140286707,0.03674884768719557,0.03540402192239803,0.0003143530354192632,0.05102961289730912
60,1790597783.688183,-0.010538085937499947,0.057097265625000004,0.006274951171874739,0.058399691859524,0.036314651374168234,0.03669843540737633,0.0004080485796981926,0.05163037448460107
61,1790597783.708183,-0.024908203124999948,0.02835703125,0.011064990234374739,0.03933158798111948,0.03596391138808188,0.03771372560253202,0.0004982714480703813,0.05211502945973308
62,1790597783.7190645,-0.05364843749999995,0.061887304687500005,0.02543510742187474,0.0857621012874403,0.03573759722947886,0.038256906695649226,0.0005697839800559248,0.0523554335235608
63,1790597783.7390645,-0.04406835937499995,0.08104746093750001,0.02064506835937474,0.0945353376784734,0.03523745291272685,0.03931991722420598,0.000750627780338466,0.05280433145452812
64,1790597783.793893,-0.0009580078124999456,0.018776953125,0.02064506835937474,0.027923298429636034,0.033886851732538754,0.04220745796862976,0.001341824710243122,0.05414414762529494
65,1790597783.813893,-0.0057480468749999455,0.018776953125,0.011064990234374739,0.022539920594856856,0.033458029827832324,0.043159089887715434,0.001572694272586573,0.05463167732342697
66,1790597783.8080041,-0.015328124999999946,0.07146738281250001,0.02064506835937474,0.07595233419485738,0.033458029827832324,0.043159089887715434,0.001572694272586573,0.05463167732342697
67,1790597783.8280041,-0.020118164062499947,0.018776953125,0.01585502929687474,0.03175998186253997,0.03306816452528113,0.04409707174265461,0.0018346779117999503,0.0551490823530903
68,1790597783.8389301,-0.024908203124999948,0.0475171875,-0.060785595703125264,0.08107521406576867,0.03285023142942588,0.044586953824575365,0.0019195131518223412,0.055414968077782685
69,1790597783.85893,-0.03448828124999995,0.07146738281250001,-0.022465283203125262,0.08247252450994902,0.032422050543322554,0.04552764734871641,0.0019266337143506358,0.055925557234703695
70,1790597783.8840013,-0.06801855468749995,0.0044068359375,0.06375541992187474,0.09333111782343038,0.03177306598439493,0.04667264848833065,0.0020118601717605844,0.0564970036401463
71,1790597783.9040012,-0.07759863281249994,0.061887304687500005,0.07333549804687474,0.12340859601193031,0.03111458363006365,0.047548480212273675,0.0022752858331405636,0.05686960709018215
72,1790597783.928577,-0.08717871093749995,0.12415781250000002,0.03980522460937474,0.1568430615351285,0.030123105412443688,0.04880617333777189,0.002758964208638576,0.057419995812176605
73,1790597783.948577,-0.05364843749999995,0.12894785156250002,-0.032045361328125264,0.14329203903715673,0.029226020477315186,0.050055827190539255,0.0031051833166218933,0.05804643203590899
74,1790597783.9586256,-0.05364843749999995,0.037937109375,-0.0033051269531252617,0.06578983947463612,0.028762041046140125,0.0507152855912719,0.0032264003113469434,0.05839267810875932
75,1790597783.9786255,-0.06322851562499995,-0.014753320312500002,0.03980522460937474,0.07615747865171785,0.027801778532857105,0.051865714272599485,0.0034862218815607483,0.05895036004643599
76,1790597784.003709,-0.04406835937499995,0.0235669921875,0.03501518554687474,0.06102037887174987,0.026576235271621094,0.05310871140512237,0.0039039621350262683,0.05951531255632327
77,1790597784.023709,0.0038320312500000546,0.0331470703125,0.011064990234374739,0.03515461196898074,0.025685287785986142,0.054036204560925206,0.004256199349231877,0.059981335804560776
78,1790597784.04829,0.008622070312500054,0.02835703125,0.006274951171874739,0.030295813737158204,0.024777482455731026,0.05511853609353428,0.004656146034590472,0.0606106950449649
79,1790597784.06829,0.008622070312500054,0.061887304687500005,-0.012885205078125262,0.06379974206736655,0.024175518047978142,0.05600243392811974,0.004922830454659423,0.06119609904599194
80,1790597784.07912,0.037362304687500056,0.037937109375,0.006274951171874739,0.053614746959224885,0.023935801072771958,0.05649034941750408,0.0050402087573798455,0.06155879997713555
81,1790597784.09912,0.04215234375000006,0.07625742187500001,0.006274951171874739,0.08735782441687356,0.023678783669291135,0.0574275332430602,0.005243285020749676,0.06233857881158898
82,1790597784.1536715,0.037362304687500056,0.10020761718750001,0.02064506835937474,0.1089207381609278,0.02340822674122172,0.060322326436972926,0.005824245986360474,0.06496652974606852
83,1790597784.1736715,0.027782226562500057,0.018776953125,0.03022514648437474,0.04514405344483857,0.023421629450965015,0.06140291114643189,0.006081596828309731,0.06599906092799374
84,1790597784.168946,0.032572265625000055,0.02835703125,-0.0033051269531252617,0.04331278764331975,0.023421629450965015,0.06140291114643189,0.006081596828309731,0.06599906092799374
85,1790597784.188946,0.04215234375000006,0.08583750000000001,0.011064990234374739,0.09626697512000146,0.023620351620074573,0.062415021005300685,0.006313495587608725,0.06703294775170521
86,1790597784.1983936,0.07089257812500006,0.09062753906250001,0.02543510742187474,0.11783909860184992,0.023780243028360713,0.06294644318458258,0.006432470916461574,0.0675953500632174
87,1790597784.2183936,0.11879296875000006,0.037937109375,-0.008095166015625262,0.12496609702231136,0.02435247998244289,0.06409553205659303,0.006672565237489467,0.06888979342225944
88,1790597784.2436225,0.12837304687500006,0.037937109375,-0.008095166015625262,0.13410591017744972,0.025433732006065933,0.06547118972239901,0.0068993672706251395,0.0705758646858664
89,1790597784.2636225,0.12358300781250006,0.061887304687500005,0.02543510742187474,0.14053377882569806,0.02654024329637966,0.0665478824473685,0.007078202651218724,0.07199379226871941
90,1790597784.2876308,0.17148339843750007,0.08583750000000001,0.011064990234374739,0.19208609099778987,0.028200577628519023,0.06791248501168268,0.007326400626740484,0.07389894684762195
91,1790597784.3076308,0.18585351562500008,0.08583750000000001,0.02543510742187474,0.20629239047038175,0.029912246204877136,0.06913625670624292,0.007556896863619895,0.07570780114743852
92,1790597784.3185692,0.15711328125000007,0.09541757812500001,0.01585502929687474,0.1845006214471563,0.030989334565559558,0.0698538651157107,0.0076979241969998575,0.07680598521835942
93,1790597784.3385692,0.08047265625000005,0.08104746093750001,-0.012885205078125262,0.11493723434227747,0.033019675927349265,0.07123383747540399,0.007921557334335283,0.07891330477442064
94,1790597784.363094,0.037362304687500056,0.08583750000000001,-0.07515571289062527,0.12005165304113762,0.03535266387646251,0.0729791601271704,0.007992712696208618,0.08148406047978617
95,1790597784.383094,-0.020118164062499947,-0.00996328125,-0.18053657226562528,0.18192707721483795,0.03699569112854082,0.07430277949890894,0.007658497512611689,0.08335608428598693
96,1790597784.408671,-0.058438476562499946,-0.11055410156249999,-0.16616645507812527,0.2079628709853469,0.038630996308116804,0.07551039139626306,0.006630132830730736,0.08507721049686401
97,1790597784.428671,-0.05364843749999995,-0.10576406249999999,-0.13742622070312527,0.18152178353971568,0.03954979366571412,0.07598856993915136,0.005491227842907865,0.08584056455790924
98,1790597784.468461,-0.05364843749999995,-0.06265371093750001,-0.11347602539062526,0.14028702961744197,0.040783354448632805,0.07629460692999816,0.0028164869072862045,0.08655681166254137
99,1790597784.488461,-0.03448828124999995,-0.043493554687500005,-0.10868598632812526,0.12204005271652042,0.041178177202293456,0.07626613772429455,0.0013404852951225893,0.08668311797524927
100,1790597784.4834867,-0.015328124999999946,-0.0530736328125,-0.027255322265625263,0.0616004424313234,0.041178177202293456,0.07626613772429455,0.0013404852951225893,0.08668311797524927
101,1790597784.5034866,0.037362304687500056,0.0523072265625,0.11165581054687475,0.1288371366924222,0.041432972022429126,0.07612129606825195,0.00022734973885911447,0.08666714817983585
102,1790597784.5297613,0.11879296875000006,0.11936777343750002,0.20266655273437476,0.26350363632614243,0.042025214781861886,0.07629785795107653,-0.00039625693190644697,0.08710705381850749
103,1790597784.5497613,0.10921289062500006,0.11457773437500002,0.18350639648437475,0.24234295996347166,0.0427504102860656,0.07676301319789718,-0.00022047786891541053,0.0878647050034208
104,1790597784.5723069,0.12837304687500006,0.06667734375,0.04938530273437474,0.1528542294465301,0.043847022229263045,0.07751520683777076,0.0003417523164474263,0.08905776464812974
105,1790597784.5923069,0.13316308593750006,0.018776953125,-0.008095166015625262,0.1347238402728968,0.04506620158756204,0.07821056283088285,0.0008276244687933547,0.09026926180110037
106,1790597784.6333709,0.17627343750000007,0.0139869140625,-0.012885205078125262,0.17729632552019667,0.04814694421972077,0.07952502010000609,0.0016109641855713442,0.09297823543824904
107,1790597784.6533709,0.19543359375000005,-0.0722337890625,-0.11347602539062526,0.2372526463220582,0.049979892512363816,0.07998181846667773,0.0017457152030655723,0.09432989166936559
108,1790597784.6488984,0.17148339843750007,-0.08660390625,0.01585502929687474,0.19276455709346038,0.049979892512363816,0.07998181846667773,0.0017457152030655723,0.09432989166936559
109,1790597784.6688983,0.14274316406250007,0.018776953125,0.26493706054687477,0.3015291543225143,0.05224335576693565,0.08000759708555057,0.0021397938949756995,0.09557804418959087
110,1790597784.7090049,0.14753320312500007,0.11936777343750002,0.38468803710937477,0.42895174233800776,0.05697464378762673,0.08046707547119694,0.004765578472640031,0.09871054152314812
111,1790597784.7290049,0.15232324218750007,0.24869882812500002,0.39426811523437477,0.49040883343566144,0.05942988224328249,0.08121393425754503,0.007047004651364993,0.1008824776440172
112,1790597784.7532341,0.13795312500000007,0.3540796875,0.28888725585937475,0.4773461389760298,0.06248564277986332,0.08307837597469032,0.010637721131682081,0.10449704885344908
113,1790597784.7732341,0.07089257812500006,0.4355103515625,0.4517485839843748,0.6314838137935044,0.06494292283521287,0.08557090725138548,0.014268026513560596,0.10836761497235832
114,1790597784.7680984,0.022992187500000056,0.54568125,0.45653862304687476,0.7118456164233464,0.06494292283521287,0.08557090725138548,0.014268026513560596,0.10836761497235832
115,1790597784.7880983,0.07568261718750006,0.7181226562499999,0.40863823242187475,0.8297067029744785,0.06698602270309285,0.09051848324921397,0.01934675128207239,0.11425856568541314
116,1790597784.813051,0.10921289062500006,0.861823828125,0.37031791992187474,0.9443532855970598,0.0694987293699742,0.09872212026876927,0.026190457723142643,0.12353975267155905
117,1790597784.833051,0.13795312500000007,0.9576246093749999,0.35594780273437476,1.0309096931590644,0.07158135924202123,0.10704034382717477,0.03194240206052376,0.13267193843074446
118,1790597784.843678,0.15232324218750007,1.1061158203124999,0.35594780273437476,1.1719186901519814,0.07275333569049959,0.11244212092393195,0.035107663743634075,0.13845153110566433
119,1790597784.863678,0.13795312500000007,1.130066015625,0.37031791992187474,1.1971698401576496,0.07506355192379809,0.12443757353838025,0.0412605071037989,0.15106844800288102
120,1790597784.8880522,0.23375390625000006,1.168386328125,0.49006889648437474,1.28838465674579,0.07813622577617134,0.14106546880830115,0.049207123371454754,0.16860034774324809
121,1790597784.9080522,0.4540957031250001,1.3072974609375,0.4613286621093748,1.4587850059052048,0.08131105644768749,0.1563762294078529,0.05617663982082308,0.18498872367259292
122,1790597784.9335334,0.5738466796875001,1.3360376953125002,0.2936772949218748,1.483422761264278,0.08671374128687924,0.1780087205323386,0.06516718465072244,0.20845416635037403
123,1790597784.9535334,0.6025869140625001,1.2306568359375,0.3128374511718748,1.4055228591861397,0.09208283044294797,0.19629103230079942,0.07207506321408223,0.22848245394649486
124,1790597784.963581,0.7462880859375001,1.10132578125,0.26014702148437474,1.3555592412157322,0.09539205335294172,0.20585539011614046,0.07545669792970917,0.2391020676305712
125,1790597784.983581,0.8708291015625002,0.8953541015625,0.17871635742187475,1.2617217711219404,0.1034167077210027,0.22503265233817402,0.08183648913822189,0.260829294767047
126,1790597785.0228174,0.9953701171875001,0.7564429687499999,0.12602592773437474,1.2565230477880145,0.12228988456221485,0.26187237453090045,0.09337184793983022,0.3037272763457224
127,1790597785.0428174,1.0241103515625,0.5840015625,0.18829643554687475,1.1938657314872418,0.13349631689210367,0.2798446506218444,0.09884127622628827,0.32542878328669783
128,1790597785.0688045,0.9283095703125,0.48820078125000005,0.10686577148437475,1.0542859926328525,0.1496786524423633,0.30178397931044326,0.10545729465669018,0.3529851415594087
129,1790597785.0888045,1.0528505859375001,0.4546705078125,-0.33860786132812526,1.1957737707177813,0.16323637022738605,0.31755031105550896,0.10943767524546708,0.37344466441441504
130,1790597785.0984232,1.0959609375000001,0.43072031250000004,-0.46793891601562526,1.2671295092640906,0.1703289009894924,0.32463427756384594,0.11048299705211792,0.38289142236319007
131,1790597785.1184232,0.9474697265625001,0.33491953125,-0.3242377441406253,1.0559356466615473,0.18592922724168226,0.3383027831393453,0.11114221201008763,0.40171014663935395
132,1790597785.1289346,0.9043593750000001,0.12415781250000002,-0.5110492675781253,1.0461607885250308,0.19435833521665086,0.34477089684943196,0.11077820372179334,0.410991416214958
133,1790597785.1489346,1.0720107421875,-0.057863671875,-0.6978607910156253,1.2804549658325382,0.210955203135208,0.3553311562989064,0.10837613324610863,0.42720921645478693
134,1790597785.1887426,1.0528505859375001,-0.2829955078125,-0.5972699707031253,1.2431058811117839,0.24537849109069895,0.3721797882876365,0.10044546110242816,0.4569657419937052
135,1790597785.2087426,0.8181386718750001,-0.460226953125,-0.5589496582031253,1.0925129084846095,0.26288540498177027,0.37826014807202474,0.09532434724797513,0.47040004990449563
136,1790597785.2187958,0.7271279296875001,-0.8961205078125001,-0.8463520019531253,1.431104015040076,0.2715305129322584,0.37983537211804974,0.09207672316641512,0.475901095096846
137,1790597785.2387958,0.7798183593750001,-1.2074730468750001,-1.0714838378906253,1.7928149506875317,0.288409888534496,0.3793437033759884,0.08370820948234926,0.48382742112268823
138,1790597785.2483876,0.6696474609375,-1.6433666015625,-0.8655121582031253,1.9743841584323334,0.29633353659952466,0.3770924182132245,0.0789033142635702,0.48604319745188795
139,1790597785.2683876,0.7079677734375001,-1.9211888671875,-0.7601312988281252,2.1840294464794594,0.312443373511452,0.36775554235777486,0.06794893272702858,0.4873213088351669
140,1790597785.2931266,0.9474697265625001,-2.069680078125,-0.8703021972656253,2.4369448953772634,0.3324529549983955,0.35053389487001685,0.05340623988268653,0.48605679215325887
141,1790597785.3131266,1.0576406250000001,-1.9259789062500001,-0.9852631347656253,2.4080576994122302,0.3492106556258694,0.33270616625109084,0.04062955315387705,0.4840374320789992
142,1790597785.3383424,1.07680078125,-1.9595091796875,-0.6499604003906253,2.3284382469492573,0.37120610247620334,0.30625243524199725,0.02384457612021394,0.48182267320828726
143,1790597785.3583424,1.0815908203125002,-2.1894310546875,-0.30986762695312525,2.4615980565575377,0.38927253569192033,0.282194504313297,0.011088771271679381,0.480925988232036
144,1790597785.4282005,1.19176171875,-2.0074095703125,-0.3338178222656253,2.3582670577613416,0.4548221539762866,0.18877846516022695,-0.03015534014659289,0.49336583302376813
145,1790597785.4482005,1.3785732421875,-1.8445482421875,-0.49667915039062527,2.355740346529113,0.47462917246221104,0.16026771216197025,-0.04143785158568243,0.5026685652175124
146,1790597785.4437265,1.2923525390625001,-1.7679076171875001,-0.6212201660156252,2.2763099355745378,0.47462917246221104,0.16026771216197025,-0.04143785158568243,0.5026685652175124
147,1790597785.4637265,1.0480605468750002,-1.5667259765625,-0.4056684082031253,1.9281151555251312,0.4958557867226322,0.1300608706721439,-0.052555117761902206,0.5153162443677514
148,1790597785.473344,1.0097402343750002,-1.7200072265625,-0.26675727539062527,2.0122523808699375,0.5060164291847773,0.11534313686211103,-0.057584299281026825,0.5221806367051456
149,1790597785.493344,1.143861328125,-1.6721068359375,-0.3050775878906253,2.0487636133536657,0.5272067507448721,0.08423994680688834,-0.06733161749920742,0.5381234741061317
150,1790597785.4878757,1.1726015625000001,-1.6816869140625,-0.4391986816406253,2.0966546647603557,0.5272067507448721,0.08423994680688834,-0.06733161749920742,0.5381234741061317
151,1790597785.5078757,1.0720107421875,-1.5763060546875,-0.3817182128906253,1.9441338954563492,0.5488371606870074,0.052604824246205655,-0.0765543804179697,0.5566417785669068
152,1790597785.6231093,1.0863808593750002,-1.667316796875,-0.49667915039062527,2.0510628589077,0.6734246441933344,-0.13035922874649444,-0.12931383498297905,0.698008845104634
153,1790597785.6431093,0.9618398437500001,-1.77269765625,-0.4296186035156253,2.062077838003693,0.6948768901687402,-0.16251123674700346,-0.1384866820676743,0.7269404072341372
154,1790597785.7139363,0.8947792968750001,-1.7104271484375,-0.4152484863281253,1.9744929287353643,0.7693137912999454,-0.27779607346113305,-0.17058628952858843,0.8355321957230916
155,1790597785.7339363,1.03848046875,-1.7008470703125,-0.4391986816406253,2.040641546798628,0.7900801130468325,-0.310583785580483,-0.17957254558918492,0.8677183713780521
156,1790597785.714449,1.2731923828125,-1.7152171875,-0.48709907226562527,2.1909482764659725,0.7900801130468325,-0.310583785580483,-0.17957254558918492,0.8677183713780521
157,1790597785.734449,1.34504296875,-1.6050462890625,-0.48709907226562527,2.150018531087383,0.8119585098657852,-0.34360877582688176,-0.188707439926074,0.9016396788363784
158,1790597785.7154639,1.3498330078125,-1.4900853515625,-0.30028754882812525,2.032873856367503,0.8119585098657852,-0.34360877582688176,-0.188707439926074,0.9016396788363784
159,1790597785.7354639,1.4791640625000002,-1.379914453125,-0.23322700195312526,2.0362919869642506,0.8354451067193585,-0.3757206159596872,-0.1971115891319333,0.9370098644990686
160,1790597785.7154639,1.3689931640625002,-1.217053125,-0.17095649414062528,1.8397246302669796,0.8354451067193585,-0.3757206159596872,-0.1971115891319333,0.9370098644990686
161,1790597785.7354639,1.1869716796875,-0.9392308593750001,-0.08952583007812527,1.5162688580306738,0.8598795135560469,-0.4054669738519789,-0.2040896435129306,0.9723419292138441
162,1790597785.7284968,1.1630214843750002,-0.9536009765625001,-0.14700629882812527,1.5111534162731217,0.8598795135560469,-0.4054669738519789,-0.2040896435129306,0.9723419292138441
163,1790597785.7484968,1.1007509765625,-1.0254515625,-0.19969672851562528,1.5175909866682895,0.8839252663753493,-0.4323406516959563,-0.20995292002500196,1.006142407551059
164,1790597785.8933103,0.9666298828125001,-0.8530101562500001,-0.16137641601562527,1.299246706618033,1.0543706602200473,-0.6181388861011032,-0.24996055247275303,1.2475068935423386
165,1790597785.9133103,0.8756191406250001,-0.6326683593750001,-0.07515571289062527,1.0828788083452443,1.0771429956136942,-0.6421786703988537,-0.25501193542795797,1.2797115162901345
166,1790597786.0137854,0.9522597656250001,-0.5895580078125,-0.12305610351562526,1.1267298302683177,1.188159520782764,-0.7540434753971064,-0.2780759749962723,1.4344444421049571
167,1790597786.0337853,0.9953701171875001,-0.6470384765625001,-0.20927680664062528,1.2054946047742712,1.209864518525673,-0.7748254496418446,-0.28247681789614154,1.4642130252284928
168,1790597786.0137854,0.8708291015625002,-0.6422484375,-0.17574653320312528,1.0962268120841872,1.209864518525673,-0.7748254496418446,-0.28247681789614154,1.4642130252284928
169,1790597786.0337853,0.8372988281250001,-0.6757787109375001,-0.14700629882812527,1.0859820650595442,1.230487970580689,-0.7934613041186123,-0.28663145996777983,1.4919246230023326
170,1790597786.0147865,0.9522597656250001,-0.6470384765625001,-0.2619672363281253,1.1807134640927481,1.230487970580689,-0.7934613041186123,-0.28663145996777983,1.4919246230023326
171,1790597786.0347865,1.0097402343750002,-0.6470384765625001,-0.32902778320312526,1.2435808832510913,1.2506130969148195,-0.8105534128621755,-0.29104112130844934,1.5184646481133093
172,1790597786.0158641,1.028900390625,-0.7045189453125001,-0.22364692382812526,1.2668863029768294,1.2506130969148195,-0.8105534128621755,-0.29104112130844934,1.5184646481133093
173,1790597786.035864,1.0720107421875,-0.7572093750000001,-0.17095649414062528,1.3235555114320439,1.2709041287030909,-0.8268182858883346,-0.2955236657689999,1.5447200455951342
174,1790597786.1482878,1.19176171875,-0.7524193359375001,-0.18053657226562528,1.420923750697413,1.3869425008906526,-0.9172608611497841,-0.31990501842605124,1.6933151534750503
175,1790597786.1682878,1.2492421875000002,-0.6566185546875001,-0.13263618164062527,1.4175141361093695,1.4081505808602655,-0.9330505615023119,-0.3240615687139365,1.7200253803401333
176,1790597786.1628144,1.2013417968750002,-0.7045189453125001,-0.06557563476562527,1.3942271052802002,1.4081505808602655,-0.9330505615023119,-0.3240615687139365,1.7200253803401333
177,1790597786.1828144,1.1199111328125002,-0.7572093750000001,-0.10389594726562526,1.3558618479931832,1.430079786312591,-0.9483866590539085,-0.32757160325245477,1.7469598179548045
178,1790597786.1638153,1.1103310546875,-0.7380492187500001,-0.17574653320312528,1.3447819690321026,1.430079786312591,-0.9483866590539085,-0.32757160325245477,1.7469598179548045
179,1790597786.1838152,1.067220703125,-0.7572093750000001,-0.16137641601562527,1.3184719998591392,1.4520335178508355,-0.9636163281754718,-0.3309698309706747,1.7738373076191087
180,1790597786.1648164,1.0193203125,-0.7428392578125,-0.20927680664062528,1.2785229150156916,1.4520335178508355,-0.9636163281754718,-0.3309698309706747,1.7738373076191087
181,1790597786.1848164,0.9810000000000001,-0.6518285156250001,-0.2907074707031253,1.2131579646956532,1.47355590375231,-0.978624323963744,-0.3346476086060676,1.8002948622052284
182,1790597786.1658165,0.9810000000000001,-0.6805687500000001,-0.3242377441406253,1.2372004438254798,1.47355590375231,-0.978624323963744,-0.3346476086060676,1.8002948622052284
183,1790597786.1858165,0.9714199218750001,-0.6853587890625001,-0.30986762695312525,1.2285728633639963,1.494536002270315,-0.9932152951689531,-0.3390400144983771,1.82621538052628
184,1790597786.2231798,0.9953701171875001,-0.6422484375,-0.2523871582031253,1.2111746378152486,1.533362599823747,-1.0201051851295118,-0.34759047421852624,1.8742023874261329
185,1790597786.2431798,0.9810000000000001,-0.6566185546875001,-0.13263618164062527,1.1878978420049877,1.553992928259883,-1.0342881580550958,-0.35205839610211426,1.8996292083563893
186,1790597786.2837863,0.9810000000000001,-0.6949388671875001,-0.12305610351562526,1.2084882431121513,1.5955715382212579,-1.0628809695585495,-0.3605477443194306,1.9507842435711087
187,1790597786.3037863,1.028900390625,-0.6566185546875001,-0.09910590820312527,1.224583978838914,1.6159933458414542,-1.076878735766163,-0.36443506793276487,1.9758327925430195
188,1790597786.2837863,1.0576406250000001,-0.7045189453125001,-0.13742622070312527,1.278216179717411,1.6159933458414542,-1.076878735766163,-0.36443506793276487,1.9758327925430195
189,1790597786.3037863,0.9857900390625001,-0.7380492187500001,-0.19011665039062528,1.2460509584957118,1.6364735821778127,-1.090891420691093,-0.3680365512582335,2.0008849991854523
190,1790597786.2985322,1.0336904296875,-0.7955296875000001,-0.26675727539062527,1.3313687814032618,1.6364735821778127,-1.090891420691093,-0.3680365512582335,2.0008849991854523
191,1790597786.3185322,1.1103310546875,-0.7380492187500001,-0.24759711914062527,1.3560442594943862,1.6570614172324467,-1.1052712629556645,-0.37199266751673377,2.026291106895115
192,1790597786.3881297,1.1247011718750002,-0.6182982421875001,-0.12305610351562526,1.2893363591094449,1.7296245350396016,-1.1548852161646377,-0.3856291871631724,2.115199934927838
193,1790597786.4081297,1.0624306640625,-0.6518285156250001,-0.10868598632812526,1.2511802321593373,1.7506296038629776,-1.1689091818840438,-0.38930767637139135,2.1407038917832524
194,1790597786.3891265,0.9666298828125001,-0.6470384765625001,-0.20448676757812528,1.1810363917394666,1.7506296038629776,-1.1689091818840438,-0.38930767637139135,2.1407038917832524
195,1790597786.4091265,0.9618398437500001,-0.6757787109375001,-0.2811273925781253,1.2086543600381168,1.7712855176490727,-1.182681774840961,-0.3930931002503201,2.165804873722173
196,1790597786.4937615,0.9953701171875001,-0.6470384765625001,-0.18532661132812528,1.2015683139998927,1.8580083068527244,-1.2406184274576868,-0.4096701144875854,2.271378117704224
197,1790597786.5137615,0.9857900390625001,-0.5991380859375001,-0.11347602539062526,1.1591485044954983,1.8783993822838365,-1.2541249792357427,-0.4134480150555518,2.2961169317046393
198,1790597786.4937615,0.9857900390625001,-0.594348046875,-0.22843696289062526,1.1735480594989134,1.8783993822838365,-1.2541249792357427,-0.4134480150555518,2.2961169317046393
199,1790597786.5137615,0.9905800781250002,-0.6901488281250001,-0.30028754882812525,1.2440767291938413,1.898610248833673,-1.2673318997385352,-0.4174065728714539,2.3205773566393857
200,1790597786.4947624,1.0049501953125002,-0.7188890625000001,-0.22364692382812526,1.255684803515016,1.898610248833673,-1.2673318997385352,-0.4174065728714539,2.3205773566393857
201,1790597786.5147624,1.0193203125,-0.6949388671875001,-0.17574653320312528,1.246130319242679,1.9187933014541043,-1.2807911612710858,-0.42153373632321967,2.345183238758518
202,1790597786.6134143,1.0480605468750002,-0.7284691406250001,-0.24280708007812526,1.2992511215676958,2.0187112974714125,-1.3477535716272642,-0.4419345650531882,2.467172704161894
203,1790597786.6334143,1.0624306640625,-0.6805687500000001,-0.24759711914062527,1.2857826693588557,2.0390951948689016,-1.3614062863840142,-0.44618570159238796,2.4920710203862266
204,1790597786.6285133,1.105541015625,-0.6757787109375001,-0.21406684570312529,1.3132868756729397,2.0390951948689016,-1.3614062863840142,-0.44618570159238796,2.4920710203862266
205,1790597786.6485133,1.07680078125,-0.6997289062500001,-0.18053657226562528,1.2968091296207986,2.0598602315675243,-1.3750629736173332,-0.45043767329825074,2.517283546311996
206,1790597786.6295147,1.0528505859375001,-0.66140859375,-0.13742622070312527,1.2509363094626498,2.0598602315675243,-1.3750629736173332,-0.45043767329825074,2.517283546311996
207,1790597786.6495147,1.0480605468750002,-0.6709886718750001,-0.10868598632812526,1.249187476452041,2.0807296371797674,-1.3886639727932797,-0.45428429298863027,2.5424786471529
208,1790597786.6734545,1.0959609375000001,-0.6566185546875001,-0.11347602539062526,1.2826360010635265,2.105812665430338,-1.4048859383436794,-0.4585969044255564,2.5726372854313
209,1790597786.6934545,1.0959609375000001,-0.6278783203125001,-0.16137641601562527,1.2733435943571452,2.1269123154477025,-1.4183321013228967,-0.4620716217155923,2.597870691709079
210,1790597786.7041152,1.0528505859375001,-0.6518285156250001,-0.20927680664062528,1.2558549087727156,2.138190181700559,-1.4254474496178797,-0.463942294904909,2.611321530900479
211,1790597786.7241151,1.0528505859375001,-0.6949388671875001,-0.24280708007812526,1.2846749252526293,2.1593329596632556,-1.438814076177797,-0.4676034857385235,2.6365807016608196
212,1790597786.853371,1.0528505859375001,-0.6805687500000001,-0.23322700195312526,1.275171758715485,2.2958912310685213,-1.525576397870878,-0.49233054333212006,2.800158790950205
213,1790597786.873371,1.0624306640625,-0.6949388671875001,-0.14700629882812527,1.2780100926687843,2.317024573429381,-1.5390508155579068,-0.4961530459924138,2.8254996251623554
214,1790597786.8984509,1.0049501953125002,-0.6422484375,-0.12784614257812527,1.1994801318495985,2.343439331690978,-1.555928437232348,-0.5007444466067733,2.857160514201482
215,1790597786.9184508,0.9714199218750001,-0.6853587890625001,-0.20448676757812528,1.2063118056602937,2.364308631977163,-1.5693600251394566,-0.5043551401972541,2.882224887685003
216,1790597786.8994522,0.9666298828125001,-0.7236791015625001,-0.2619672363281253,1.235601717906628,2.364308631977163,-1.5693600251394566,-0.5043551401972541,2.882224887685003
217,1790597786.9194522,1.0097402343750002,-0.6901488281250001,-0.20448676757812528,1.2400385413335109,2.3848222649269273,-1.5829816088716255,-0.508258274942771,2.907152297930881
218,1790597786.928578,1.0480605468750002,-0.6422484375,-0.18532661132812528,1.2430848395236271,2.3941867513006816,-1.5891765753946065,-0.5100388778047988,2.918518810074559
219,1790597786.948578,1.0432705078125002,-0.6326683593750001,-0.19969672851562528,1.2363500268149994,2.4147685381911868,-1.6026293479061917,-0.513933438701538,2.943408822984638
220,1790597786.929579,1.0624306640625,-0.66140859375,-0.20927680664062528,1.2688644630630708,2.4147685381911868,-1.6026293479061917,-0.513933438701538,2.943408822984638
221,1790597786.949579,1.0911708984375001,-0.6805687500000001,-0.24759711914062527,1.3096305152523748,2.43555404491632,-1.6160118866834443,-0.5179540099445795,2.9684498109329898
222,1790597786.9587584,1.105541015625,-0.6805687500000001,-0.2907074707031253,1.3303779892302516,2.445175276854657,-1.622169798778533,-0.5198931234949541,2.9800345384689377
223,1790597786.9787583,1.0863808593750002,-0.6901488281250001,-0.23801704101562526,1.3088853610582207,2.4662814901598678,-1.6356302061089039,-0.5242774099267907,3.005444619752721
224,1790597787.1385422,1.0432705078125002,-0.6709886718750001,-0.15179633789062527,1.2496724684704121,2.6351312694515183,-1.7433489884178832,-0.5587217494253953,3.2086371711273
225,1790597787.1585422,1.0145302734375001,-0.7045189453125001,-0.14221625976562527,1.243319783710985,2.6561825096963476,-1.7568728408296235,-0.5628274264324111,3.233988623295708
226,1790597787.1525595,1.0480605468750002,-0.6757787109375001,-0.21885688476562526,1.2660987765895628,2.6561825096963476,-1.7568728408296235,-0.5628274264324111,3.233988623295708
227,1790597787.1725595,1.0480605468750002,-0.6661986328125001,-0.24759711914062527,1.2663158617358885,2.677166010203259,-1.7704166661263838,-0.5669538262288076,3.259298952069475
228,1790597787.1540103,1.0001601562500002,-0.6470384765625001,-0.19969672851562528,1.2078319053917184,2.677166010203259,-1.7704166661263838,-0.5669538262288076,3.259298952069475
229,1790597787.1740103,0.9714199218750001,-0.6757787109375001,-0.19011665039062528,1.1985315479901777,2.6978954355223035,-1.7838606795098804,-0.5710901687043125,3.2843481371048733
230,1790597787.155008,0.9953701171875001,-0.6709886718750001,-0.20448676757812528,1.2177037020921735,2.6978954355223035,-1.7838606795098804,-0.5710901687043125,3.2843481371048733
231,1790597787.175008,1.0145302734375001,-0.6374583984375001,-0.23322700195312526,1.2206636391323018,2.7183949479343816,-1.7972537746886816,-0.5752383650491052,3.309182890112339
232,1790597787.1560092,0.9857900390625001,-0.6278783203125001,-0.19011665039062528,1.1841273271861616,2.7183949479343816,-1.7972537746886816,-0.5752383650491052,3.309182890112339
233,1790597787.1760092,0.9618398437500001,-0.62308828125,-0.09431586914062527,1.1499001584606618,2.7386776936563986,-1.8104200368460266,-0.5792018479226109,3.333684298217464
234,1790597787.2435038,0.9762099609375001,-0.6470384765625001,-0.11826606445312526,1.177128514643642,2.806669844309312,-1.8546172882584977,-0.5916473062642219,3.41570599376941
235,1790597787.2635038,1.0049501953125002,-0.6518285156250001,-0.23801704101562526,1.221252398423175,2.826766876638206,-1.8676976213692362,-0.5953163884957121,3.4399574099309427
236,1790597787.2585359,0.9762099609375001,-0.6709886718750001,-0.2619672363281253,1.2131935206419329,2.826766876638206,-1.8676976213692362,-0.5953163884957121,3.4399574099309427
237,1790597787.2785358,0.9474697265625001,-0.6422484375,-0.21885688476562526,1.1653670126758024,2.8466984760654936,-1.8808046061328096,-0.599326015247445,3.4641463382248125
238,1790597787.33372,0.9522597656250001,-0.6757787109375001,-0.18532661132812528,1.1822950055933146,2.901307224424616,-1.9169998422944263,-0.6104027419537655,3.530589683500477
239,1790597787.35372,0.9857900390625001,-0.6470384765625001,-0.16137641601562527,1.1901609718492765,2.9210370297380517,-1.9301343456866757,-0.6143350847930042,3.5546143979210827
240,1790597787.4238477,1.0097402343750002,-0.6422484375,-0.17095649414062528,1.208836018356388,2.9903360066360025,-1.9760619360559508,-0.6278030933380156,3.638827686455863
241,1790597787.4438477,1.0049501953125002,-0.6087181640625,-0.19011665039062528,1.1902130225610894,3.0101571224096517,-1.9890719021174137,-0.6316095442959974,3.662838182316049
242,1790597787.4238477,1.0049501953125002,-0.6422484375,-0.21885688476562526,1.2125618691593176,3.0101571224096517,-1.9890719021174137,-0.6316095442959974,3.662838182316049
243,1790597787.4438477,0.9953701171875001,-0.6566185546875001,-0.20448676757812528,1.2098447977589148,3.030040976717521,-2.002014882122956,-0.6355161607460958,3.6868811615508466
244,1790597787.4248486,1.0241103515625,-0.6326683593750001,-0.21406684570312529,1.2226593473085654,3.030040976717521,-2.002014882122956,-0.6355161607460958,3.6868811615508466
245,1790597787.4448485,0.9953701171875001,-0.62308828125,-0.19969672851562528,1.1911672677675373,3.0500111144112916,-2.0148936575892646,-0.6394929912487263,3.710972316695733
246,1790597787.4258497,0.9522597656250001,-0.6182982421875001,-0.13263618164062527,1.1431026787653582,3.0500111144112916,-2.0148936575892646,-0.6394929912487263,3.710972316695733
247,1790597787.4458497,0.9378896484375001,-0.6374583984375001,-0.11347602539062526,1.1396784681317682,3.069757986044649,-2.0276649723361735,-0.6431591433017114,3.73476813424027
248,1790597787.4838533,0.9426796875000001,-0.6326683593750001,-0.15658637695312527,1.1460512814122492,3.1070124472338825,-2.0519128765445873,-0.649850310828549,3.779706103214868
249,1790597787.5038533,0.9283095703125,-0.5703978515625,-0.18532661132812528,1.1051960551265374,3.1264837668159013,-2.064564159116455,-0.6533563039147523,3.8031829263311447
250,1790597787.5738006,0.9474697265625001,-0.603928125,-0.19011665039062528,1.1395492107294822,3.194207758734326,-2.1083339589454493,-0.6657483737774588,3.8847466050681465
251,1790597787.5938005,0.9714199218750001,-0.6278783203125001,-0.19969672851562528,1.1737830434598726,3.2135457351826875,-2.1208194827016924,-0.6693448629951444,3.908039664068918
252,1790597787.5738006,0.9810000000000001,-0.62308828125,-0.21406684570312529,1.1817041172223972,3.2135457351826875,-2.1208194827016924,-0.6693448629951444,3.908039664068918
253,1790597787.5938005,0.9762099609375001,-0.5991380859375001,-0.20448676757812528,1.1635150071954365,3.232942568334599,-2.133268592313849,-0.6730987043301178,3.931388355641491
254,1790597787.5888267,0.9666298828125001,-0.575187890625,-0.17095649414062528,1.1377348385087793,3.232942568334599,-2.133268592313849,-0.6730987043301178,3.931388355641491
255,1790597787.6088266,0.9714199218750001,-0.594348046875,-0.11826606445312526,1.144942412281504,3.2523409706598985,-2.145514640434061,-0.6767233778209674,3.954606098189716
256,1790597787.6487489,0.9283095703125,-0.575187890625,-0.10868598632812526,1.0974572481329434,3.2909422848979397,-2.169794256809254,-0.6835528819220874,4.000694037513452
257,1790597787.6687489,0.9187294921875001,-0.58476796875,-0.13263618164062527,1.0970915247923976,3.3101503393221,-2.1818731156040725,-0.6868230550147524,4.0236042884967995
258,1790597787.6635513,0.9187294921875001,-0.6422484375,-0.21406684570312529,1.1412149445724844,3.3101503393221,-2.1818731156040725,-0.6868230550147524,4.0236042884967995
259,1790597787.6835513,0.9426796875000001,-0.5991380859375001,-0.2954975097656253,1.1553918026036167,3.329163027721168,-2.1940266135186643,-0.6903921468167633,4.0464454231288
260,1790597787.7385223,0.9139394531250001,-0.594348046875,-0.24759711914062527,1.117962100524561,3.3812362926461574,-2.2273409849435915,-0.7009695881559027,4.109156250793643
261,1790597787.7585223,0.9043593750000001,-0.62308828125,-0.15658637695312527,1.1093350164980713,3.400067592802343,-2.2394697333056497,-0.7048469766402949,4.131887411643227
262,1790597787.75304,0.8899892578125,-0.5512376953125,-0.060785595703125264,1.0486366217141498,3.400067592802343,-2.2394697333056497,-0.7048469766402949,4.131887411643227
263,1790597787.77304,0.9570498046875001,-0.5224974609375,-0.08473579101562527,1.0936764053492058,3.418731555441752,-2.2513406193878347,-0.7081438206930031,4.154242133466038
264,1790597787.843221,0.9570498046875001,-0.5033373046875,-0.13263618164062527,1.0894425765604465,3.4844753764807814,-2.292147352019373,-0.7191214390360683,4.232333136315195
265,1790597787.863221,0.9426796875000001,-0.5703978515625,-0.17095649414062528,1.114999921605857,3.5032501556829834,-2.30364260649096,-0.7222359464443555,4.254545295806555
266,1790597787.8442228,0.9426796875000001,-0.594348046875,-0.19490668945312528,1.1313192350715169,3.5032501556829834,-2.30364260649096,-0.7222359464443555,4.254545295806555
267,1790597787.8642228,0.9378896484375001,-0.5656078125,-0.20448676757812528,1.11416517102349,3.5220396158809555,-2.315172909580667,-0.7255517427752692,4.276822884868546
268,1790597787.8740702,0.9714199218750001,-0.575187890625,-0.19969672851562528,1.1464626280507846,3.5313134174728398,-2.3208410550664813,-0.7272379651247097,4.28781444482204
269,1790597787.8940701,0.9618398437500001,-0.58476796875,-0.19490668945312528,1.142400140009884,3.5502230567293145,-2.332366144312878,-0.7307408660023221,4.310220156432289
270,1790597787.9634101,0.9283095703125,-0.58476796875,-0.19011665039062528,1.1134884715907618,3.6157785844363093,-2.372412204681359,-0.7430660617990931,4.3879769384976175
271,1790597787.9834101,0.8804091796875001,-0.5656078125,-0.11347602539062526,1.0525727193773864,3.6345638125413506,-2.3839558005863632,-0.7465432005526846,4.410286398509277
272,1790597787.9634101,0.8995693359375001,-0.5512376953125,-0.10389594726562526,1.0601331778369607,3.6345638125413506,-2.3839558005863632,-0.7465432005526846,4.410286398509277
273,1790597787.9834101,0.9235195312500001,-0.5177074218750001,-0.18532661132812528,1.074828010488676,3.653140240983159,-2.3953234414388214,-0.7497664157271355,4.432285830984857
274,1790597787.9944623,0.8995693359375001,-0.54644765625,-0.20448676757812528,1.0722149361460618,3.6633770638107834,-2.4015450933722584,-0.7516035317640436,4.444396271274139
275,1790597788.0144622,0.9139394531250001,-0.5799779296875001,-0.20448676757812528,1.1015782137540546,3.6818432300382455,-2.412804647086367,-0.7550427760293953,4.466283178350227
276,1790597788.039077,0.9330996093750001,-0.5512376953125,-0.16616645507812527,1.0964256329284012,3.7045710878590516,-2.4266719586298384,-0.7593249411493889,4.493234704091597
277,1790597788.059077,0.9426796875000001,-0.54644765625,-0.14700629882812527,1.0994820990545322,3.72308153177919,-2.4378958111917646,-0.7627521362221642,4.515137085384353
278,1790597788.0685556,0.9474697265625001,-0.5320775390625,-0.15179633789062527,1.0971998535017353,3.731881964388665,-2.4431839387725787,-0.7643451626110852,4.525518123089626
279,1790597788.0885556,0.9570498046875001,-0.5272875,-0.16137641601562527,1.1045446047827494,3.7505224748980344,-2.4542573366043374,-0.7676720427325194,4.547429853684894
280,1790597788.1141303,0.9378896484375001,-0.5656078125,-0.19011665039062528,1.1116175290822847,3.774417999732131,-2.4683895747214692,-0.7719623115946783,4.575489497290769
281,1790597788.1341302,0.8995693359375001,-0.58476796875,-0.24759711914062527,1.1011280129221002,3.7930579999218184,-2.4795091068757125,-0.7754707057428322,4.597456820603733
282,1790597788.1731553,0.8851992187500001,-0.575187890625,-0.25717719726562527,1.08653526274606,3.829197492417496,-2.501346647527949,-0.7827670263553873,4.640281532901318
283,1790597788.1931553,0.8899892578125,-0.5608177734375001,-0.21885688476562526,1.0744746576975903,3.8476032504670257,-2.512563458690687,-0.7866594782091485,4.6621732101680236
284,1790597788.1876774,0.8947792968750001,-0.5416576171875,-0.18053657226562528,1.0614218851610235,3.8476032504670257,-2.512563458690687,-0.7866594782091485,4.6621732101680236
285,1790597788.2076774,0.8851992187500001,-0.536867578125,-0.17574653320312528,1.0500910899775937,3.8658469536220332,-2.5236910457883996,-0.7905154249941054,4.68387700527831
