imu_index,t_imu,ax,ay,az,mag
0,1790491260.7632115,0.11582314453125003,-0.27169101562500003,0.20319345703125036,0.3584948950274765
1,1790491260.7832115,0.06313271484375003,-0.27169101562500003,0.21756357421875036,0.35374518580713427
2,1790491260.8087254,0.09666298828125004,-0.2669009765625,0.2798340820312504,0.39860629455610685
3,1790491260.8287253,0.14935341796875004,-0.223790625,0.30378427734375035,0.40579991924358905
4,1790491260.8535175,0.17809365234375005,-0.19505039062500001,0.27504404296875035,0.38132824372277674
5,1790491260.8735175,0.14456337890625004,-0.20942050781250002,0.26546396484375034,0.3677317449497681
6,1790491260.883898,0.17330361328125005,-0.252530859375,0.27504404296875035,0.4116493688633676
7,1790491260.903898,0.20204384765625005,-0.2190005859375,0.26067392578125037,0.3958962851542297
8,1790491260.9288483,0.18288369140625005,-0.21421054687500002,0.24630380859375037,0.3741632920298969
9,1790491260.9488482,0.15414345703125004,-0.233370703125,0.23193369140625036,0.36333913583858746
10,1790491260.9732254,0.12540322265625004,-0.2669009765625,0.22714365234375036,0.3722315654839709
11,1790491260.9932253,0.14935341796875004,-0.2190005859375,0.21756357421875036,0.34293090984446734
12,1790491261.0039575,0.16372353515625004,-0.2190005859375,0.23672373046875037,0.36166943079567804
13,1790491261.0239575,0.11103310546875003,-0.2190005859375,0.26067392578125037,0.3581068314528664
14,1790491261.0484633,0.11103310546875003,-0.20942050781250002,0.26546396484375034,0.3558882074936508
15,1790491261.0684633,0.20204384765625005,-0.175890234375,0.21277353515625036,0.3420989157935502
16,1790491261.0936134,0.24036416015625003,-0.21421054687500002,0.24151376953125037,0.40247979918661747
17,1790491261.1136134,0.17330361328125005,-0.2285806640625,0.26546396484375034,0.3908380470094416
18,1790491261.1388133,0.16851357421875005,-0.19505039062500001,0.26067392578125037,0.3665956562224273
19,1790491261.1588132,0.20204384765625005,-0.19984042968750002,0.23193369140625036,0.366812146640152
20,1790491261.1686115,0.21162392578125006,-0.1902603515625,0.20798349609375036,0.35247811561447784
21,1790491261.1886115,0.24515419921875004,-0.1711001953125,0.13134287109375037,0.32653760582467645
22,1790491261.2138302,0.24036416015625003,-0.1902603515625,0.08823251953125036,0.3189967215617396
23,1790491261.2338302,0.20204384765625005,-0.223790625,0.18882333984375035,0.35575021276645924
24,1790491261.2587142,0.05355263671875003,-0.16631015625,0.2894141601562504,0.3380643564033002
25,1790491261.2787142,0.11103310546875003,-0.056139257812499996,0.2989942382812504,0.3238479910438816
26,1790491261.288266,0.14456337890625004,-0.1088296875,0.27504404296875035,0.3292289430999885
27,1790491261.308266,0.07271279296875004,-0.1327798828125,0.2798340820312504,0.3181583898112544
28,1790491261.3334668,0.08708291015625004,-0.16631015625,0.27504404296875035,0.33300409439791684
29,1790491261.3534667,0.10145302734375004,-0.137569921875,0.26067392578125037,0.3117195786987306
30,1790491261.378649,0.11103310546875003,-0.12798984375,0.2702540039062504,0.3189780199959608
31,1790491261.398649,0.058342675781250034,-0.0848794921875,0.2989942382812504,0.3162371745015267
32,1790491261.4087012,0.024812402343750033,-0.041769140625,0.3277344726562504,0.3313158628648645
33,1790491261.4287012,0.005652246093750033,0.006131250000000006,0.2798340820312504,0.27995830685789513
34,1790491261.4524708,0.06313271484375003,0.0013412109375000056,0.24630380859375037,0.2542697478232673
35,1790491261.4724708,0.09666298828125004,-0.14715,0.26067392578125037,0.314559614994789
36,1790491261.4984007,0.024812402343750033,-0.12798984375,0.23672373046875037,0.27025021735469357
37,1790491261.5184007,-0.023087988281249968,-0.046559179687499994,0.22714365234375036,0.23301298508045978
38,1790491261.5288112,0.09187294921875004,-0.10403964843749999,0.24151376953125037,0.27855661564275136
39,1790491261.5488112,0.10145302734375004,-0.1615201171875,0.24151376953125037,0.30775049291052214
40,1790491261.573138,0.010442285156250033,-0.1519400390625,0.21756357421875036,0.26557244890318754
41,1790491261.593138,-0.03745810546874997,-0.070509375,0.20319345703125036,0.21831688576129243
42,1790491261.6182404,0.10624306640625004,-0.08966953125,0.25109384765625037,0.28701277728494573
43,1790491261.6382403,0.16372353515625004,-0.070509375,0.33252451171875036,0.37729235192453053
44,1790491261.6487546,0.09187294921875004,0.006131250000000006,0.33252451171875036,0.3450373630760977
45,1790491261.6687546,0.039182519531250036,0.034871484375000004,0.3277344726562504,0.331905370288887
46,1790491261.6928687,0.10624306640625004,-0.013028906249999994,0.31336435546875036,0.3311413004078765
47,1790491261.7128687,0.16851357421875005,-0.056139257812499996,0.26067392578125037,0.31543515426458946
48,1790491261.738715,0.17809365234375005,-0.070509375,0.28462412109375035,0.3430740609204039
49,1790491261.758715,0.12061318359375003,-0.041769140625,0.30378427734375035,0.3295103766597272
50,1790491261.7833054,0.10145302734375004,-0.008238867187499995,0.2894141601562504,0.3067917074966217
51,1790491261.8033054,0.07271279296875004,-0.022608984374999995,0.28462412109375035,0.29463402170179726
52,1790491261.8128548,0.010442285156250033,-0.0321890625,0.26546396484375034,0.2676122076708708
53,1790491261.8328547,0.010442285156250033,-0.022608984374999995,0.23672373046875037,0.23803010746709122
54,1790491261.8586717,0.039182519531250036,-0.080089453125,0.25109384765625037,0.2664539560027185
55,1790491261.8786716,-0.03266806640624997,-0.070509375,0.26546396484375034,0.27660421391616163
56,1790491261.9029353,-0.09972861328124998,-0.080089453125,0.25588388671875034,0.28607111054973194
57,1790491261.9229352,-0.05661826171874997,-0.0752994140625,0.22235361328125036,0.24148863049310734
58,1790491261.9325755,0.015232324218750034,-0.1136197265625,0.22235361328125036,0.25016513606909785
59,1790491261.9525754,0.039182519531250036,-0.0657193359375,0.22714365234375036,0.23968425011448144
60,1790491261.9778438,0.039182519531250036,-0.0369791015625,0.24151376953125037,0.24745024684243175
61,1790491261.9978437,0.08229287109375004,-0.017818945312499994,0.2798340820312504,0.29222721452865236
62,1790491262.0234876,0.16372353515625004,-0.070509375,0.30378427734375035,0.35222415460643114
63,1790491262.0434875,0.16372353515625004,-0.027399023437499996,0.28462412109375035,0.3294950572584942
64,1790491262.052901,0.13977333984375004,0.006131250000000006,0.2702540039062504,0.3043212207273731
65,1790491262.072901,0.14456337890625004,-0.022608984374999995,0.25588388671875034,0.2947648218114829
66,1790491262.0984712,0.12540322265625004,-0.0944595703125,0.30378427734375035,0.3419553564976864
67,1790491262.1184711,0.07750283203125004,-0.0752994140625,0.31336435546875036,0.3314723367181118
68,1790491262.1435492,0.034392480468750035,-0.027399023437499996,0.2702540039062504,0.27380791775527896
69,1790491262.1635492,0.09666298828125004,-0.027399023437499996,0.24151376953125037,0.26157855543217545
70,1790491262.1886077,0.15414345703125004,-0.0848794921875,0.2702540039062504,0.322493349027406
71,1790491262.2086077,0.09666298828125004,-0.0848794921875,0.34210458984375036,0.3654911926293568
72,1790491262.2185106,-0.023087988281249968,-0.003448828124999995,0.3373145507812504,0.3381213625121425
73,1790491262.2385106,-0.003927832031249968,0.034871484375000004,0.22235361328125036,0.2251057032289707
74,1790491262.2635891,0.14456337890625004,-0.0657193359375,0.16487314453125035,0.22891211288282795
75,1790491262.2835891,0.17330361328125005,-0.1519400390625,0.21277353515625036,0.31367578024058407
76,1790491262.2934341,0.06792275390625004,-0.10403964843749999,0.24630380859375037,0.27586829298234766
77,1790491262.3134341,0.020022363281250035,0.0013412109375000056,0.24151376953125037,0.24234602276773418
78,1790491262.3381784,0.12540322265625004,-0.046559179687499994,0.23193369140625036,0.2677442112821036
79,1790491262.3581784,0.19725380859375005,-0.0848794921875,0.23193369140625036,0.3160804176282951
80,1790491262.3978443,0.15414345703125004,-0.14715,0.25109384765625037,0.3293348572143026
81,1790491262.4178443,0.14456337890625004,-0.0944595703125,0.22714365234375036,0.2853338741623095
82,1790491262.4287405,0.24515419921875004,-0.1088296875,0.19840341796875036,0.3336291332267266
83,1790491262.4487405,0.30742470703125,-0.1902603515625,0.22714365234375036,0.42696977723252794
84,1790491262.4587877,0.24036416015625003,-0.1854703125,0.2989942382812504,0.42611233358335476
85,1790491262.4787877,0.16372353515625004,-0.1423599609375,0.29420419921875035,0.3655514536698391
86,1790491262.5033607,0.14935341796875004,-0.1423599609375,0.22235361328125036,0.30333798192165534
87,1790491262.5233607,0.18288369140625005,-0.24295078125,0.23672373046875037,0.38536949964858846
88,1790491262.548623,0.20683388671875005,-0.2381607421875,0.31336435546875036,0.4446324494375449
89,1790491262.568623,0.10145302734375004,-0.08966953125,0.31336435546875036,0.3413657289039891
90,1790491262.5781267,0.05355263671875003,-0.022608984374999995,0.27504404296875035,0.2811196838476367
91,1790491262.5981266,0.06313271484375003,-0.051349218749999995,0.24630380859375037,0.25939939876099255
92,1790491262.6232972,0.08229287109375004,-0.10403964843749999,0.19361337890625036,0.2346966245418677
93,1790491262.6432972,0.029602441406250034,-0.156730078125,0.20319345703125036,0.25831802667756204
94,1790491262.6684754,-0.04703818359374997,-0.1902603515625,0.25588388671875034,0.3223168558651249
95,1790491262.6884754,-0.06140830078124997,-0.1327798828125,0.25588388671875034,0.29475081029038064
96,1790491262.6983094,-0.07098837890624997,-0.1327798828125,0.26067392578125037,0.3010327935651652
97,1790491262.7183094,-0.09972861328124998,-0.080089453125,0.2702540039062504,0.2989938852823286
98,1790491262.743722,-0.023087988281249968,-0.013028906249999994,0.25588388671875034,0.2572535152009408
99,1790491262.763722,0.005652246093750033,-0.0848794921875,0.2702540039062504,0.2833261419411766
100,1790491262.788634,-0.02787802734374997,-0.1231998046875,0.2894141601562504,0.315778296250019
101,1790491262.808634,-0.07098837890624997,-0.156730078125,0.31336435546875036,0.35749249867256133
102,1790491262.8181858,0.05355263671875003,-0.1519400390625,0.26067392578125037,0.30643850272453244
103,1790491262.8381858,0.10145302734375004,-0.156730078125,0.23193369140625036,0.29774195430877737
104,1790491262.8636897,0.010442285156250033,-0.118409765625,0.34210458984375036,0.3621677295215748
105,1790491262.8836896,-0.09972861328124998,-0.1231998046875,0.5049659179687503,0.529258506301091
106,1790491262.9088953,0.04397255859375004,-0.013028906249999994,0.39479501953125035,0.39744992861243844
107,1790491262.9288952,0.04397255859375004,0.020501367187500008,0.3468946289062504,0.3502710029817522
108,1790491262.9387605,0.08708291015625004,0.006131250000000006,0.4187452148437504,0.42774826758548384
109,1790491262.9587605,0.024812402343750033,-0.051349218749999995,0.48101572265625037,0.48438468495485926
110,1790491262.9830132,-0.06140830078124997,-0.003448828124999995,0.47143564453125036,0.47543079491643336
111,1790491263.0030131,-0.10451865234374998,-0.08966953125,0.48101572265625037,0.5003407828319246
112,1790491263.0281801,-0.06619833984374997,-0.2764810546875,0.5193360351562504,0.5920590436865187
113,1790491263.04818,-0.003927832031249968,-0.2764810546875,0.47143564453125036,0.546542558635806
114,1790491263.058191,0.015232324218750034,0.0013412109375000056,0.3277344726562504,0.32809100431915916
115,1790491263.078191,0.12540322265625004,-0.0321890625,0.17924326171875035,0.22111139922848475
116,1790491263.1033337,0.010442285156250033,-0.30043125,0.16008310546875035,0.3405797673855069
117,1790491263.1233337,-0.03745810546874997,-0.6884244140625,0.18882333984375035,0.7148325238909831
118,1790491263.148003,-0.12367880859374997,-0.9566666015625,0.25588388671875034,0.9979899787686282
119,1790491263.168003,-0.14283896484374997,-1.00935703125,0.24151376953125037,1.0476323244748806
120,1790491263.1930819,-0.04703818359374997,-0.9279263671875,0.26067392578125037,0.964992657598906
121,1790491263.2130818,0.015232324218750034,-0.836915625,0.39479501953125035,0.9254852211229124
122,1790491263.2229333,0.06313271484375003,-0.6117837890625,0.43311533203125036,0.7522327000893753
123,1790491263.2429333,0.06313271484375003,-0.6309439453125,0.5001758789062504,0.8076211436370925
124,1790491263.2680027,0.06313271484375003,-0.6117837890625,0.4666456054687504,0.7720254305050503
125,1790491263.2880027,-0.018297949218749967,-0.578253515625,0.41395517578125035,0.7113865551402908
126,1790491263.3136065,-0.02787802734374997,-0.405812109375,0.37563486328125034,0.553680596586416
127,1790491263.3336065,0.020022363281250035,-0.377071875,0.43311533203125036,0.5746068088596952
128,1790491263.3440025,-0.03266806640624997,-0.329171484375,0.5337061523437504,0.627903914415203
129,1790491263.3640025,-0.14762900390624997,-0.20463046875000002,0.4187452148437504,0.4888921215255314
130,1790491263.3885293,-0.12367880859374997,0.030081445312500007,0.26546396484375034,0.29440186425670317
131,1790491263.4085293,-0.10930869140624998,-0.118409765625,0.37084482421875037,0.40434533045671506
132,1790491263.433643,-0.03745810546874997,-0.14715,0.38042490234375037,0.40960876270968616
133,1790491263.453643,0.13977333984375004,-0.1327798828125,0.39479501953125035,0.4393520129206853
134,1790491263.463693,0.20204384765625005,-0.20942050781250002,0.5193360351562504,0.5953054534270633
135,1790491263.483693,0.26431435546875004,-0.1615201171875,0.5720264648437504,0.6505114166905627
136,1790491263.508964,0.25473427734375004,-0.252530859375,0.5480762695312503,0.6550183083042873
137,1790491263.528964,0.27389443359375004,-0.20942050781250002,0.39479501953125035,0.5241547646380474
138,1790491263.5537922,0.50381630859375,-0.1231998046875,0.29420419921875035,0.5962928605291338
139,1790491263.5737922,0.50860634765625,-0.29085117187500004,0.38042490234375037,0.6985684843882832
140,1790491263.5831976,0.47507607421875003,-0.1711001953125,0.44269541015625036,0.671529432939827
141,1790491263.6031976,0.64751748046875,-0.20942050781250002,0.36605478515625034,0.7727431283038575
142,1790491263.6289113,0.7289481445312501,-0.501612890625,0.24630380859375037,0.9185022893735798
143,1790491263.6489112,0.6379374023437501,-0.77943515625,0.20798349609375036,1.02846508290507
144,1790491263.6729991,0.76247841796875,-0.8752359375000001,0.19840341796875036,1.1776141984628559
145,1790491263.6929991,0.92054970703125,-0.942296484375,0.21277353515625036,1.3343938717049375
146,1790491263.703173,0.8343290039062501,-0.8129654296875001,0.18882333984375035,1.1801152190764788
147,1790491263.723173,0.7576883789062501,-0.6165738281250001,0.20798349609375036,0.9987552751829035
148,1790491263.7632637,0.80558876953125,-0.60699375,0.16487314453125035,1.0220556892467056
149,1790491263.7832637,0.8582791992187501,-0.8033853515625,0.14092294921875034,1.1840314541992925
150,1790491263.793651,0.9109696289062501,-1.0716275390625,0.10739267578125035,1.41059719058213
151,1790491263.813651,0.9349198242187501,-1.1674283203125,-0.055468652343749654,1.4966765623132192
152,1790491263.8382347,0.9876102539062501,-1.2201187500000001,-0.06504873046874965,1.5710808747667724
153,1790491263.8582346,1.0163504882812502,-1.2919693359375002,0.01159189453125035,1.6438635746469792
154,1790491263.8682854,1.04988076171875,-1.210538671875,0.02596201171875035,1.6026002358618685
155,1790491263.8882854,1.1792118164062502,-1.16263828125,-0.13210927734374966,1.6612408441103204
156,1790491263.9138587,1.2175321289062502,-1.1817984375000001,-0.18958974609374965,1.7073301683096682
157,1790491263.9338586,1.23190224609375,-1.2871792968750002,-0.04109853515624965,1.782162387614113
158,1790491263.9589367,1.35644326171875,-1.12431796875,-0.09857900390624966,1.7645812639624947
159,1790491263.9789367,1.3324930664062502,-1.0716275390625,-0.19916982421874965,1.7215086329662157
160,1790491263.988781,1.27022255859375,-1.0572574218750002,-0.27581044921874964,1.675508880420654
161,1790491264.008781,1.3372831054687502,-1.0812076171875,-0.40035146484374967,1.7656775784494043
162,1790491264.0326385,1.36123330078125,-1.114737890625,-0.4195116210937497,1.8087527924466622
163,1790491264.0526385,1.3372831054687502,-1.306339453125,-0.17521962890624965,1.8776450115283008
164,1790491264.0926764,1.5384647460937502,-1.4452505859375002,-0.07941884765624965,2.1123281905255733
165,1790491264.1126764,1.4522440429687502,-1.4835708984375002,-0.13689931640624967,2.080561653463163
166,1790491264.108436,1.39476357421875,-1.3350796875000002,-0.3093407226562497,1.9553758929259744
167,1790491264.128436,1.23190224609375,-1.3494498046875003,-0.3764012695312497,1.8655497406948698
168,1790491264.1534956,1.12173134765625,-1.5218912109375002,-0.25665029296874964,1.9079579259314035
169,1790491264.1734955,1.1792118164062502,-1.6033218750000002,-0.10815908203124966,1.9932084511740076
170,1790491264.2133212,1.40913369140625,-1.5697916015625002,-0.25665029296874964,2.125034777473844
171,1790491264.2333212,1.4139237304687502,-1.6847525390625002,-0.49136220703124966,2.2536655146580267
172,1790491264.2289402,1.4235038085937501,-2.0392154296875002,-0.42430166015624965,2.522854446964358
173,1790491264.2489402,1.44266396484375,-2.3026675781250003,-0.22791005859374966,2.726811376977687
174,1790491264.2736926,1.3756034179687502,-2.3649380859375,-0.20874990234374965,2.7438646897348202
175,1790491264.2936926,1.40434365234375,-2.3218277343750002,-0.22312001953124966,2.7226545254781693
176,1790491264.3178506,1.5049344726562501,-2.2356070312500003,-0.22791005859374966,2.7045719735240534
177,1790491264.3378506,1.48098427734375,-2.264347265625,-0.25665029296874964,2.717802851930903
178,1790491264.3480976,1.5815750976562502,-2.4798990234375005,-0.25186025390624966,2.9520691969312587
179,1790491264.3680975,1.62947548828125,-2.5948599609375003,-0.21353994140624966,3.0714960345671565
180,1790491264.3931603,1.4282938476562501,-2.58048984375,-0.10815908203124966,2.951380954057852
181,1790491264.4131603,1.43308388671875,-2.5182193359375002,-0.09857900390624966,2.8991163947440213
182,1790491264.4387984,1.3708133789062502,-2.5373794921875,-0.026728417968749654,2.884118308164417
183,1790491264.4587984,1.4522440429687502,-2.4080484375,-0.060258691406249655,2.81271064056977
184,1790491264.468353,1.55283486328125,-2.3553580078125003,-0.11294912109374966,2.8234314161218825
185,1790491264.488353,1.4905643554687502,-2.3170376953125,-0.24228017578124966,2.7657088535978667
186,1790491264.513921,1.25106240234375,-2.2595572265625004,-0.22312001953124966,2.592400150012447
187,1790491264.533921,1.2271122070312501,-2.2068667968750004,-0.10336904296874966,2.5272021262334174
188,1790491264.5581741,1.2271122070312501,-2.19728671875,-0.036308496093749656,2.5169806514808246
189,1790491264.578174,1.19837197265625,-2.0823257812500002,-0.07941884765624965,2.4038476235962842
190,1790491264.603727,1.11215126953125,-1.9769449218750001,-0.04588857421874965,2.268765618500763
191,1790491264.623727,1.0642508789062501,-1.9098843750000003,-0.0075682617187496515,2.186400132113816
192,1790491264.6337817,1.0642508789062501,-1.8667740234375003,0.06907236328125035,2.14994097109735
193,1790491264.6537817,0.9301297851562501,-1.7757632812500002,0.22714365234375036,2.0174416688148975
194,1790491264.6783657,0.9780301757812501,-1.8667740234375003,0.49059580078125037,2.163809723396198
195,1790491264.6983657,1.15526162109375,-1.9434146484375003,0.6199268554687504,2.3443120984768613
196,1790491264.7237256,1.20795205078125,-1.6464322265625002,0.35168466796875036,2.0720929852046868
197,1790491264.7437255,0.9492899414062501,-1.4644107421875001,0.10739267578125035,1.7484803120140309
198,1790491264.7532864,0.84390908203125,-1.6703824218750003,0.09302255859375036,1.8737697751994895
199,1790491264.7732863,0.8582791992187501,-1.9625748046875002,0.14092294921875034,2.146672384278111
200,1790491264.7982886,0.8918094726562501,-1.9529947265625003,0.08823251953125036,2.14878977915551
201,1790491264.8182886,0.92054970703125,-1.7805533203125001,0.07386240234375036,2.0058009731952913
202,1790491264.8438537,0.9876102539062501,-1.6847525390625002,0.09302255859375036,1.9551005927843295
203,1790491264.8638537,0.9732401367187501,-1.7422330078125001,0.14571298828125034,2.00095089699512
204,1790491264.8739352,0.9924002929687501,-1.7901333984375003,0.09781259765625035,2.049146951769472
205,1790491264.8939352,0.8486991210937501,-1.7518130859375003,0.04991220703125035,1.9472109579133696
206,1790491264.918016,0.6954178710937501,-1.7518130859375003,0.13134287109375037,1.8893665746184833
207,1790491264.938016,0.78642861328125,-1.7853433593750003,0.20798349609375036,1.9619322132273735
208,1790491264.9638443,0.8965995117187501,-1.7087027343750003,0.20319345703125036,1.9403204116473172
209,1790491264.9838443,0.8151688476562501,-1.6560123046875002,0.21756357421875036,1.8585507559096852
210,1790491264.993141,0.7528983398437501,-1.6129019531250002,0.21756357421875036,1.793221271723251
211,1790491265.013141,0.7576883789062501,-1.6991226562500001,0.11218271484375035,1.8637849774105786
212,1790491265.0387557,0.8103788085937501,-1.7805533203125001,0.04512216796875035,1.9568137238725343
213,1790491265.0587556,0.7385282226562501,-1.7805533203125001,0.10739267578125035,1.9306287185647903
214,1790491265.0838497,0.7002079101562501,-1.6895425781250002,0.15529306640625035,1.8354730118464044
215,1790491265.1038496,0.80558876953125,-1.54584140625,0.12176279296875035,1.7474052468226717
216,1790491265.1129408,0.8534891601562501,-1.6464322265625002,0.13134287109375037,1.8591486688683405
217,1790491265.1329408,0.8870194335937501,-1.7470230468750003,0.16008310546875035,1.965838142508662
218,1790491265.1583467,0.82474892578125,-1.7757632812500002,0.18882333984375035,1.9670282853286176
219,1790491265.1783466,0.78163857421875,-1.6560123046875002,0.12176279296875035,1.835255238852263
220,1790491265.203918,0.7768485351562501,-1.6847525390625002,0.10739267578125035,1.8583374158810368
221,1790491265.223918,0.8534891601562501,-1.6895425781250002,0.08344248046875036,1.8947191130477021
222,1790491265.2634726,0.8774393554687501,-1.7182828125000003,0.09302255859375036,1.9315923075705324
223,1790491265.2834725,0.9061795898437501,-1.6608023437500001,0.11218271484375035,1.895260097074962
224,1790491265.277994,0.8295389648437501,-1.6416421875000002,0.11697275390625035,1.8430427534732443
225,1790491265.297994,0.7289481445312501,-1.6416421875000002,0.13613291015625034,1.801356888132651
226,1790491265.3233323,0.8103788085937501,-1.6703824218750003,0.17445322265625035,1.8647587446160343
227,1790491265.3433323,0.8678592773437501,-1.6224820312500001,0.16008310546875035,1.8469581120472824
228,1790491265.368636,0.8726493164062501,-1.5793716796875001,0.14571298828125034,1.8102939007180747
229,1790491265.3886359,0.90138955078125,-1.6655923828125,0.16487314453125035,1.9010218993289552
230,1790491265.3988016,0.80558876953125,-1.6560123046875002,0.14571298828125034,1.8473175941957385
231,1790491265.4188015,0.7337381835937501,-1.6799625000000002,0.12176279296875035,1.8372457378427245
232,1790491265.4436176,0.7960086914062501,-1.6847525390625002,0.11218271484375035,1.8667099175237554
233,1790491265.4636176,0.9492899414062501,-1.7374429687500001,0.12655283203125037,1.9839040001494592
234,1790491265.4887533,0.86306923828125,-1.7230728515625002,0.13613291015625034,1.9319422173260548
235,1790491265.5087533,0.70499794921875,-1.6368521484375003,0.11218271484375035,1.7857469097710397
236,1790491265.5179038,0.7528983398437501,-1.7134927734375003,0.12655283203125037,1.8758808635031015
237,1790491265.5379038,0.86306923828125,-1.7278628906250002,0.10260263671875035,1.9341473521756296
238,1790491265.5641701,0.8534891601562501,-1.7470230468750003,0.10260263671875035,1.9470646044438973
239,1790491265.58417,0.7481083007812501,-1.6512222656250002,0.11697275390625035,1.816558181107883
240,1790491265.6088035,0.7145780273437501,-1.6176919921875001,0.16487314453125035,1.7761566069853387
241,1790491265.6288035,0.7145780273437501,-1.6272720703125003,0.17924326171875035,1.7862710586171384
242,1790491265.6383133,0.7145780273437501,-1.6081119140625002,0.17924326171875035,1.7688340318367406
243,1790491265.6583133,0.7193680664062501,-1.5697916015625002,0.16966318359375035,1.735085497365589
244,1790491265.6834018,0.7337381835937501,-1.5218912109375002,0.15050302734375035,1.6962239655281082
245,1790491265.7034018,0.72415810546875,-1.5602115234375002,0.11697275390625035,1.7240497628373916
246,1790491265.729205,0.6954178710937501,-1.6272720703125003,0.14092294921875034,1.7752407396948182
247,1790491265.7492049,0.6954178710937501,-1.6224820312500001,0.17445322265625035,1.7738342324075385
248,1790491265.7589464,0.72415810546875,-1.54584140625,0.16966318359375035,1.7154638471446242
249,1790491265.7789464,0.70499794921875,-1.5937417968750003,0.18403330078125035,1.7523992922006788
250,1790491265.803951,0.7768485351562501,-1.6272720703125003,0.14571298828125034,1.8090716714236046
251,1790491265.823951,0.76726845703125,-1.6608023437500001,0.09781259765625035,1.8320842268904758
252,1790491265.8490326,0.68104775390625,-1.6895425781250002,0.12655283203125037,1.826032799730922
253,1790491265.8690326,0.62835732421875,-1.6751724609375003,0.17924326171875035,1.7981000660848452
254,1790491265.879032,0.66188759765625,-1.5793716796875001,0.17924326171875035,1.72181248729403
255,1790491265.8990319,0.7289481445312501,-1.5745816406250002,0.19361337890625036,1.7458977292213782
256,1790491265.9241042,0.78642861328125,-1.54584140625,0.16008310546875035,1.7417583694993306
257,1790491265.9441042,0.6523075195312501,-1.5410513671875001,0.14092294921875034,1.6793462102746968
258,1790491265.9841177,0.5756668945312501,-1.5650015625000002,0.18403330078125035,1.677644336527602
259,1790491266.0041177,0.6139872070312501,-1.5697916015625002,0.19840341796875036,1.6972300607153636
260,1790491266.0142112,0.70499794921875,-1.54584140625,0.16487314453125035,1.706994702823428
261,1790491266.0342112,0.66667763671875,-1.4931509765625002,0.14571298828125034,1.6417037446093303
262,1790491266.0433877,0.68104775390625,-1.4979410156250001,0.11218271484375035,1.6493144912060038
263,1790491266.0633876,0.7289481445312501,-1.5266812500000002,0.08823251953125036,1.6940796952977
264,1790491266.0883718,0.7289481445312501,-1.5937417968750003,0.16008310546875035,1.7598309331235278
265,1790491266.1083717,0.6762577148437501,-1.5602115234375002,0.26067392578125037,1.720330023668443
266,1790491266.1334713,0.74331826171875,-1.4500406250000002,0.20319345703125036,1.6420802152560288
267,1790491266.1534712,0.82474892578125,-1.5123111328125003,0.14571298828125034,1.7287359624765737
268,1790491266.1635144,0.80079873046875,-1.5362613281250002,0.09781259765625035,1.7352074167871154
269,1790491266.1835144,0.68583779296875,-1.6320621093750003,0.16487314453125035,1.777971698568187
270,1790491266.2086642,0.7002079101562501,-1.6033218750000002,0.16487314453125035,1.7573034189025303
271,1790491266.2286642,0.76247841796875,-1.5123111328125003,0.08823251953125036,1.6959490787755358
272,1790491266.2531195,0.74331826171875,-1.5171011718750003,0.08823251953125036,1.69171598721887
273,1790491266.2731194,0.6762577148437501,-1.5410513671875001,0.15050302734375035,1.689619772148689
274,1790491266.2831733,0.6570975585937501,-1.50752109375,0.17445322265625035,1.6537324380038672
275,1790491266.3031733,0.7002079101562501,-1.4787808593750003,0.13134287109375037,1.6414429314741337
276,1790491266.327751,0.76726845703125,-1.4548306640625002,0.10260263671875035,1.6479564458180593
277,1790491266.347751,0.74331826171875,-1.4644107421875001,0.11697275390625035,1.6464214178621284
278,1790491266.3737578,0.68104775390625,-1.4692007812500003,0.18403330078125035,1.62979913931834
279,1790491266.3937578,0.6762577148437501,-1.50752109375,0.17445322265625035,1.6614386151411187
280,1790491266.4033122,0.7385282226562501,-1.5314712890625002,0.16966318359375035,1.7086877540234562
281,1790491266.4233122,0.7576883789062501,-1.5314712890625002,0.16487314453125035,1.7165893925280908
282,1790491266.447977,0.6906278320312501,-1.5410513671875001,0.22714365234375036,1.7039367234397838
283,1790491266.467977,0.68104775390625,-1.5362613281250002,0.23193369140625036,1.6963838447127666
284,1790491266.4930117,0.72415810546875,-1.5266812500000002,0.15529306640625035,1.6968431092153182
285,1790491266.5130117,0.7481083007812501,-1.5697916015625002,0.10739267578125035,1.742252820013624
286,1790491266.5235624,0.6954178710937501,-1.5985318359375003,0.16008310546875035,1.7505818023156752
287,1790491266.5435624,0.66667763671875,-1.5602115234375002,0.20798349609375036,1.709378894164615
288,1790491266.5680149,0.6954178710937501,-1.4739908203125003,0.17924326171875035,1.6396289521332739
289,1790491266.5880148,0.7193680664062501,-1.5123111328125003,0.18403330078125035,1.6847681244581216
290,1790491266.613693,0.6954178710937501,-1.5171011718750003,0.18882333984375035,1.6795404832306995
291,1790491266.633693,0.7097879882812501,-1.5123111328125003,0.13613291015625034,1.6761312955626662
292,1790491266.657397,0.6762577148437501,-1.5697916015625002,0.15050302734375035,1.7158733433623485
293,1790491266.677397,0.6187772460937501,-1.54584140625,0.17924326171875035,1.6747056697915368
294,1790491266.6888196,0.6331473632812501,-1.50752109375,0.21277353515625036,1.648868705808344
295,1790491266.7088196,0.6954178710937501,-1.4452505859375002,0.20319345703125036,1.6166764835827736
296,1790491266.7328377,0.5948270507812501,-1.4979410156250001,0.23672373046875037,1.6290133919645406
297,1790491266.7528377,0.5708768554687501,-1.50752109375,0.26067392578125037,1.6329332894497846
298,1790491266.778181,0.7145780273437501,-1.4739908203125003,0.18882333984375035,1.6489162953885048
299,1790491266.798181,0.7002079101562501,-1.5362613281250002,0.10260263671875035,1.691424632314255
300,1790491266.8077416,0.6762577148437501,-1.5793716796875001,0.05949228515625035,1.7190924150486264
301,1790491266.8277416,0.56608681640625,-1.5937417968750003,0.26546396484375034,1.7119983397906324
302,1790491266.8533196,0.66188759765625,-1.4979410156250001,0.47143564453125036,1.7041637377779795
303,1790491266.8733196,0.68583779296875,-1.3973501953125003,0.35168466796875036,1.5958205263401077
304,1790491266.8978667,0.7768485351562501,-1.16263828125,0.31336435546875036,1.4329754495038325
305,1790491266.9178667,0.33616494140625003,-1.3494498046875003,0.9216993164062504,1.668397816189397
306,1790491266.9280818,0.4271756835937501,-1.5266812500000002,1.2043116210937503,1.990879500235212
307,1790491266.9480817,0.4271756835937501,-1.5266812500000002,0.8546387695312504,1.8010114186593156
308,1790491266.9736648,0.8870194335937501,-1.3398697265625001,0.4474854492187504,1.6680220583056307
309,1790491266.9936647,0.45112587890625006,-1.50752109375,0.5959766601562504,1.6826534361451655
310,1790491267.0182514,0.26910439453125007,-1.6416421875000002,0.8163184570312504,1.8530466994184733
311,1790491267.0382514,0.37448525390625004,-1.8811441406250002,0.8163184570312504,2.0845427092028794
312,1790491267.048294,0.52297646484375,-1.9482046875000003,0.7588379882812504,2.1551893141058804
313,1790491267.068294,0.15414345703125004,-2.111066015625,1.0701905273437504,2.3718490028854395
314,1790491267.0932982,0.47986611328125006,-2.0248453125,1.3336426757812505,2.4716134027986354
315,1790491267.1132982,0.9061795898437501,-1.3925601562500003,1.1516211914062504,2.0215381782989814
316,1790491267.1379297,0.9732401367187501,-1.2440689453125002,0.9456495117187504,1.8409662961133206
317,1790491267.1579297,0.7481083007812501,-1.3015494140625001,0.6869874023437503,1.6509538448797594
318,1790491267.167479,0.5325565429687501,-1.16263828125,0.42353525390625035,1.3471177958100815
319,1790491267.187479,0.24036416015625003,-0.884816015625,0.39479501953125035,0.9982672079362319
320,1790491267.2128408,0.22120400390625006,-0.5926236328125001,0.5241260742187503,0.8214877498709279
321,1790491267.2328408,-0.03266806640624997,-0.8033853515625,0.45227548828125036,0.9225228143346745
322,1790491267.2587047,-0.03745810546874997,-1.1195279296875,0.3277344726562504,1.1671142958523637
323,1790491267.2787046,0.27389443359375004,-1.3398697265625001,0.25588388671875034,1.3913107519151156
324,1790491267.2882593,1.0594608398437502,-1.3494498046875003,-0.055468652343749654,1.7165514317742971
325,1790491267.3082592,1.44266396484375,-1.1482681640625,-0.40514150390624964,1.8878396992980022
326,1790491267.333704,1.23190224609375,-1.2249087890625001,-0.5584227539062496,1.8247796188947383
327,1790491267.353704,1.11694130859375,-1.3207095703125002,-0.5392625976562497,1.811804571467109
328,1790491267.3785973,0.8582791992187501,-1.2392789062500003,-0.7117040039062497,1.6670266885877871
329,1790491267.3985972,0.64272744140625,-1.2823892578125002,-0.8170848632812497,1.6508326524190327
330,1790491267.4229314,0.4080155273437501,-1.1482681640625,-0.8793553710937497,1.5027515815411705
331,1790491267.4429314,0.30742470703125,-0.9375064453125,-0.9799461914062497,1.3905836269521312
332,1790491267.4537828,0.37448525390625004,-0.77943515625,-1.2194481445312497,1.4949288094730124
333,1790491267.4737828,0.37927529296875007,-0.6213638671875,-1.1811278320312497,1.3874457679136782
334,1790491267.4979823,0.7193680664062501,-0.3435416015625,-0.7883446289062497,1.1211594449026985
335,1790491267.5179822,0.7481083007812501,-0.056139257812499996,-0.5248924804687497,0.9156034960714078
336,1790491267.5431259,0.5708768554687501,0.22647304687500003,-0.5201024414062497,0.8047962317428403
337,1790491267.5631258,0.68583779296875,0.820437890625,-0.5392625976562497,1.1976209583455075
338,1790491267.5731921,0.60440712890625,0.90665859375,0.006801855468750349,1.0896715323120274
339,1790491267.593192,0.6331473632812501,0.6911068359375,0.24151376953125037,0.967901411912771
340,1790491267.61889,0.13019326171875004,0.5809359375,0.12655283203125037,0.6086480659388485
341,1790491267.63889,0.039182519531250036,0.456394921875,0.01159189453125035,0.45822043447333055
342,1790491267.6635382,1.13131142578125,0.6336263671875,0.05949228515625035,1.2980320671275982
343,1790491267.6835382,1.4139237304687502,0.5474056640625,-0.15605947265624967,1.5242007202583656
344,1790491267.6935873,1.08341103515625,0.20731289062500002,-0.33329091796874966,1.152319808784906
345,1790491267.7135873,1.55762490234375,0.05882167968750001,-0.46262197265624966,1.625938011114506
346,1790491267.7387216,1.87855751953125,0.10193203125000001,-0.5536327148437497,1.9610909403001724
347,1790491267.7587216,2.07973916015625,0.010921289062500006,-0.3859813476562497,2.115281505989391
348,1790491267.7833588,2.7551346679687505,-0.19505039062500001,-0.10815908203124966,2.7641472610105424
349,1790491267.8033588,2.6784940429687505,-0.51119296875,-0.21353994140624966,2.7351869947216234
350,1790491267.8134093,2.1851200195312503,-1.3015494140625001,-0.09857900390624966,2.545289413212933
351,1790491267.8334093,1.9408280273437502,-1.7853433593750003,0.05949228515625035,2.6377649013095454
352,1790491267.8579884,1.8546073242187502,-1.8092935546875002,0.27504404296875035,2.605525037233793
353,1790491267.8779883,1.5767850585937502,-1.306339453125,0.22714365234375036,2.0601864300580854
354,1790491267.9033296,1.25106240234375,-1.16263828125,0.14571298828125034,1.714093691295759
355,1790491267.9233296,1.4522440429687502,-1.095577734375,0.18403330078125035,1.8284341902821992
356,1790491267.9331768,1.62947548828125,-1.3159195312500003,0.19840341796875036,2.1038532496104194
357,1790491267.9531767,1.67258583984375,-1.6416421875000002,0.23193369140625036,2.3550638421569254
358,1790491267.9780474,1.9264579101562502,-1.5889517578125003,0.22714365234375036,2.5075091240230973
359,1790491267.9980474,2.04620888671875,-1.5793716796875001,0.3373145507812504,2.6067540767886905
360,1790491268.0231152,2.0653690429687503,-1.4165103515625002,0.2894141601562504,2.5211131303129415
361,1790491268.0431151,1.9695682617187502,-1.153058203125,0.21756357421875036,2.292613414030048
362,1790491268.0681856,2.12284951171875,-1.1961685546875,0.20798349609375036,2.445519657511486
363,1790491268.0881855,2.21865029296875,-1.3398697265625001,0.17924326171875035,2.5980354411594475
364,1790491268.098238,2.18032998046875,-1.5123111328125003,0.11697275390625035,2.656050905256882
365,1790491268.118238,2.2378104492187503,-1.6751724609375003,0.16966318359375035,2.800497094514328
366,1790491268.143178,2.3144510742187503,-1.4117203125000002,0.01159189453125035,2.7110463639886815
367,1790491268.163178,2.25697060546875,-1.191378515625,-0.17521962890624965,2.558124508267111
368,1790491268.1884484,2.0318387695312503,-1.1817984375000001,-0.27102041015624967,2.366108280482736
369,1790491268.2084484,1.95040810546875,-1.2823892578125002,-0.25665029296874964,2.3482937123179544
370,1790491268.2335227,1.9743583007812502,-1.4979410156250001,-0.26144033203124967,2.492041137976677
371,1790491268.2535226,2.01267861328125,-1.3781900390625001,-0.27581044921874964,2.454863415351062
372,1790491268.2634792,2.03662880859375,-1.1578482421875,-0.22791005859374966,2.353808074321033
373,1790491268.2834792,1.9456180664062501,-1.095577734375,-0.15605947265624967,2.238319635662074
374,1790491268.3079102,1.7444364257812501,-1.1770083984375002,-0.07462880859374965,2.1057009931747186
375,1790491268.3279102,1.6917459960937502,-1.133898046875,-0.09857900390624966,2.0389818822189967
376,1790491268.338297,2.00788857421875,-1.2775992187500003,-0.021938378906249653,2.379991088785387
377,1790491268.3582969,1.9360379882812502,-1.5123111328125003,-0.0027782226562496517,2.4566920387012017
378,1790491268.3837364,1.8210770507812502,-1.4165103515625002,-0.12252919921874966,2.310375858086091
379,1790491268.4037364,1.91208779296875,-1.08599765625,-0.31413076171874965,2.2212943913085
