imu_index,t_imu,ax,ay,az,mag
0,1788069401.2035062,-0.0030177246093749783,-0.02739902343750013,0.04061953125000009,0.04908930093326287
1,1788069401.2235062,-0.007807763671874979,0.01092128906249987,-0.012070898437499913,0.01805387264359001
2,1788069401.2333586,-0.0030177246093749783,0.01571132812499987,-0.012070898437499913,0.020041434139249546
3,1788069401.2533586,0.006562353515625022,-0.02260898437500013,0.04540957031250009,0.05114938644890011
4,1788069401.2626944,0.001772314453125022,0.03487148437499987,-0.040811132812499915,0.05370949713482825
5,1788069401.2826943,-0.0030177246093749783,-0.013028906250000132,0.031039453125000088,0.033798028199710076
6,1788069401.3237617,-0.0030177246093749783,0.0013412109374998694,0.011879296875000087,0.012329768969501557
7,1788069401.3437617,-0.007807763671874979,0.02050136718749987,-0.031231054687499916,0.03816603210979833
8,1788069401.3547022,-0.01738784179687498,-0.02739902343750013,0.05498964843750009,0.06385064575211194
9,1788069401.3747022,-0.007807763671874979,0.0061312499999998694,-0.021650976562499914,0.0238184421452846
10,1788069401.3837633,0.001772314453125022,0.01092128906249987,-0.002490820312499913,0.011341068694642376
11,1788069401.4037633,-0.0030177246093749783,-0.02260898437500013,0.05019960937500009,0.055138676241723694
12,1788069401.4437108,-0.007807763671874979,0.02529140624999987,-0.045601171874999916,0.052726495047856786
13,1788069401.4637108,-0.007807763671874979,-0.013028906250000132,0.02145937500000009,0.026291031684165078
14,1788069401.4736984,-0.01259780273437498,-0.013028906250000132,0.031039453125000088,0.03594307557937406
15,1788069401.4936984,0.001772314453125022,0.02529140624999987,-0.040811132812499915,0.048045237954065706
16,1788069401.5037138,0.001772314453125022,-0.017818945312500133,0.03582949218750009,0.04005506735713668
17,1788069401.5237138,0.006562353515625022,0.01092128906249987,0.007089257812500088,0.014580693220241928
18,1788069401.5637136,0.001772314453125022,0.02050136718749987,-0.026441015624999915,0.03350484237179668
19,1788069401.5837135,-0.007807763671874979,-0.02260898437500013,0.04061953125000009,0.04713887638663638
20,1788069401.5946946,-0.007807763671874979,0.01092128906249987,-0.016860937499999912,0.021552887085525996
21,1788069401.6146946,-0.0030177246093749783,0.0013412109374998694,0.007089257812500088,0.007820683149763209
22,1788069401.6237526,0.006562353515625022,-0.013028906250000132,0.03582949218750009,0.03868551915315935
23,1788069401.6437526,0.006562353515625022,0.02050136718749987,-0.031231054687499916,0.03793084914834287
24,1788069401.6837025,0.001772314453125022,-0.003448828125000131,0.031039453125000088,0.03128071553298654
25,1788069401.7037024,-0.007807763671874979,-0.00823886718750013,0.01666933593750009,0.02016697465378357
26,1788069401.7127366,0.001772314453125022,0.02050136718749987,-0.021650976562499914,0.029869916993312397
27,1788069401.7327366,-0.01259780273437498,-0.017818945312500133,0.03582949218750009,0.04195201969152649
28,1788069401.7436984,-0.0030177246093749783,0.0013412109374998694,-0.002490820312499913,0.004136386638850242
29,1788069401.7636983,0.001772314453125022,0.0013412109374998694,-0.012070898437499913,0.012273814989157323
30,1788069401.8037946,0.006562353515625022,-0.013028906250000132,0.031039453125000088,0.03429671313747727
31,1788069401.8237946,0.001772314453125022,0.01092128906249987,-0.007280859374999913,0.013244869442390108
32,1788069401.8337936,-0.0030177246093749783,0.0061312499999998694,0.007089257812500088,0.009846647384395325
33,1788069401.8537936,-0.007807763671874979,-0.00823886718750013,0.01666933593750009,0.02016697465378357
34,1788069401.863768,-0.0030177246093749783,0.0013412109374998694,0.0022992187500000872,0.004023917923771384
35,1788069401.883768,-0.0030177246093749783,0.0013412109374998694,0.007089257812500088,0.007820683149763209
36,1788069401.9237297,0.001772314453125022,0.0013412109374998694,0.007089257812500088,0.007429503457951861
37,1788069401.9437296,-0.0030177246093749783,-0.013028906250000132,0.007089257812500088,0.015136599229067717
38,1788069401.953728,-1.032876123046875,-0.22379062500000013,-0.016860937499999912,1.056976641469249
39,1788069401.973728,-0.812534326171875,-0.4058121093750002,0.3567621093750001,0.9757943953562501
40,1788069401.9857519,0.49514633789062507,0.11151210937499988,-0.11266171874999992,0.5199014419440121
41,1788069402.0057518,0.806498876953125,0.2504232421874999,-0.19409238281249994,0.8665010627922999
42,1788069402.0437808,1.2855027832031252,0.16899257812499988,0.13163027343750008,1.303227695366219
43,1788069402.0637808,1.429203955078125,0.4420248046874999,-0.34737363281249994,1.5357989171578847
44,1788069402.0737941,1.0028904785156252,0.2264730468749999,-0.07913144531249992,1.031184337786116
45,1788069402.093794,0.772968603515625,0.06840175781249987,0.1220501953125001,0.7855288108456334
46,1788069402.103786,0.303544775390625,0.14025234374999987,-0.2084624999999999,0.3940390393102733
47,1788069402.123786,-0.477231591796875,-0.22379062500000013,0.1986908203125001,0.563303007379975
48,1788069402.163781,-0.9083351074218751,-0.29085117187500015,0.1555804687500001,0.9663707124145682
49,1788069402.183781,-1.157417138671875,-0.21421054687500013,-0.09829160156249991,1.1811696873106752
50,1788069402.1937404,-1.047246240234375,-0.32917148437500016,0.1891107421875001,1.113930620200999
51,1788069402.2137403,-0.467651513671875,-0.10882968750000013,0.011879296875000087,0.48029465624259027
52,1788069402.2237349,-0.127558740234375,-0.003448828125000131,-0.040811132812499915,0.1339726658205175
53,1788069402.2437348,0.23648422851562503,-0.003448828125000131,0.12684023437500008,0.26837497984791936
54,1788069402.2847695,0.48077622070312503,0.16899257812499988,-0.11266171874999992,0.5219165917334093
55,1788069402.3047695,0.36102524414062503,0.10193203124999987,-0.045601171874999916,0.37790055937762534
56,1788069402.3137403,0.32749497070312505,0.02050136718749987,0.08851992187500009,0.3398662067066297
57,1788069402.3337402,0.284384619140625,0.12588222656249987,-0.12224179687499992,0.33416164272896376
58,1788069402.3758183,0.23648422851562503,0.02050136718749987,0.04540957031250009,0.24167566172279936
59,1788069402.3958182,0.14547348632812504,0.0061312499999998694,0.031039453125000088,0.14887436012060895
60,1788069402.4047375,0.03530258789062502,0.044451562499999875,-0.07913144531249992,0.0973858293475589
61,1788069402.4247375,-0.127558740234375,-0.10403964843750013,0.1220501953125001,0.2049188396243713
62,1788069402.43478,-0.482021630859375,-0.15673007812500014,0.04540957031250009,0.5088921291210604
63,1788069402.4547799,-0.362270654296875,-0.13277988281250014,0.05498964843750009,0.38973630274798243
64,1788069402.4927752,0.04009262695312502,-0.07529941406250014,0.08851992187500009,0.12293574363428404
65,1788069402.5127752,0.729858251953125,0.17378261718749988,-0.09350156249999991,0.7560661400767461
66,1788069402.5237336,0.8975096191406251,0.2216830078124999,-0.11266171874999992,0.9313213920416791
67,1788069402.5437336,0.8256590332031251,0.15462246093749987,-0.040811132812499915,0.8410032658068145
68,1788069402.5527267,0.48077622070312503,0.10193203124999987,-0.045601171874999916,0.49357408791862667
69,1788069402.5727267,0.528676611328125,0.08756191406249987,-0.007280859374999913,0.5359282219410697
70,1788069402.612729,0.31791489257812505,0.07319179687499987,-0.045601171874999916,0.32940307364857013
71,1788069402.632729,0.011352392578125023,-0.04176914062500013,0.05019960937500009,0.06628377408688722
72,1788069402.6437263,-0.429331201171875,-0.13277988281250014,0.031039453125000088,0.4504655649765977
73,1788069402.6637263,-0.740683740234375,-0.21421054687500013,0.0693597656250001,0.7741507208080508
74,1788069402.6737409,-0.855644677734375,-0.26690097656250017,0.1172601562500001,0.9039435215039451
75,1788069402.6937408,-0.371850732421875,-0.12798984375000014,0.05019960937500009,0.39645222674016717
76,1788069402.7337692,0.22690415039062503,-0.00823886718750013,0.031039453125000088,0.22916548616081725
77,1788069402.7537692,0.45203598632812503,0.09235195312499987,-0.040811132812499915,0.4631748749048058
78,1788069402.7647293,0.648427587890625,0.14504238281249987,-0.06476132812499992,0.6675999244832911
79,1788069402.7847292,0.8160789550781251,0.15462246093749987,-0.06955136718749992,0.833504864428171
80,1788069402.793798,0.7585984863281251,0.16420253906249987,-0.13182187499999992,0.7872808546017172
81,1788069402.813798,0.40892563476562505,0.044451562499999875,-0.031231054687499916,0.41251847831831046
82,1788069402.8537555,0.36581528320312506,-0.013028906250000132,0.05019960937500009,0.3694733746895119
83,1788069402.8737555,0.571786962890625,0.11630214843749988,-0.09829160156249991,0.5917159450281736
84,1788069402.8827732,0.404135595703125,0.03008144531249987,-0.007280859374999913,0.4053189904009522
85,1788069402.9027731,0.06883286132812502,-0.08487949218750014,0.0693597656250001,0.12943441613488946
86,1788069402.913848,0.20774399414062503,0.01092128906249987,-0.07913144531249992,0.2225727460708788
87,1788069402.933848,0.11194321289062503,-0.013028906250000132,-0.06476132812499992,0.12998101757895647
88,1788069402.9747484,0.17900375976562502,-0.12319980468750014,0.2034808593750001,0.2976995096019749
89,1788069402.9947484,0.47598618164062506,0.07319179687499987,-0.06955136718749992,0.4865771027496709
90,1788069403.0048122,0.547836767578125,0.12588222656249987,-0.1988824218749999,0.5962597392124062
91,1788069403.0248122,0.7633885253906251,-0.00823886718750013,0.1124701171875001,0.771673147706188
92,1788069403.0337677,0.887929541015625,0.14983242187499987,-0.17014218749999993,0.9164152925505071
93,1788069403.0537677,0.710698095703125,0.17857265624999988,-0.24199277343749992,0.7717126921284904
94,1788069403.1247377,0.46640610351562506,-0.18547031250000015,0.2370111328125001,0.5550749204319542
95,1788069403.1447377,0.432875830078125,-0.04655917968750013,-0.06955136718749992,0.44089299626626993
96,1788069403.1247377,0.6580076660156251,-0.051349218750000133,-0.12703183593749992,0.672121951838517
97,1788069403.1447377,0.8017088378906251,-0.00823886718750013,0.09810000000000009,0.8077304932243612
98,1788069403.153727,0.7777586425781251,-0.00823886718750013,0.2130609375000001,0.8064560422774945
99,1788069403.173727,0.8591893066406251,0.15941249999999987,-0.09829160156249991,0.879363320101293
100,1788069403.2137408,1.2471824707031252,0.5426156249999999,-0.25636289062499995,1.384058439305544
101,1788069403.2337408,1.304662939453125,0.9832992187499999,-0.2515728515624999,1.6529705498949812
102,1788069403.2438016,1.635175634765625,1.5628939453125,-0.6251958984374999,2.3467651676826784
103,1788069403.2638016,1.9177879394531252,1.9844173828125,-0.8599078124999999,2.8905474180367308
104,1788069403.273727,2.0950193847656253,2.36283046875,-1.0467193359375,3.3268146048168243
105,1788069403.293727,1.975268408203125,2.70771328125,-1.1329400390625,3.537930133568764
106,1788069403.3327255,2.0710691894531252,2.688553125,-0.7066265625,3.4665496667839415
107,1788069403.3527255,2.502172705078125,2.6262826171875,-0.8215874999999999,3.719305667935274
108,1788069403.3637428,2.717724462890625,2.372410546875,-0.7305767578125,3.6807744372854057
109,1788069403.3837428,2.621923681640625,2.008367578125,-0.32821347656249994,3.3189980728239132
110,1788069403.3937438,2.712934423828125,1.5341537109374999,0.2082708984375001,3.1236225066276666
111,1788069403.4137437,3.153618017578125,0.9928792968749999,0.9076166015625001,3.4285396008196027
112,1788069403.4547353,3.896074072265625,0.858758203125,1.2908197265625,4.193217666005166
113,1788069403.4747353,3.527241064453125,0.858758203125,1.57343203125,3.9565873597283803
114,1788069403.4867425,4.207426611328125,0.4851351562499999,1.8320941406250002,4.614581644055529
115,1788069403.5067425,5.376196142578125,-0.3148013671875001,2.2105072265625,5.821419677616454
116,1788069403.5137706,5.974951025390625,-0.9183462890625002,2.5122796875000004,6.546369137978429
117,1788069403.5337706,6.305463720703125,-1.3494498046875003,3.3888568359375,7.2845204483860675
118,1788069403.5738618,6.875478369140625,-2.0440054687500004,4.092992578125,8.25849558971771
119,1788069403.5938618,6.703036962890625,-2.9205826171875002,3.7720599609375003,8.227329074408267
120,1788069403.603796,7.177250830078125,-3.7492593750000003,4.7779681640625,9.402066534314534
121,1788069403.623796,6.214452978515625,-3.5863980468750003,5.3336126953125005,8.940307665646031
122,1788069403.6337585,6.578495947265625,-3.528917578125,5.4102533203125,9.219582918513305
123,1788069403.6537585,6.9856492675781245,-4.271373632812501,5.7838763671875,10.024826892850106
124,1788069403.6938183,7.359272314453125,-4.6066763671875,6.143129296875,10.635713126462372
125,1788069403.7138183,7.450283056640625,-4.41986484375,6.8041546875000005,11.015373070055858
126,1788069403.7237825,7.445493017578125,-3.6965689453125004,6.305990625000001,10.433863426595217
127,1788069403.7437825,6.779677587890625,-3.9600210937500004,6.392211328125001,10.12453262734142
128,1788069403.7847867,5.845619970703125,-4.5683560546875,7.230468164062501,10.3595762343739
129,1788069403.8047867,5.773769384765624,-4.5491958984375005,7.038866601562501,10.177290369514344
130,1788069403.8137681,6.065961767578125,-4.6737369140625,7.599301171875,10.788377413144701
131,1788069403.8337681,6.118652197265625,-4.4821353515625,8.020824609375001,11.039070134535129
132,1788069403.8437681,5.582167822265625,-4.2761636718750005,7.9537640625,10.616427652770858
133,1788069403.863768,4.787021337890625,-4.783907812500001,8.614789453125,10.955178892633038
134,1788069403.9037728,4.250536962890625,-5.119210546875,8.787230859375,11.02219611838258
135,1788069403.9237728,4.2649070800781255,-4.76474765625,8.6674798828125,10.771140150810396
136,1788069403.9337826,4.1786863769531255,-5.2868619140625,9.6398578125,11.761768038033889
137,1788069403.9537826,3.972714697265625,-4.640206640625,8.7345404296875,10.658619809872954
138,1788069403.9638226,3.948764501953125,-5.401822851562501,9.419516015625,11.554207596376473
139,1788069403.9838226,4.006244970703126,-5.895196875000001,9.5201068359375,11.892677542419024
140,1788069404.0248182,3.8912840332031253,-6.14427890625,9.548847070312501,12.003113557617704
141,1788069404.0448182,3.9870848144531252,-6.2448697265625,10.0470111328125,12.483496141796088
142,1788069404.0548851,4.039775244140626,-6.4652115234375005,10.243402734375001,12.76894841576869
143,1788069404.0748851,3.603881689453125,-6.594542578125001,10.1140716796875,12.600412730864644
144,1788069404.0847688,3.263788916015625,-6.9154751953125,10.549965234375001,13.029884178756545
145,1788069404.1047688,3.0194969238281253,-6.8244644531250005,10.2529828125,12.68125913694672
146,1788069404.1458263,2.6841941894531254,-7.059176367187501,10.1428119140625,12.645691082491327
147,1788069404.1658263,2.597973486328125,-7.9213833984375,10.818207421875,13.657649614901405
148,1788069404.174769,2.597973486328125,-8.433917578125001,10.684086328125,13.857493735055318
149,1788069404.194769,2.7895750488281252,-8.884181250000001,10.837367578125,14.288419837731917
150,1788069404.2037876,3.0099168457031253,-9.6074771484375,11.6181439453125,15.373499449045351
151,1788069404.2237875,3.407490087890625,-9.506886328125,11.028969140625001,14.954264831807063
152,1788069404.2657828,3.656572119140625,-9.751178320312501,11.3307416015625,15.389662229509401
153,1788069404.2857828,3.6948924316406253,-9.775128515625001,11.507973046875001,15.544735804315934
154,1788069404.2957735,3.551191259765625,-9.823028906250002,11.254100976562501,15.354401487753403
155,1788069404.3157735,3.134457861328125,-9.885299414062501,11.3403216796875,15.36707084609479
156,1788069404.3237672,3.0530271972656253,-9.789498632812501,11.306791406250001,15.264297902410393
157,1788069404.3437672,3.1057176269531253,-9.6745376953125,11.158300195312501,15.09138246964475
158,1788069404.3827846,2.971596533203125,-9.6074771484375,11.014599023437501,14.914938644225257
159,1788069404.4027846,2.602763525390625,-9.803868750000001,10.856527734375002,14.857806530022662
160,1788069404.4138355,2.3009910644531253,-10.268502539062501,11.052919335937501,15.26118377191518
161,1788069404.4338355,1.9177879394531252,-10.273292578125002,10.7846771484375,15.01758010374841
162,1788069404.4447744,1.304662939453125,-10.594225195312502,10.6984564453125,15.112799978390015
163,1788069404.4647744,0.514306494140625,-11.782154882812502,11.5510833984375,16.507913633471556
164,1788069404.5047724,0.432875830078125,-12.270738867187502,11.2636810546875,16.662200476908744
165,1788069404.5247724,0.05925278320312503,-12.970084570312501,12.4611908203125,17.986324841768432
166,1788069404.533863,0.37060532226562504,-12.783273046875001,11.943866601562501,17.498724739013774
167,1788069404.553863,0.07841293945312502,-13.056305273437502,12.1258880859375,17.818822010866672
168,1788069404.5638413,0.33707504882812506,-12.663522070312501,11.7905853515625,17.305961797782707
169,1788069404.5838413,0.40892563476562505,-12.519820898437501,11.661254296875,17.114262685845
170,1788069404.6247725,-0.007807763671874979,-12.337799414062502,11.666044335937501,16.979927732204104
171,1788069404.6447725,-0.02696791992187498,-12.002496679687502,11.704364648437501,16.764629600388073
172,1788069404.65377,0.14547348632812504,-11.379791601562502,11.239730859375001,15.99538587285107
173,1788069404.67377,0.45682602539062506,-10.963058203125001,10.8229974609375,15.412157837955078
174,1788069404.6847684,0.5382566894531251,-10.982218359375002,11.028969140625001,15.573599476729616
175,1788069404.7047684,0.854399267578125,-11.255250585937501,11.1774603515625,15.885411035646392
176,1788069404.74478,1.180121923828125,-11.667193945312501,11.2349408203125,16.240073815982505
177,1788069404.76478,1.060370947265625,-11.940226171875002,11.560663476562501,16.6535980376512
178,1788069404.7737794,0.9358299316406251,-11.767784765625002,11.450492578125,16.44598176554766
179,1788069404.7937794,1.0843211425781252,-11.700724218750002,11.2062005859375,16.237660889295316
180,1788069404.8047698,1.2088621582031251,-12.088717382812503,11.345111718750001,16.62257487845873
181,1788069404.8247697,1.189702001953125,-12.165358007812502,11.3115814453125,16.654224722443164
182,1788069404.8638709,1.2088621582031251,-12.165358007812502,11.464862695312501,16.760082332678188
183,1788069404.8838708,1.1753318847656251,-12.117457617187501,11.6181439453125,16.8284120723758
184,1788069404.8937793,1.2807127441406252,-11.897115820312502,11.4025921875,16.528783941033602
185,1788069404.9137793,1.472314306640625,-12.136617773437502,11.5798236328125,16.839166124339428
186,1788069404.924769,1.496264501953125,-12.385699804687501,11.6181439453125,17.047745770207936
187,1788069404.944769,1.4052537597656252,-12.409650000000003,11.670834375,17.0933474270114
188,1788069404.9844506,1.299872900390625,-12.361749609375002,11.694784570312502,17.066649029849778
189,1788069405.0044506,1.199282080078125,-12.251578710937501,11.5223431640625,16.861312238622215
190,1788069405.0154748,1.065160986328125,-12.189308203125002,11.4457025390625,16.754638432692833
191,1788069405.0354748,1.0460008300781252,-12.222838476562503,11.321161523437501,16.693130215763087
192,1788069405.04646,1.160961767578125,-12.519820898437501,11.469652734375,17.01900941306181
193,1788069405.06646,1.232812353515625,-12.500660742187502,11.4025921875,16.964829910278635
194,1788069405.1035285,1.1274314941406252,-12.371329687500001,11.3020013671875,16.79452693334073
195,1788069405.1235285,0.830449072265625,-12.342589453125003,11.306791406250001,16.759256904005866
196,1788069405.1354663,0.7969187988281251,-12.246788671875002,11.292421289062501,16.677460565540652
197,1788069405.1554663,0.9022996582031251,-12.261158789062502,11.426542382812501,16.784398420855258
198,1788069405.1944845,0.9022996582031251,-12.112667578125002,11.2636810546875,16.56506478807373
199,1788069405.2144845,0.873559423828125,-12.117457617187501,11.3499017578125,16.625767804323793
200,1788069405.2275553,0.9406199707031251,-12.088717382812503,11.364271875,16.618319082858974
201,1788069405.2475553,0.931039892578125,-12.103087500000003,11.3786419921875,16.638060460901112
202,1788069405.2555497,0.9214598144531251,-12.155777929687503,11.4361224609375,16.71517042112012
203,1788069405.2755497,0.9933104003906251,-12.026446875000001,11.3020013671875,16.533521249045215
204,1788069405.3135424,1.041210791015625,-11.964176367187502,11.258891015625,16.46172114203787
205,1788069405.3335423,1.036420751953125,-12.002496679687502,11.426542382812501,16.604215288510293
206,1788069405.3436053,1.180121923828125,-11.925856054687502,11.3690619140625,16.51890732457849
207,1788069405.3636053,1.228022314453125,-11.964176367187502,11.412172265625001,16.579723482925257
208,1788069405.3755498,1.137011572265625,-11.901905859375002,11.3020013671875,16.452458579336984
209,1788069405.3955498,1.079531103515625,-11.954596289062502,11.2828412109375,16.473623330316688
210,1788069405.435551,1.0891111816406251,-12.218048437500002,11.431332421875,16.76729649426172
211,1788069405.455551,1.0939012207031251,-12.280318945312501,11.388222070312501,16.783755694182684
212,1788069405.4655502,1.1322215332031251,-12.361749609375002,11.46007265625,16.89461583735069
213,1788069405.4855502,1.137011572265625,-12.409650000000003,11.3690619140625,16.868544016712068
214,1788069405.4945793,1.079531103515625,-12.538981054687502,11.412172265625001,16.98908794236966
215,1788069405.5145793,1.060370947265625,-12.515030859375003,11.373851953125001,16.94446494311694
216,1788069405.553985,1.041210791015625,-12.356959570312501,11.2445208984375,16.739707881831833
217,1788069405.573985,0.950200048828125,-12.347379492187502,11.215780664062502,16.707914183441442
218,1788069405.58494,0.8448191894531251,-12.299479101562502,11.1966205078125,16.653985001452607
219,1788069405.60494,0.873559423828125,-12.294689062500002,11.143930078125,16.616547860390714
220,1788069405.613924,0.8639793457031251,-12.256368750000002,11.086449609375,16.549151041276687
221,1788069405.633924,0.8975096191406251,-12.170148046875001,11.096029687500002,16.493632159872693
222,1788069405.6749835,0.9549900878906251,-12.079137304687501,11.119979882812501,16.44601826241286
223,1788069405.6949835,0.868769384765625,-12.055187109375002,11.067289453125001,16.38801978047376
224,1788069405.7040305,0.7825486816406251,-12.074347265625002,11.086449609375,16.41071629366782
225,1788069405.7240305,0.931039892578125,-12.261158789062502,11.2493109375,16.665828713290367
226,1788069405.7339215,1.156171728515625,-12.318639257812501,11.2062005859375,16.693248269950463
227,1788069405.7539215,1.2902928222656251,-12.529400976562503,11.297211328125,16.919743738927945
228,1788069405.794923,1.228022314453125,-12.658732031250002,11.2732611328125,16.995233214415464
229,1788069405.814923,1.0939012207031251,-12.744952734375001,11.316371484375,17.078954993045805
230,1788069405.8259969,1.036420751953125,-12.697052343750002,11.335531640625002,17.052377657400655
231,1788069405.8459969,1.113061376953125,-12.653941992187502,11.3499017578125,17.034712309942492
232,1788069405.8549888,1.189702001953125,-12.673102148437502,11.426542382812501,17.10522667912919
233,1788069405.8749888,1.256762548828125,-12.668312109375002,11.507973046875001,17.160973965724548
234,1788069405.913974,1.3717234863281251,-12.534191015625002,11.5558734375,17.103385063859047
235,1788069405.933974,1.4531541503906251,-12.333009375000001,11.46007265625,16.898166838895996
236,1788069405.9430149,1.3334031738281251,-12.246788671875002,11.412172265625001,16.79283992116406
237,1788069405.9630148,1.228022314453125,-12.251578710937501,11.354691796875,16.749275969937095
238,1788069405.9739208,1.314243017578125,-12.337799414062502,11.373851953125001,16.83190533904285
239,1788069405.9939208,1.4483641113281251,-12.304269140625001,11.3115814453125,16.776312839174704
240,1788069406.0339413,1.4914744628906251,-12.261158789062502,11.3403216796875,16.76792791977738
241,1788069406.0539412,1.4818943847656252,-12.246788671875002,11.364271875,16.772791031610744
242,1788069406.0649297,1.4052537597656252,-12.237208593750001,11.23015078125,16.668542193782102
243,1788069406.0849297,1.319033056640625,-12.285108984375002,11.15351015625,16.645255773584676
244,1788069406.0939386,1.271132666015625,-12.342589453125003,11.1678802734375,16.693616817958862
245,1788069406.1139386,1.1705418457031251,-12.366539648437502,11.148720117187501,16.691178249012264
246,1788069406.1539211,1.0076805175781252,-12.433600195312502,11.172670312500001,16.746294985882713
247,1788069406.173921,0.8256590332031251,-12.424020117187501,11.0912396484375,16.67493884997668
248,1788069406.183971,0.7202781738281251,-12.529400976562503,11.0624994140625,16.729721538785746
249,1788069406.203971,0.691537939453125,-12.572511328125001,11.0720794921875,16.767146748891225
250,1788069406.2132833,0.614897314453125,-12.634781835937503,11.124769921875,16.845661654079148
251,1788069406.2332833,0.667587744140625,-12.610831640625001,11.258891015625,16.918669420673623
252,1788069406.274298,0.6005271972656251,-12.601251562500002,11.3403216796875,16.963344884039078
253,1788069406.294298,0.413715673828125,-12.457550390625002,11.134350000000001,16.7133321727366
254,1788069406.3032918,0.432875830078125,-12.663522070312501,11.440912500000001,17.0718086781165
255,1788069406.3232918,0.6196873535156251,-12.701842382812503,11.292421289062501,17.007045331379324
256,1788069406.334289,0.629267431640625,-12.711422460937502,11.278051171875001,17.005019162482032
257,1788069406.354289,0.8208689941406251,-12.883863867187502,11.440912500000001,17.249992837285973
258,1788069406.3952951,0.7777586425781251,-12.879073828125001,11.07686953125,17.005072472316428
259,1788069406.4152951,0.41850571289062505,-12.352169531250002,11.081659570312501,16.599831866400383
260,1788069406.4233522,0.48077622070312503,-12.797643164062501,11.757055078125001,17.385026903606853
261,1788069406.4433522,0.7059080566406251,-12.208468359375003,11.1008197265625,16.51584707085682
262,1788069406.4553006,0.672377783203125,-12.486290625000002,11.531923242187501,17.010138127570052
263,1788069406.4753006,1.0507908691406251,-12.218048437500002,10.990648828125,16.467520479262536
264,1788069406.5158048,0.792128759765625,-12.620411718750002,11.670834375,17.207865496089045
265,1788069406.5358047,0.931039892578125,-12.208468359375003,11.0912396484375,16.520566936473593
266,1788069406.5438063,0.9406199707031251,-12.500660742187502,11.4457025390625,16.97514039804252
267,1788069406.5638063,0.7777586425781251,-12.083927343750002,11.306791406250001,16.56712831059091
268,1788069406.6056118,0.22690415039062503,-12.208468359375003,10.9283783203125,16.38681292647235
269,1788069406.6256118,1.390883642578125,-11.691144140625001,11.143930078125,16.211248755422908
270,1788069406.6346111,0.907089697265625,-12.103087500000003,12.5522015625,17.460392401580474
271,1788069406.654611,1.429203955078125,-12.222838476562503,11.972606835937501,17.16926669422096
272,1788069406.663994,1.189702001953125,-12.198888281250001,11.254100976562501,16.63980333244762
273,1788069406.683994,1.0507908691406251,-12.352169531250002,11.479232812500001,16.895355561306985
274,1788069406.724563,0.969360205078125,-12.974874609375002,12.0875677734375,17.75940103195032
275,1788069406.7445629,2.248300634765625,-12.596461523437501,11.1678802734375,16.983734820632456
276,1788069406.754477,2.0614891113281253,-12.337799414062502,11.5894037109375,17.05242827613878
277,1788069406.774477,2.013588720703125,-11.863585546875003,11.048129296875,16.33586124220673
278,1788069406.7835677,2.7704148925781253,-11.456432226562502,10.482904687500001,15.773912917410442
279,1788069406.8035676,1.9704783691406251,-11.250460546875003,11.464862695312501,16.183285332169433
280,1788069406.8455973,1.1322215332031251,-11.092389257812501,10.9283783203125,15.612574347587886
281,1788069406.8655972,0.24606430664062504,-10.508004492187501,10.2481927734375,14.680059985312452
282,1788069406.8755825,-0.582612451171875,-10.848097265625002,11.6756244140625,15.948067500828225
283,1788069406.8955824,-0.7502638183593751,-10.316402929687502,10.693666406250001,14.87768686365471
284,1788069406.9055862,0.509516455078125,-11.533072851562501,11.278051171875001,16.13895333201241
285,1788069406.9255862,0.950200048828125,-11.561813085937501,10.3152533203125,15.523622419692083
286,1788069406.9666493,0.7059080566406251,-12.697052343750002,11.627724023437501,17.23129160479803
287,1788069406.9866493,0.8448191894531251,-12.098297460937502,10.6218158203125,16.12158466891006
288,1788069406.9945939,0.03530258789062502,-12.821593359375003,10.990648828125,16.88753576484877
289,1788069407.0145938,-0.740683740234375,-13.774811132812502,11.824115625000001,18.168757372508225
290,1788069407.0265617,0.13589340820312504,-12.534191015625002,11.3307416015625,16.897044613657936
291,1788069407.0465617,1.8794676269531252,-13.525729101562503,11.9151263671875,18.12313390767906
292,1788069407.0835946,1.218442236328125,-14.249025000000001,12.1689984375,18.777748478072944
293,1788069407.1035945,0.21732407226562503,-13.530519140625001,11.76663515625,17.932536933393003
294,1788069407.1145647,-0.15150893554687497,-12.265948828125001,11.666044335937501,16.928468508987784
295,1788069407.1345646,0.41850571289062505,-10.167911718750002,10.430214257812501,14.572266303354839
296,1788069407.1435635,0.16463364257812502,-9.272174414062501,11.254100976562501,14.582699043446274
297,1788069407.1635635,-0.400590966796875,-9.4350357421875,11.278051171875001,14.709684252711407
298,1788069407.205577,-0.09402846679687499,-10.206232031250002,10.7128265625,14.79664376088332
299,1788069407.2255769,0.514306494140625,-10.953478125000002,11.239730859375001,15.702698621445789
300,1788069407.234565,0.590947119140625,-10.982218359375002,10.655346093750001,15.313221051372809
301,1788069407.254565,0.22690415039062503,-12.309059179687502,12.0875677734375,17.25322341071252
302,1788069407.2635856,0.33707504882812506,-12.495870703125002,11.49839296875,16.984506029954467
303,1788069407.2835855,0.32749497070312505,-12.960504492187502,12.293539453125002,17.86653413321647
304,1788069407.324562,-0.525131982421875,-11.815685156250002,11.4361224609375,16.452084252524
305,1788069407.344562,-1.880713037109375,-11.020538671875002,11.278051171875001,15.880295727148052
306,1788069407.3559794,0.787338720703125,-9.846979101562502,10.032641015625,14.079658569586414
307,1788069407.3759794,1.433993994140625,-11.192980078125002,11.747475000000001,16.28933119192312
308,1788069407.3849838,1.381303564453125,-11.010958593750003,11.699574609375,16.125422621772742
309,1788069407.4049838,1.592065283203125,-10.790616796875002,11.187040429687501,15.624402590129463
310,1788069407.4450614,1.663915869140625,-11.537862890625002,11.6085638671875,16.45143310356307
311,1788069407.4650614,-0.17545913085937498,-14.153224218750003,13.543739648437501,19.590238011761663
312,1788069407.4770086,1.620805517578125,-14.129274023437501,12.264799218750001,18.78000784961093
313,1788069407.4970086,2.473432470703125,-13.817921484375002,12.590521875,18.856671589130844
314,1788069407.5039718,2.305781103515625,-12.629991796875002,11.560663476562501,17.276639120638766
315,1788069407.5239718,2.186030126953125,-10.713976171875002,10.799047265625001,15.368390773683979
316,1788069407.5635147,1.9608982910156252,-9.406295507812501,10.435004296875,14.184950897475865
317,1788069407.5835147,1.4148338378906251,-9.411085546875,10.401474023437501,14.098260453676012
318,1788069407.5946732,0.5238865722656251,-10.258922460937502,11.469652734375,15.39717120276592
319,1788069407.6146731,3.3883299316406252,-7.0016958984375,10.914008203125,13.402242358565529
320,1788069407.6256964,0.566996923828125,-9.545206640625,9.0267328125,13.149690513168983
321,1788069407.6456964,-1.751381982421875,-13.626319921875002,12.0588275390625,18.280023388346407
322,1788069407.685862,-2.029204248046875,-12.356959570312501,10.3727337890625,16.260557369333565
323,1788069407.705862,-1.8950831542968751,-12.428810156250002,10.9666986328125,16.683379183029274
324,1788069407.7140794,-1.3729688964843751,-12.936554296875002,12.1354681640625,17.790701735111043
325,1788069407.7340794,-1.502299951171875,-12.615621679687502,12.145048242187501,17.575921378788482
326,1788069407.7441454,-0.472441552734375,-13.046725195312503,12.6719525390625,18.193917128947373
327,1788069407.7641454,-0.01738784179687498,-13.257486914062502,12.580941796875,18.27679835501659
328,1788069407.8043401,0.12631333007812504,-12.831173437500002,12.7390130859375,18.0814109306837
329,1788069407.82434,0.19816391601562502,-12.337799414062502,12.504301171875001,17.567530023204917
330,1788069407.833333,-0.141928857421875,-12.457550390625002,12.3749701171875,17.559914320315286
331,1788069407.853333,-0.654463037109375,-11.724674414062502,11.6085638671875,16.51227019647164
332,1788069407.8632052,-0.846064599609375,-12.055187109375002,11.833695703125,16.913891200516588
333,1788069407.8832052,-0.38622084960937497,-11.489962500000003,10.7176166015625,15.717369704062046
334,1788069407.924202,-0.673623193359375,-10.737926367187502,10.77030703125,15.223545724343113
335,1788069407.944202,-0.745473779296875,-10.843307226562501,11.292421289062501,15.673283680675015
336,1788069407.9541879,0.030512548828125024,-9.3200748046875,9.994320703125,13.6656932388196
337,1788069407.9741879,-1.904663232421875,-11.298360937500002,12.437240625000001,16.910519101054113
338,1788069408.0152035,-1.698691552734375,-10.541534765625002,10.109281640625001,14.703981892524535
339,1788069408.0352035,2.133339697265625,-9.655377539062501,10.032641015625,14.086565920555763
340,1788069408.0462358,3.637411962890625,-10.819357031250002,13.380878320312501,17.587983311922027
341,1788069408.0662358,3.517660986328125,-8.6303091796875,10.679296289062501,14.17404475022276
342,1788069408.0742295,2.511752783203125,-9.870929296875001,11.757055078125001,15.555464999089507
343,1788069408.0942295,1.663915869140625,-10.201441992187501,11.6852044921875,15.600706354642519
344,1788069408.1342595,0.06404282226562502,-10.450524023437502,11.613353906250001,15.6233012772378
345,1788069408.1542594,-0.410171044921875,-10.426573828125,11.488812890625,15.520132206757284
346,1788069408.1641965,-0.18503920898437498,-10.761876562500001,11.565453515625,15.799112053448797
347,1788069408.1841965,-1.1765772949218751,-12.725792578125002,12.542621484375001,17.906632418539573
348,1788069408.1942046,0.322704931640625,-11.719884375000001,11.5798236328125,16.47883926747625
349,1788069408.2142045,1.390883642578125,-12.831173437500002,13.3521380859375,18.570222415370793
350,1788069408.2542155,-0.774214013671875,-11.307941015625001,12.212108789062501,16.66146867559153
351,1788069408.2742155,-0.18982924804687498,-8.687789648437501,10.4781146484375,13.612663615351419
352,1788069408.2852361,0.8208689941406251,-9.20990390625,11.1966205078125,14.521035316528499
353,1788069408.305236,1.7261863769531252,-6.4700015625,7.541820703125,10.085618431450591
354,1788069408.315191,0.6963279785156251,-9.909249609375001,10.88526796875,14.736592524259366
355,1788069408.335191,-0.07965834960937498,-9.74638828125,11.0912396484375,14.765298064062975
356,1788069408.3742862,-1.037666162109375,-12.021656835937502,13.2180169921875,17.897289106196702
357,1788069408.3942862,0.6627977050781251,-12.069557226562502,11.3115814453125,16.554920333153582
358,1788069408.4042702,1.1274314941406252,-13.300597265625003,12.2312689453125,18.104721191139546
359,1788069408.4242702,0.6580076660156251,-12.304269140625001,11.440912500000001,16.814353749286006
360,1788069408.4342499,-0.429331201171875,-11.494752539062501,11.464862695312501,16.240589208429345
361,1788069408.4542499,-1.104726708984375,-10.057740820312501,11.3259515625,15.187354947660243
362,1788069408.4942274,-1.305908349609375,-8.539298437500001,9.8458294921875,13.098296561442583
363,1788069408.5142274,-1.205317529296875,-9.363185156250001,11.3307416015625,14.748143335960288
364,1788069408.5232124,-1.5358302246093751,-9.7128580078125,11.670834375,15.261283044601223
365,1788069408.5432124,-0.06528823242187498,-9.449405859375,11.7235248046875,15.057774320748948
366,1788069408.5532887,-1.008925927734375,-9.6649576171875,12.317489648437501,15.689164684872498
367,1788069408.5732887,-2.211225732421875,-9.909249609375001,11.776215234375,15.548697447276705
368,1788069408.6162956,-2.2639161621093753,-10.900787695312502,12.0205072265625,16.38429378249724
369,1788069408.6362956,-1.147837060546875,-11.154659765625002,12.20731875,16.575964390300786
370,1788069408.6445494,-0.7694239746093751,-11.020538671875002,11.575033593750002,16.000802747594797
371,1788069408.6645494,-0.232939599609375,-11.322311132812501,11.172670312500001,15.908411364969632
372,1788069408.6746213,0.19337387695312502,-11.274410742187502,10.775097070312501,15.596552436820705
373,1788069408.6946213,-0.261679833984375,-10.804986914062502,10.530805078125,15.090197949067443
374,1788069408.7335715,-0.501181787109375,-11.360631445312501,10.703246484375,15.616485370442325
375,1788069408.7535715,-0.635302880859375,-12.462340429687503,11.143930078125,16.73023360034136
376,1788069408.7655866,-1.832812646484375,-13.631109960937502,11.7522650390625,18.090939569647933
377,1788069408.7855866,-6.632431787109375,-12.127037695312502,11.9917669921875,18.299089328955876
378,1788069408.795588,-6.661172021484376,-12.534191015625002,12.370180078125001,18.828130875931937
379,1788069408.815588,-2.0675245605468753,-10.086481054687502,7.8819134765625005,12.966738908725354
380,1788069408.8555887,-4.333213037109375,-9.641007421875,10.06138125,14.59305149691027
381,1788069408.8755887,-5.688794091796876,-8.146515234375,9.0794232421875,13.459718239753075
382,1788069408.8856122,-3.5907569824218752,-7.193297460937501,5.894047265625001,9.968794171702157
383,1788069408.9056122,-2.1106349121093753,-11.552233007812502,12.1546283203125,16.90100165090668
384,1788069408.9145756,-1.952563623046875,-11.695934179687502,10.8517376953125,16.073816971879907
385,1788069408.9345756,-1.210107568359375,-12.912604101562502,11.292421289062501,17.196467183126927
386,1788069408.9756277,0.06883286132812502,-13.731700781250002,12.427660546875,18.52055860326394
387,1788069408.9956276,0.931039892578125,-13.065885351562502,11.986976953125001,17.755895127435775
388,1788069409.0055764,0.7011180175781251,-12.687472265625003,11.7091546875,17.279115210605536
389,1788069409.0255764,0.016142431640625024,-11.758204687500001,11.335531640625002,16.33248038807507
390,1788069409.0346744,-0.683203271484375,-10.924737890625002,11.4361224609375,15.830399920108897
391,1788069409.0546744,-1.262797998046875,-10.575065039062501,11.23015078125,15.477174998489975
392,1788069409.094571,-1.2915382324218752,-11.442062109375001,12.264799218750001,16.823024585277558
393,1788069409.114571,-0.721523583984375,-11.255250585937501,11.651674218750001,16.21612697700581
394,1788069409.1256433,-0.673623193359375,-11.724674414062502,11.464862695312501,16.41233788784437
395,1788069409.1456432,1.108271337890625,-12.380909765625002,11.6564642578125,17.04078492841802
396,1788069409.1536052,2.176450048828125,-11.394161718750002,10.549965234375001,15.680102759057197
397,1788069409.1736052,0.423295751953125,-11.422901953125002,10.990648828125,15.857371471574158
398,1788069409.2155902,-1.066406396484375,-10.982218359375002,9.6638080078125,14.66749903382704
399,1788069409.2355902,-1.962143701171875,-12.515030859375003,10.933168359375001,16.733504584802184
400,1788069409.2448401,-3.083012841796875,-12.855123632812502,10.348783593750001,16.78858224114973
401,1788069409.2648401,-5.597783349609376,-11.705514257812501,8.4088177734375,15.46164476425112
402,1788069409.2758696,-7.4179981933593755,-12.869493750000002,10.5547552734375,18.22233315083798
403,1788069409.2958696,-7.623969873046876,-12.998824804687501,10.0853314453125,18.133071259163312
404,1788069409.3340864,-7.001264794921876,-12.543771093750001,8.231586328125001,16.55665773815431
405,1788069409.3540864,-5.7750147949218755,-12.313849218750002,7.843593164062501,15.700434140080477
406,1788069409.365062,-4.946338037109376,-12.639571875000001,8.4902484375,16.009664446549692
407,1788069409.385062,-4.213462060546875,-13.085045507812502,9.8458294921875,16.908933640724396
408,1788069409.422968,-3.585966943359375,-13.942462500000001,11.143930078125,18.205455145887225
409,1788069409.442968,-4.371533349609376,-13.717330664062501,10.19550234375,17.641534298790116
410,1788069409.452974,-4.481704248046875,-13.080255468750002,9.0219427734375,16.509821546640254
411,1788069409.472974,-3.3847853027343753,-13.444298437500002,9.381195703125,16.73955688907274
412,1788069409.4834037,-1.6507911621093752,-13.975992773437502,10.693666406250001,17.675066808140656
413,1788069409.5034037,-1.3777589355468751,-15.068121679687502,11.72831484375,19.14418657745673
414,1788069409.5446622,-0.994555810546875,-14.383146093750002,10.3535736328125,17.749944219194568
415,1788069409.5646622,-1.032876123046875,-14.215494726562502,10.837367578125,17.905185266561237
416,1788069409.5749102,-1.363388818359375,-12.979664648437502,10.573915429687501,16.79697029139806
417,1788069409.5949101,-1.5358302246093751,-13.262276953125001,11.187040429687501,17.418284589352563
418,1788069409.6058977,-2.292656396484375,-13.568839453125001,11.76663515625,18.10589352551596
419,1788069409.6258976,-1.210107568359375,-13.458668554687502,11.872016015625,17.987353442549335
420,1788069409.664386,-1.9717237792968751,-12.347379492187502,11.3020013671875,16.85469400166747
421,1788069409.684386,-1.751381982421875,-12.491080664062501,11.565453515625,17.112981915100324
422,1788069409.6937559,-1.6939015136718751,-11.087599218750002,9.7021283203125,14.830220926117567
423,1788069409.7137558,-1.4975099121093751,-11.432482031250002,11.0193890625,15.949016165345894
424,1788069409.7243066,-1.238847802734375,-10.833727148437502,10.588285546875001,15.199216382014356
425,1788069409.7443066,-0.961025537109375,-10.215812109375001,9.8649896484375,14.233917517704265
426,1788069409.7859986,-0.659253076171875,-10.349933203125001,11.1008197265625,15.191574326883655
427,1788069409.8059986,-0.539502099609375,-9.43982578125,10.559545312500001,14.174109160810632
428,1788069409.8158445,-0.03654799804687498,-8.836280859375,10.281723046875001,13.5571023450647
429,1788069409.8358445,0.06883286132812502,-9.578736914062501,11.2349408203125,14.764174005597006
430,1788069409.8460023,0.37060532226562504,-9.1476333984375,11.84327578125,14.969292779815738
431,1788069409.8660023,8.973515478515624,-5.248541601562501,10.952328515625,15.100485717375593
432,1788069409.9060354,0.303544775390625,-9.789498632812501,8.20284609375,12.775488521002021
433,1788069409.9260354,-3.4949562011718753,-13.755650976562501,15.02386171875,20.667585093117104
434,1788069409.9357316,-4.141611474609375,-8.989562109375,9.0602630859375,13.418403023882107
435,1788069409.9557316,-4.606245263671875,-11.992916601562502,13.304237695312501,18.494601501370802
436,1788069409.9654408,-1.8855030761718752,-9.286544531250001,9.4626263671875,13.391651464480958
437,1788069409.9854407,-2.790820458984375,-9.55478671875,10.27214296875,14.303829880333701
438,1788069410.02536,-4.213462060546875,-8.7309,8.384867578125,12.817483436632937
439,1788069410.04536,-3.9500099121093752,-10.575065039062501,10.4589544921875,15.38909704809913
440,1788069410.0548027,-3.7344581542968753,-11.169029882812502,10.5643353515625,15.82082765374891
441,1788069410.0748026,-3.796728662109375,-11.293570898437501,10.229032617187501,15.7032799266651
442,1788069410.090624,-3.978750146484375,-11.739044531250002,11.0720794921875,16.620065087602367
443,1788069410.110624,-2.968051904296875,-11.370211523437503,10.444584375,15.7219714082174
444,1788069410.1462655,-3.020742333984375,-12.835963476562501,11.867225976562501,17.740290161064777
445,1788069410.1662655,-2.647119287109375,-12.366539648437502,11.3499017578125,16.992904793135235
446,1788069410.1762137,-2.0244142089843753,-12.170148046875001,11.3786419921875,16.7834516699863
447,1788069410.1962137,-2.484257958984375,-12.289899023437501,11.603773828125,17.083931709865443
448,1788069410.2072012,-3.0159522949218753,-11.748624609375002,10.827787500000001,16.259370547546197
449,1788069410.2272012,-3.4614259277343753,-11.945016210937501,11.651674218750001,17.04190112143111
450,1788069410.2662008,-3.4278956542968753,-11.983336523437503,11.666044335937501,17.071830988466296
451,1788069410.2862008,-2.627959130859375,-11.600133398437501,10.8900580078125,16.126457375026092
452,1788069410.2942514,-2.134585107421875,-10.699606054687502,10.976278710937502,15.476327653759226
453,1788069410.3142514,-0.913125146484375,-8.8410708984375,9.601537500000001,13.083877656423072
454,1788069410.323195,-0.721523583984375,-10.752296484375002,10.7128265625,15.195299566917207
455,1788069410.343195,-0.06049819335937498,-10.378673437500002,10.348783593750001,14.656665522005236
456,1788069410.3831587,-0.18503920898437498,-10.148751562500001,9.62069765625,13.985321633025892
457,1788069410.4031587,-1.4543995605468751,-11.504332617187503,10.291303125,15.50405969606793
458,1788069410.4131594,-2.8626710449218753,-12.452760351562501,10.8613177734375,16.770043221783016
459,1788069410.4331594,-3.317724755859375,-11.485172460937502,9.917680078125,15.533089265988169
460,1788069410.4431727,-2.541738427734375,-10.819357031250002,9.23749453125,14.451651325006223
461,1788069410.4631727,-3.030322412109375,-12.194098242187502,9.764398828125001,15.912962336917085
462,1788069410.5032325,-4.467334130859375,-13.429928320312502,9.956000390625,17.304392295125478
463,1788069410.5232325,-4.256572412109375,-15.369894140625002,10.813417382812501,19.26868054871586
464,1788069410.533178,-1.593310693359375,-13.832291601562503,9.735658593750001,16.989819839253393
465,1788069410.553178,-3.4710060058593752,-15.082491796875003,10.2194525390625,18.546337959113778
466,1788069410.5631788,-4.251782373046876,-13.487408789062503,8.1836859375,16.33892789367368
467,1788069410.5831788,-3.336884912109375,-14.210704687500002,10.4493744140625,17.9518342872605
468,1788069410.6232085,-3.499746240234375,-13.559259375000002,10.3152533203125,17.39270506869987
469,1788069410.6432085,-2.321396630859375,-13.468248632812502,9.400355859375,16.58762471952832
470,1788069410.6531787,-0.8700147949218751,-15.542335546875002,12.2983294921875,19.838599453929355
471,1788069410.6731787,-1.349018701171875,-14.637018164062502,11.637304101562501,18.748039869369023
472,1788069410.6832573,-3.356045068359375,-14.493316992187502,11.0241791015625,18.51625774286526
473,1788069410.7032573,-6.675542138671876,-15.527965429687502,10.0661712890625,19.672528501733076
474,1788069410.743179,-5.291220849609376,-14.086163671875003,10.8996380859375,18.58007361327213
475,1788069410.763179,5.1223240722656245,-4.38154453125,7.058026757812501,9.759706865200199
476,1788069410.7731776,-1.195737451171875,-9.755968359375,8.164525781250001,12.777644067431096
477,1788069410.7931776,-8.337685693359376,-16.5913541015625,13.37608828125,22.884706057812455
478,1788069410.833177,-1.004135888671875,-10.967848242187502,7.417279687500001,13.278479653528654
479,1788069410.853177,-1.195737451171875,-13.837081640625001,13.4718890625,19.349067452819625
480,1788069410.8631775,-0.994555810546875,-12.203678320312502,10.2386126953125,15.96083004516282
481,1788069410.8831775,-0.903545068359375,-10.919947851562501,8.6099994140625,13.935341570322473
482,1788069410.8931775,-1.708271630859375,-11.743834570312503,11.8193255859375,16.74909847383025
483,1788069410.9131775,-3.5811769042968753,-10.757086523437502,8.5812591796875,14.218922167364202
484,1788069410.9552124,-4.414643701171875,-13.870611914062502,11.0050189453125,18.248106637827284
485,1788069410.9752123,-3.2985645996093753,-15.207032812500001,11.5223431640625,19.36230273930933
486,1788069410.987178,-2.877041162109375,-15.192662695312501,10.6505560546875,18.775747918419984
487,1788069411.007178,-3.121333154296875,-15.489645117187502,12.3079095703125,20.028890745808006
488,1788069411.0162108,-2.805190576171875,-12.984454687500001,9.721288476562501,16.461124121545623
489,1788069411.0362108,-3.001582177734375,-12.127037695312502,9.802719140625001,15.87979349309048
490,1788069411.0736032,-3.480586083984375,-12.031236914062502,9.917680078125,15.975779145392671
491,1788069411.0936031,-2.9393116699218753,-12.366539648437502,9.4338861328125,15.829373441049006
492,1788069411.1055875,-1.804072412109375,-14.363985937500003,11.3499017578125,18.395625545026384
493,1788069411.1255875,-1.832812646484375,-14.857359960937503,11.3690619140625,18.797763590697922
494,1788069411.1345844,-2.000464013671875,-14.459786718750001,11.0433392578125,18.304169748581273
495,1788069411.1545844,-1.717851708984375,-13.789181250000002,11.670834375,18.146650077854417
496,1788069411.1941483,-1.277168115234375,-11.762994726562502,11.134350000000001,16.24724448188703
497,1788069411.2141483,-0.007807763671874979,-11.341471289062502,9.7021283203125,14.925157483444268
498,1788069411.2255256,-1.986093896484375,-15.480065039062502,13.519789453125,20.648527536753985
499,1788069411.2455256,-4.0985011230468755,-15.877638281250002,12.556991601562501,20.653695720803654
500,1788069411.2556982,-2.9728419433593753,-14.579537695312501,10.67450625,18.31244910738386
501,1788069411.2756982,0.02093247070312502,-11.034908789062502,10.214662500000001,15.036920567063087
502,1788069411.3148005,1.6830760253906252,-9.008722265625,12.236058984375001,15.287608093992876
503,1788069411.3348005,-0.03654799804687498,-7.974073828125,9.476996484375,12.385501666763663
504,1788069411.3461716,-5.660053857421876,-9.549996679687501,8.1980560546875,13.800245263282712
505,1788069411.3661716,-4.745156396484375,-11.935436132812502,12.07319765625,17.627627365996346
506,1788069411.3758714,0.025722509765625023,-12.342589453125003,11.431332421875,16.823065624175392
507,1788069411.3958714,2.655453955078125,-9.458985937500001,10.708036523437501,14.532236471398143
508,1788069411.4357507,0.8208689941406251,-6.1778091796875,10.779887109375,12.45171145895382
509,1788069411.4557507,-0.208989404296875,-4.889288671875001,9.50573671875,10.69148496955524
510,1788069411.463226,-0.357480615234375,-6.599332617187501,10.549965234375001,12.449126468514342
511,1788069411.483226,1.5250047363281252,-9.7415982421875,12.5474115234375,15.958129956122866
512,1788069411.496827,0.303544775390625,-16.06923984375,12.6048919921875,20.425374188037342
513,1788069411.5168269,-2.129795068359375,-15.029801367187503,13.6012201171875,20.381956354739483
514,1788069411.5551422,-1.746591943359375,-11.149869726562502,11.7426849609375,16.286829907251768
515,1788069411.5751421,-1.995673974609375,-10.0673208984375,11.49839296875,15.412550261032374
516,1788069411.585848,-1.588520654296875,-8.3860171875,10.0997015625,13.223186219279306
517,1788069411.605848,-3.3512550292968752,-9.353605078125,10.7846771484375,14.663904644566651
518,1788069411.6151798,-2.326186669921875,-9.257804296875001,9.697338281250001,13.607220677403458
519,1788069411.6351798,-4.117661279296875,-10.632545507812502,11.278051171875001,16.037474758270257
520,1788069411.6752732,-3.739248193359375,-10.249342382812502,10.296093164062501,15.001350964986873
521,1788069411.6952732,-4.615825341796875,-10.196651953125002,9.678178125,14.79677959754658
522,1788069411.7053728,-5.731904443359376,-10.421783789062502,10.9666986328125,16.178281268314645
523,1788069411.7253728,-5.612153466796876,-9.5020962890625,9.563217187500001,14.602781358247853
524,1788069411.736249,-5.367861474609376,-9.056622656250001,8.52856875,13.548905331124464
525,1788069411.756249,-4.754736474609375,-10.709186132812501,9.817089257812501,15.286249640316031
526,1788069411.7959597,-3.935639794921875,-10.790616796875002,9.8362494140625,15.122118700367965
527,1788069411.8159597,-2.9393116699218753,-11.849215429687503,11.038549218750001,16.458828276850376
528,1788069411.8237343,-1.181367333984375,-12.903024023437501,11.0337591796875,17.01844585626281
529,1788069411.8437343,0.07841293945312502,-13.611949804687502,11.560663476562501,17.85889879283524
530,1788069411.8533022,-1.607680810546875,-13.396398046875001,12.293539453125002,18.253197815847447
531,1788069411.8733022,-2.891411279296875,-12.639571875000001,11.910336328125,17.60611109298105
532,1788069411.915563,-3.399155419921875,-10.613385351562501,11.143930078125,15.760246945263416
533,1788069411.935563,-4.524814599609376,-7.471119726562501,9.0411029296875,12.571122436547716
534,1788069411.9467924,-2.886621240234375,-11.039698828125001,12.082777734375,16.61929752361949
535,1788069411.9667923,-4.912807763671876,-5.3443423828125,6.0233783203125,9.432855454056915
536,1788069411.9748788,-5.061298974609376,-7.078336523437501,9.721288476562501,13.046955387904033
537,1788069411.9948788,-2.287866357421875,-7.729781835937501,9.218334375000001,12.245878831260695
538,1788069412.0369008,-0.223359521484375,-7.231617773437501,6.009008203125,9.405018058576944
539,1788069412.0569007,0.614897314453125,-16.232101171875,15.0813421875,22.16542553928922
540,1788069412.065267,0.830449072265625,-12.634781835937503,10.894848046875001,16.704043572376694
541,1788069412.085267,-0.15150893554687497,-16.462023046875004,15.900438867187502,22.887662919629022
542,1788069412.094246,-1.368178857421875,-14.790299414062503,14.434686914062501,20.711954433382694
543,1788069412.114246,-1.042456201171875,-11.355841406250002,10.032641015625,15.188671262610985
544,1788069412.1536758,0.5430467285156251,-8.721319921875,9.678178125,13.039304151229613
545,1788069412.1736758,-0.38622084960937497,-8.807540625000001,9.85061953125,13.21955534634741
546,1788069412.1826797,-0.625722802734375,-4.6066763671875,4.1265228515625,6.216203585978591
547,1788069412.2026796,-3.8446290527343754,-8.912921484375001,11.666044335937501,15.176229188695793
548,1788069412.243389,-5.334331201171876,-5.9957876953125,6.8472650390625,10.549388511483695
549,1788069412.2633889,-9.597465966796875,-7.657931250000001,7.0101263671875005,14.138498353696841
550,1788069412.2746003,-11.915844873046876,-7.705831640625001,9.8075091796875,17.249766277310236
551,1788069412.2946002,-9.640576318359376,-6.3454605468750005,8.595629296875,14.390636688880537
552,1788069412.3035238,-9.487295068359376,-4.338434179687501,6.818524804687501,12.462867220577118
553,1788069412.3235238,-8.270625146484376,-5.1527408203125,9.218334375000001,13.413860999886689
554,1788069412.3645906,-7.030005029296876,-5.689225195312501,8.4758783203125,12.394707230736085
555,1788069412.3845906,-5.363071435546876,-8.0794546875,8.485458398437501,12.885772289690598
556,1788069412.3965664,-3.763198388671875,-10.321192968750001,11.488812890625,15.895958858982628
557,1788069412.4165664,-3.758408349609375,-6.60412265625,7.7956927734375006,10.886362808534065
558,1788069412.4265184,-3.389575341796875,-5.68443515625,8.9453021484375,11.127463977482423
559,1788069412.4465184,-3.523696435546875,-5.33955234375,8.66268984375,10.768911325224165
560,1788069412.4845457,-2.249546044921875,-1.9242544921875002,3.3936468750000004,4.503337858869207
561,1788069412.5045457,0.394555517578125,-18.440309179687503,22.165809960937498,28.83615452731717
562,1788069412.513534,-0.6305128417968751,-6.690343359375,7.604091210937501,10.147928057207583
563,1788069412.533534,-2.139375146484375,-2.3074576171875,2.6751410156250004,4.130092750289128
564,1788069412.543616,-18.200376123046876,-7.8064224609375,14.966381250000001,24.82310396343205
565,1788069412.563616,3.0194969238281253,-3.4762271484375002,2.4500091796875,5.215751320863989
566,1788069412.6070561,-11.312299951171877,-14.215494726562502,16.039350000000002,24.23446242293626
567,1788069412.6270561,-4.074550927734375,-4.989879492187501,4.5672064453125,7.896849835431752
568,1788069412.6350603,-6.282758935546876,-9.372765234375,11.254100976562501,15.93664258153416
569,1788069412.6550603,-4.778686669921875,-7.193297460937501,7.407699609375,11.377758485464238
570,1788069412.6641138,-2.7525001464843752,-7.4232193359375005,9.735658593750001,12.548445745186578
571,1788069412.6841137,-3.150073388671875,-7.193297460937501,10.5260150390625,13.132535296663724
572,1788069412.7230628,-1.090356591796875,-4.8461783203125,7.709472070312501,9.171165760821811
573,1788069412.7430627,-2.177695458984375,-5.64611484375,9.960790429687501,11.654969597774564
574,1788069412.7550561,-4.735576318359375,-2.5325894531250004,6.4544818359375,8.396429489701754
575,1788069412.7750561,-1.746591943359375,-4.7982779296875,10.003900781250001,11.231744537169122
576,1788069412.7835708,2.0519090332031253,-9.549996679687501,15.004701562500001,17.904017321324083
577,1788069412.8035707,1.1274314941406252,-4.0701919921875005,8.825551171875,9.784064498695397
578,1788069412.8462784,0.5047264160156251,-3.0882339843750004,6.5646527343750005,7.272317609965191
579,1788069412.8662784,-1.708271630859375,-8.7452701171875,13.538949609375,16.208056574203063
580,1788069412.876047,-4.361953271484375,-4.448605078125,8.461508203125,10.507799225112956
581,1788069412.8960469,-3.653027490234375,-6.446051367187501,10.1044916015625,12.529841922341838
582,1788069412.905723,-1.502299951171875,-8.807540625000001,9.9416302734375,13.366588551236454
583,1788069412.925723,-3.0590626464843753,-10.081691015625001,7.81964296875,13.120410594503937
584,1788069412.9659467,-3.3847853027343753,-10.819357031250002,9.9128900390625,15.05923793031407
585,1788069412.9859467,-1.554990380859375,-12.697052343750002,13.543739648437501,18.62970791421998
586,1788069412.992705,-3.686557763671875,-10.670865820312502,13.2850775390625,17.43420117811269
587,1788069413.012705,-3.576386865234375,-9.4541958984375,13.6587005859375,16.99212949550888
588,1788069413.0239778,0.7585984863281251,-9.995470312500002,14.37241640625,17.522877953868548
589,1788069413.0439777,4.149946142578125,-10.282872656250001,16.4560833984375,19.843442339152833
590,1788069413.083388,3.503290869140625,-9.200323828125,15.646566796875002,18.486050361968616
591,1788069413.103388,-0.774214013671875,-5.9957876953125,10.976278710937502,12.531064271098705
592,1788069413.1143606,-3.442265771484375,-6.201759375000001,10.348783593750001,12.546247839780724
593,1788069413.1343606,-4.3380030761718755,-7.830372656250001,11.642094140625,14.685753729509402
594,1788069413.143354,-2.081894677734375,-6.7621939453125,10.401474023437501,12.57983363417199
595,1788069413.163354,0.044882666015625024,-6.714293554687501,9.922470117187501,11.980783180523122
596,1788069413.2051792,0.576577001953125,-7.998024023437501,11.0433392578125,13.647570160354823
597,1788069413.2251792,2.209980322265625,-9.238644140625,12.2456390625,15.49813648897608
598,1788069413.2349389,-0.759843896484375,-9.602687109375001,14.995121484375002,17.822531548541193
599,1788069413.2549388,0.044882666015625024,-7.6818814453125,12.9354046875,15.044534270722444
600,1788069413.2651713,-0.12276870117187498,-7.9213833984375,11.603773828125,14.050300856327148
601,1788069413.2851713,-1.143047021484375,-11.293570898437501,14.343676171875002,18.29186557612354
602,1788069413.3253007,-0.726313623046875,-8.9464517578125,10.789467187500001,14.034925462004743
603,1788069413.3453007,-3.097382958984375,-9.027882421875,10.482904687500001,14.177014245073465
604,1788069413.3534377,-3.322514794921875,-8.1992056640625,7.896283593750001,11.858219625095277
605,1788069413.3734376,-2.105844873046875,-8.793170507812501,9.093793359375,12.823864779067744
606,1788069413.387444,-1.234057763671875,-8.740480078125001,9.9799505859375,13.323599523324509
607,1788069413.407444,-0.218569482421875,-6.1634390625,7.982504296875001,10.08742427706027
608,1788069413.4444396,-1.942983544921875,-9.0230923828125,12.480350976562502,15.522581670031268
609,1788069413.4644396,-1.665161279296875,-7.198087500000001,9.553637109375,12.077135743269302
610,1788069413.4762988,3.589511572265625,-15.834527929687502,20.6808978515625,26.29289645570158
611,1788069413.4962988,2.535702978515625,-10.680445898437501,13.208436914062501,17.17453114054274
612,1788069413.506307,-2.5800587402343753,-8.433917578125001,9.917680078125,13.27207771788966
613,1788069413.5263069,-3.039902490234375,-8.050714453125,6.1910296875,10.601125362309196
614,1788069413.5647285,-1.674741357421875,-11.034908789062502,6.440111718750001,12.886000525654545
615,1788069413.5847285,0.40892563476562505,-16.49076328125,15.459755273437501,22.60788638700156
616,1788069413.5945094,-1.622050927734375,-12.888653906250003,12.849183984375001,18.271561996489968
617,1788069413.6145093,-3.8446290527343754,-10.848097265625002,10.842157617187501,15.811855319143508
618,1788069413.653319,-3.911689599609375,-6.034108007812501,6.732304101562501,9.850669697515716
619,1788069413.6733189,-4.108081201171875,-8.5632486328125,12.7869134765625,15.928299173479967
620,1788069413.6851506,-4.496074365234375,-3.9839712890625005,7.723842187500001,9.78490930296223
621,1788069413.7051506,-4.850537255859376,-4.362384375,9.735658593750001,11.71926436939547
622,1788069413.7155604,-4.500864404296875,-6.053268164062501,11.72831484375,13.944647895377132
623,1788069413.7355604,-4.290102685546875,-4.8222281250000005,8.5046185546875,10.676488275777407
624,1788069413.773986,-4.084131005859375,-7.341788671875,12.183368554687501,14.799204583856598
625,1788069413.793986,-3.638657373046875,-6.014947851562501,9.8266693359375,12.082336503065088
626,1788069413.805763,-2.910571435546875,-7.724991796875001,11.598983789062501,14.236690250270325
627,1788069413.825763,-2.541738427734375,-9.449405859375,13.0934759765625,16.34597254613599
628,1788069413.8359308,-2.685439599609375,-8.6686294921875,10.2529828125,13.692347485708707
629,1788069413.8559308,-2.211225732421875,-8.8027505859375,10.27214296875,13.707474540862286
630,1788069413.8939252,-1.353808740234375,-9.0901529296875,10.7655169921875,14.154859042015184
631,1788069413.9139252,-0.290420068359375,-9.152423437500001,10.229032617187501,13.728958696088023
632,1788069413.923969,0.17900375976562502,-10.258922460937502,11.0337591796875,15.067228479082553
633,1788069413.943969,0.16463364257812502,-11.307941015625001,11.3259515625,16.005430736010165
634,1788069413.9527955,0.552626806640625,-11.451642187500001,11.3259515625,16.115913997476028
635,1788069413.9727955,1.074741064453125,-12.036026953125003,12.3270697265625,17.262029463985602
636,1788069414.0157282,1.1753318847656251,-11.858795507812502,12.480350976562502,17.256059701845185
637,1788069414.0357282,-0.716733544921875,-11.331891210937501,12.34143984375,16.77011039939329
638,1788069414.0449536,-2.0339942871093752,-10.508004492187501,11.412172265625001,15.645861017794028
639,1788069414.0649536,0.07841293945312502,-10.086481054687502,11.215780664062502,15.08432910539948
640,1788069414.078911,0.715488134765625,-9.775128515625001,11.527133203125,15.130758759908977
641,1788069414.098911,2.861425634765625,-10.594225195312502,11.373851953125001,15.804742085965637
642,1788069414.1359384,-0.424541162109375,-11.796525000000003,12.145048242187501,16.936364252076416
643,1788069414.1559384,-3.2123438964843753,-10.66607578125,10.98106875,15.641873186190802
644,1788069414.1636443,-1.368178857421875,-9.6649576171875,10.6122357421875,14.418837213024107
645,1788069414.1836443,-0.10839858398437498,-10.139171484375002,11.9917669921875,15.704044836840305
646,1788069414.1936817,0.11673325195312503,-6.881944921875,9.0123626953125,11.340082623671357
647,1788069414.2136817,0.49514633789062507,-7.3369986328125005,10.708036523437501,12.98994861502887
648,1788069414.2538817,2.238720556640625,-8.1608853515625,10.439794335937501,13.438795527455033
649,1788069414.2738817,1.539374853515625,-10.862467382812502,11.757055078125001,16.080771644805065
650,1788069414.2845883,0.749018408203125,-12.218048437500002,12.72464296875,17.656677911744392
651,1788069414.3045883,2.233930517578125,-10.555904882812502,10.597865625,15.123899274258221
652,1788069414.3146782,4.523569189453125,-10.474474218750002,10.8900580078125,15.772464987583561
653,1788069414.3346782,4.279277197265626,-10.551114843750002,11.187040429687501,15.962083552985865
654,1788069414.376292,2.013588720703125,-10.584645117187502,11.72831484375,15.926161523326035
655,1788069414.396292,1.2423924316406252,-9.928409765625002,10.760726953125001,14.693879813992854
656,1788069414.407023,2.612343603515625,-9.2530142578125,10.0470111328125,13.906295145040204
657,1788069414.427023,2.8039451660156254,-9.377555273437501,11.397802148437501,15.023666170922608
658,1788069414.4365025,2.914116064453125,-8.90334140625,11.11518984375,14.536471576553668
659,1788069414.4565024,2.4111619628906253,-10.278082617187502,11.3115814453125,15.472703677475392
660,1788069414.4964252,-0.323950341796875,-12.127037695312502,11.771425195312501,16.90374036171636
661,1788069414.5164251,2.444692236328125,-10.795406835937502,9.88893984375,14.842791520366896
662,1788069414.5244195,3.057817236328125,-10.139171484375002,10.7176166015625,15.067194505230118
663,1788069414.5444195,0.653217626953125,-11.557023046875003,11.958236718750001,16.643043603734956
664,1788069414.5552962,-0.941865380859375,-12.716212500000001,11.354691796875,17.073903963149085
665,1788069414.5752962,-1.6939015136718751,-12.859913671875002,12.264799218750001,17.851385992755525
666,1788069414.615242,-0.865224755859375,-10.766666601562502,11.6181439453125,15.863511349047375
667,1788069414.635242,-0.448491357421875,-10.120011328125003,11.838485742187501,15.580934453589016
668,1788069414.6453555,0.284384619140625,-11.231300390625002,12.729433007812501,16.978263980055306
669,1788069414.6653554,-0.582612451171875,-10.733136328125001,12.370180078125001,16.38783109113643
670,1788069414.6761048,-4.026650537109375,-9.880509375000003,12.437240625000001,16.38668161714313
671,1788069414.6961048,-10.464463037109375,-9.296124609375001,13.7257611328125,19.604066876112267
672,1788069414.7366326,-9.458554833984376,-4.7599576171875,11.8624359375,15.900906968981424
673,1788069414.7566326,-1.349018701171875,1.7257552734375,7.364589257812501,7.683440483025562
674,1788069414.7657497,1.275922705078125,-2.494269140625,12.834813867187501,13.1370394039356
675,1788069414.7857497,-0.980185693359375,-9.4733560546875,14.621498437500001,17.449740843066
676,1788069414.7947638,-3.2219239746093753,-16.308741796875,16.503983789062502,23.42514320137527
677,1788069414.8147638,0.772968603515625,-14.196334570312501,14.540067773437501,20.335854212459985
678,1788069414.8560557,3.244628759765625,-11.202560156250001,12.595311914062501,17.16586298604364
679,1788069414.8760557,1.237602392578125,-8.898551367187501,10.8613177734375,14.095534750132009
680,1788069414.885149,-1.4112892089843752,-7.705831640625001,10.4876947265625,13.090581315687245
681,1788069414.905149,-0.865224755859375,-6.5035318359375,9.54405703125,11.581604588093874
682,1788069414.9152455,-0.472441552734375,-5.143160742187501,8.4136078125,9.872390787610152
683,1788069414.9352455,-1.1382569824218751,-5.18627109375,10.521225000000001,11.785126741640244
684,1788069414.976758,-0.917915185546875,-5.090470312500001,10.5451751953125,11.74547471114452
685,1788069414.996758,-0.482021630859375,-5.53115390625,10.80862734375,12.151231766504216
686,1788069415.0067656,-0.362270654296875,-6.939425390625001,12.37976015625,14.196666027814087
687,1788069415.0267656,-0.18982924804687498,-7.0495962890625,11.316371484375,13.333908150071885
688,1788069415.0663414,-0.04133803710937498,-7.9261734375,11.90075625,14.29873887853599
689,1788069415.0863414,0.29875473632812505,-8.3620669921875,12.293539453125002,14.870929058396154
690,1788069415.0952902,0.7250682128906251,-8.285426367187501,11.7091546875,14.362392471146075
691,1788069415.1152902,1.2088621582031251,-9.027882421875,12.3653900390625,15.357958183263856
692,1788069415.1262484,1.6543357910156251,-8.6494693359375,11.268471093750001,14.301349149413761
693,1788069415.1462483,2.229140478515625,-8.524928320312501,10.760726953125001,13.908152814056
694,1788069415.1847422,2.569233251953125,-9.3200748046875,11.575033593750002,15.08131813086487
695,1788069415.2047422,2.612343603515625,-8.9081314453125,10.468534570312501,13.991760468204934
696,1788069415.216761,2.9093260253906252,-9.449405859375,10.67450625,14.54993239498022
697,1788069415.236761,3.6853123535156254,-9.909249609375001,10.679296289062501,15.027379152515504
698,1788069415.2448115,4.6912205566406255,-9.55478671875,9.649437890625,14.367085687670913
699,1788069415.2648115,5.572587744140625,-10.436153906250002,10.2865130859375,15.677352901183507
700,1788069415.3028488,5.222914892578125,-10.024210546875002,9.31413515625,14.646390366642786
701,1788069415.3228488,4.763071142578125,-10.234972265625002,9.5967474609375,14.816850738817067
702,1788069415.3344188,4.834921728515625,-10.038580664062502,9.3189251953125,14.525561492265702
703,1788069415.3544188,4.729540869140625,-10.048160742187502,9.271024804687501,14.466720155682852
704,1788069415.3631763,4.011035009765625,-10.503214453125002,10.2577728515625,15.219323886827302
705,1788069415.3831763,3.2685789550781252,-9.736808203125001,9.572797265625,14.040209751238741
706,1788069415.4245474,2.6841941894531254,-9.3009146484375,9.951210351562501,13.883029179730837
707,1788069415.4445474,1.659125830078125,-9.617057226562501,11.000228906250001,14.705288987602676
708,1788069415.4546251,1.017260595703125,-9.0901529296875,10.147601953125001,13.661607694694752
709,1788069415.474625,0.710698095703125,-9.099733007812501,10.559545312500001,13.957586818768105
710,1788069415.4872155,0.7585984863281251,-8.7835904296875,10.818207421875,13.955663521404796
711,1788069415.5072155,0.36581528320312506,-8.338116796875001,11.507973046875001,14.215887456903825
712,1788069415.5447552,-1.128676904296875,-11.533072851562501,17.208119531250002,20.746205888198666
713,1788069415.5647552,-0.453281396484375,-9.59310703125,12.9401947265625,16.114645701931302
714,1788069415.574791,0.590947119140625,-8.5440884765625,10.2865130859375,13.385179037282697
715,1788069415.594791,-4.438593896484376,-6.1107486328125,14.578388085937501,16.418640742020415
716,1788069415.6048613,-4.069760888671875,-6.690343359375,12.0684076171875,14.386455796056433
717,1788069415.6248612,0.48077622070312503,-7.451959570312501,11.757055078125001,13.928072060483839
718,1788069415.6632535,1.472314306640625,-9.497306250000001,12.8443939453125,16.04197591464992
719,1788069415.6832535,2.229140478515625,-7.839952734375,8.93093203125,12.091132002298137
720,1788069415.6947184,2.612343603515625,-10.565484960937502,12.8539740234375,16.84275689303362
721,1788069415.7147183,1.8938377441406251,-10.029000585937501,11.661254296875,15.496848903252946
722,1788069415.724332,1.7980369628906252,-11.006168554687502,12.964144921875,17.10081099625074
723,1788069415.744332,2.904535986328125,-10.771456640625003,12.140258203125,16.48776748669399
724,1788069415.783767,3.503290869140625,-9.74638828125,10.722406640625001,14.907552971886787
725,1788069415.803767,6.152182470703125,-7.60045078125,12.892294335937502,16.181083229360038
726,1788069415.8153055,4.403818212890625,-6.33588046875,9.2327044921875,12.032448977931889
727,1788069415.8353055,0.38976547851562504,-9.032672460937501,10.8229974609375,14.10242400987436
728,1788069415.8433106,0.31791489257812505,-9.1188931640625,11.7235248046875,14.85585124665133
729,1788069415.8633106,2.157289892578125,-8.285426367187501,8.729750390625,12.227458102538032
730,1788069415.9060895,4.882822119140625,-6.834044531250001,6.8281048828125,10.82446916910778
731,1788069415.9260895,4.815761572265625,-9.856559179687501,12.197738671875001,16.405125634719997
732,1788069415.9357579,2.631503759765625,-11.992916601562502,13.198856835937502,18.026776817425464
733,1788069415.9557579,1.8938377441406251,-13.396398046875001,13.75929140625,19.296844354286353
734,1788069415.9663987,-0.304790185546875,-14.737608984375003,15.090922265625,21.0956381856694
735,1788069415.9863987,2.219560400390625,-13.635900000000001,12.906664453125,18.906247763280334
736,1788069416.0254147,2.602763525390625,-13.429928320312502,12.695902734375,18.663421414589187
737,1788069416.0454147,2.612343603515625,-11.806105078125002,11.737894921875,16.851902961254464
738,1788069416.056384,2.6171336425781253,-11.652823828125001,13.131796289062502,17.750542680432837
739,1788069416.076384,2.123759619140625,-10.043370703125001,10.8613177734375,14.944827659624291
740,1788069416.0863693,1.376513525390625,-10.603805273437501,11.19183046875,15.478777245112262
741,1788069416.1063693,0.24606430664062504,-11.245670507812502,12.173788476562502,16.574883972003313
742,1788069416.1463878,-0.19461928710937498,-10.321192968750001,11.5031830078125,15.456005961318585
743,1788069416.1663878,-0.295210107421875,-9.17158359375,12.1929486328125,15.260179913325807
744,1788069416.175297,-1.4975099121093751,-7.365738867187501,10.27214296875,12.728454979568513
745,1788069416.195297,-1.401709130859375,-6.714293554687501,9.165643945312501,11.447949832100784
746,1788069416.2062602,-1.550200341796875,-9.047042578125001,11.5558734375,14.757720400306814
747,1788069416.2262602,-1.588520654296875,-7.078336523437501,8.245956445312501,10.982806722607288
748,1788069416.2650156,-0.802954248046875,-8.127355078125001,9.7787689453125,12.740602739909479
749,1788069416.2850156,0.22690415039062503,-10.148751562500001,11.546293359375001,15.374184014495142
750,1788069416.2949219,1.2902928222656251,-11.882745703125002,11.187040429687501,16.371144571708744
751,1788069416.3149219,1.3334031738281251,-12.797643164062501,11.546293359375001,17.287987879432293
752,1788069416.3237772,1.141801611328125,-12.922184179687502,11.704364648437501,17.472226724633327
753,1788069416.3437772,1.2088621582031251,-12.572511328125001,10.947538476562501,16.714604018916614
754,1788069416.385038,6.913798681640625,-17.4439810546875,14.075433984375001,23.45657539145582
755,1788069416.4050379,4.676850439453125,-14.272975195312503,11.9534466796875,19.195719274962087
756,1788069416.416222,-4.045810693359376,-12.419230078125002,6.794574609375,14.723182537151038
757,1788069416.436222,-0.874804833984375,-17.558941992187503,13.380878320312501,22.093655922132424
758,1788069416.4764538,3.7044725097656253,-18.363668554687504,14.8562103515625,23.9092957941446
759,1788069416.4964538,0.849609228515625,-16.553033789062503,11.824115625000001,20.3601196896382
760,1788069416.5070868,-3.2315040527343752,-15.144762304687502,10.521225000000001,18.721715178074554
761,1788069416.5270867,-3.083012841796875,-15.020221289062501,11.0337591796875,18.890628824642896
762,1788069416.534848,-2.5800587402343753,-14.675338476562501,11.081659570312501,18.569476065226887
763,1788069416.554848,-2.364506982421875,-14.617858007812503,11.575033593750002,18.795054368182367
764,1788069416.5937448,-1.109516748046875,-14.488526953125001,11.666044335937501,18.63451182976591
765,1788069416.6137447,0.20295395507812503,-14.143644140625002,11.59419375,18.289592357323247
766,1788069416.624597,1.0124705566406251,-13.956832617187501,12.3749701171875,18.680421802880595
767,1788069416.644597,0.907089697265625,-12.232418554687502,11.2828412109375,16.666054758315724
768,1788069416.6545124,2.468642431640625,-13.319757421875002,12.657582421875,18.539809222304573
769,1788069416.6745124,2.818315283203125,-12.759322851562501,11.143930078125,17.173537732572182
770,1788069416.7145019,1.4531541503906251,-11.973756445312501,10.73198671875,16.14490753543936
771,1788069416.7345018,0.13589340820312504,-10.234972265625002,9.1800140625,13.749392076895758
772,1788069416.7458847,0.31791489257812505,-10.872047460937502,10.281723046875001,14.967174572525073
773,1788069416.7658846,0.590947119140625,-10.742716406250002,10.224242578125,14.842180115437143
774,1788069416.7757492,0.30833481445312505,-8.687789648437501,8.039984765625,11.841204092691914
775,1788069416.7957492,-1.262797998046875,-7.56213046875,9.1464837890625,11.934766093805585
776,1788069416.834074,-0.438911279296875,-5.574264257812501,8.8734515625,10.488241404499309
777,1788069416.854074,0.14547348632812504,-4.889288671875001,8.739330468750001,10.015098766071745
778,1788069416.8646026,2.406371923828125,-3.375636328125,9.0506830078125,9.95491885268039
779,1788069416.8846025,3.6613621582031253,-1.6512222656250002,9.6063275390625,10.412186927431152
780,1788069416.8951154,1.6830760253906252,-2.3745181640625,10.363153710937501,10.76410870695875
781,1788069416.9151154,1.1657518066406252,-4.649786718750001,11.852855859375001,12.785526419653985
782,1788069416.9544818,1.711816259765625,-4.151622656250001,9.1752240234375,10.215234772992295
783,1788069416.9744818,0.931039892578125,-7.451959570312501,12.11151796875,14.250873805717953
784,1788069416.9861472,0.14068344726562504,-8.860231054687501,12.523461328125,15.341465699594211
785,1788069417.0061471,1.113061376953125,-7.557340429687501,10.779887109375,13.212050033583862
786,1788069417.0151684,0.37539536132812507,-7.29388828125,11.172670312500001,13.348044420381648
787,1788069417.0351684,-0.438911279296875,-7.605240820312501,11.517553125000001,13.808923239457842
788,1788069417.0753443,-0.17066909179687498,-8.285426367187501,11.8863861328125,14.490120542055472
789,1788069417.0953443,0.6819578613281251,-9.6505875,12.9785150390625,16.18767303348307
790,1788069417.1063268,0.34665512695312506,-9.3057046875,12.121098046875002,15.285199618256849
791,1788069417.1263268,-0.03654799804687498,-8.194415625000001,11.3786419921875,14.022242216485141
792,1788069417.135933,-0.462861474609375,-8.1704654296875,12.695902734375,15.104856580686448
793,1788069417.155933,-0.14671889648437497,-7.0208560546875,11.258891015625,13.26938480401217
794,1788069417.196384,-0.19461928710937498,-5.5167837890625,9.524896875000001,11.008925493505828
795,1788069417.216384,0.6196873535156251,-6.446051367187501,11.737894921875,13.405736378189225
796,1788069417.2251754,1.462734228515625,-4.8078580078125,9.984740625,11.178109652131857
797,1788069417.2451754,3.211098486328125,-4.525245703125,9.3476654296875,10.870503720983903
798,1788069417.2556264,4.173896337890625,-6.728663671875,11.6325140625,14.071663329646832
799,1788069417.2756264,3.939184423828125,-6.992115820312501,10.837367578125,13.485377028210571
800,1788069417.31611,3.2925291503906253,-6.968165625,11.297211328125,13.675637614967702
801,1788069417.3361099,3.7044725097656253,-7.25556796875,11.7810052734375,14.323353950018914
802,1788069417.3459427,4.2122166503906255,-8.069874609375,12.11151796875,15.151056492146594
803,1788069417.3659427,3.8721238769531254,-7.284308203125001,11.49839296875,14.151591082997847
804,1788069417.3747556,2.665034033203125,-6.014947851562501,10.3918939453125,12.299327779426397
805,1788069417.3947556,1.7597166503906252,-5.291651953125,10.655346093750001,12.026411911300354
806,1788069417.4351413,1.587275244140625,-4.41986484375,9.817089257812501,10.882549767105893
807,1788069417.4551413,3.3787498535156253,-4.439025,9.75481875,11.237320960469555
808,1788069417.4647863,3.311689306640625,-6.2831900390625,11.397802148437501,13.42965587591948
809,1788069417.4847863,3.350009619140625,-7.4998599609375,12.0492474609375,14.58268933554154
810,1788069417.4951189,2.114179541015625,-8.620729101562501,13.1509564453125,15.866139442242465
811,1788069417.5151188,-0.237729638671875,-7.346578710937501,11.666044335937501,13.788594003202887
812,1788069417.5553477,1.457944189453125,-7.0208560546875,11.3499017578125,13.425285505798286
813,1788069417.5753477,-1.028086083984375,-5.8568765625,9.342875390625,11.074713749311554
814,1788069417.5862055,-0.467651513671875,-4.61146640625,10.205082421875,11.20839094569216
815,1788069417.6062055,1.0843211425781252,-4.683316992187501,11.9630267578125,12.89275841694445
816,1788069417.6153917,2.056699072265625,-3.3229458984375,9.9464203125,10.68659241997717
817,1788069417.6353917,1.5297947753906251,-4.544405859375001,11.876806054687501,12.808216844283828
818,1788069417.6768663,-0.02696791992187498,-3.6630386718750003,10.123651757812501,10.7660068964225
819,1788069417.6968663,-0.9466554199218751,-4.4342349609375,10.549965234375001,11.483046748114763
820,1788069417.7043571,-0.26646987304687497,-5.588634375000001,11.3499017578125,12.654015579359326
821,1788069417.7243571,1.041210791015625,-6.053268164062501,10.7559369140625,12.386135566700064
822,1788069417.7353036,1.1657518066406252,-7.370528906250001,11.9247064453125,14.067064279352326
823,1788069417.7553036,0.34665512695312506,-6.034108007812501,10.607445703125,12.208543466430992
824,1788069417.794353,0.36102524414062503,-4.3959146484375005,9.75481875,10.705647746334911
825,1788069417.814353,0.7825486816406251,-4.118092382812501,10.1811322265625,11.010291582299958
826,1788069417.822715,1.2471824707031252,-3.8067398437500004,9.8075091796875,10.594053457618454
827,1788069417.842715,1.141801611328125,-4.5204556640625,10.109281640625001,11.132645939751429
828,1788069417.8838983,1.3621434082031252,-5.080890234375,10.387103906250001,11.643144240174665
829,1788069417.9038982,1.702236181640625,-5.694015234375001,10.6313958984375,12.179737117717062
830,1788069417.9137485,2.118969580078125,-6.7047134765625005,11.627724023437501,13.588494429086722
831,1788069417.9337485,2.483012548828125,-5.9383072265625,11.814535546875002,13.454073517825572
832,1788069417.946587,3.512870947265625,-3.7875796875000005,9.4243060546875,10.747258571083371
833,1788069417.966587,2.0183787597656253,-7.207667578125,11.72831484375,13.913220109261333
834,1788069418.0061917,1.395673681640625,-6.1921792968750005,10.693666406250001,12.435654010884651
835,1788069418.0261917,1.831567236328125,-6.1634390625,10.9954388671875,12.737436771203187
836,1788069418.035402,2.128549658203125,-6.565802343750001,11.59419375,13.493176526569595
837,1788069418.055402,2.535702978515625,-5.0186197265625,10.013480859375,11.484168776022267
838,1788069418.0648162,1.984848486328125,-4.664156835937501,10.27214296875,11.454732806763396
839,1788069418.0848162,1.6878660644531251,-4.803067968750001,9.9703705078125,11.194938223457154
840,1788069418.1235435,2.3105711425781252,-6.02931796875,10.703246484375,12.500035979087908
841,1788069418.1435435,2.837475439453125,-6.599332617187501,11.464862695312501,13.529432156751545
842,1788069418.1534805,2.641083837890625,-5.83771640625,10.679296289062501,12.453980323902538
843,1788069418.1734805,2.248300634765625,-5.943097265625,11.014599023437501,12.715999862381143
844,1788069418.1837218,2.732094580078125,-5.7371255859375,11.028969140625001,12.728594230635586
845,1788069418.2037218,2.751254736328125,-5.775445898437501,10.4493744140625,12.252126492785264
846,1788069418.2446544,2.401581884765625,-6.709503515625,11.7139447265625,13.711365141092994
847,1788069418.2646544,2.315361181640625,-5.8329263671875005,11.057709375,12.714435261876256
848,1788069418.2743483,2.219560400390625,-4.850968359375001,10.3823138671875,11.672651096963083
849,1788069418.2943482,2.186030126953125,-4.8078580078125,10.3535736328125,11.622853062363978
850,1788069418.3056886,1.8842576660156252,-5.4593033203125,10.4589544921875,11.947558276265609
851,1788069418.3256886,1.1322215332031251,-6.4556314453125,11.014599023437501,12.817117250187998
852,1788069418.3662243,0.7011180175781251,-6.5226919921875,11.1008197265625,12.894389318659444
853,1788069418.3862243,0.45203598632812503,-5.7658658203125,11.134350000000001,12.546844030005458
854,1788069418.3953638,-0.18503920898437498,-6.201759375000001,12.5282513671875,13.980455685480978
855,1788069418.4153638,0.48077622070312503,-5.109630468750001,10.73198671875,11.89600807972987
856,1788069418.4231539,1.0939012207031251,-3.6438785156250004,9.630277734375001,10.35455067873484
857,1788069418.4431539,1.065160986328125,-4.314483984375,11.5798236328125,12.403292117227053
858,1788069418.4869528,0.04009262695312502,-3.7253091796875,10.0182708984375,10.688558728728568
859,1788069418.5069528,-0.759843896484375,-4.6354166015625005,11.0720794921875,12.027277085790649
860,1788069418.5146174,0.030512548828125024,-5.502413671875001,12.2695892578125,13.44694418027757
861,1788069418.5346174,0.911879736328125,-3.8498501953125004,9.750028710937501,10.52216380047275
862,1788069418.5458634,0.5190965332031251,-5.2581216796875,10.842157617187501,12.061081485717612
863,1788069418.5658634,0.9789402832031251,-5.0473599609375,11.15351015625,12.281488324259593
864,1788069418.604404,0.7394383300781251,-4.510875585937501,10.3296234375,11.295834982698048
865,1788069418.624404,0.552626806640625,-5.923937109375,11.119979882812501,12.611597038337482
866,1788069418.6336255,0.988520361328125,-6.187389257812501,10.6984564453125,12.398303458324547
867,1788069418.6536255,1.4483641113281251,-6.4316812500000005,10.98106875,12.80812840319816
868,1788069418.6657248,1.989638525390625,-6.9298453125,11.105609765625001,13.240694308956845
869,1788069418.6857247,2.4111619628906253,-7.313048437500001,10.6888763671875,13.173703255103753
870,1788069418.724262,3.4793406738281254,-7.657931250000001,10.1715521484375,13.19887099954632
871,1788069418.744262,3.191938330078125,-6.9825357421875,9.309345117187501,12.066821545247556
872,1788069418.7534158,4.030195166015625,-9.5691568359375,12.6815326171875,16.390012359596792
873,1788069418.7734158,2.885375830078125,-10.215812109375001,11.306791406250001,15.509085809270024
874,1788069418.7861798,1.8794676269531252,-11.834845312500002,12.2695892578125,17.150474707336706
875,1788069418.8061798,1.357353369140625,-12.232418554687502,12.7102728515625,17.692526892079243
876,1788069418.8453128,1.2519725097656251,-12.208468359375003,12.523461328125,17.534286939710775
877,1788069418.8653128,0.255644384765625,-12.127037695312502,12.5282513671875,17.43810424428149
878,1788069418.8752723,-0.601772607421875,-10.924737890625002,12.485141015625,16.600926914782278
879,1788069418.8952723,-0.208989404296875,-10.081691015625001,11.9247064453125,15.616747232138955
880,1788069418.9043846,2.2914109863281253,-9.74638828125,10.88526796875,14.789581048449186
881,1788069418.9243846,6.932958837890625,-7.29388828125,7.996874414062501,12.853665815693562
882,1788069418.964846,4.6912205566406255,-9.526046484375001,11.172670312500001,15.413684629099551
883,1788069418.9848459,3.953554541015625,-11.197770117187503,9.989530664062501,15.518098208041078
884,1788069418.9945867,3.996664892578125,-13.281437109375002,13.10784609375,19.08364564676485
885,1788069419.0145867,3.1296678222656253,-12.797643164062501,11.565453515625,17.530949952996934
886,1788069419.0249462,3.0865574707031254,-13.822711523437501,12.485141015625,18.8804909115247
887,1788069419.0449462,3.503290869140625,-11.973756445312501,11.316371484375,16.843519641032344
888,1788069419.0850015,2.981176611328125,-12.438390234375001,12.2312689453125,17.697596040792977
889,1788069419.1050014,2.995546728515625,-12.031236914062502,11.943866601562501,17.21568794097236
890,1788069419.1152797,3.852963720703125,-11.652823828125001,11.9390765625,17.122359118054064
891,1788069419.1352797,3.757162939453125,-11.978546484375002,11.6756244140625,17.144155117420777
892,1788069419.144241,4.063725439453125,-10.833727148437502,10.401474023437501,15.558732925090506
893,1788069419.164241,2.875795751953125,-11.015748632812501,11.5702435546875,16.232296666308493
894,1788069419.2043946,0.854399267578125,-10.436153906250002,12.34143984375,16.185006761823587
895,1788069419.2243946,1.7261863769531252,-10.622965429687502,11.239730859375001,15.561447995591575
896,1788069419.2357857,2.818315283203125,-9.6362173828125,9.735658593750001,13.98508615412906
897,1788069419.2557857,0.47119614257812503,-9.803868750000001,11.3020013671875,14.969071553570556
898,1788069419.2947373,3.1727781738281253,-10.7858267578125,11.42175234375,16.026759085723565
899,1788069419.3147373,6.362944189453125,-9.937989843750001,8.605209375000001,14.604805006577848
900,1788069419.324727,7.004809423828124,-10.972638281250001,11.7522650390625,17.538012414856908
901,1788069419.344727,4.815761572265625,-10.642125585937501,10.6505560546875,15.807616543357081
902,1788069419.3542047,2.722514501953125,-11.542652929687502,14.056273828125,18.3908606595722
903,1788069419.3742046,2.9859666503906253,-11.973756445312501,14.166444726562501,18.78762881365443
904,1788069419.4146569,2.832685400390625,-9.152423437500001,9.3189251953125,13.365377965202319
905,1788069419.4346569,1.1753318847656251,-7.025646093750001,11.507973046875001,13.534199338031522
906,1788069419.4425383,1.1753318847656251,-4.7551675781250005,8.9357220703125,10.190198852488985
907,1788069419.4625382,0.10715317382812503,-5.81855625,9.510526757812501,11.149762232807616
908,1788069419.4732788,-1.8471827636718752,-7.964493750000001,10.67450625,13.445829410545286
909,1788069419.4932787,-0.917915185546875,-10.278082617187502,12.533041406250002,16.234490366635058
910,1788069419.5364656,0.6580076660156251,-11.101969335937502,13.4000384765625,17.41400954398462
911,1788069419.5564656,4.997783056640625,-5.87603671875,8.0830951171875,11.173274796354146
912,1788069419.5657928,7.0383396972656245,-7.193297460937501,13.433568750000001,16.78518761934497
913,1788069419.5857928,5.050473486328125,-7.078336523437501,10.348783593750001,13.51693205743825
914,1788069419.5941594,1.017260595703125,-7.054386328125,9.7404486328125,12.069611640581734
915,1788069419.6141593,1.189702001953125,-9.114103125,12.384550195312501,15.422689459585216
916,1788069419.6552255,5.160644384765625,-8.405177343750001,9.065053125,13.396060794314632
917,1788069419.6752255,7.718525244140625,-10.862467382812502,12.3222796875,18.14958419039061
918,1788069419.684532,4.154736181640625,-9.2913345703125,11.6756244140625,15.489058599371692
919,1788069419.704532,3.158408056640625,-8.366857031250001,11.88159609375,14.871185688056123
920,1788069419.7158034,3.8577537597656253,-7.432799414062501,11.354691796875,14.108784391388724
921,1788069419.7358034,3.9870848144531252,-8.299796484375001,12.0875677734375,15.195155862219089
922,1788069419.7758722,3.306899267578125,-8.797960546875,12.1546283203125,15.36472200058369
923,1788069419.7958722,1.587275244140625,-8.7356900390625,13.174906640625,15.887412884054541
924,1788069419.806489,3.4985008300781253,-4.530035742187501,8.7537005859375,10.458872110882517
925,1788069419.826489,2.186030126953125,-8.3620669921875,13.481469140625,16.014146942232127
926,1788069419.8364806,2.732094580078125,-6.752613867187501,10.482904687500001,12.765321207123412
927,1788069419.8564806,4.097255712890625,-6.575382421875,10.7176166015625,13.224615835206924
928,1788069419.8945923,4.791811376953126,-7.351368750000001,11.747475000000001,14.663125439223352
929,1788069419.9145923,4.959462744140625,-3.3468960937500003,5.2569720703125,7.964530087891159
930,1788069419.925559,1.740556494140625,-8.48181796875,15.071762109375001,17.381852204120754
931,1788069419.945559,2.425532080078125,-6.6280728515625,8.7968109375,11.278228507492992
932,1788069419.9545825,4.188266455078125,-9.47814609375,10.511644921875,14.760471138713072
933,1788069419.9745824,7.316161962890625,-11.624083593750003,13.155746484375001,19.018917183238397
934,1788069420.0166023,5.826459814453124,-7.56213046875,10.4876947265625,14.181861368431194
935,1788069420.0366023,2.142919775390625,-6.0915884765625,12.116308007812501,13.72969318927887
936,1788069420.0433888,2.9859666503906253,-6.364620703125,9.8075091796875,12.066964400442515
937,1788069420.0633888,6.305463720703125,-9.6122671875,12.791703515625,17.198320617102283
938,1788069420.0737133,3.091347509765625,-6.843624609375,10.535595117187501,12.937943874259247
939,1788069420.0937133,0.8208689941406251,-6.2257095703125005,10.032641015625,11.835842653052765
940,1788069420.133826,3.6853123535156254,-7.916593359375001,10.914008203125,13.97746588686787
941,1788069420.153826,6.885058447265624,-7.040016210937501,10.6888763671875,14.533338779012412
942,1788069420.1653109,5.443256689453125,-7.231617773437501,10.6218158203125,13.955225198075961
943,1788069420.1853108,2.947646337890625,-8.5824087890625,11.28763125,14.48298929060689
944,1788069420.1952589,2.2674607910156253,-8.0555044921875,10.387103906250001,13.338832730853184
945,1788069420.2152588,3.8050633300781254,-7.126236914062501,10.549965234375001,13.287720871081445
946,1788069420.2557573,4.710380712890625,-7.8351626953125,11.148720117187501,14.41774674398777
947,1788069420.2757573,5.328295751953124,-7.5094400390625005,11.096029687500002,14.418886924670646
948,1788069420.2836087,5.572587744140625,-6.771774023437501,11.4025921875,14.385053569072493
949,1788069420.3036087,5.385776220703125,-6.115538671875,10.6505560546875,13.410471394426464
950,1788069420.3145406,3.517660986328125,-7.226827734375001,11.5558734375,14.076192269949454
951,1788069420.3345406,2.502172705078125,-7.404059179687501,10.990648828125,13.486115906572884
952,1788069420.3797755,4.250536962890625,-7.638771093750001,11.052919335937501,14.092015971547546
953,1788069420.3997755,5.222914892578125,-6.4316812500000005,10.54038515625,13.406904300352535
954,1788069420.4040668,4.969042822265624,-6.4652115234375005,10.176342187500001,13.040256398146122
955,1788069420.4240668,4.892402197265625,-7.571710546875001,11.397802148437501,14.531906058063896
956,1788069420.43305,4.509199072265625,-6.75740390625,10.50206484375,13.277377369339687
957,1788069420.45305,4.169106298828125,-7.734571875,11.306791406250001,14.319517496232834
958,1788069420.4942837,4.7774412597656255,-6.6568130859375,10.6888763671875,13.468080169223793
959,1788069420.5142837,4.820551611328125,-7.4615396484375,10.976278710937502,14.120587314374102
960,1788069420.5252516,5.131904150390625,-7.245987890625001,10.549965234375001,13.789218511808487
961,1788069420.5452516,4.600209814453125,-7.145397070312501,10.3439935546875,13.387189110819262
962,1788069420.5552492,4.806181494140625,-7.519020117187501,10.9954388671875,14.161028209821055
963,1788069420.5752492,4.820551611328125,-7.4615396484375,11.134350000000001,14.243807134512284
964,1788069420.6161678,4.293647314453125,-7.384899023437501,11.0720794921875,13.98438719174343
965,1788069420.6361678,4.260117041015625,-7.399269140625001,11.163090234375,14.05390922837328
966,1788069420.6467264,4.806181494140625,-7.10228671875,10.904428125,13.872577623615717
967,1788069420.6667264,4.710380712890625,-7.29388828125,10.842157617187501,13.890315853704157
968,1788069420.7035437,4.274487158203125,-7.207667578125,10.8229974609375,13.68791388129898
969,1788069420.7235436,4.006244970703126,-6.853204687500001,10.521225000000001,13.180007160646047
970,1788069420.7358108,4.355917822265625,-7.2172476562500005,10.679296289062501,13.605515537294481
971,1788069420.7558107,3.8050633300781254,-7.2028775390625,10.521225000000001,13.30624392115451
972,1788069420.764689,4.336757666015625,-7.404059179687501,10.736776757812502,13.744305531279592
973,1788069420.784689,4.054145361328125,-7.164557226562501,10.645766015625,13.457314328011496
974,1788069420.8251874,3.714052587890625,-7.0016958984375,10.6601361328125,13.283690543290604
975,1788069420.8451874,3.9152342285156254,-6.9633755859375,10.779887109375,13.417288276914977
976,1788069420.8551176,4.164316259765625,-6.939425390625001,10.444584375,13.213118384011151
977,1788069420.8751175,4.5379393066406255,-6.901105078125,10.482904687500001,13.34576468911715
978,1788069420.8852952,4.8109715332031255,-6.326300390625001,9.821879296875,12.634747193675647
979,1788069420.9052951,3.723632666015625,-7.384899023437501,10.8229974609375,13.621286571291508
980,1788069420.9457948,4.734330908203125,-7.7489419921875005,10.5930755859375,13.952535307822709
981,1788069420.9657948,5.505527197265625,-7.849532812500001,10.5834955078125,14.280629266885724
982,1788069420.9747865,5.586957861328124,-8.3093765625,11.412172265625001,15.182144539622225
983,1788069420.9947865,4.078095556640625,-8.021974218750001,10.976278710937502,14.193717908834229
984,1788069421.0047863,4.806181494140625,-8.405177343750001,10.5451751953125,14.315973827663354
985,1788069421.0247862,4.250536962890625,-8.5345083984375,10.655346093750001,14.298297047323262
986,1788069421.0653348,3.833803564453125,-8.4961880859375,10.597865625,14.113752781170446
987,1788069421.0853348,4.978622900390625,-9.0757828125,11.359481835937501,15.368615657402536
988,1788069421.0946405,5.079213720703125,-8.932081640625,11.733104882812501,15.59635356890987
989,1788069421.1146405,5.8408299316406245,-9.1188931640625,10.909218164062501,15.371419836145458
990,1788069421.1257865,5.179804541015625,-9.578736914062501,10.655346093750001,15.235451300488053
991,1788069421.1457865,5.404936376953125,-9.406295507812501,11.124769921875,15.538733482297053
992,1788069421.1840699,5.227704931640624,-8.740480078125001,11.19183046875,15.132149883266441
993,1788069421.2040699,4.5379393066406255,-9.047042578125001,11.067289453125001,14.997558748023378
994,1788069421.2160804,5.869570166015625,-9.372765234375,10.4206341796875,15.195071529261082
995,1788069421.2360804,6.281513525390625,-9.1476333984375,10.880477929687501,15.540959074017646
996,1788069421.2446268,4.403818212890625,-9.2817544921875,10.9666986328125,15.027077567124008
997,1788069421.2646267,5.448046728515624,-10.139171484375002,10.7271966796875,15.733936575134384
998,1788069421.3052409,5.376196142578125,-9.966730078125002,10.67450625,15.562270949156572
999,1788069421.3252409,5.946210791015625,-9.842189062500001,10.7176166015625,15.71920525762271
1000,1788069421.3348079,5.768979345703125,-9.933199804687503,10.736776757812502,15.723484225771838
1001,1788069421.3548079,4.815761572265625,-10.919947851562501,11.067289453125001,16.276415958097367
1002,1788069421.364647,3.7188426269531254,-10.939108007812502,11.80495546875,16.51819748367847
1003,1788069421.384647,3.1392479003906253,-9.861349218750002,11.5127630859375,15.480465098541885
1004,1788069421.4267173,5.323505712890625,-11.288780859375002,11.163090234375,16.744875931071242
1005,1788069421.4467173,6.295883642578125,-12.898233984375002,10.6601361328125,17.878509253477027
1006,1788069421.4538956,5.951000830078125,-12.404859960937502,10.7176166015625,17.4402484829818
1007,1788069421.4738955,4.667270361328125,-11.988126562500002,11.278051171875001,17.108273710099485
1008,1788069421.4849977,1.9321580566406251,-10.843307226562501,11.306791406250001,15.784615239843914
1009,1788069421.5049977,0.8256590332031251,-10.120011328125003,11.297211328125,15.189579517313971
1010,1788069421.5457182,3.072187353515625,-11.566603125000002,11.4025921875,16.530086254487518
1011,1788069421.5657182,4.154736181640625,-13.856241796875002,11.546293359375001,18.5087590025168
1012,1788069421.5759115,5.194174658203125,-11.748624609375002,10.291303125,16.459664352670323
1013,1788069421.5959115,6.0276414550781245,-9.564366796875001,10.358363671875,15.333142916406963
1014,1788069421.6047733,5.5151072753906245,-9.971520117187502,11.747475000000001,16.366147701342754
1015,1788069421.6247733,5.040893408203125,-9.875719335937502,9.208754296875,14.41324371733474
1016,1788069421.6643639,4.935512548828124,-12.634781835937503,11.5223431640625,17.79779166502951
1017,1788069421.6843638,4.882822119140625,-12.165358007812502,10.4972748046875,16.79376865478811
1018,1788069421.6954362,4.011035009765625,-11.135499609375001,9.548847070312501,15.207505836664078
1019,1788069421.7154362,3.0194969238281253,-12.131827734375001,11.4744427734375,16.969426708361425
1020,1788069421.7247648,2.272250830078125,-11.303150976562502,10.535595117187501,15.618037978794318
1021,1788069421.7447648,2.0614891113281253,-11.298360937500002,11.067289453125001,15.949532691254696
1022,1788069421.7847557,2.775204931640625,-11.830055273437502,11.1966205078125,16.52320431941566
1023,1788069421.8047557,3.393119970703125,-12.237208593750001,10.914008203125,16.744494986723637
1024,1788069421.8137393,3.8050633300781254,-12.859913671875002,11.598983789062501,17.7311114015145
1025,1788069421.8337393,4.226586767578125,-12.328219335937503,11.000228906250001,17.05444410377389
1026,1788069421.8447552,4.652900244140625,-12.471920507812502,11.373851953125001,17.50893457885783
1027,1788069421.8647552,4.806181494140625,-12.577301367187502,11.531923242187501,17.727750672304165
1028,1788069421.9054427,4.614579931640625,-12.366539648437502,11.6564642578125,17.609622648300487
1029,1788069421.9254427,4.633740087890625,-12.074347265625002,11.354691796875,17.210184045937773
1030,1788069421.9365594,5.064843603515625,-12.299479101562502,11.622933984375,17.664156399414754
1031,1788069421.9565594,5.079213720703125,-11.547442968750001,11.028969140625001,16.756491620920272
1032,1788069421.9647768,4.552309423828126,-10.479264257812503,11.0720794921875,15.910042261309679
1033,1788069421.9847767,3.646992041015625,-10.124801367187501,11.052919335937501,15.426573810116563
1034,1788069422.025785,2.971596533203125,-10.479264257812503,11.057709375,15.521543156631505
1035,1788069422.045785,2.732094580078125,-11.063649023437502,11.3020013671875,16.05004378225212
1036,1788069422.0568066,3.953554541015625,-10.776246679687501,10.98106875,15.885274845040854
1037,1788069422.0768065,4.911562353515625,-10.963058203125001,10.9283783203125,16.240121385921185
1038,1788069422.1156828,4.346337744140626,-10.895997656250001,10.645766015625,15.841267334736294
1039,1788069422.1356828,2.5740232910156253,-11.092389257812501,10.947538476562501,15.7960531160585
1040,1788069422.145843,2.444692236328125,-10.709186132812501,10.875687890625,15.457806275531915
1041,1788069422.165843,4.073305517578126,-10.565484960937502,10.6313958984375,15.53215596910624
1042,1788069422.1768925,4.969042822265624,-11.518702734375001,10.8996380859375,16.61848397588742
1043,1788069422.1968925,4.279277197265626,-11.628873632812502,11.134350000000001,16.65883144825769
1044,1788069422.2361875,2.962016455078125,-11.422901953125002,11.354691796875,16.37636273147615
1045,1788069422.2561874,4.8636619628906255,-10.263712500000002,11.4073822265625,16.097433684746754
1046,1788069422.2648675,5.246865087890625,-10.196651953125002,11.297211328125,16.097462163210984
1047,1788069422.2848675,4.020615087890625,-11.389371679687502,11.3786419921875,16.5938731623878
1048,1788069422.2937896,4.087675634765625,-11.197770117187503,10.88526796875,16.142744699831212
1049,1788069422.3137896,3.474550634765625,-11.125919531250002,10.7559369140625,15.860288976834338
1050,1788069422.3561206,3.632621923828125,-10.757086523437502,10.92358828125,15.755495341386757
1051,1788069422.3761206,4.2649070800781255,-10.225392187500002,10.933168359375001,15.565418342091718
1052,1788069422.383121,4.308017431640625,-10.488844335937502,10.856527734375002,15.698377755109007
1053,1788069422.403121,3.4362303222656254,-11.255250585937501,11.057709375,16.148104569944643
1054,1788069422.4142342,3.144037939453125,-11.432482031250002,11.163090234375,16.2849993411229
1055,1788069422.4342341,3.191938330078125,-11.140289648437502,11.048129296875,16.011111289182065
1056,1788069422.4767015,3.091347509765625,-11.422901953125002,11.2445208984375,16.324165175966545
1057,1788069422.4967015,3.2254686035156253,-11.542652929687502,11.1391400390625,16.362057486066167
1058,1788069422.5042725,2.9763865722656253,-12.069557226562502,11.488812890625,16.927076248089076
1059,1788069422.5242724,2.9668064941406254,-12.213258398437501,11.479232812500001,17.021704011181015
1060,1788069422.5357456,2.578813330078125,-11.370211523437503,10.8708978515625,15.940778160999724
1061,1788069422.5557456,2.1381297363281253,-11.456432226562502,11.0050189453125,16.029094800327233
1062,1788069422.5930247,2.348891455078125,-12.649151953125003,11.4457025390625,17.21982702624178
1063,1788069422.6130247,3.1488279785156252,-12.653941992187502,11.5223431640625,17.401199888810737
1064,1788069422.623557,2.4878025878906254,-11.882745703125002,10.866107812500001,16.292977203516998
1065,1788069422.643557,2.085439306640625,-12.404859960937502,11.067289453125001,16.754536806232633
1066,1788069422.6532683,2.3872117675781253,-12.874283789062503,11.7139447265625,17.56879233645678
1067,1788069422.6732683,1.946528173828125,-12.452760351562501,11.239730859375001,16.887621564215028
1068,1788069422.7143612,1.022050634765625,-12.265948828125001,10.7271966796875,16.326997175197416
1069,1788069422.7343612,1.582485205078125,-12.342589453125003,11.0241791015625,16.624569128131142
1070,1788069422.7443922,2.665034033203125,-12.682682226562502,11.42175234375,17.274526374406157
1071,1788069422.7643921,2.372841650390625,-12.519820898437501,10.990648828125,16.82767525506558
1072,1788069422.7737463,1.467524267578125,-13.118575781250001,11.143930078125,17.275353414343478
1073,1788069422.7937462,2.3872117675781253,-13.880191992187502,11.718734765625001,18.321769954628227
1074,1788069422.8362105,3.4649705566406253,-13.808341406250001,12.240849023437502,18.775374780934083
1075,1788069422.8562105,2.636293798828125,-13.329337500000001,11.9917669921875,18.122465582187306
1076,1788069422.86815,2.4542723144531253,-12.606041601562502,11.134350000000001,16.9973376555364
1077,1788069422.88815,1.3238230957031252,-11.954596289062502,10.224242578125,15.786070325433373
1078,1788069422.894503,1.0891111816406251,-11.619293554687502,10.27214296875,15.547059755671398
1079,1788069422.914503,1.0460008300781252,-12.582091406250003,11.19183046875,16.871876337058517
1080,1788069422.9561424,0.7777586425781251,-13.319757421875002,11.90075625,17.878726062155916
1081,1788069422.9761424,0.6963279785156251,-13.185636328125002,11.876806054687501,17.759628377077465
1082,1788069422.9857237,0.9597801269531251,-12.625201757812501,11.258891015625,16.943421266653537
1083,1788069423.0057237,1.299872900390625,-12.194098242187502,10.9954388671875,16.47074307307803
1084,1788069423.0129735,2.118969580078125,-12.553351171875002,11.0912396484375,16.88467514241195
1085,1788069423.0329735,3.0626072753906253,-12.299479101562502,11.038549218750001,16.807924272432174
1086,1788069423.072976,3.0434471191406254,-11.925856054687502,11.7522650390625,17.017765615747052
1087,1788069423.092976,4.533149267578125,-12.016866796875002,11.455282617187502,17.209823640456605
1088,1788069423.103984,4.2984373535156255,-11.638453710937501,11.306791406250001,16.786116297946414
1089,1788069423.123984,3.6278318847656252,-11.724674414062502,11.397802148437501,16.749299929096157
1090,1788069423.1345253,2.401581884765625,-12.270738867187502,11.469652734375,16.96736755490068
1091,1788069423.1545253,1.098691259765625,-11.351051367187502,10.8517376953125,15.742099625929221
1092,1788069423.195126,0.8448191894531251,-11.054068945312501,10.880477929687501,15.533543050090255
1093,1788069423.215126,0.32749497070312505,-10.661285742187502,10.779887109375,15.164967283950059
1094,1788069423.2242606,0.24606430664062504,-10.733136328125001,10.7559369140625,15.19707017751815
1095,1788069423.2442605,0.653217626953125,-11.216930273437502,10.669716210937501,15.494807583486265
1096,1788069423.2535102,1.117851416015625,-11.782154882812502,10.961908593750001,16.131714276189022
1097,1788069423.2735102,1.659125830078125,-11.791734960937502,11.2493109375,16.381230371299505
1098,1788069423.314267,2.123759619140625,-11.882745703125002,11.4073822265625,16.608382510886546
1099,1788069423.334267,2.166869970703125,-12.467130468750002,11.5031830078125,17.10110776838728
1100,1788069423.345244,1.865097509765625,-13.185636328125002,11.6468841796875,17.691509409701556
1101,1788069423.365244,1.419623876953125,-13.501778906250001,11.598983789062501,17.856365546331304
1102,1788069423.3757665,0.969360205078125,-13.180846289062503,11.527133203125,17.537079802112682
1103,1788069423.3957665,0.734648291015625,-12.721002539062502,11.4025921875,17.099202387970113
1104,1788069423.435179,2.123759619140625,-12.040816992187501,11.3690619140625,16.69572393054671
1105,1788069423.455179,3.4027000488281254,-11.317521093750003,12.140258203125,16.942565347913376
1106,1788069423.464153,4.959462744140625,-11.523492773437502,11.8289056640625,17.242684408736217
1107,1788069423.484153,4.034985205078125,-12.093507421875001,11.3786419921875,17.088227554504233
1108,1788069423.523153,1.7980369628906252,-12.184518164062501,11.316371484375,16.725898582218704
1109,1788069423.543153,1.2807127441406252,-9.937989843750001,10.669716210937501,14.637168827660112
1110,1788069423.5536327,2.372841650390625,-11.375001562500001,10.8900580078125,15.925275553604314
1111,1788069423.5736327,2.928486181640625,-12.869493750000002,11.11518984375,17.255357022094685
1112,1788069423.5846205,1.9129979003906252,-12.725792578125002,11.1678802734375,17.038981997472582
1113,1788069423.6046205,2.1477098144531253,-13.094625585937502,11.42175234375,17.508235298994183
1114,1788069423.6436296,2.4111619628906253,-12.859913671875002,11.531923242187501,17.4406518032748
1115,1788069423.6636295,2.281830908203125,-12.438390234375001,11.426542382812501,17.043654970176934
1116,1788069423.6756344,2.6698240722656252,-11.868375585937502,11.0720794921875,16.449232319687304
1117,1788069423.6956344,2.5740232910156253,-11.916275976562503,11.507973046875001,16.764744933934814
1118,1788069423.7056804,2.248300634765625,-12.424020117187501,11.5558734375,17.11576298387207
1119,1788069423.7256804,3.191938330078125,-12.816803320312502,11.397802148437501,17.446168962540803
1120,1788069423.765655,3.493710791015625,-12.165358007812502,11.163090234375,16.876508351264643
1121,1788069423.785655,3.3260594238281254,-11.968966406250003,11.1008197265625,16.65974269688509
1122,1788069423.7956645,3.000336767578125,-11.834845312500002,11.335531640625002,16.660127906630695
1123,1788069423.8156645,1.515424658203125,-11.389371679687502,11.354691796875,16.153740277557336
1124,1788069423.8246236,2.444692236328125,-11.379791601562502,10.933168359375001,15.969043409039696
1125,1788069423.8446236,3.4218602050781253,-11.743834570312503,10.8900580078125,16.37742779228428
1126,1788069423.8844552,2.8135252441406253,-11.657613867187502,10.880477929687501,16.192612060883683
1127,1788069423.9044552,2.459062353515625,-11.322311132812501,10.9283783203125,15.92705778725512
1128,1788069423.9152718,2.9428562988281253,-11.403741796875002,10.92358828125,16.06332814530067
1129,1788069423.9352717,3.3021092285156253,-11.945016210937501,11.052919335937501,16.605853289829728
1130,1788069423.9444366,3.4458104003906254,-11.973756445312501,11.052919335937501,16.655674065430194
1131,1788069423.9644365,3.383539892578125,-12.194098242187502,11.3307416015625,16.986173182508388
1132,1788069424.005441,2.435112158203125,-12.021656835937502,11.3403216796875,16.704876536594394
1133,1788069424.025441,2.621923681640625,-11.949806250000002,11.412172265625001,16.73051191760693
1134,1788069424.033473,3.0099168457031253,-11.964176367187502,11.5223431640625,16.880921407128024
1135,1788069424.053473,3.187148291015625,-12.040816992187501,11.575033593750002,17.003546417283548
1136,1788069424.0665035,2.904535986328125,-12.553351171875002,11.718734765625001,17.416994558400674
1137,1788069424.0865035,2.492592626953125,-12.002496679687502,11.0337591796875,16.49293140060883
1138,1788069424.1234288,4.715170751953125,-11.164239843750002,11.7522650390625,16.881611891558816
1139,1788069424.1434288,3.4889207519531253,-11.485172460937502,10.818207421875,16.159064524086713
1140,1788069424.1545522,2.8039451660156254,-11.940226171875002,11.048129296875,16.507339897452248
1141,1788069424.1745522,3.6948924316406253,-11.758204687500001,10.655346093750001,16.292452483654376
1142,1788069424.1855428,3.441020361328125,-12.476710546875001,11.038549218750001,17.010540733684596
1143,1788069424.2055428,3.503290869140625,-12.572511328125001,11.1774603515625,17.183617428247967
1144,1788069424.244207,3.560771337890625,-12.098297460937502,10.947538476562501,16.700194390182606
1145,1788069424.264207,3.2158885253906253,-11.988126562500002,10.8708978515625,16.499501131408895
1146,1788069424.275159,2.6075535644531254,-12.074347265625002,10.9666986328125,16.518404171872348
1147,1788069424.2951589,2.1477098144531253,-12.136617773437502,11.0433392578125,16.548881847084413
1148,1788069424.3063712,1.898627783203125,-11.504332617187503,11.0720794921875,16.079347023662187
1149,1788069424.3263712,2.2914109863281253,-12.088717382812503,11.210990625,16.645538833682025
1150,1788069424.3647175,2.128549658203125,-12.088717382812503,10.7846771484375,16.33943306253249
1151,1788069424.3847175,1.352563330078125,-14.100533789062501,11.086449609375,17.987880521050176
1152,1788069424.3943603,1.505844580078125,-15.748307226562503,12.279169335937501,20.026351339726844
1153,1788069424.4143603,3.230258642578125,-13.300597265625003,11.464862695312501,17.85451021850418
1154,1788069424.423664,3.4985008300781253,-11.719884375000001,11.6468841796875,16.8892009555361
1155,1788069424.443664,4.365497900390626,-10.646915625000002,11.15351015625,16.02545391088053
1156,1788069424.48328,4.983412939453125,-11.030118750000002,10.6122357421875,16.097126191093
1157,1788069424.50328,4.4517186035156255,-12.304269140625001,10.8708978515625,17.011444903620916
1158,1788069424.5154307,4.106835791015625,-12.447970312500003,10.9379583984375,17.07211173350262
1159,1788069424.5354307,3.7619529785156254,-12.059977148437502,10.8517376953125,16.653995017450427
1160,1788069424.5428312,3.072187353515625,-11.001378515625001,10.23382265625,15.336224781175206
1161,1788069424.5628312,1.9225779785156252,-12.222838476562503,10.77030703125,16.404072666719177
1162,1788069424.604785,0.9933104003906251,-12.893443945312502,11.134350000000001,17.064621655487702
1163,1788069424.624785,1.0891111816406251,-12.883863867187502,11.5127630859375,17.31253375988389
1164,1788069424.6358006,1.9944285644531252,-12.285108984375002,11.527133203125,16.9639750040863
1165,1788069424.6558006,3.057817236328125,-12.069557226562502,11.5127630859375,16.957835114453072
1166,1788069424.6654763,4.240956884765625,-12.390489843750002,11.5894037109375,17.487830975898778
1167,1788069424.6854763,4.729540869140625,-12.792853125000002,11.6181439453125,17.916665890859697
1168,1788069424.7236776,4.763071142578125,-12.970084570312501,10.976278710937502,17.646207377521627
1169,1788069424.7436776,3.929604345703125,-13.554469335937501,11.507973046875001,18.209856477749636
1170,1788069424.7534916,3.546401220703125,-12.519820898437501,10.746356835937501,16.876227724004487
1171,1788069424.7734916,3.2925291503906253,-11.854005468750001,10.976278710937502,16.487476708080795
1172,1788069424.7843277,3.484130712890625,-11.192980078125002,10.775097070312501,15.922458564193782
1173,1788069424.8043277,4.925932470703125,-9.803868750000001,10.176342187500001,14.964577958975198
1174,1788069424.8449032,4.686430517578125,-9.5978970703125,10.61702578125,15.059996534133997
1175,1788069424.8649032,5.294765478515624,-9.7607583984375,10.387103906250001,15.205225205316198
1176,1788069424.874563,3.8912840332031253,-12.625201757812501,11.201410546875001,17.320779690654113
1177,1788069424.894563,4.494828955078125,-13.458668554687502,11.278051171875001,18.125498195519317
1178,1788069424.9358153,4.906772314453125,-13.530519140625001,11.603773828125,18.487804894442764
1179,1788069424.9558153,4.499618994140625,-13.161686132812502,11.637304101562501,18.135694078345704
1180,1788069424.9643905,4.054145361328125,-12.476710546875001,11.584613671875001,17.501647768363796
1181,1788069424.9843905,3.589511572265625,-12.261158789062502,11.316371484375,17.06695262050051
1182,1788069424.994274,3.0290770019531252,-11.825265234375001,11.373851953125001,16.684625066170494
1183,1788069425.014274,2.8039451660156254,-11.547442968750001,11.53671328125,16.562043984494377
1184,1788069425.0537899,2.4207420410156253,-11.197770117187503,11.38343203125,16.150311837132012
1185,1788069425.0737898,2.406371923828125,-10.407413671875002,10.8613177734375,15.233945941511948
1186,1788069425.0858252,2.861425634765625,-9.937989843750001,10.468534570312501,14.715353031701278
1187,1788069425.1058252,3.417070166015625,-9.918829687500002,10.708036523437501,14.99071703009489
1188,1788069425.1147478,3.4362303222656254,-9.6936978515625,9.860199609375,14.24777151703957
1189,1788069425.1347477,4.020615087890625,-12.673102148437502,11.316371484375,17.459470992045567
1190,1788069425.1761801,4.475668798828125,-13.793971289062503,11.4840228515625,18.49832522082726
1191,1788069425.19618,3.5655613769531254,-13.377237890625002,11.096029687500002,17.742198182330018
1192,1788069425.206321,2.9763865722656253,-13.247906835937503,11.067289453125001,17.517157543405684
1193,1788069425.226321,3.699682470703125,-14.052633398437502,11.7522650390625,18.689031258020837
1194,1788069425.2371619,3.6613621582031253,-13.200006445312502,11.838485742187501,18.105123243927125
1195,1788069425.2571619,2.794365087890625,-10.982218359375002,10.976278710937502,15.776447340183886
1196,1788069425.294176,1.8363572753906252,-10.862467382812502,11.009808984375,15.575021655136473
1197,1788069425.314176,1.707026220703125,-11.384581640625003,10.909218164062501,15.859813321768168
1198,1788069425.3252633,2.698564306640625,-11.408531835937502,10.866107812500001,15.984653482686069
1199,1788069425.3452632,3.417070166015625,-11.609713476562503,10.602655664062501,16.08968994909559
1200,1788069425.3548765,3.4218602050781253,-12.553351171875002,10.607445703125,16.78730643230944
1201,1788069425.3748765,3.316479345703125,-13.319757421875002,10.789467187500001,17.459311991547917
1202,1788069425.4149387,3.3452195800781253,-13.247906835937503,10.8613177734375,17.45467711956331
1203,1788069425.4349387,2.799155126953125,-12.529400976562503,10.296093164062501,16.456934486692468
1204,1788069425.44547,3.254208837890625,-12.692262304687501,10.607445703125,16.858271023931895
1205,1788069425.46547,3.321269384765625,-13.511358984375002,10.7128265625,17.55996312322546
1206,1788069425.4760277,2.7033543457031253,-11.542652929687502,11.527133203125,16.53528836326244
1207,1788069425.4960277,6.070751806640625,-8.9560318359375,11.440912500000001,15.746714342262411
1208,1788069425.539325,5.476786962890625,-10.551114843750002,9.8745697265625,15.454072187214441
1209,1788069425.559325,4.006244970703126,-12.534191015625002,10.214662500000001,16.658189372508794
1210,1788069425.5654223,3.757162939453125,-14.090953710937502,10.779887109375,18.134972178866242
1211,1788069425.5854223,2.8901658691406253,-13.904142187500002,10.779887109375,17.829307188228935
1212,1788069425.59625,3.4553904785156253,-14.349615820312502,11.1103998046875,18.474094872809854
1213,1788069425.61625,2.243510595703125,-15.130392187500002,10.8325775390625,18.743181258270823
1214,1788069425.6561782,2.439902197265625,-15.714776953125002,10.387103906250001,18.99471676487766
1215,1788069425.6761782,2.516542822265625,-16.030919531250003,11.014599023437501,19.612362439054092
1216,1788069425.6853852,1.9704783691406251,-15.743517187500002,11.15351015625,19.394378238085668
1217,1788069425.7053852,1.778876806640625,-15.805787695312501,10.7271966796875,19.18489186748767
1218,1788069425.7163963,1.390883642578125,-16.0261294921875,10.640975976562501,19.287346980373783
1219,1788069425.7363963,1.390883642578125,-15.676456640625002,10.8996380859375,19.143875274275228
1220,1788069425.7753692,1.711816259765625,-14.569957617187502,9.6398578125,17.553940825895914
1221,1788069425.7953691,2.588393408203125,-13.228746679687502,8.298646875000001,15.829310127321397
1222,1788069425.80342,2.9859666503906253,-12.333009375000001,9.9464203125,16.1229772099943
1223,1788069425.82342,3.340429541015625,-10.603805273437501,10.2577728515625,15.126832440062378
1224,1788069425.8333547,4.614579931640625,-9.549996679687501,10.492484765625,14.919417585295193
1225,1788069425.8533547,4.087675634765625,-9.6362173828125,10.19550234375,14.61211981833184
1226,1788069425.8928878,3.211098486328125,-10.661285742187502,11.048129296875,15.685513320447534
1227,1788069425.9128878,2.760834814453125,-11.034908789062502,14.698139062500001,18.585658792634003
1228,1788069425.9235342,3.4362303222656254,-13.329337500000001,16.432133203125,21.4358092597832
1229,1788069425.9435341,-0.7885841308593751,-7.916593359375001,7.2687884765625,10.776344522432057
1230,1788069425.9526095,1.7213963378906252,-7.495069921875,10.147601953125001,12.732364426333584
1231,1788069425.9726095,1.0555809082031251,-7.107076757812501,10.1140716796875,12.406419186737901
1232,1788069426.016896,1.6447557128906252,-8.4003873046875,10.5164349609375,13.55976152118723
1233,1788069426.036896,1.8507273925781251,-9.583526953125,10.9666986328125,14.681200892496632
1234,1788069426.0483508,1.7261863769531252,-9.4541958984375,11.450492578125,14.949090934759436
1235,1788069426.0683508,2.392001806640625,-8.965611914062501,11.5894037109375,14.846486049285986
1236,1788069426.0743794,3.0099168457031253,-9.3200748046875,11.455282617187502,15.071393221021616
