imu_index,t_imu,ax,ay,az,mag
26,1787931576.1025646,-0.050247509765625045,-0.3015808593750002,0.38473593749999974,0.4914240211701234
27,1787931576.1225646,-0.016717236328125044,-0.11955937500000018,0.3080953124999997,0.3309027526711036
28,1787931576.162941,0.11261381835937496,0.08641230468749983,0.18834433593749972,0.23584432867173497
29,1787931576.182941,0.471866748046875,0.31154414062499985,0.1596041015624997,0.5875299555815647
30,1787931576.192625,0.5245571777343749,0.4265050781249998,0.0973335937499997,0.6830378048478392
31,1787931576.212625,0.534137255859375,0.34028437499999986,0.2410347656249997,0.6776384155329614
32,1787931576.2232542,0.452706591796875,0.4169249999999998,0.0398531249999997,0.61673169648852
33,1787931576.2432542,0.28984526367187496,0.38339472656249984,-0.12300820312500031,0.49611773931698316
34,1787931576.2832303,0.14614409179687496,0.16784296874999982,0.059013281249999695,0.2302431868478162
35,1787931576.3032303,0.10782377929687496,0.12473261718749983,0.1404439453124997,0.21658415211470342
36,1787931576.3128164,0.05992338867187496,0.08641230468749983,0.1117037109374997,0.15341322611996133
37,1787931576.3328164,0.040763232421874955,-0.018968554687500177,0.1308638671874997,0.138371958574272
38,1787931576.3435705,0.17009428710937496,0.06246210937499983,0.0685933593749997,0.1937488853262614
39,1787931576.3635705,0.28984526367187496,0.14868281249999984,0.1308638671874997,0.3510586950086786
40,1787931576.4028242,0.495816943359375,0.12952265624999984,0.2218746093749997,0.5584253773688996
41,1787931576.4228241,0.423966357421875,0.11515253906249984,0.07817343749999969,0.44622714597913016
42,1787931576.433642,0.414386279296875,-0.023758593750000175,0.0638033203124997,0.4199420471081512
43,1787931576.453642,0.356905810546875,-0.06686894531250018,0.0685933593749997,0.3695379038741166
44,1787931576.4630325,0.529347216796875,0.028931835937499827,0.0446431640624997,0.5320136644474683
45,1787931576.4830325,0.5437173339843749,-0.009388476562500175,0.1164937499999997,0.5561362032418887
46,1787931576.5232673,0.39043608398437496,-0.08602910156250018,0.0877535156249997,0.40931897280391477
47,1787931576.5432673,0.22278471679687498,-0.14829960937500017,0.025483007812499698,0.26884045057657036
48,1787931576.5527983,0.17009428710937496,-0.18182988281250018,0.0350630859374997,0.2514430209536835
49,1787931576.5727983,0.18446440429687497,-0.09560917968750018,0.0398531249999997,0.21155732855513004
50,1787931576.5834007,0.304215380859375,0.028931835937499827,0.020692968749999697,0.3062878516001205
51,1787931576.6034007,0.35211577148437495,0.06246210937499983,0.0542232421874997,0.36170041695985816
52,1787931576.642552,0.43833647460937497,0.13910273437499984,0.1643941406249997,0.4883788172673024
53,1787931576.6625519,0.529347216796875,0.22053339843749983,0.2122945312499997,0.6114837886286504
54,1787931576.6737056,0.605987841796875,0.17263300781249982,0.2506148437499997,0.6781085604089229
55,1787931576.6937056,0.577247607421875,0.11994257812499984,0.17397421874999972,0.6147097291496398
56,1787931576.7033234,0.39043608398437496,0.05288203124999983,0.0925435546874997,0.4047235530833091
57,1787931576.7233233,0.37127592773437496,-0.028548632812500176,0.1404439453124997,0.39797655800992127
58,1787931576.7631972,0.443126513671875,0.009771679687499826,0.0446431640624997,0.44547682873570066
59,1787931576.7831972,0.558087451171875,0.07204218749999983,-0.027207421875000307,0.563375473144145
60,1787931576.7927616,0.49102690429687496,0.019351757812499825,0.020692968749999697,0.4918435830927293
61,1787931576.8127615,0.471866748046875,-0.04770878906250018,0.0446431640624997,0.476368941644661
62,1787931576.8233967,0.38085600585937496,-0.10518925781250019,0.015902929687499696,0.3954351784185955
63,1787931576.8433967,0.39043608398437496,-0.07644902343750018,-0.0990580078125003,0.409996680198002
64,1787931576.88305,0.36169584960937495,-0.052498828125000174,-0.12300820312500031,0.3856306945967699
65,1787931576.90305,0.366485888671875,-0.06686894531250018,0.0829634765624997,0.3816625484458182
66,1787931576.9127936,0.366485888671875,0.028931835937499827,0.1164937499999997,0.3856419991590527
67,1787931576.9327936,0.39043608398437496,0.038511914062499826,0.1404439453124997,0.4167109369536054
68,1787931576.9434028,0.376065966796875,0.033721874999999825,0.0877535156249997,0.38763830530654597
69,1787931576.9634027,0.385646044921875,0.05288203124999983,0.059013281249999695,0.3937028683625538
70,1787931577.003171,0.30900541992187497,0.024141796874999826,0.1548140624999997,0.3464600551942487
71,1787931577.023171,0.285055224609375,0.028931835937499827,0.1643941406249997,0.33033159957783
72,1787931577.0339522,0.313795458984375,0.024141796874999826,0.1212837890624997,0.3372835215733571
73,1787931577.0539522,0.36169584960937495,0.004981640624999826,0.025483007812499698,0.36262665105468483
74,1787931577.0631897,0.41917631835937497,0.04809199218749983,-0.0894779296875003,0.4313095471781767
75,1787931577.0831897,0.462286669921875,0.06246210937499983,-0.1325882812500003,0.48496405291512096
76,1787931577.1232145,0.792799365234375,0.13431269531249984,-0.1709085937500003,0.8220586846787393
77,1787931577.1432145,0.931710498046875,0.04330195312499983,-0.022417382812500306,0.9329855574269934
78,1787931577.1539223,0.931710498046875,-0.1291394531250002,0.1069136718749997,0.9466741697954874
79,1787931577.1739223,0.673048388671875,-0.16745976562500017,-0.06552773437500031,0.6966568671658293
80,1787931577.1824946,0.514977099609375,-0.16745976562500017,-0.1325882812500003,0.5575157742612251
81,1787931577.2024946,0.40959624023437496,-0.18661992187500018,-0.017627343750000305,0.4504517715610048
82,1787931577.243014,0.24673491210937498,-0.1339294921875002,-0.05115761718750031,0.28536350069258243
83,1787931577.263014,0.19404448242187497,-0.1435095703125002,0.0015328124999996952,0.24135162614702213
84,1787931577.3027685,0.18446440429687497,-0.04291875000000018,0.0877535156249997,0.2087338378383115
85,1787931577.3227684,0.323375537109375,0.15347285156249985,0.015902929687499696,0.3582995357799776
86,1787931577.333344,0.452706591796875,0.19658320312499983,0.1404439453124997,0.5131400547435054
87,1787931577.353344,0.356905810546875,0.32112421874999986,0.0350630859374997,0.48138543960674596
88,1787931577.3625548,0.23715483398437498,0.42171503906249985,-0.012837304687500306,0.4839946134465568
89,1787931577.3825548,0.15572416992187496,0.37860468749999987,0.1069136718749997,0.42310998538042643
90,1787931577.393499,-0.17478852539062506,0.17742304687499982,0.1931343749999997,0.31516797581175354
91,1787931577.4134989,-0.5244613769531251,-0.20099003906250018,0.3895259765624997,0.6835109495354719
92,1787931577.4527605,-0.735223095703125,-0.3159509765625002,0.3224654296874997,0.8627641470237553
93,1787931577.4727604,-0.639422314453125,-0.2441003906250002,0.2122945312499997,0.7165995150169485
94,1787931577.4833229,-0.3616000488281251,-0.16745976562500017,0.2601949218749997,0.4759188647082816
95,1787931577.5033228,-0.09814790039062504,-0.014178515625000176,0.1308638671874997,0.16419315573946433
96,1787931577.5149686,-0.026297314453125047,0.04330195312499983,0.059013281249999695,0.07777644409316864
97,1787931577.5349686,0.23236479492187498,0.07204218749999983,0.0877535156249997,0.2586197096190026
98,1787931577.5730977,0.404806201171875,0.18221308593749982,-0.012837304687500306,0.44411087082586814
99,1787931577.5930977,0.447916552734375,0.12952265624999984,0.0733833984374997,0.4720068642104038
100,1787931577.6029818,0.452706591796875,0.10078242187499983,0.1117037109374997,0.47705143732363003
101,1787931577.6229818,0.41917631835937497,0.04330195312499983,0.059013281249999695,0.4255189917990163
102,1787931577.632733,0.37127592773437496,-0.04770878906250018,0.059013281249999695,0.37895185767155504
103,1787931577.652733,0.356905810546875,-0.09560917968750018,0.006322851562499695,0.36954411278563204
104,1787931577.6927056,0.30900541992187497,-0.17703984375000018,-0.022417382812500306,0.35683328722006996
105,1787931577.7127056,0.27068510742187496,-0.26326054687500017,0.015902929687499696,0.3779278318588904
106,1787931577.7225397,0.27068510742187496,-0.2776306640625002,0.0446431640624997,0.39031042146641187
107,1787931577.7425396,0.20841459960937497,-0.2680505859375002,0.020692968749999697,0.34017048800191607
108,1787931577.7527168,0.24194487304687498,-0.2297302734375002,-0.031997460937500305,0.3351673576495538
109,1787931577.7727168,0.24194487304687498,-0.21536015625000018,-0.0846878906250003,0.33479748701596457
110,1787931577.8130157,0.337745654296875,-0.21057011718750018,-0.05115761718750031,0.4012841923688056
111,1787931577.8330157,0.366485888671875,-0.10997929687500017,-0.036787500000000306,0.384396504267382
112,1787931577.8427927,0.265895068359375,-0.04770878906250018,-0.04636757812500031,0.2740917150021592
113,1787931577.8627927,0.18925444335937497,-0.09560917968750018,0.011112890624999696,0.21232488292667626
114,1787931577.8729486,0.23715483398437498,-0.10518925781250019,0.0398531249999997,0.26247945979365067
115,1787931577.8929486,0.28026518554687496,-0.09081914062500018,0.0350630859374997,0.29669194550737016
116,1787931577.9335501,0.23715483398437498,-0.062078906250000176,-0.0032572265625003052,0.24516691336359445
117,1787931577.95355,0.313795458984375,0.04809199218749983,-0.017627343750000305,0.3179483496410349
118,1787931577.9630673,0.323375537109375,0.09120234374999983,0.020692968749999697,0.33662710001121177
119,1787931577.9830673,0.423966357421875,0.10078242187499983,0.0638033203124997,0.44042642117323405
120,1787931577.9930787,0.39043608398437496,0.12473261718749983,0.020692968749999697,0.41039829485901347
121,1787931578.0130787,0.31858549804687497,0.009771679687499826,0.0542232421874997,0.3233146536781386
122,1787931578.0527925,0.347325732421875,-0.03333867187500018,0.0015328124999996952,0.348925466194345
123,1787931578.0727925,0.40001616210937496,-0.023758593750000175,-0.0032572265625003052,0.40073433874647024
124,1787931578.0831757,0.443126513671875,-0.062078906250000176,0.0446431640624997,0.4496753382360411
125,1787931578.1031756,0.285055224609375,-0.15308964843750017,0.020692968749999697,0.32422387403074915
126,1787931578.112624,0.19404448242187497,-0.2488904296875002,0.025483007812499698,0.31662136825485065
127,1787931578.132624,0.23236479492187498,-0.20578007812500018,-0.031997460937500305,0.31202992801759105
128,1787931578.1728954,0.323375537109375,-0.18661992187500018,-0.017627343750000305,0.3737772819328224
129,1787931578.1928954,0.40001616210937496,-0.20099003906250018,0.0446431640624997,0.4498921402387136
130,1787931578.2025034,0.476656787109375,-0.1435095703125002,-0.017627343750000305,0.4981038172072074
131,1787931578.2225034,0.5437173339843749,-0.10518925781250019,-0.017627343750000305,0.5540794550259932
132,1787931578.232543,0.572457568359375,-0.09081914062500018,-0.008047265625000305,0.5796727890455368
133,1787931578.252543,0.586827685546875,-0.062078906250000176,-0.012837304687500306,0.5902417466743081
134,1787931578.2932508,0.471866748046875,-0.11955937500000018,0.07817343749999969,0.4930149677172997
135,1787931578.3132508,0.37127592773437496,-0.16745976562500017,0.1164937499999997,0.4236264644793373
136,1787931578.32277,0.31858549804687497,-0.21536015625000018,0.1212837890624997,0.403220130890258
137,1787931578.34277,0.30900541992187497,-0.3494812500000002,0.3320455078124997,0.5726043249060538
138,1787931578.3527093,0.514977099609375,-0.2488904296875002,0.3607857421874997,0.6762501097063849
139,1787931578.3727093,0.366485888671875,-0.09560917968750018,0.1979244140624997,0.4273489154287331
140,1787931578.4131055,0.323375537109375,-0.10997929687500017,0.1308638671874997,0.36577661964259517
141,1787931578.4331055,0.10782377929687496,-0.19620000000000018,0.025483007812499698,0.22532152819700382
142,1787931578.4426718,0.08387358398437496,-0.2488904296875002,0.020692968749999697,0.2634566815172865
143,1787931578.4626718,0.20362456054687497,-0.12434941406250018,-0.07510781250000031,0.2501338080590672
144,1787931578.4723413,0.33295561523437495,-0.023758593750000175,-0.11821816406250031,0.35411784310789385
145,1787931578.4923413,0.28026518554687496,-0.12434941406250018,0.0829634765624997,0.31763861454591413
146,1787931578.5334249,-0.007137158203125044,-0.018968554687500177,0.011112890624999696,0.023113663322639408
147,1787931578.5534248,0.06950346679687495,0.07683222656249983,0.0638033203124997,0.12167492189533159
148,1787931578.5631921,0.07908354492187496,0.014561718749999826,0.1117037109374997,0.13763709444612962
149,1787931578.583192,0.012022998046874957,-0.057288867187500175,-0.012837304687500306,0.0599279832574225
150,1787931578.5927513,0.040763232421874955,-0.2680505859375002,0.059013281249999695,0.2774803148023451
151,1787931578.6127512,0.11740385742187497,-0.3015808593750002,0.1069136718749997,0.3408301831010491
152,1787931578.6530313,-0.050247509765625045,-0.19140996093750018,0.1021236328124997,0.22269221307123468
153,1787931578.6730313,-0.011927197265625045,-0.10518925781250019,0.2793550781249997,0.29874118843571346
154,1787931578.6827025,-0.12209809570312505,-0.1339294921875002,0.4709566406249997,0.5046238313840482
155,1787931578.7027025,-0.14604829101562505,-0.10997929687500017,0.5523873046874997,0.5818567550777638
156,1787931578.7131777,-0.17478852539062506,-0.08602910156250018,0.7535689453124997,0.7783432342246404
157,1787931578.7331777,-0.19873872070312507,0.11515253906249984,0.5811275390624997,0.6248731095319212
158,1787931578.7727406,-0.21789887695312504,0.21095332031249983,0.4661666015624997,0.5561407414860303
159,1787931578.7927406,-0.21310883789062504,0.24448359374999984,0.5044869140624997,0.5997454884034656
160,1787931578.8027778,-0.15562836914062506,0.47440546874999984,0.3895259765624997,0.6332544705552791
161,1787931578.8227777,-0.07419770507812505,0.5941564453124999,0.4901167968749997,0.7737839850528414
162,1787931578.8626938,-0.021507275390625046,0.7761779296874999,0.5140669921874997,0.931224792348982
163,1787931578.8826938,-0.06940766601562505,0.9629894531249998,0.4661666015624997,1.072136843571777
164,1787931578.8924344,-0.14125825195312505,1.0492101562499998,0.5236470703124997,1.1811020700895691
165,1787931578.9124343,-0.09335786132812506,1.1641710937499998,0.4901167968749997,1.2665798436631786
166,1787931578.9227507,-0.04066743164062504,1.2743419921874999,0.4901167968749997,1.3659486914330496
167,1787931578.9427507,-0.016717236328125044,1.3509826171875,0.6338179687499997,1.4923668166518622
168,1787931578.9831676,0.0024429199218749566,1.413253125,0.5954976562499997,1.5335931082850018
169,1787931579.0031676,0.23715483398437498,1.4276232421875,0.4901167968749997,1.5279283397774632
170,1787931579.012693,0.22278471679687498,1.422833203125,0.4470064453124997,1.5079463240129365
171,1787931579.032693,-0.0023471191406250437,1.461153515625,0.4086861328124997,1.5172341481606566
172,1787931579.0430455,-0.13646821289062505,1.4036730468749998,0.4517964843749997,1.4808921834308248
173,1787931579.0630455,-0.24184907226562505,1.3318224609374998,0.4613765624999997,1.430073555324228
174,1787931579.1032412,-0.21310883789062504,1.2360216796874999,0.4901167968749997,1.3466177794844427
175,1787931579.1232412,-0.29932954101562503,1.192911328125,0.4709566406249997,1.316979790369754
176,1787931579.1324537,-0.39513032226562506,1.2072814453124998,0.38473593749999974,1.327282261379839
177,1787931579.1524537,-0.30411958007812506,1.2120714843749998,0.4182662109374997,1.3177832239916865
178,1787931579.1627944,-0.2514291503906251,1.1881212890625,0.4805367187499997,1.3060491389135036
179,1787931579.1827943,-0.21310883789062504,1.2216515625,0.4422164062499997,1.3165877361203273
180,1787931579.2231464,-0.12688813476562505,1.2216515625,0.4661666015624997,1.3137139868766416
181,1787931579.2431464,0.040763232421874955,1.2360216796874999,0.38473593749999974,1.2951575098724448
182,1787931579.2530437,-0.031087353515625044,1.0923205078124998,0.5188570312499997,1.2096872051129277
183,1787931579.2730436,-0.19873872070312507,1.0444201171874998,0.4326363281249997,1.1478173429192242
184,1787931579.2827344,-0.23226899414062505,0.9629894531249998,0.4901167968749997,1.1052203613072344
185,1787931579.3027344,-0.19873872070312507,0.9773595703124999,0.6002876953124997,1.1640765120608445
186,1787931579.3429224,-0.15562836914062506,1.1450109375,0.49490683593749973,1.257061260453788
187,1787931579.3629224,-0.21310883789062504,1.0060998046874998,0.7823091796874997,1.2921531822514878
188,1787931579.372337,-0.14125825195312505,0.9725695312499999,0.8733199218749997,1.3147368834882716
189,1787931579.392337,-0.2514291503906251,1.1210607421874998,0.6817183593749997,1.3359392676499484
190,1787931579.4029322,-0.24184907226562505,1.0683703125,0.7439888671874997,1.3241697522923674
191,1787931579.4229321,-0.42387055664062506,1.2264416015625,0.6098677734374998,1.4337935527500592
192,1787931579.462928,-0.33285981445312507,1.5234240234374998,0.26498496093749974,1.581718508707323
193,1787931579.482928,-0.026297314453125047,1.6288048828125,0.3080953124999997,1.6578961416825122
194,1787931579.4926927,0.13656401367187496,1.8299865234375,0.2314546874999997,1.849613926785469
195,1787931579.5126927,0.16051420898437496,1.8778869140624999,0.3512056640624997,1.917177480506862
196,1787931579.5222518,0.11261381835937496,1.8108263671875,0.4517964843749997,1.8697310147399722
197,1787931579.5422518,0.08387358398437496,1.710235546875,0.5475972656249998,1.7977216606597337
198,1787931579.5822265,0.08387358398437496,1.6048546874999998,0.6481880859374998,1.7328419260949413
199,1787931579.6022265,0.21320463867187497,1.6862853515624998,0.5619673828124997,1.7902016211004277
200,1787931579.6125064,0.323375537109375,1.6383849609374999,0.7056685546874998,1.8129658373233883
201,1787931579.6325064,0.37127592773437496,1.62401484375,0.7535689453124997,1.828424508306195
202,1787931579.6427665,0.16530424804687496,1.5521642578125,0.5763374999999997,1.6639423943031264
203,1787931579.6627665,0.29942534179687497,1.2647619140625,0.6817183593749997,1.467657370124974
204,1787931579.7025268,0.294635302734375,1.1114806640625,0.6960884765624997,1.344149692335379
205,1787931579.7225268,0.347325732421875,1.1258507812499998,0.4805367187499997,1.2724349429776924
206,1787931579.7321746,0.06471342773437495,0.9055089843749998,0.5092769531249998,1.040911794292513
207,1787931579.7521746,0.18925444335937497,0.7953380859374999,0.5188570312499997,0.9682936198031855
208,1787931579.7629716,0.10782377929687496,0.7186974609374999,0.6433980468749997,0.9706250843979022
209,1787931579.7829716,0.15572416992187496,0.7139074218749999,0.4661666015624997,0.866732441136477
210,1787931579.8229184,0.09824370117187496,0.6899572265624999,0.2314546874999997,0.7343460163107635
211,1787931579.8429184,0.21320463867187497,0.5941564453124999,0.39431601562499974,0.7442870545938345
212,1787931579.8524556,0.40959624023437496,0.6851671874999998,0.4517964843749997,0.9172476318499847
213,1787931579.8724556,0.634728076171875,0.7665978515624998,0.18834433593749972,1.0129292105477203
214,1787931579.8824904,0.696998583984375,0.6085265624999998,0.0973335937499997,0.9303684387470267
215,1787931579.9024904,0.725738818359375,0.5462560546874998,-0.1661185546875003,0.9234110048986198
216,1787931579.9432075,0.946080615234375,0.49356562499999984,-0.3241898437500003,1.1152464353202585
217,1787931579.9632075,0.922130419921875,0.23969355468749984,-0.1421683593750003,0.9633220406029348
218,1787931579.972341,0.610777880859375,0.06725214843749983,-0.12300820312500031,0.6266605853670468
219,1787931579.992341,0.395226123046875,-0.04770878906250018,-0.0846878906250003,0.40700350822933423
220,1787931580.0029004,0.43833647460937497,-0.1291394531250002,-0.10863808593750031,0.4697000074968735
221,1787931580.0229003,0.443126513671875,-0.052498828125000174,-0.3481400390625003,0.5659670669499489
222,1787931580.063918,0.534137255859375,-0.09081914062500018,-0.3481400390625003,0.6440125862118583
223,1787931580.083918,0.596407763671875,-0.15787968750000017,-0.25233925781250033,0.6665608129244834
224,1787931580.0922072,0.8023794433593749,-0.22015019531250019,-0.24275917968750033,0.8667242346585103
225,1787931580.1122072,0.677838427734375,-0.3399011718750002,-0.1852787109375003,0.7805933265677267
226,1787931580.1228964,0.534137255859375,-0.3207410156250002,-0.3433500000000003,0.7113836023560989
227,1787931580.1428964,0.26110502929687496,-0.4404919921875002,-0.3146097656250003,0.6009894642438022
228,1787931580.1828501,0.21320463867187497,-0.5123425781250002,-0.24275917968750033,0.6057088034967997
229,1787931580.20285,0.38085600585937496,-0.3351111328125002,-0.3146097656250003,0.5969338934594441
230,1787931580.2145035,0.620357958984375,-0.20099003906250018,-0.24754921875000033,0.6975110097922042
231,1787931580.2345035,0.620357958984375,-0.09560917968750018,-0.43915078125000034,0.7660538631116364
232,1787931580.2728071,0.41917631835937497,-0.19620000000000018,-0.5493216796875003,0.7183018402092652
233,1787931580.292807,0.11740385742187497,-0.2967908203125002,-0.6020121093750004,0.681386114177153
234,1787931580.3029726,0.20362456054687497,-0.6512537109375002,-0.20922890625000032,0.7137023839657147
235,1787931580.3229725,-0.14125825195312505,-1.2116882812500003,0.5571773437499997,1.3411148261993593
236,1787931580.3329847,-0.031087353515625044,-0.8476453125000002,-0.11821816406250031,0.856413763122789
237,1787931580.3529847,-0.30890961914062504,-1.3505994140625002,0.1164937499999997,1.390364960667751
238,1787931580.3970273,0.02639311523437496,-1.5134607421875002,-0.1709085937500003,1.5233088203289957
239,1787931580.4170272,0.11740385742187497,-1.3937097656250002,-0.5014212890625003,1.485810851239527
240,1787931580.4225097,-0.045457470703125044,-1.5326208984375003,0.0350630859374997,1.5336957390452504
241,1787931580.4425097,-0.10293793945312504,-1.0057166015625003,-0.1517484375000003,1.022296283041747
242,1787931580.4528086,-0.18915864257812506,-0.8907556640625002,-0.1900687500000003,0.9302433954874322
243,1787931580.4728086,-0.23705903320312505,-0.9578162109375002,-0.10863808593750031,0.9926787561311232
244,1787931580.5122578,-0.13167817382812505,-0.4788123046875002,-0.3625101562500003,0.6148284134352162
245,1787931580.5322578,-0.14604829101562505,-0.3494812500000002,0.0446431640624997,0.3813925268114972
246,1787931580.5429618,-0.03587739257812505,-0.052498828125000174,0.0829634765624997,0.10452871708788761
247,1787931580.5629618,-0.16999848632812506,0.16305292968749982,-0.0798978515625003,0.24873562253491924
248,1787931580.5721333,-0.22268891601562504,0.04330195312499983,0.07817343749999969,0.2399510341532625
249,1787931580.5921333,-0.26579926757812505,0.19658320312499983,-0.0032572265625003052,0.330612788501643
250,1787931580.632288,-0.24663911132812505,0.34507441406249983,0.030273046874999696,0.42523365323596013
251,1787931580.652288,-0.2801693847656251,0.40255488281249985,0.059013281249999695,0.4939917865714226
252,1787931580.6625087,-0.33764985351562504,0.42171503906249985,-0.1804886718750003,0.5695850756698339
253,1787931580.6825087,-0.37597016601562505,0.24927363281249984,-0.04636757812500031,0.4534764184062228
254,1787931580.692658,-0.16999848632812506,0.26364374999999984,0.0398531249999997,0.31622109961256817
