imu_index,t_imu,ax,ay,az,mag,vx,vy,vz,velocity
0,1791353567.8918822,-0.027638525390624915,0.01379531249999998,0.06112089843750105,0.06848330423211334,0.0,0.0,0.0,0.0
1,1791353567.9118822,-0.03242856445312491,0.06648574218749999,0.03717070312500105,0.08278663465511903,-0.00012533963510536665,0.0001380104738515801,0.00022536633292527853,0.00029248401501154146
2,1791353567.9521284,-0.06595883789062491,0.03774550781249998,-0.005939648437498955,0.07622710200097021,-0.0006367082539330533,0.0006886916172797206,0.0007051180077366046,0.001173407409714236
3,1791353567.9721284,-0.06116879882812492,-0.005364843750000022,-0.0011496093749989544,0.06141437209849675,-0.0010434012318728816,0.0009698698514219264,0.0008971308634492765,0.0016835015430715474
4,1791353567.9671552,-0.08032895507812492,-0.024525000000000022,0.02759062500000105,0.08840508603487751,-0.0010434012318728816,0.0009698698514219264,0.0008971308634492765,0.0016835015430715474
5,1791353567.9871552,-0.08032895507812492,-0.029315039062500024,0.02759062500000105,0.08985185099412252,-0.00175863300802423,0.0010541516295775634,0.0011523442105356016,0.002352004016707519
6,1791353568.011929,-0.06595883789062491,-0.0005748046875000218,-0.0011496093749989544,0.0659713596799823,-0.002783500941989609,0.001087354533220679,0.0014701839506427612,0.0033304141219524276
7,1791353568.031929,-0.013268408203124913,0.02816542968749998,-0.020309765624998956,0.037172956103444975,-0.0036056134142228432,0.0011515245015322707,0.0016560988248818444,0.004131479164685196
8,1791353568.0727158,-0.018058447265624913,0.009005273437499978,0.003640429687501046,0.020505004160914903,-0.005126523639817146,0.0013764645724287134,0.0019273791825581222,0.005647184241913294
9,1791353568.0927157,-0.03242856445312491,-0.010154882812500023,0.03717070312500105,0.0503626310694055,-0.0058361720489927766,0.0014684955634030928,0.002101665936982334,0.00637451042165992
10,1791353568.1323166,-0.037218603515624914,0.05211562499999998,0.03238066406250105,0.07176189951445305,-0.007237393595574494,0.0017480132668546348,0.002601569104266568,0.007886924511026898
11,1791353568.1523166,-0.03242856445312491,0.01379531249999998,0.013220507812501047,0.03763913211384574,-0.007943385277999683,0.0019668718650648095,0.002884570885511705,0.008676791100508726
12,1791353568.14744,-0.05637875976562492,0.004215234374999978,0.05154082031250105,0.07650352221977592,-0.007943385277999683,0.0019668718650648095,0.002884570885511705,0.008676791100508726
13,1791353568.16744,-0.08032895507812492,0.06169570312499998,0.05633085937500105,0.11589765539456648,-0.008771754875650547,0.002246826939601283,0.0033334176522947226,0.0096490200611071
14,1791353568.1780877,-0.08990903320312492,0.06648574218749999,0.03238066406250105,0.11641518616946796,-0.009282566813941224,0.0024758787648984874,0.0036073781630050557,0.010262027067041088
15,1791353568.1980877,-0.06595883789062491,-0.0005748046875000218,-0.015519726562498955,0.06776253101002976,-0.010331918659974126,0.0029404438051279006,0.004070068418651415,0.011487393520722628
16,1791353568.2071981,-0.06595883789062491,-0.029315039062500024,0.022800585937501047,0.07569548553388775,-0.010828359162071862,0.003099897599437518,0.004254194446130491,0.01203997083282645
17,1791353568.2271981,-0.09948911132812492,0.01858535156249998,0.09944121093750105,0.14188746596608995,-0.012002882434201376,0.0033813418106650598,0.004781133763129273,0.013355219924461982
18,1791353568.252082,-0.10427915039062492,0.08085585937499998,0.07549101562500105,0.1520220531421494,-0.01362531595841862,0.0038645758997585926,0.005664885008224692,0.01525369148790354
19,1791353568.272082,-0.06116879882812492,0.06648574218749999,0.008430468750001046,0.09073614862690105,-0.014981884995607623,0.004415718956971678,0.006394519147429186,0.01687736137716469
20,1791353568.3124483,-0.003688330078124913,0.01379531249999998,-0.010729687499998955,0.017861708193380902,-0.017505518527176907,0.0056042880529799674,0.007639292395397216,0.01990502478743701
21,1791353568.3324482,-0.046798681640624916,0.004215234374999978,0.03717070312500105,0.0599128197879528,-0.01864406286239527,0.006131862953474666,0.008203183045475241,0.02127188368186311
22,1791353568.3427455,-0.10427915039062492,0.023375390624999978,0.06112089843750105,0.12311098374584302,-0.019259007410667356,0.006384056679429923,0.008525872015443274,0.022008090325015314
23,1791353568.3627455,-0.046798681640624916,0.023375390624999978,-0.0011496093749989544,0.05232444067438262,-0.020500846276929982,0.006870533663361413,0.0091485615304048,0.02347733181103208
24,1791353568.373256,0.025051904296875087,0.004215234374999978,-0.03467988281249896,0.04298907281652665,-0.021072711271333058,0.007109589400725241,0.009398469609822607,0.0241440811127413
25,1791353568.393256,-0.037218603515624914,0.004215234374999978,0.013220507812501047,0.039721209388812295,-0.022015916998301945,0.00750889272600746,0.009770491193607459,0.025229874542121077
26,1791353568.4333906,-0.10906918945312492,0.009005273437499978,0.07549101562500105,0.1329514064526583,-0.024065107520818762,0.008229789455374377,0.010672088289261738,0.02758173857685836
27,1791353568.4533906,-0.09469907226562492,0.03295546874999998,0.041960742187501045,0.10869535911633121,-0.025238742517797817,0.00859808329253237,0.011230158436764351,0.028931602421916575
28,1791353568.4622428,-0.042008642578124915,-0.005364843750000022,-0.005939648437498955,0.042764319511476474,-0.025771051050664334,0.008754960978986214,0.011464031042469612,0.02953337809567719
29,1791353568.4822428,-0.046798681640624916,0.03774550781249998,0.018010546875001046,0.06276320388619969,-0.026926515365468046,0.009104802239432302,0.011931269905160897,0.030826771726792223
30,1791353568.5076113,-0.08032895507812492,0.03295546874999998,0.08028105468750105,0.11825333689250875,-0.028414168401842892,0.009616505252357962,0.012622041203845389,0.032544708684953474
31,1791353568.5276113,-0.05158872070312492,-0.0005748046875000218,0.08986113281250105,0.10361828841743988,-0.029608955276488196,0.010007980171952513,0.01334015599247551,0.03398249051483503
32,1791353568.5375059,0.0011017089843750872,0.03774550781249998,0.003640429687501046,0.03793665577010431,-0.03014885480423622,0.01020018793440665,0.013711525667194748,0.03465549330230739
33,1791353568.5575058,-0.003688330078124913,0.047325585937499984,-0.06342011718749896,0.07921758723395328,-0.031080339127660377,0.010658027684030763,0.014259908534741246,0.03581795675109245
34,1791353568.5823736,-0.06595883789062491,-0.01973496093750002,-0.005939648437498955,0.0691036641767097,-0.032194705296357665,0.011193368787631428,0.014710122448822359,0.03712382329979752
35,1791353568.6023736,-0.08032895507812492,-0.010154882812500023,0.041960742187501045,0.09119521124381999,-0.033175934254692126,0.011514501297194214,0.015071927042886195,0.038215040737657545
36,1791353568.627583,-0.046798681640624916,0.02816542968749998,0.05633085937500105,0.07846383721631395,-0.03446758570824738,0.01189261586969511,0.01564540570775534,0.03967653584349025
37,1791353568.647583,-0.013268408203124913,0.047325585937499984,0.03717070312500105,0.0616232335355701,-0.03542871176172048,0.012260833948666934,0.016172383409437423,0.04082973979042361
38,1791353568.6576045,-0.037218603515624914,0.07606582031249998,0.018010546875001046,0.08657720985457681,-0.035876013307919286,0.012510404472775905,0.016438304213605957,0.04139826562021057
39,1791353568.6776044,-0.046798681640624916,0.02816542968749998,-0.020309765624998956,0.05827430490811931,-0.036760823567652784,0.013090112653661898,0.016885952804888527,0.04251875587063406
40,1791353568.7024353,-0.018058447265624913,-0.053265234375000026,-0.044259960937498954,0.07156980405770282,-0.0378153575401914,0.013655141294091514,0.017238112252937435,0.043744904431247594
41,1791353568.7224352,-0.05637875976562492,-0.03410507812500002,0.013220507812501047,0.06720493087149784,-0.03864898141740588,0.013910922890559042,0.017432652901999277,0.04462235905318822
42,1791353568.733184,-0.046798681640624916,0.023375390624999978,0.06112089843750105,0.08045054204900809,-0.039112981429882156,0.014019120965517764,0.017581455767477515,0.045116168453049006
43,1791353568.753184,0.010681787109375087,0.02816542968749998,0.008430468750001046,0.03128042213072357,-0.03990100108363679,0.014267553987188668,0.017921123540286375,0.04600890841130589
44,1791353568.792349,0.04900209960937509,0.02816542968749998,-0.03467988281249896,0.06631132231751441,-0.04103735752168513,0.014846539405095099,0.01840940120973894,0.04736444338922169
45,1791353568.812349,0.010681787109375087,-0.010154882812500023,0.013220507812501047,0.019799092090447515,-0.04144107909382852,0.015124869835009007,0.018589154172779117,0.04787150903038537
46,1791353568.8229074,-0.046798681640624916,0.01858535156249998,0.07070097656250104,0.08679953907074396,-0.0416508416414822,0.015256441230167265,0.01873627043842388,0.04815183733145737
47,1791353568.8429074,-0.05637875976562492,0.07606582031249998,0.041960742187501045,0.10356291545456564,-0.04214334548848022,0.015610260425598326,0.019142134161716607,0.0488483684454411
48,1791353568.8526115,0.010681787109375087,0.047325585937499984,-0.03467988281249896,0.059636448016849294,-0.04237972512816177,0.01584598968792966,0.01931482165854728,0.04919551632852334
49,1791353568.8726115,0.010681787109375087,-0.005364843750000022,-0.044259960937498954,0.04584567882037367,-0.04276177741142273,0.016321889002817377,0.019498931632775707,0.049751201018910236
50,1791353568.8979828,-0.046798681640624916,-0.029315039062500024,0.013220507812501047,0.05678265532147002,-0.043242462426372176,0.016769052026918144,0.019638390697339705,0.05036643775133453
51,1791353568.9179828,-0.06595883789062491,0.004215234374999978,0.05633085937500105,0.08684182295785862,-0.04373368031563572,0.017031022802381366,0.019836161840014545,0.05095256468705679
52,1791353568.9571776,-0.003688330078124913,0.03295546874999998,0.022800585937501047,0.040243427020953335,-0.04475667763411727,0.017576676316154727,0.020398221078373645,0.052232051140361835
53,1791353568.9771776,0.0873224121093751,-0.0005748046875000218,-0.010729687499998955,0.08798102210633806,-0.04507493161017657,0.01786191375248697,0.02066010955589968,0.05270329732972269
54,1791353569.0021636,0.03942202148437509,0.009005273437499978,0.018010546875001046,0.04426703656599664,-0.04517537480484833,0.018180607743791696,0.02095185480604578,0.053012538200936654
55,1791353569.0221636,-0.03242856445312491,0.03295546874999998,0.046750781250001046,0.0657518840833337,-0.04523322412828945,0.018460381682203018,0.0212474942174541,0.05327556914208828
56,1791353569.0177925,-0.037218603515624914,0.004215234374999978,0.018010546875001046,0.041561670409477995,-0.04523322412828945,0.018460381682203018,0.0212474942174541,0.05327556914208828
57,1791353569.0377924,0.04421206054687509,-0.03410507812500002,-0.03467988281249896,0.06573094342546412,-0.04535333014340675,0.018665076231125188,0.021518660326749865,0.0535570944700009
58,1791353569.0626621,0.03942202148437509,-0.06284531250000003,-0.020309765624998956,0.0769162899578469,-0.04532428122159667,0.01870059628573206,0.02170270459159671,0.0536191211815937
59,1791353569.082662,-0.05637875976562492,0.004215234374999978,0.041960742187501045,0.0704062258502198,-0.045329859547787725,0.018636931433850302,0.021860986804540697,0.053665949390283796
60,1791353569.1078181,-0.10427915039062492,0.06169570312499998,0.07549101562500105,0.14275641642452663,-0.045638937047914524,0.01869321957887954,0.02225180778780465,0.054106302617284004
61,1791353569.127818,-0.008478369140624914,0.05211562499999998,0.018010546875001046,0.0557879997056888,-0.04601694214668319,0.018901974917943157,0.022656169745048894,0.054663933702636225
62,1791353569.1369693,0.025051904296875087,0.009005273437499978,-0.005939648437498955,0.027275855296305832,-0.046152583519025264,0.019025115365258468,0.022821721881680503,0.05488940671738739
63,1791353569.1569693,-0.027638525390624915,0.01858535156249998,0.022800585937501047,0.04036297929493447,-0.04640844089365418,0.019295256066952014,0.023154555158750097,0.05533700134149521
64,1791353569.1832778,-0.06595883789062491,0.01858535156249998,0.046750781250001046,0.08295552504847949,-0.04687919929648866,0.019670647142123326,0.02366393526317197,0.056076514850777075
65,1791353569.2032778,-0.013268408203124913,0.023375390624999978,0.02759062500000105,0.03851885422759577,-0.0473022335298385,0.019976157453640064,0.024104597217477663,0.05672371435776071
66,1791353569.2273946,0.06337221679687509,0.03295546874999998,-0.010729687499998955,0.07223037433192492,-0.047645202391855435,0.0203911830459458,0.024586756767830772,0.05736178401457373
67,1791353569.2473946,0.03942202148437509,0.03295546874999998,-0.010729687499998955,0.052490807693294166,-0.04773277112004309,0.020782602335188766,0.02489444367282522,0.05770673552021879
68,1791353569.2579572,0.0011017089843750872,0.004215234374999978,0.022800585937501047,0.023213114453166442,-0.04773997902221934,0.020987762309328948,0.025042131007593647,0.057850670602822875
69,1791353569.2779572,0.029841943359375088,-0.024525000000000022,0.018010546875001046,0.04261920936855542,-0.0477051642870111,0.02128749072771007,0.025341041818120486,0.05806124664146295
70,1791353569.3025103,0.06337221679687509,-0.0005748046875000218,-0.029889843749998955,0.07006975825260325,-0.04749718293081987,0.02155403837418367,0.025631081580480528,0.05811635999944247
71,1791353569.3225102,0.03463198242187509,-0.014944921875000022,-0.03467988281249896,0.05123884432935212,-0.04720617518514304,0.02171531036836459,0.025735044054538986,0.057985085776377704
72,1791353569.3470209,-0.013268408203124913,0.009005273437499978,-0.015519726562498955,0.022316082059887457,-0.0468637591225141,0.021872388960675407,0.025751060242503482,0.05777309427019763
73,1791353569.3670208,-0.013268408203124913,-0.005364843750000022,0.03717070312500105,0.039830809375577966,-0.04666607268175855,0.021986795571259106,0.025794645122968828,0.05767586354838053
74,1791353569.3929615,0.04900209960937509,0.02816542968749998,0.03238066406250105,0.06513834969307382,-0.04637860588373652,0.022157286115122223,0.02597801214687966,0.057591470955426854
75,1791353569.4129615,0.04421206054687509,0.06648574218749999,-0.0011496093749989544,0.07985224989778529,-0.04605039591030705,0.022410992233028146,0.026145026668964882,0.05750177350209085
76,1791353569.423023,0.010681787109375087,0.009005273437499978,-0.025099804687498957,0.028726220093927238,-0.045868625050939374,0.022576447065392944,0.026196636319799523,0.05744467321372794
77,1791353569.443023,-0.008478369140624914,-0.053265234375000026,-0.015519726562498955,0.05612423584230899,-0.04555819863232109,0.02278961081061783,0.026222907102225697,0.05729360069338819
78,1791353569.4676125,-0.008478369140624914,-0.04368515625000002,0.022800585937501047,0.05000142336939007,-0.04526505739890061,0.022833581541084527,0.02626378902410077,0.05709714950171855
79,1791353569.4876125,0.03463198242187509,0.004215234374999978,0.02759062500000105,0.04447903995362231,-0.04502316374963038,0.022804775890497658,0.026367639495574805,0.056942036229928154
80,1791353569.5115743,0.05858217773437509,0.01379531249999998,-0.015519726562498955,0.06215339176303497,-0.04460930658009641,0.022807808246834663,0.02649509141684208,0.05667606390504047
81,1791353569.5315742,0.06816225585937509,0.01379531249999998,-0.03467988281249896,0.07771163389544856,-0.04412557400856053,0.02285134548768292,0.026510214421061083,0.05632088192520634
82,1791353569.5434043,0.05379213867187509,-0.005364843750000022,0.03717070312500105,0.06560515911239843,-0.043774158379087644,0.022880715105325463,0.026520027952964147,0.05606260739703887
83,1791353569.5634043,0.04421206054687509,0.01379531249999998,0.05633085937500105,0.07292587101090633,-0.043122163732782215,0.022935565290308796,0.026674382326377085,0.05565144951101124
84,1791353569.5874808,0.03463198242187509,0.03295546874999998,0.041960742187501045,0.06360928400734614,-0.04231263839933978,0.023076110280001567,0.02700981408110636,0.05524849582263764
85,1791353569.6074808,0.03463198242187509,0.009005273437499978,-0.010729687499998955,0.03735766788760832,-0.04163715036028544,0.023238287781155803,0.027293503325728097,0.054941838637930236
86,1791353569.617115,0.06816225585937509,-0.024525000000000022,-0.044259960937498954,0.08489118264594886,-0.041286291583318965,0.023293478301607967,0.02736992784240754,0.05473807590872108
87,1791353569.637115,0.05379213867187509,-0.010154882812500023,-0.025099804687498957,0.06022222200467566,-0.04048425752894498,0.02333884413908691,0.0274007420375352,0.054170817029338576
88,1791353569.6629176,-0.003688330078124913,0.01379531249999998,-0.005939648437498955,0.015465893097359117,-0.039507776619252005,0.0233956378086644,0.02737446583266628,0.0534563528637592
89,1791353569.6829176,-0.008478369140624914,0.01858535156249998,-0.0011496093749989544,0.020460196423825135,-0.038882674751356254,0.023481627119440813,0.02734651994707611,0.053019631847194555
90,1791353569.7231314,0.05858217773437509,-0.04368515625000002,-0.0011496093749989544,0.07308615482021143,-0.03766320502147228,0.02355288858167939,0.027291823409794923,0.05213539295010529
91,1791353569.7431314,0.07295229492187509,-0.014944921875000022,0.022800585937501047,0.07787974539834774,-0.036950385106060725,0.02349506860494201,0.02730117744021726,0.051601390464398864
92,1791353569.7520812,0.05858217773437509,0.04253554687499998,0.008430468750001046,0.07288495797763746,-0.03659096323142542,0.02349159561179114,0.027325698661566734,0.05135608495528258
93,1791353569.7720811,0.010681787109375087,0.06169570312499998,0.008430468750001046,0.06317858152319414,-0.03580434870165846,0.023641345417820984,0.027397567887428753,0.05090669234256871
94,1791353569.7822866,0.03942202148437509,0.01379531249999998,-0.020309765624998956,0.04644236217753761,-0.03542481675440924,0.023764078879223827,0.02741964747942711,0.050709823061784585
95,1791353569.8022866,0.06816225585937509,-0.03410507812500002,-0.03467988281249896,0.08373734978872886,-0.03463122919950346,0.02393805944782597,0.027373942512048322,0.05021638631611317
96,1791353569.8267596,0.02026186523437509,-0.01973496093750002,-0.005939648437498955,0.028901406359236458,-0.03364351769056251,0.024020195037588073,0.027251848721780582,0.04951281966313145
97,1791353569.8467596,0.015471826171875088,0.009005273437499978,0.02759062500000105,0.03288943512235418,-0.03290380954927459,0.024061155498163348,0.027199513463768143,0.04900421838400684
98,1791353569.8721104,0.05379213867187509,0.02816542968749998,0.013220507812501047,0.062142316010880584,-0.031975147978176036,0.024175959779874894,0.027220721554532222,0.04845466748883701
99,1791353569.8921103,0.06816225585937509,0.03295546874999998,-0.005939648437498955,0.07594363349176955,-0.031169465957800485,0.024344627574149857,0.02724586475397765,0.048026384894249353
100,1791353569.902171,0.03463198242187509,0.023375390624999978,-0.0011496093749989544,0.041798381488467796,-0.030747415006678113,0.024459249444152262,0.02725126618877021,0.047815164141257194
101,1791353569.9221709,0.02026186523437509,-0.0005748046875000218,0.013220507812501047,0.024200318386854977,-0.029951906525181173,0.02468713454901415,0.027278499685667368,0.04744141504882915
102,1791353569.9628546,0.0011017089843750872,-0.0005748046875000218,0.022800585937501047,0.022834423185366326,-0.028511237671828147,0.02507765398508912,0.027435498537530176,0.04684534110216457
103,1791353569.9828546,-0.003688330078124913,0.009005273437499978,0.003640429687501046,0.01038996904514073,-0.02791312419073485,0.025253480913861676,0.02754076307538365,0.04664090941575409
104,1791353570.0817282,0.010681787109375087,0.01858535156249998,-0.0011496093749989544,0.021467125337753485,-0.02534791187121397,0.026196927856187983,0.02800156935813548,0.0459661130818304
105,1791353570.1017282,0.029841943359375088,0.009005273437499978,0.003640429687501046,0.03138294539169217,-0.02484607269417934,0.02640052672358405,0.028084535006509988,0.04585909120489638
106,1791353570.082729,0.015471826171875088,0.02816542968749998,-0.0011496093749989544,0.03215572167265585,-0.02484607269417934,0.02640052672358405,0.028084535006509988,0.04585909120489638
107,1791353570.102729,-0.022848486328124914,0.01858535156249998,0.018010546875001046,0.03452315771949086,-0.02443678386740004,0.026665145611562406,0.028172944862460574,0.04584649625097966
108,1791353570.0842414,0.005891748046875088,0.01379531249999998,0.018010546875001046,0.023439350263117834,-0.02443678386740004,0.026665145611562406,0.028172944862460574,0.04584649625097966
109,1791353570.1042414,0.03463198242187509,0.06169570312499998,0.05633085937500105,0.09043726946609645,-0.02410190697300884,0.027010854480880416,0.028394259837145594,0.04600784901755579
110,1791353570.128444,0.04900209960937509,0.047325585937499984,0.05633085937500105,0.08839729955366825,-0.02360563689025158,0.02756434915373092,0.02882640968568283,0.04634631951546985
111,1791353570.148444,0.03463198242187509,0.05211562499999998,0.03717070312500105,0.0727809985258285,-0.02313160397775032,0.02810228749695955,0.029270205519304655,0.04670711504993191
112,1791353570.142299,0.005891748046875088,0.04253554687499998,0.022800585937501047,0.048619462791114294,-0.02313160397775032,0.02810228749695955,0.029270205519304655,0.04670711504993191
113,1791353570.162299,0.02026186523437509,0.01379531249999998,0.003640429687501046,0.02478117346007393,-0.022698217108885883,0.02869612428747377,0.029706972815343267,0.04712940528901044
114,1791353570.216949,0.04900209960937509,-0.03889511718750002,-0.020309765624998956,0.0657763064248736,-0.021407723684301345,0.029972509548737716,0.030653098165229653,0.04791924862849767
115,1791353570.236949,0.005891748046875088,-0.0005748046875000218,-0.020309765624998956,0.02115489719235283,-0.020923949507633374,0.03031034958307708,0.030886479914797774,0.04806769805569576
116,1791353570.231968,-0.027638525390624915,0.01858535156249998,0.003640429687501046,0.03350456844640112,-0.020923949507633374,0.03031034958307708,0.030886479914797774,0.04806769805569576
117,1791353570.251968,0.03463198242187509,0.03774550781249998,0.022800585937501047,0.056071064601859774,-0.02059165960411873,0.030661898641733805,0.03107350633142258,0.048267289848269
118,1791353570.2771688,0.05858217773437509,0.03774550781249998,0.022800585937501047,0.0733243590303985,-0.020059584199646065,0.03118110344691862,0.03136000762254755,0.048560253381921006
119,1791353570.2971687,0.005891748046875088,0.01379531249999998,0.022800585937501047,0.02729267412903841,-0.019603946007058667,0.031608659751666844,0.03162167733983105,0.04881959184721539
120,1791353570.3223507,-0.03242856445312491,-0.0005748046875000218,0.03238066406250105,0.0458306622038979,-0.019166424207361248,0.03209121498949226,0.03200594389801416,0.04920953506385897
121,1791353570.3423507,-0.042008642578124915,0.05211562499999998,0.06112089843750105,0.09064506961884132,-0.018982715725931378,0.03249429170779753,0.03240560850539964,0.049662319242340984
122,1791353570.3671305,0.02026186523437509,0.06169570312499998,0.018010546875001046,0.0673890403967939,-0.01882966059621714,0.033130305491253356,0.032973576817142955,0.05039275769620603
123,1791353570.3871305,0.03463198242187509,0.03295546874999998,-0.005939648437498955,0.04817381602657583,-0.018642317640096582,0.03370861434761405,0.033381333322922424,0.05097175789244941
124,1791353570.4420152,-0.003688330078124913,0.02816542968749998,-0.005939648437498955,0.029020245205852238,-0.01807794639627298,0.035309173079209194,0.03428356712247341,0.05243007556818138
125,1791353570.4620152,-0.018058447265624913,0.01379531249999998,0.003640429687501046,0.023014580007631045,-0.017935758126269668,0.035867871352374514,0.03455957628399196,0.05293920973950779
126,1791353570.4430172,0.0011017089843750872,0.004215234374999978,0.02759062500000105,0.027932499913418365,-0.017935758126269668,0.035867871352374514,0.03455957628399196,0.05293920973950779
127,1791353570.4630172,0.025051904296875087,-0.005364843750000022,0.018010546875001046,0.03131707611029984,-0.01781541653937375,0.03629276986768446,0.03486721415252027,0.05338798398420572
128,1791353570.4869223,0.025051904296875087,-0.014944921875000022,-0.0011496093749989544,0.02919366712944313,-0.017603323672921913,0.036688039008296335,0.03520999309875778,0.05381108458879543
129,1791353570.5069222,0.05379213867187509,-0.029315039062500024,0.003640429687501046,0.061369523596324096,-0.017334228629689728,0.036902743381039375,0.035457495360485786,0.054032600608078005
130,1791353570.5170386,0.03942202148437509,-0.0005748046875000218,0.02759062500000105,0.04812139613762246,-0.017147808662127253,0.03697237622713886,0.03558760346700867,0.05410620543264032
131,1791353570.5370386,-0.018058447265624913,0.02816542968749998,0.02759062500000105,0.04336636409727641,-0.016802494221767827,0.03713077652003985,0.03588901520392139,0.05430506228116293
132,1791353570.5773225,-0.003688330078124913,-0.005364843750000022,-0.015519726562498955,0.016829950677344566,-0.01627699576714779,0.03747085588939434,0.03644152237448443,0.05474477313184844
133,1791353570.5973225,-0.003688330078124913,-0.029315039062500024,0.013220507812501047,0.03236907661366793,-0.0160662981783407,0.03756235104575281,0.03667123391039832,0.054898411176926315
134,1791353570.6064415,-0.046798681640624916,0.004215234374999978,0.03717070312500105,0.0599128197879528,-0.016019169824429226,0.03758064439754123,0.03679472469072615,0.05497972717524782
135,1791353570.6264415,-0.08511899414062492,0.009005273437499978,0.008430468750001046,0.08600820261196385,-0.016129188020030726,0.037634578170360054,0.03709334170067633,0.05524878440988162
136,1791353570.6678743,-0.07074887695312491,-0.005364843750000022,-0.020309765624998956,0.07380156989070567,-0.016807272701278252,0.0377408625550575,0.03758226134207717,0.05585054601021428
137,1791353570.6878743,-0.013268408203124913,-0.010154882812500023,-0.020309765624998956,0.026299408375907433,-0.01721151800126639,0.037761191681701535,0.037721936803926714,0.05608108830407594
138,1791353570.6678743,-0.022848486328124914,0.009005273437499978,0.018010546875001046,0.03045534560479102,-0.01721151800126639,0.037761191681701535,0.037721936803926714,0.05608108830407594
139,1791353570.6878743,-0.042008642578124915,-0.03410507812500002,0.041960742187501045,0.06847325236977526,-0.01764691982769988,0.037736764054020884,0.0379098776718066,0.05632615702997543
140,1791353570.7120159,0.0011017089843750872,-0.03410507812500002,0.022800585937501047,0.04103945462225318,-0.018167716199744232,0.03758819847861418,0.03821996608360801,0.0566012754645537
141,1791353570.7320158,-0.008478369140624914,0.004215234374999978,0.05154082031250105,0.0524033119431053,-0.018545515289616277,0.03743874692846802,0.03854983597829382,0.056847917841242185
142,1791353570.7580092,-0.013268408203124913,0.01379531249999998,0.06591093750000104,0.06863390550847628,-0.019005272226007768,0.03730875664465617,0.039143221613993834,0.05731784620061253
143,1791353570.7780092,-0.013268408203124913,-0.01973496093750002,0.022800585937501047,0.032945197807006325,-0.019345764369759093,0.03721483186088203,0.039664370619555,0.0577275030304393
144,1791353570.7874537,0.0011017089843750872,-0.06763535156250003,-0.05863007812499896,0.08951670572922525,-0.019491052814691955,0.037115243831612646,0.03984817561374962,0.057838737574824384
145,1791353570.8074536,-0.042008642578124915,-0.07721542968750003,-0.03946992187499895,0.09635778829913247,-0.019813931257135067,0.036718710168470635,0.04003187335162801,0.057822196709736026
146,1791353570.8320377,-0.08032895507812492,-0.08679550781250002,0.02759062500000105,0.121439053801748,-0.020376848753805063,0.03600199850297507,0.0402019019376044,0.05768494414268273
147,1791353570.8520377,-0.027638525390624915,-0.04368515625000002,0.03717070312500105,0.06367057509683807,-0.0209280597829818,0.035310668376029405,0.040416619363696046,0.0576049486436007
148,1791353570.8774598,0.05858217773437509,-0.029315039062500024,0.003640429687501046,0.06560865637739774,-0.021464611355985035,0.034424541220564465,0.04072642152653817,0.057484084660600586
149,1791353570.8974597,0.04421206054687509,0.023375390624999978,0.003640429687501046,0.050143473283983074,-0.021669216995078868,0.033823070579426746,0.0409445102902488,0.057358591261545015
150,1791353570.906685,-0.013268408203124913,0.004215234374999978,0.013220507812501047,0.019198976115963454,-0.021728028479669245,0.033606336877718086,0.04104168434038486,0.05732288333159616
151,1791353570.926685,0.010681787109375087,-0.053265234375000026,-0.005939648437498955,0.054649475683072934,-0.021840282862742155,0.03313337742298927,0.041231672425623644,0.05722647521901709
152,1791353570.952045,0.015471826171875088,-0.07242539062500003,0.013220507812501047,0.07523028937267863,-0.02191152621173188,0.032384561535808515,0.04145028884444282,0.056982464426187485
153,1791353570.972045,0.005891748046875088,-0.029315039062500024,0.013220507812501047,0.03269351674421337,-0.021927238847602264,0.031729982436733147,0.04163649980849125,0.05675556100698577
154,1791353570.9973905,0.025051904296875087,-0.01973496093750002,-0.005939648437498955,0.032439883101909046,-0.021885342978630054,0.030931638025169895,0.041850924241423726,0.05645559607402791
155,1791353571.0173905,0.0873224121093751,-0.053265234375000026,-0.049049999999998956,0.11343849148160919,-0.02168868092507696,0.03028666574718841,0.041912260355805864,0.0560742237617657
156,1791353571.026955,0.03942202148437509,-0.04368515625000002,-0.010729687499998955,0.05981316617893657,-0.021517822701142702,0.02995494723683132,0.041894310950002595,0.0558162059596912
157,1791353571.0469549,-0.027638525390624915,-0.005364843750000022,0.046750781250001046,0.0545738507136484,-0.021196460141447323,0.02929176820599476,0.041916438852865806,0.055355988413790684
158,1791353571.0716138,-0.027638525390624915,0.004215234374999978,0.013220507812501047,0.03092633365636478,-0.020961900983493945,0.028594627136184103,0.04205054104054738,0.055002745346954825
159,1791353571.0916138,0.029841943359375088,-0.029315039062500024,-0.05863007812499896,0.07202360140706332,-0.02079688958284573,0.02807636486472372,0.042074877480489735,0.05469084196953263
160,1791353571.1174738,0.02026186523437509,-0.06284531250000003,-0.07779023437499896,0.10203625360682304,-0.020518356526553073,0.0273280211103242,0.04183703661954346,0.05402000856592017
161,1791353571.1374738,-0.05158872070312492,-0.06763535156250003,0.013220507812501047,0.086085531371935,-0.020382243732940366,0.026640351473573194,0.041583829467366495,0.05342620199298766
162,1791353571.1921475,-0.05158872070312492,-0.024525000000000022,0.046750781250001046,0.0738140046080043,-0.020489049235065077,0.02466455357030755,0.0412413826986598,0.05223976443550265
163,1791353571.2121475,0.025051904296875087,-0.01973496093750002,-0.0011496093749989544,0.03191219506426227,-0.020562064040663984,0.023983818043481868,0.04120330554442496,0.05192046218344415
164,1791353571.1931489,0.07774233398437509,-0.05805527343750003,-0.020309765624998956,0.09913007539078848,-0.020562064040663984,0.023983818043481868,0.04120330554442496,0.05192046218344415
165,1791353571.2131488,0.05379213867187509,-0.024525000000000022,0.03238066406250105,0.0674060621385257,-0.020286453188068883,0.023268933879085817,0.04116654045384719,0.051455490666781276
166,1791353571.2677698,-0.013268408203124913,0.004215234374999978,0.08028105468750105,0.08147924029357703,-0.019480643387738004,0.021526205680028814,0.04154272121804933,0.05068205485159112
167,1791353571.2877698,0.015471826171875088,-0.005364843750000022,0.02759062500000105,0.032084288077582714,-0.01922654171586349,0.02098208253235817,0.041821609359743425,0.05058611176188092
168,1791353571.2817953,0.03463198242187509,-0.04368515625000002,-0.0011496093749989544,0.05575920269131426,-0.01922654171586349,0.02098208253235817,0.041821609359743425,0.05058611176188092
169,1791353571.3017952,0.010681787109375087,-0.04368515625000002,0.003640429687501046,0.04511924401789736,-0.018911100373425076,0.020395359524041964,0.04206055453179434,0.05042509945424731
170,1791353571.312345,0.005891748046875088,-0.005364843750000022,-0.029889843749998955,0.030933751840168406,-0.01875655358547555,0.020093482720928993,0.042146920055930015,0.05031817982063782
171,1791353571.332345,-0.022848486328124914,0.01379531249999998,-0.03946992187499895,0.047647022018985484,-0.018532951061556977,0.019619682348127252,0.04218205042250713,0.05007721625987627
172,1791353571.3576722,-0.042008642578124915,-0.03410507812500002,-0.06342011718749896,0.08336662203331202,-0.01841546241805482,0.019071100962919977,0.042024421215921454,0.04968790724655111
173,1791353571.3776722,-0.10906918945312492,-0.07721542968750003,0.07070097656250104,0.15118511420334424,-0.018563218886945388,0.018535904664620708,0.04192953950972346,0.04945967186181096
174,1791353571.4022732,-0.042008642578124915,-0.09637558593750002,0.08507109375000105,0.13524078751572902,-0.0189964543278246,0.017656045832056603,0.04211774757883306,0.049462166274508314
175,1791353571.4222732,-0.018058447265624913,-0.08679550781250002,-0.0011496093749989544,0.08866165628833128,-0.019385932977576056,0.016773281794092206,0.04237368685285663,0.0495246071873271
176,1791353571.431395,-0.022848486328124914,-0.14427597656250002,-0.044259960937498954,0.15263208995076527,-0.019564912567121628,0.01627296530361629,0.04244184302165255,0.049486414727745336
177,1791353571.451395,-0.022848486328124914,-0.11553574218750003,-0.025099804687498957,0.12041827621110335,-0.019967012575773255,0.01495083521811538,0.042464822450983666,0.049249063044020366
178,1791353571.5071886,-0.05637875976562492,-0.08679550781250002,0.041960742187501045,0.11168137093564767,-0.021252010524962138,0.010969106626512426,0.0425898667285853,0.04884532730462104
179,1791353571.5271885,-0.05637875976562492,-0.04368515625000002,0.06112089843750105,0.09392934395120772,-0.021812678541643257,0.009560174732569955,0.04278258935456577,0.04896467949409796
180,1791353571.5222108,-0.09469907226562492,-0.06284531250000003,0.046750781250001046,0.12289460174750623,-0.021812678541643257,0.009560174732569955,0.04278258935456577,0.04896467949409796
181,1791353571.5422108,-0.027638525390624915,-0.11553574218750003,-0.015519726562498955,0.11980508220087922,-0.02259389145731346,0.008138823894219264,0.04310621424962817,0.049344402848761106
182,1791353571.5521357,-0.05158872070312492,-0.12032578125000003,-0.08258027343749896,0.15478756829351634,-0.02298238756570041,0.0073637190496072735,0.04316969950585327,0.04945743070446824
183,1791353571.5721357,-0.12343930664062491,-0.08679550781250002,0.02759062500000105,0.15340132068609663,-0.023910370330342524,0.005725388276003942,0.04319595671782613,0.04970288278373233
184,1791353571.5978565,-0.12822934570312491,-0.048475195312500025,0.11860136718750106,0.18127022358562092,-0.025410266765075136,0.0036735234228803485,0.04350667294037587,0.05051739325966421
185,1791353571.6178565,-0.06116879882812492,-0.03410507812500002,0.03238066406250105,0.07715753825204974,-0.02668570848411534,0.0021934891649236935,0.04393851121919888,0.051454166013798035
186,1791353571.6577682,-0.07553891601562492,-0.07242539062500003,-0.015519726562498955,0.10579426710637119,-0.029258395881727583,-0.0006359065078526877,0.044721488483225845,0.05344595063065045
187,1791353571.6777682,-0.12343930664062491,-0.024525000000000022,0.03717070312500105,0.13122651873659222,-0.030652671743275992,-0.0019864829245973756,0.04508746574835795,0.05455650251821591
188,1791353571.6868248,-0.19049985351562493,0.01858535156249998,0.15213164062500106,0.24449876392618172,-0.031402575669944754,-0.00251036034522844,0.04535691426768497,0.055223847562947175
189,1791353571.7068248,-0.07074887695312491,0.07606582031249998,0.15692167968750106,0.18819093008402035,-0.033202084749366985,-0.003351748228449152,0.046326272638209307,0.057094099383743324
190,1791353571.7325354,-0.003688330078124913,0.12875625,0.18087187500000104,0.22205046917051022,-0.03531194657262157,-0.003876176339661649,0.048036856498244164,0.05974527509348949
191,1791353571.7525353,-0.06116879882812492,0.08564589843749998,0.24314238281250106,0.2649435037682241,-0.0368042848315387,-0.003901328278738933,0.04980392507260113,0.062050033818981803
192,1791353571.7623587,-0.14259946289062492,0.07127578124999998,0.21440214843750105,0.2671762060216231,-0.037577449610777594,-0.0037962170843085126,0.05087875690613422,0.06336500522934742
193,1791353571.7823586,-0.10427915039062492,0.05690566406249998,0.12818144531250106,0.17476521029937958,-0.039285785855526896,-0.00342204242489309,0.053252707572661824,0.06626412459591931
194,1791353571.7924187,-0.09948911132812492,0.10959609374999998,0.14255156250000106,0.20550020683520134,-0.0401699351900453,-0.003136436277894087,0.0544719679221054,0.06775438151887013
195,1791353571.8124187,-0.046798681640624916,0.22455703124999998,0.20961210937500105,0.31073012934659466,-0.04188344389298593,-0.00215257633822066,0.057060576538477195,0.07081501148861152
196,1791353571.8377268,0.07774233398437509,0.2820375,0.21440214843750105,0.36270828933759475,-0.043667753648474306,-0.00013276778829102642,0.06064970094240429,0.07473470786985471
197,1791353571.8577268,0.06337221679687509,0.2820375,0.19524199218750105,0.3488275000359696,-0.044654638942930196,0.0020700901225651175,0.06367505395580704,0.07779996496473464
198,1791353571.8963985,-0.003688330078124913,0.30119765625,0.15213164062500106,0.33745765362266245,-0.046103528496408815,0.0073822011499002915,0.06965488893220821,0.08385604203511533
199,1791353571.9163985,0.005891748046875088,0.3347279296875,0.15692167968750106,0.36973221818482965,-0.04673715111485739,0.010671277574744113,0.07274718698220839,0.08712284816989538
200,1791353571.9275706,0.05858217773437509,0.26766738281249997,0.12339140625000106,0.30050480612820174,-0.046983980296434316,0.012737722868424627,0.07445032532146752,0.08895276796615642
201,1791353571.9475706,0.11606264648437509,0.291617578125,0.11381132812500105,0.3338627984517355,-0.0470976014747917,0.01672106051768109,0.07739771326856182,0.0921313407517592
202,1791353571.9582396,0.0825323730468751,0.3347279296875,0.20003203125000105,0.39858147603674443,-0.04699021035962487,0.01902842149085168,0.07898528459632208,0.09385539876233703
203,1791353571.9782395,0.11127260742187509,0.3251478515625,0.13297148437500106,0.3684889878884624,-0.04652838605910145,0.02369478543122026,0.08201442708675993,0.09722499584091436
204,1791353572.001927,0.2214435058593751,0.22934707031249998,-0.005939648437498955,0.3188613873954935,-0.045472373585472514,0.029377567922732887,0.08528958554461087,0.10102025370648729
205,1791353572.0219269,0.11606264648437509,0.21018691406249998,0.08507109375000105,0.25472763443312396,-0.044208234142762634,0.034115296568614256,0.08775880348508043,0.10401840709758438
206,1791353572.046911,0.1304327636718751,0.310777734375,0.09944121093750105,0.35140298868259195,-0.04240405245895893,0.04012212912431519,0.09072642454629778,0.10788499905624241
207,1791353572.066911,0.2789239746093751,0.27724746093749997,-0.010729687499998955,0.3934207218767582,-0.040562395841541796,0.04509140431605523,0.09287875463066209,0.11092793048345681
208,1791353572.077614,0.2358136230468751,0.19581679687499998,-0.015519726562498955,0.30690901691780487,-0.03931146399553631,0.04773157987853939,0.09383673880521741,0.11237895029218029
209,1791353572.097614,0.1879132324218751,0.14791640625,0.08986113281250105,0.25547146484000643,-0.036688987601271046,0.05244063687104045,0.09546984132318727,0.11493734296964196
210,1791353572.1225822,0.2741339355468751,0.12875625,0.14255156250000106,0.33473651504380647,-0.03304091930102013,0.057955740121188794,0.09763802218431389,0.118252921897583
211,1791353572.1425822,0.3507745605468751,0.18623671874999997,0.07070097656250104,0.4033925331789264,-0.029619708678620675,0.0621832801010976,0.09943414316100543,0.12095964737258967
212,1791353572.167718,0.2837140136718751,0.03774550781249998,-0.029889843749998955,0.28777033841803046,-0.024768803627411975,0.06712168408224464,0.10142982284619526,0.12412422434714548
213,1791353572.187718,0.2837140136718751,-0.09637558593750002,-0.05863007812499896,0.30531849138161427,-0.02063686556279285,0.07037371375093167,0.10264677464038342,0.1261534785546103
214,1791353572.197615,0.3076642089843751,-0.08200546875000003,-0.015519726562498955,0.3187836638026848,-0.018459913916103653,0.07160918331309049,0.10310361259461714,0.1268818288275301
215,1791353572.217615,0.2549737792968751,-0.04368515625000002,0.07070097656250104,0.2681765259906426,-0.013876625972045174,0.07354280336319191,0.10397109115116546,0.12810578624733976
216,1791353572.2418714,0.3124542480468751,-0.20175644531250003,0.06591093750000104,0.37772684843654286,-0.008119425487487902,0.07508965797307801,0.1051139047331677,0.1294345965073255
217,1791353572.2618713,0.4561554199218751,-0.34545761718750007,-0.08258027343749896,0.5781334049836419,-0.002931616500549652,0.07535294040477107,0.1058898340345318,0.12999737287657764
218,1791353572.2879379,0.3651446777343751,-0.35024765625000004,-0.11611054687499896,0.5191201358856832,0.0044212231355382275,0.07428451505061195,0.10636099238565164,0.12980907938807462
219,1791353572.3079379,0.42741518554687513,-0.29755722656250005,-0.07779023437499896,0.5265694298758274,0.010405410415621395,0.07261600683228317,0.10637741985708614,0.12921885493082852
220,1791353572.316996,0.5854864746093751,-0.283187109375,-0.12569062499999897,0.6624103592785767,0.013397308316859077,0.07157913315136011,0.1062455056903312,0.12880670654989718
221,1791353572.336996,0.5950665527343751,-0.45562851562500006,-0.28376191406249895,0.8013877777369872,0.020783159864017027,0.0685249652608287,0.10538375846729175,0.12741015323208568
222,1791353572.3620899,0.5854864746093751,-0.7334507812500001,-0.259811718749999,0.9737795385335319,0.030881917991541795,0.06302984581859286,0.1034416916835009,0.12500655143270037
223,1791353572.3820899,0.6046466308593751,-0.6089097656250001,-0.16880097656249896,0.8745641317659554,0.039508597364455306,0.057293595959960794,0.10148310516413567,0.12305407769547867
224,1791353572.4070263,0.7579278808593751,-0.5370591796875,-0.24544160156249897,0.9607959277849579,0.05119948036298635,0.04907109186988582,0.09863266587147072,0.12148152791126635
225,1791353572.4270263,0.8441485839843751,-0.6520201171875001,-0.307712109374999,1.110136841707381,0.06157264946103292,0.041681925090853264,0.09585969855269841,0.12131634616796266
226,1791353572.4376154,0.7962481933593751,-0.6999205078125,-0.24065156249999897,1.087112265232192,0.06754374847581232,0.03728282827126129,0.0941762557104434,0.12174290279809735
227,1791353572.4576154,0.6525470214843752,-0.6807603515625,-0.16880097656249896,0.9579906268832078,0.07930305779539625,0.028149413306424165,0.09085944558489703,0.12384184792383676
228,1791353572.4826386,0.6429669433593751,-0.7526109375000001,-0.20233124999999896,1.0103304648599334,0.09424028654577239,0.0157460689730523,0.08663553868440747,0.1289763034804102
229,1791353572.5026386,0.5759063964843751,-0.8292515625000001,-0.19275117187499896,1.0278518111476456,0.10621647452524044,0.004946838523161216,0.08317332716346305,0.13499708524033305
230,1791353572.5277383,0.5950665527343751,-0.9106822265625001,-0.36519257812499895,1.1475242651367286,0.12119629519643271,-0.009848532092327368,0.07842972682038916,0.14469539592825795
231,1791353572.5477383,0.4801056152343751,-0.9969029296875,-0.518473828124999,1.2219377903353712,0.13295483681193257,-0.022730764563334945,0.07389140304839996,0.15379732030754786
232,1791353572.5723758,0.3411944824218751,-1.0974937500000002,-0.44183320312499896,1.2313093784698834,0.14678473051960172,-0.04008970721476235,0.06736489113154372,0.1664060404415723
233,1791353572.5923758,0.3124542480468751,-0.857991796875,-0.326872265624999,0.9698572362271416,0.15730790562331587,-0.05500069891798516,0.06170850480562545,0.17770423072737127
234,1791353572.6022565,0.4322052246093751,-0.7142906250000001,-0.456203320312499,0.9513852650775497,0.16227877672923077,-0.0624274787404292,0.058752893242707965,0.1835306348896862
235,1791353572.6222565,0.3651446777343751,-0.7574009765625,-0.523263867187499,0.9903494078756173,0.17202723437674108,-0.0774128637191775,0.05219853432221959,0.19573146865515031
236,1791353572.6474514,0.4561554199218751,-0.9106822265625001,-0.532843945312499,1.1494966528690393,0.1840176646057415,-0.09661100477438603,0.04318459603618801,0.21227599125967203
237,1791353572.6674514,0.4561554199218751,-0.9585826171875,-0.465783398437499,1.159272433622971,0.1934765468366266,-0.11236864406885591,0.03560459595227873,0.22655589508689378
238,1791353572.6923332,0.3268243652343751,-0.8723619140625001,-0.508893749999999,1.061509455260151,0.20494026634749293,-0.1324488149633306,0.025770021496699887,0.24537174931868647
239,1791353572.7123332,0.3651446777343751,-0.9250523437500001,-0.638224804687499,1.1816866656070488,0.21381055960791276,-0.14886428022011677,0.017330083065896448,0.26110507674952077
240,1791353572.7219305,0.43699526367187513,-1.0735435546875,-0.623854687499999,1.3163036486306823,0.21800600381530108,-0.156998498343957,0.01297911105034014,0.26896766256453875
241,1791353572.7419305,0.4705255371093751,-1.2124546875000002,-0.681335156249999,1.4682160077641844,0.2267987980488505,-0.17483587342546514,0.0033143228176159625,0.2863848148358916
242,1791353572.7819095,0.3411944824218751,-1.3609458984375,-0.7052853515624989,1.5703550045889696,0.2441725882753711,-0.21285965070867552,-0.017264874840487887,0.32438797707093114
243,1791353572.8019094,0.2070733886718751,-1.4423765625,-0.542424023437499,1.5548483390824632,0.25238272516935145,-0.23323321650426956,-0.027887186077689394,0.3447788688306862
244,1791353572.8119583,0.3411944824218751,-1.3992662109375,-0.38435273437499895,1.4906665047313763,0.2563022979303107,-0.24407594904093038,-0.03312221244950139,0.3554729494379825
245,1791353572.8319583,0.2166534667968751,-1.2555650390625002,-0.24544160156249897,1.2975453255161018,0.26376993383101827,-0.26640118448636113,-0.04292316216066857,0.3773414460920335
246,1791353572.8426514,-0.008478369140624914,-1.3657359375,-0.336452343749999,1.4065940115531403,0.26733059849453017,-0.27864925500215754,-0.04784393062264627,0.3891016549722266
247,1791353572.8626513,0.04421206054687509,-1.5238072265625,-0.552004101562499,1.6213117214662085,0.2730449889151677,-0.30245570378183656,-0.05699971425871452,0.4114389215271511
248,1791353572.88771,0.1256427246093751,-1.6531382812500002,-0.599904492187499,1.7631045547352582,0.2794500278683374,-0.3337802881818143,-0.06891550698761396,0.44073909057140537
249,1791353572.90771,0.06816225585937509,-1.6387681640625,-0.389142773437499,1.6857162533437364,0.2840859467852528,-0.3599689040434937,-0.07848281220465286,0.4652332628377922
250,1791353572.9315846,-0.06595883789062491,-1.5333873046875002,-0.288551953124999,1.561694408046891,0.2887938113380715,-0.3922216846793448,-0.08940392459901773,0.4952098314185411
251,1791353572.9515846,-0.20007993164062493,-1.6243980468750001,-0.389142773437499,1.682299941108975,0.29174701433704847,-0.41992412751502595,-0.09819690369105662,0.5206680565757308
252,1791353572.962166,-0.3006707519531249,-1.8255796875,-0.494523632812499,1.9151234215848145,0.29267770901445306,-0.4351202447922625,-0.10285251685551385,0.5343861048020813
253,1791353572.982166,0.0825323730468751,-2.0315513671875003,-0.5472140624999989,2.105577303335098,0.29384573441220213,-0.46531966822178344,-0.11189472289575102,0.5615942826259843
254,1791353573.0227184,0.2741339355468751,-1.92138046875,-0.580744335937499,2.0258618669681985,0.2969435751479349,-0.5293902597949621,-0.1309093679533363,0.6209402520414962
255,1791353573.0427184,0.015471826171875088,-1.8399498046875,-0.523263867187499,1.9129714414697045,0.2986766308358764,-0.5618913165366343,-0.14053651812928275,0.6516748378866908
256,1791353573.0524116,-0.3725213378906249,-1.7058287109375,-0.27418183593749895,1.7674273443060033,0.2991310089035462,-0.5778581533059927,-0.145082241936606,0.6666695303935957
257,1791353573.0724115,-0.16654965820312492,-1.6531382812500002,-0.278971874999999,1.6847641593477698,0.2991192982217981,-0.6108994757810777,-0.15388433001568325,0.6973886370616259
258,1791353573.0821614,0.1016925292968751,-1.7345689453125002,-0.336452343749999,1.769822300733094,0.2990670194210848,-0.6270680642929588,-0.15798168121159617,0.71247010530967
259,1791353573.1021614,0.0969024902343751,-1.71061875,-0.31250214843749896,1.741626881178411,0.2992737579382328,-0.6604275189904323,-0.16609928578926444,0.7438536568237286
260,1791353573.1270504,-0.11864926757812493,-1.6291880859375,-0.288551953124999,1.6587928435189767,0.2994518483116756,-0.7019489211271543,-0.17580792370749676,0.783142466839333
261,1791353573.1470504,-0.12822934570312491,-1.5333873046875002,-0.23107148437499897,1.555992744895526,0.2992031722088852,-0.7350532353627491,-0.1832186706764344,0.8144905637031926
262,1791353573.1720133,0.03463198242187509,-1.4615367187500001,-0.22628144531249897,1.4793553484385351,0.2987641110402296,-0.7757815580484406,-0.19193717681495007,0.8531921821591066
263,1791353573.1920133,0.029841943359375088,-1.394476171875,-0.23107148437499897,1.4138063397799163,0.2985618168280294,-0.8078019648222867,-0.19856059466953038,0.8838039842600384
264,1791353573.2020164,-0.08511899414062492,-1.30825546875,-0.398722851562499,1.370312930332311,0.2984343445422102,-0.8234425307030064,-0.20184891143894734,0.8988123510622216
265,1791353573.2220163,-0.15696958007812492,-1.2651451171875001,-0.475363476562499,1.3605888620236688,0.2978545762863451,-0.853883351350189,-0.20874844609321008,0.9281217808424056
266,1791353573.2629092,-0.18570981445312493,-1.40405625,-0.35082246093749897,1.4590882384031885,0.2957959845828552,-0.9149742361359446,-0.22327335561272052,0.9871798765242636
267,1791353573.2829092,-0.13301938476562492,-1.4375865234375,-0.14485078124999895,1.450975850219871,0.2944620928637588,-0.9446334176462771,-0.23005516462036463,1.0158570749058617
268,1791353573.292991,0.04900209960937509,-1.34657578125,-0.14964082031249895,1.355750683392405,0.29382702466708027,-0.9594468476507162,-0.2331836786670969,1.0301685308182955
269,1791353573.312991,0.06816225585937509,-1.3226255859375,-0.18796113281249896,1.3376523917477636,0.2929319123292166,-0.9884292080775062,-0.23896541455577341,1.058256053134302
270,1791353573.3373213,0.005891748046875088,-1.4423765625,-0.14964082031249895,1.4501300754925959,0.292141460688117,-1.0234437029520032,-0.24556002121404535,1.0922835575910392
271,1791353573.3573213,0.11127260742187509,-1.5238072265625,-0.15443085937499895,1.535649356856526,0.29176490715454434,-1.0523581041779884,-0.2506238745578998,1.1204448522682424
272,1791353573.3678663,0.2741339355468751,-1.4998570312500001,-0.298132031249999,1.5535775606212048,0.2919009584181379,-1.0677078296677143,-0.2532512303933672,1.13549212447948
273,1791353573.3878663,0.1543829589843751,-1.4759068359375,-0.37477265624999895,1.5305520671524029,0.2927630660925861,-1.096917294349538,-0.2584962376382141,1.164370245404852
274,1791353573.4120746,-0.022848486328124914,-1.480696875,-0.298132031249999,1.5105853160346496,0.2938888660761253,-1.1323376479262797,-0.26511432578963084,1.1995185785362479
275,1791353573.4320745,0.03463198242187509,-1.5573375,-0.30292207031249896,1.5869030354105225,0.29469712039089774,-1.1617681995118623,-0.27066337647491595,1.2287434254263676
276,1791353573.4576569,0.1256427246093751,-1.5285972656250002,-0.417883007812499,1.5896609396163435,0.29588340921470996,-1.1996874492581646,-0.2780795679065789,1.2665406483185568
277,1791353573.4776568,0.05858217773437509,-1.4663267578125,-0.389142773437499,1.518215442664067,0.29694806010369407,-1.2293779676035077,-0.28421832014227016,1.2962748131213429
278,1791353573.5030138,-0.12343930664062491,-1.3896861328125,-0.20712128906249896,1.4104481693909179,0.2979720628389953,-1.2668061589438995,-0.29196785344647885,1.3337280165074388
279,1791353573.5230138,-0.09469907226562492,-1.3034654296875001,-0.11132050781249896,1.3116334457987955,0.298331373089483,-1.2959386949023972,-0.297641000131213,1.3627358049430907
280,1791353573.5320957,0.02026186523437509,-1.2890953125,-0.13527070312499895,1.296331528204178,0.29841935714013684,-1.3089491217935019,-0.29999867594316243,1.3756457108309403
281,1791353573.5520957,0.010681787109375087,-1.2843052734375,-0.21191132812499897,1.3017144644440741,0.29863046688191053,-1.337162988015048,-0.30493270046721643,1.403627074433116
282,1791353573.5773988,0.02026186523437509,-1.3322056640625002,-0.23586152343749897,1.3530754349929057,0.2989162137233209,-1.3724691670399864,-0.3110884247224107,1.4386794379911014
283,1791353573.5973988,-0.027638525390624915,-1.34657578125,-0.21670136718749897,1.3641809650027183,0.2990971286511832,-1.4002079019848006,-0.31590301097086043,1.4662318962185057
284,1791353573.6075103,-0.05158872070312492,-1.26993515625,-0.27418183593749895,1.3002201261100195,0.2991147920307731,-1.4141126831627815,-0.31834431162037946,1.480043053507062
285,1791353573.6275103,-0.06595883789062491,-1.3034654296875001,-0.36519257812499895,1.355263189865306,0.2989681672539818,-1.441350064621843,-0.32340778637844814,1.5071378736223184
286,1791353573.6529078,-0.05158872070312492,-1.4232164062500001,-0.427463085937499,1.4869199793405696,0.298585994587484,-1.4759438229282509,-0.3303831457643426,1.5416603995721625
287,1791353573.6729078,-0.08990903320312492,-1.471116796875,-0.355612499999999,1.516155834489163,0.2981179387635302,-1.5034408427220864,-0.3362267535436169,1.5691580872480608
288,1791353573.6978314,-0.14738950195312492,-1.40405625,-0.21191132812499897,1.4275867852560677,0.2971785751165944,-1.5379415947153199,-0.34347746302102033,1.6036072529978116
289,1791353573.7178314,-0.12343930664062491,-1.30825546875,-0.20712128906249896,1.3302890145833393,0.2961316066145362,-1.5655424973532408,-0.34905161015868374,1.6310899012652547
290,1791353573.7277308,-0.018058447265624913,-1.327415625,-0.25502167968749895,1.351811527588968,0.29558606640218443,-1.5791117211729617,-0.3517399069980386,1.644592932239446
291,1791353573.7477307,0.04421206054687509,-1.4854869140625,-0.269391796874999,1.5103635384808092,0.29468845257777776,-1.606633200553291,-0.3571430794928852,1.6720235358488402
292,1791353573.7727108,0.02026186523437509,-1.4567466796875002,-0.22149140624999897,1.4736281332160885,0.29385628958006305,-1.6413637764700066,-0.36379905089742653,1.7066857692813613
293,1791353573.7927108,0.010681787109375087,-1.394476171875,-0.18796113281249896,1.4071273154733237,0.2933363832031546,-1.6692762197753985,-0.36894289673492286,1.7345455291428669
294,1791353573.816979,0.05858217773437509,-1.394476171875,-0.24065156249999897,1.4163011120552533,0.29292622125534423,-1.7031412440696312,-0.3750283686161294,1.7683727394463142
295,1791353573.836979,0.03942202148437509,-1.40405625,-0.307712109374999,1.4379203007114087,0.2927859065276152,-1.7310616898343538,-0.38011382262245086,1.7963253266660855
296,1791353573.8478918,-0.008478369140624914,-1.471116796875,-0.326872265624999,1.5070175814587783,0.2927461551316318,-1.7463643850374273,-0.38299183496215683,1.8116764673415573
297,1791353573.8678918,0.05379213867187509,-1.4902769531250002,-0.379562695312499,1.538793953351558,0.2927522014494354,-1.7746448356298745,-0.3885348212190788,1.8401161516004954
298,1791353573.892425,0.07295229492187509,-1.4136363281250002,-0.417883007812499,1.4759118922711894,0.2929917149064503,-1.8094750599649765,-0.39578159564932114,1.8752832343658918
299,1791353573.912425,0.025051904296875087,-1.3417857421875001,-0.32208222656249896,1.3801280869955577,0.29330468852841446,-1.8377433005844501,-0.4019130923148234,1.9039070914647707
300,1791353573.9374764,0.06816225585937509,-1.2938853515625002,-0.20233124999999896,1.311382221489378,0.29381304199547503,-1.8727920682775818,-0.409426491496747,1.939408746651771
301,1791353573.9574764,0.11606264648437509,-1.356155859375,-0.21191132812499897,1.377510676479062,0.29443435046818084,-1.9005514075903704,-0.41514648765714574,1.9675197193023055
302,1791353573.9820795,0.07295229492187509,-1.3992662109375,-0.298132031249999,1.4325329575486236,0.29543278862008926,-1.9346619155922962,-0.4220686595391883,2.0020837179299726
303,1791353574.0020795,-0.022848486328124914,-1.4423765625,-0.36519257812499895,1.4880651264290774,0.29619783345329886,-1.9624936581301746,-0.4278466473932691,2.030312111087663
304,1791353574.0120902,0.03942202148437509,-1.4567466796875002,-0.38435273437499895,1.5071138009387377,0.29653576982508933,-1.9765115124888755,-0.4308676884342714,2.0445484065493567
305,1791353574.0320902,0.11606264648437509,-1.4088462890625002,-0.34124238281249897,1.454223080528461,0.2973428727337857,-2.0046147104349985,-0.4370863456586932,2.073146737406507
306,1791353574.0576522,0.11127260742187509,-1.30825546875,-0.33166230468749897,1.3542207534325297,0.29865553630824276,-2.0403547909411883,-0.4451322823474072,2.1095936933618367
307,1791353574.0776522,0.005891748046875088,-1.3417857421875001,-0.34124238281249897,1.3845107635768892,0.2997042666976797,-2.0680987109201463,-0.45149257091905837,2.1379196587293605
308,1791353574.1027658,-0.018058447265624913,-1.4519566406250002,-0.31250214843749896,1.4853153828566963,0.30080069009377486,-2.102972647289332,-0.45951242682016447,2.173505620146898
309,1791353574.1227658,0.03463198242187509,-1.471116796875,-0.288551953124999,1.4995486767379314,0.3015677455524588,-2.130964253589967,-0.46584283908814444,2.2020357185943964
310,1791353574.1472733,0.1256427246093751,-1.3417857421875001,-0.32208222656249896,1.385608903281292,0.30266128324602865,-2.1652897860828255,-0.4735587958661472,2.237038587783621
311,1791353574.1672733,0.1495929199218751,-1.2986753906250001,-0.369982617187499,1.3586106686341974,0.3038326839445782,-2.1930608568740415,-0.47994917284199123,2.2654318419007407
312,1791353574.192203,0.0825323730468751,-1.356155859375,-0.34124238281249897,1.4008628310243103,0.3055078137200847,-2.2274485709950556,-0.48804967903724294,2.300663958486832
313,1791353574.212203,0.06816225585937509,-1.4136363281250002,-0.27418183593749895,1.4415926749524741,0.30687615191886164,-2.255052760576388,-0.4944966728602407,2.328940292293807
314,1791353574.222668,0.1352228027343751,-1.40405625,-0.27418183593749895,1.4369533182053829,0.3076443630157065,-2.2695414879310785,-0.4977944242184516,2.343771087013135
315,1791353574.242668,0.1687530761718751,-1.3848960937500001,-0.31250214843749896,1.429710594483909,0.3093482664502453,-2.297261494040567,-0.504031565407738,2.3721624187404715
316,1791353574.2527173,0.22623354492187508,-1.4375865234375,-0.336452343749999,1.4936655612391627,0.3103737010353186,-2.3112279462754426,-0.5071845502275925,2.38649169743549
317,1791353574.2727172,0.2741339355468751,-1.5190171875,-0.30292207031249896,1.5729985413919618,0.31285892923331116,-2.3392892139314583,-0.5134773616317659,2.415328908642753
318,1791353574.2973208,0.2453937011718751,-1.5381773437500001,-0.23586152343749897,1.5753851172455882,0.31641628755676604,-2.3742729474694575,-0.5210516678547955,2.4512825493383614
319,1791353574.3173208,0.2358136230468751,-1.4854869140625,-0.27418183593749895,1.5288738063762752,0.3195960723328759,-2.4029806247222556,-0.527050236830656,2.4807739688219104
320,1791353574.3577769,0.1352228027343751,-1.480696875,-0.298132031249999,1.5164534777141552,0.32618914384150766,-2.4613401544031905,-0.5391005977857348,2.5407133186903463
321,1791353574.3777769,0.03942202148437509,-1.5908677734375,-0.29334199218749896,1.618166830929504,0.32922157632045873,-2.4904706745214535,-0.5450514735446076,2.5705859518365495
322,1791353574.3727975,-0.008478369140624914,-1.605237890625,-0.20233124999999896,1.6179612180049454,0.32922157632045873,-2.4904706745214535,-0.5450514735446076,2.5705859518365495
323,1791353574.3927975,-0.08032895507812492,-1.4136363281250002,-0.05863007812499896,1.4171301617281384,0.33131875104632547,-2.5201208131519133,-0.5503744056803552,2.6007100980509845
324,1791353574.4173963,-0.042008642578124915,-1.2843052734375,-0.14964082031249895,1.2936758235873567,0.33328554345017125,-2.5560960638985515,-0.556323515052837,2.6370821365196964
325,1791353574.4373963,-0.11385922851562492,-1.5046470703125001,-0.16880097656249896,1.5183611229897243,0.33441097031768297,-2.5851415858465265,-0.5609125409029565,2.6663478007349526
326,1791353574.462862,-0.10906918945312492,-1.6866685546875002,-0.16401093749999895,1.6981302921387424,0.335203235975345,-2.6226725801755584,-0.5665148652865624,2.70401770793087
327,1791353574.482862,-0.013268408203124913,-1.633978125,-0.21670136718749897,1.6483385714639125,0.3355486172037994,-2.652707858593722,-0.5708258391614438,2.7340983881723493
328,1791353574.4926813,-0.14259946289062492,-1.7249888671875002,-0.22628144531249897,1.7456014697605589,0.335577963325755,-2.6677158561841243,-0.5729511244865524,2.7491077552283145
329,1791353574.5126812,-0.17612973632812493,-1.796839453125,-0.499313671874999,1.8732239180746273,0.33515067657431163,-2.698981761114455,-0.5777189972962626,2.780393454652363
330,1791353574.5376377,-0.23361020507812494,-1.9692808593750002,-0.561584179687499,2.0610719594164255,0.3339305500240253,-2.7391931457367646,-0.5847617647242465,2.820750790724703
331,1791353574.5576377,-0.33899106445312494,-2.084241796875,-0.35082246093749897,2.140573570031648,0.33224051633384727,-2.772664839053774,-0.590927804955751,2.8543387572411043
332,1791353574.5822854,-0.43479184570312496,-1.911800390625,-0.10653046874999895,1.9635104846819451,0.32903975897382215,-2.8151143989076393,-0.5982323623840874,2.8967254273276084
333,1791353574.6022854,-0.3916814941406249,-1.7249888671875002,0.11381132812500105,1.7725557828126663,0.32559242853560283,-2.849847824943564,-0.6032595296019425,2.9311371709476224
334,1791353574.612308,-0.2910906738281249,-1.547757421875,0.10902128906250105,1.5786616036464902,0.3236107561593528,-2.8671030828541038,-0.6052334120642938,2.948103032848839
335,1791353574.632308,-0.3437811035156249,-1.3848960937500001,0.11860136718750106,1.4318480792029489,0.31929721947596135,-2.900769706782411,-0.6082399954044718,2.9810017608450394
336,1791353574.65802,-0.6503436035156249,-1.2220347656250001,0.25751250000000103,1.408058400310899,0.3126664811338894,-2.942586508841238,-0.6108001758858614,3.0215314900396644
337,1791353574.67802,-1.0958172363281249,-1.0256431640625001,0.31020292968750107,1.532639935865125,0.3056632043256025,-2.9736059919844875,-0.611641315293398,3.0512075787495156
338,1791353574.7029889,-1.268258642578125,-0.8436216796875,0.20961210937500105,1.53756780641034,0.29380436193900816,-3.0100236810907535,-0.6115604743807835,3.0855420557247903
339,1791353574.7229888,-1.205988134765625,-0.6711802734375001,0.12339140625000106,1.3856824238560081,0.2820189339474002,-3.0370907688273743,-0.6110059292629131,3.1107528450193076
340,1791353574.7477076,-0.980856298828125,-0.19696640625000003,-0.005939648437498955,1.0004549582891822,0.26558356542035727,-3.0671355168476837,-0.6102056081482916,3.1385037506980176
341,1791353574.7677076,-0.755724462890625,-0.22570664062500004,0.013220507812501047,0.7888204696002551,0.2516755010442692,-3.088432382664058,-0.6096442771735858,3.1580724001840705
342,1791353574.7778106,-0.8898455566406249,-0.22091660156250004,0.02759062500000105,0.9172734064099312,0.24445680497625266,-3.0979151920527723,-0.609372330779662,3.166728959694909
343,1791353574.7978106,-0.995226416015625,0.004215234374999978,0.11381132812500105,1.0017217207117548,0.2294825234281652,-3.1141966734366147,-0.6087026322783144,3.181415100854521
344,1791353574.8225796,-0.7940447753906249,0.4880091796875,0.11381132812500105,0.9389425345536282,0.21039540767963266,-3.1304215717091024,-0.6075747997098256,3.1957710464670024
345,1791353574.8425796,-0.3437811035156249,0.5071693359375,0.02759062500000105,0.6133248935414217,0.19558843347704713,-3.1400645901296884,-0.6065886212052471,3.2040927297554944
346,1791353574.8678625,-0.22882016601562494,0.60776015625,-0.17359101562499896,0.6722089828365589,0.17859223073564326,-3.148312085577213,-0.6058057982031815,3.211037968976273
347,1791353574.8878624,-0.32941098632812493,0.7754115234375,-0.15922089843749895,0.8573948466678448,0.1663267800219091,-3.1517828770983405,-0.6057786519491459,3.2137777890327257
348,1791353574.8979115,-0.37731137695312494,0.95264296875,-0.049049999999998956,1.0258159696490772,0.16055571657226847,-3.1519628032368616,-0.6059240283319465,3.2136881583661507
349,1791353574.9179115,-0.037218603515624914,0.904742578125,-0.25502167968749895,0.9407339763347332,0.150171063900027,-3.1494811070712374,-0.606626067390223,3.2108842672804108
350,1791353574.9418538,0.3890948730468751,0.655660546875,-0.33166230468749897,0.8314357806291544,0.14023605656443333,-3.144153902433787,-0.6083939136213431,3.2055441141687395
351,1791353574.9618537,0.3076642089843751,0.7370912109375,-0.16401093749999895,0.8153896653446865,0.13422692445085763,-3.1382822392227254,-0.6103926673618716,3.1999080437783647
352,1791353574.9868474,-0.06116879882812492,0.943062890625,-0.025099804687498957,0.9453778280769055,0.12830589679713336,-3.128895683931746,-0.6128702991994763,3.1909341277626653
353,1791353575.0068474,-0.20966000976562493,0.8903724609375,-0.020309765624998956,0.9149496846660827,0.1238723373678349,-3.119761062420626,-0.6146236290338607,3.182140105012285
354,1791353575.01745,0.3699347167968751,0.5933900390625,-0.24065156249999897,0.7395110598793437,0.12200195680820895,-3.114464965347781,-0.6156212243613093,3.1770687732134326
355,1791353575.03745,0.8633087402343751,0.41615859374999997,-0.15443085937499895,0.9707413900953961,0.12085292359850003,-3.104459084417608,-0.617813353610342,3.167643442034563
356,1791353575.062436,0.7818780761718751,0.4017884765625,-0.010729687499998955,0.8791373226581242,0.12271575829649595,-3.092300973431626,-0.6204506944736763,3.156318034022131
357,1791353575.082436,0.4657354980468751,0.387418359375,0.046750781250001046,0.6076085704376404,0.12585461156956199,-3.0828450338145603,-0.6221910557634471,3.147521976990861
358,1791353575.107079,0.6238067871093751,0.03295546874999998,-0.15443085937499895,0.6434826034101886,0.1311557293717213,-3.072164637477223,-0.6242127981860837,3.137680513138947
359,1791353575.127079,1.030960107421875,-0.28797714843750005,-0.32208222656249896,1.1178311776762067,0.13729486392490725,-3.065179277138901,-0.6263222701338693,3.1315257410290527
360,1791353575.1376214,1.0836505371093752,-0.17780625000000003,-0.269391796874999,1.130701326319219,0.1417174953578442,-3.0624177570054028,-0.6277350898670588,3.129303070966906
361,1791353575.1576214,0.8728888183593752,-0.053265234375000026,-0.17838105468749896,0.89251995780558,0.15178395230742095,-3.058311314323623,-0.6306849706468225,3.1263509073195435
362,1791353575.1822968,1.0070099121093752,-0.30713730468750006,-0.37477265624999895,1.1175226310414987,0.16581972757832555,-3.0546718505917885,-0.6348022183974628,3.1243383544895313
363,1791353575.2022967,1.3135724121093753,-0.5322691406250001,-0.561584179687499,1.5245195016108517,0.1789704814866167,-3.0534235670204692,-0.6390433114841255,3.1247083490835035
364,1791353575.2275956,1.2992022949218751,-0.47478867187500007,-0.389142773437499,1.4369352748783508,0.1980677028295589,-3.0539922148176957,-0.6454072622209817,3.127722781385661
365,1791353575.2475955,1.260881982421875,-0.47478867187500007,-0.32208222656249896,1.3852742028942866,0.2147405298565862,-3.055798692081082,-0.6507504641678924,3.131692083890475
366,1791353575.2569966,1.5578644042968752,-0.762191015625,-0.643014843749999,1.8496877400679184,0.22338954316385745,-3.0573926347358724,-0.6535657931382192,3.1344378853141284
367,1791353575.2769966,1.6153448730468751,-0.9202623046875,-0.753185742187499,2.0058690212828223,0.24378936828324274,-3.062798639729845,-0.6607510530176408,3.142731410363102
368,1791353575.3024201,1.347102685546875,-0.7909312500000001,-0.700495312499999,1.7120022109999267,0.2714800879094365,-3.0719026762232593,-0.6712865603527985,3.1560914334710315
369,1791353575.3224201,1.4764337402343752,-0.781351171875,-0.738815624999999,1.8265308020498974,0.2942313791928271,-3.0803487059165757,-0.6804903165401252,3.1683098531312424
370,1791353575.3468428,1.941067529296875,-0.857991796875,-0.863356640624999,2.291130237613469,0.3241062191196517,-3.0921181577597037,-0.69297817525327,3.1853505763411114
371,1791353575.3668427,2.079978662109375,-0.9058921875000001,-0.801086132812499,2.4059698423688367,0.35093290057005183,-3.1029563979582533,-0.7041673185683002,3.2011472819712994
372,1791353575.39184,1.9889679199218753,-1.107073828125,-0.920837109374999,2.45551355716066,0.3870615544167171,-3.1182446589610238,-0.719282728411685,3.223450642314505
373,1791353575.41184,1.9985479980468752,-1.4280064453125,-1.083698437499999,2.6847344024672446,0.4176130018819133,-3.1324444335104573,-0.7325691349496384,3.2439584285024883
374,1791353575.4219124,2.0464483886718754,-1.5429673828125001,-1.078908398437499,2.780780948607772,0.433747209615847,-3.1407674565596713,-0.739890494178325,3.255763320852621
375,1791353575.4419124,2.036868310546875,-1.317835546875,-0.858566601562499,2.573452865788684,0.4671029650916627,-3.1591059819921057,-0.7551534537166477,3.281522897088471
376,1791353575.4817061,1.9650177246093752,-1.2890953125,-0.848986523437499,2.4987675961795586,0.5354591383568867,-3.1979012030740526,-0.7860629501280335,3.3363428413513443
377,1791353575.5017061,1.9554376464843752,-1.5285972656250002,-0.959157421874999,2.660888751846359,0.5705417489653397,-3.218701156211278,-0.8019797798839715,3.3658173728904233
378,1791353575.5114655,2.223679833984375,-1.8495298828125002,-0.858566601562499,3.0170597277488187,0.5881521081784741,-3.229801121362686,-0.8099121946989413,3.3813452868691924
379,1791353575.5314655,2.5110821777343753,-1.6770884765625,-1.016637890624999,3.186175146191494,0.6259298002935916,-3.254426118005201,-0.8265425041730352,3.4155892586279473
380,1791353575.542429,2.1949395996093752,-1.6579283203125001,-0.992687695312499,2.9243657469017847,0.6474017531061856,-3.2686422967235775,-0.8359435250545784,3.4353970761668906
381,1791353575.562429,1.9458575683593753,-1.7776792968750001,-0.46099335937499897,2.6756345483393846,0.6869074975317512,-3.295839405669753,-0.8527013308309965,3.4729668667771416
382,1791353575.5871205,2.472761865234375,-1.2076646484375,-0.23586152343749897,2.761998516198246,0.7365472607610232,-3.3299083323144583,-0.8715773423609458,3.5200054591816743
383,1791353575.6071205,2.779324365234375,-0.723870703125,-0.38435273437499895,2.8976472777841136,0.7786020173461069,-3.35626185369262,-0.8855036666621589,3.557362994640802
384,1791353575.6474817,2.506292138671875,-0.5993296875,-0.700495312499999,2.6704662591992734,0.8667407175220541,-3.405472841269442,-0.9126761335450135,3.6306283848360312
385,1791353575.6674817,2.147039208984375,-0.8532017578125001,-0.801086132812499,2.4452954006898793,0.9108444241351332,-3.4283791344443917,-0.9263734528132405,3.666277243819521
386,1791353575.6619947,1.9123272949218753,-0.8244615234375,-0.815456249999999,2.236448385766182,0.9108444241351332,-3.4283791344443917,-0.9263734528132405,3.666277243819521
387,1791353575.6819947,1.859636865234375,-0.8340416015625001,-0.700495312499999,2.1551260627884727,0.953542980364035,-3.4495557022219496,-0.9406047807321741,3.7004616079172767
388,1791353575.7073412,1.8979571777343751,-0.9058921875000001,-0.508893749999999,2.1637594488935297,1.0066822059626412,-3.4756752891544047,-0.9582342010650502,3.743252671612102
389,1791353575.7273412,2.0991388183593753,-0.7957212890625001,-0.5472140624999989,2.3106274859458056,1.0483184789500677,-3.495746190619765,-0.9716424652786048,3.7766787185135917
