imu_index,t_imu,ax,ay,az,mag,vx,vy,vz,velocity
0,1790995729.8839083,-0.014226416015625132,0.002490820312499913,0.04339775390624974,0.04573795079128723,0.0,0.0,0.0,0.0
1,1790995729.9039083,0.004933740234374869,-0.007089257812500088,0.04339775390624974,0.044248891660015596,-3.207766350012445e-05,-3.721856802120246e-06,0.00018552522101841057,0.00018831472684740513
2,1790995729.9285755,0.10552456054687487,0.031231054687499916,-0.05240302734375026,0.12188883841556006,0.0001386462044519574,3.703970261372633e-05,0.00036336222345841783,0.0003906748200425674
3,1790995729.9485755,0.07678432617187488,0.012070898437499913,-0.11946357421875027,0.14252398008712835,0.0005297673610422944,0.0001300842904785283,0.0002281228264746261,0.0005912828455263954
4,1790995729.9582295,0.01930385742187487,-0.03582949218750009,-0.08114326171875026,0.0907778626325593,0.0007598162931768193,0.00015105774424983736,2.7384407734493176e-05,0.0007751703988554906
5,1790995729.9782295,0.07199428710937487,-0.1124701171875001,-0.033242871093750265,0.13761465443444895,0.0013018607322522382,-3.4458921078400984e-05,-0.0004976785640698612,0.0013941709854092001
6,1790995730.0036657,0.15821499023437488,-0.04540957031250009,-0.01887275390625026,0.16568099785683063,0.0023270043966897858,-0.0005361984871340089,-0.0011647131807495325,0.0026568807036128073
7,1790995730.0236657,0.12947475585937487,0.002490820312499913,-0.038032910156250266,0.1349682142047797,0.0034436822602127376,-0.0009359087510289984,-0.0016958769510735249,0.003951059520272885
8,1790995730.0486722,0.07678432617187488,-0.05977968750000009,-0.08593330078125026,0.12982286380459862,0.005017300490186615,-0.001468156981141269,-0.002492883849654291,0.005791654255734529
9,1790995730.0686722,0.07678432617187488,-0.1124701171875001,-0.08593330078125026,0.16102761312582292,0.00631743308420811,-0.0020883653434358653,-0.0032925060984104696,0.0074237340327615
10,1790995730.0933528,0.14863491210937488,-0.1220501953125001,-0.033242871093750265,0.19517601223546072,0.008098438814239526,-0.003173026618216403,-0.0043518521436017804,0.009725812368520305
11,1790995730.1133528,0.14863491210937488,-0.02145937500000009,-0.009292675781250263,0.1504632702566565,0.009771098179213794,-0.0041354044234270144,-0.005145331952023209,0.011791962104316898
12,1790995730.1229587,0.08636440429687488,0.012070898437499913,-0.04282294921875027,0.09715102623459086,0.01062326539526111,-0.004535059473686797,-0.005506816717684695,0.012796310501476596
13,1790995730.1429586,0.08157436523437488,-0.03582949218750009,-0.01887275390625026,0.09107310477748742,0.01238329354318769,-0.005277985590790936,-0.006239096704206068,0.014836759031465925
14,1790995730.1685426,0.11989467773437487,-0.05498964843750009,-0.014082714843750262,0.13265337553820425,0.014683586397342286,-0.006260047880855527,-0.007098554502951308,0.01746955594713814
15,1790995730.1885426,0.14863491210937488,-0.03582949218750009,-0.05719306640625026,0.16323950641044427,0.01661487351966215,-0.007048834875349671,-0.007776558545711729,0.019652352479771942
16,1790995730.1984813,0.09594448242187488,-0.05498964843750009,-0.05719306640625026,0.12450000798165062,0.01761295162697069,-0.007449712174100317,-0.008148208507863443,0.02078719746330818
17,1790995730.2184813,0.01451381835937487,-0.02145937500000009,-0.023662792968750263,0.03508679908229721,0.019485832296641557,-0.008250078497284107,-0.008905192282404977,0.022957872399044166
18,1790995730.2424986,0.06241420898437487,0.002490820312499913,-0.028452832031250264,0.06863891986018518,0.02153612260285574,-0.009101210609870966,-0.00977175001284049,0.0253401600161465
19,1790995730.2624986,0.16300502929687488,-0.02145937500000009,-0.04282294921875027,0.16989687852122926,0.023325490562973828,-0.009732112967429807,-0.010492031718366728,0.02736558536544413
20,1790995730.2875106,0.14863491210937488,0.012070898437499913,-0.04761298828125026,0.15654085837224896,0.025812215398550307,-0.010420381413745584,-0.011427348488910189,0.030090515217857102
21,1790995730.3075106,0.06241420898437487,0.031231054687499916,-0.033242871093750265,0.0773045971375217,0.027818947675827193,-0.0108232257955397,-0.012184341404898463,0.03224118859289729
22,1790995730.3334963,0.05283413085937487,-0.011879296875000087,-0.009292675781250263,0.05494467127106477,0.03025978169253711,-0.011230409538564695,-0.013103258637453177,0.03483492318642142
23,1790995730.3534963,0.11510463867187487,-0.031039453125000088,0.0002874023437497386,0.11921664352844842,0.032108495170094516,-0.011561169200334717,-0.013717926687073985,0.03678039706091667
24,1790995730.363653,0.10073452148437488,-0.031039453125000088,-0.023662792968750263,0.10803156594286227,0.033070920654718235,-0.011751232449017358,-0.014001058748600527,0.03778633222612736
25,1790995730.383653,0.05762416992187487,-0.02145937500000009,-0.061983105468750264,0.08730953612364434,0.03491934861958179,-0.012148105001718375,-0.014603428734214297,0.03975169800076393
26,1790995730.4082346,0.03846401367187487,-0.02145937500000009,-0.0045026367187502615,0.04427481067787692,0.03702759259366185,-0.012641852583826838,-0.015355312709393457,0.04203147247523778
27,1790995730.4282346,0.08636440429687488,0.002490820312499913,0.01465751953124974,0.08763479556769782,0.03867283656390548,-0.013011767162113438,-0.01586006195475407,0.04377711659975147
28,1790995730.4528773,0.13426479492187487,0.021650976562499914,-0.10509345703125027,0.1718733098892969,0.04080369443380061,-0.013354565678639038,-0.01655583788146556,0.04601501572171224
29,1790995730.4728773,0.043254052734374875,-0.02145937500000009,-0.10030341796875027,0.11132022956117421,0.04253996318057645,-0.01359076079772067,-0.01734391994026432,0.04790792006923238
30,1790995730.4828253,-0.04775668945312513,-0.03582949218750009,0.01944755859374974,0.06279061580517978,0.04327068264429457,-0.013733365269238722,-0.017737440630133577,0.04873986149168974
31,1790995730.5028253,0.01930385742187487,-0.0022992187500000872,0.04818779296874974,0.05196141558332983,0.04447671675015385,-0.014034252490642432,-0.018308468109412755,0.050103279137776034
32,1790995730.528527,0.1869552246093749,0.031231054687499916,-0.05719306640625026,0.19798656931869188,0.046191690659919744,-0.014307149458481013,-0.018949575065683812,0.0519370119165419
33,1790995730.548527,0.1965353027343749,-0.0645697265625001,-0.07635322265625026,0.22051120021269519,0.047901265622623354,-0.014537660380425253,-0.019573943374700257,0.05374954954994206
34,1790995730.5735776,0.11510463867187487,-0.05019960937500009,-0.04282294921875027,0.13267585916426972,0.050306878612350246,-0.014998702975417704,-0.02046258705958006,0.05634235170662864
35,1790995730.5935776,0.04804409179687487,-0.011879296875000087,0.009867480468749738,0.05046503365333351,0.052184109931579736,-0.015404696150861118,-0.021115075793056444,0.05836379373034341
36,1790995730.6028478,0.11031459960937487,-0.0022992187500000872,0.005077441406249739,0.11045531994915836,0.05303380925067867,-0.015574508579974722,-0.021361754917672143,0.059257698354794094
37,1790995730.6228478,0.16779506835937488,-0.04540957031250009,-0.07156318359375026,0.18798538051605498,0.05500918012192516,-0.015957479354760093,-0.02191385178856289,0.06132591577184235
38,1790995730.6483824,0.13905483398437488,-0.0645697265625001,-0.05240302734375026,0.16202337398526154,0.057740545034588246,-0.016583709019732454,-0.02275040724997553,0.0642383917589957
39,1790995730.6683824,0.10073452148437488,-0.05019960937500009,-0.01887275390625026,0.11412109988996104,0.059918667431624356,-0.01717278271403026,-0.02341426757731876,0.06658362485707112
40,1790995730.6929407,0.09115444335937488,-0.026249414062500087,-0.014082714843750262,0.09589831667006697,0.06254547200976,-0.017928425392462803,-0.02416785763164486,0.0694078514901609
41,1790995730.7129407,0.14863491210937488,-0.026249414062500087,-0.09072333984375026,0.17610250772998884,0.0647235073286516,-0.01853025171560608,-0.02484672383283988,0.07176254116731899
42,1790995730.7230124,0.11510463867187487,-0.05498964843750009,-0.10030341796875027,0.16227666170856653,0.06585503928686219,-0.01884922994845412,-0.02528161058658293,0.07301602223468137
43,1790995730.7430124,0.043254052734374875,-0.05977968750000009,-0.009292675781250263,0.07436987252053874,0.06800247522189283,-0.019559783012558635,-0.02618004428472773,0.07544744174955723
44,1790995730.7833936,0.043254052734374875,-0.0022992187500000872,0.005077441406249739,0.043611694487170914,0.0719499073503348,-0.020967247370999382,-0.027734704519759863,0.07991012742348012
45,1790995730.8033936,0.17737514648437488,-0.0022992187500000872,-0.06677314453125026,0.18954124044071527,0.0739426710258944,-0.02156667013947163,-0.028481740751803247,0.08212094383043433
46,1790995730.8129303,0.22527553710937487,-0.08851992187500009,-0.12904365234375026,0.27429383587475703,0.07503836021055924,-0.021874582274617464,-0.028924582566852815,0.08334197219555903
47,1790995730.8329303,0.06720424804687487,-0.08372988281250009,-0.014082714843750262,0.10828401123301291,0.07743023035747482,-0.022681833979331316,-0.029928671768456677,0.08605597922109526
48,1790995730.842544,-0.014226416015625132,0.002490820312499913,0.05297783203124974,0.05491125372098245,0.0784457109808156,-0.023070240725457106,-0.030310882817652877,0.08720501817901122
49,1790995730.862544,0.10552456054687487,0.012070898437499913,-0.038032910156250266,0.11281685034893016,0.08037833091957819,-0.02373521723072467,-0.030964328677257912,0.08934666344548164
50,1790995730.8884788,0.14384487304687488,-0.02145937500000009,-0.05719306640625026,0.15627827463282262,0.08299356320519412,-0.024486432931089996,-0.03186979771569737,0.0922128024605195
51,1790995730.9084787,0.06241420898437487,-0.01666933593750009,0.02902763671874974,0.07082375263439633,0.08501721516355605,-0.025036041764209916,-0.0325055734578309,0.09439990766525193
52,1790995730.9335275,0.004933740234374869,0.012070898437499913,0.009867480468749738,0.016352845397357756,0.08729806225343224,-0.025629778902841936,-0.0331093321065892,0.09681975579579362
53,1790995730.9535275,0.03846401367187487,-0.011879296875000087,-0.04282294921875027,0.05877416968181029,0.08891111591549032,-0.026032446884922518,-0.033568522009142364,0.09853791399269798
54,1790995730.9785628,0.13905483398437488,-0.02145937500000009,-0.08114326171875026,0.16242222924270644,0.09096073152980422,-0.026523485995952747,-0.03428986783524779,0.10076281569097491
55,1790995730.9985628,0.14863491210937488,-0.007089257812500088,-0.07156318359375026,0.16511778801863383,0.0927840333231487,-0.026899743287488547,-0.03500874875757337,0.1027525450692821
56,1790995731.0236607,0.06720424804687487,0.021650976562499914,-0.0045026367187502615,0.07074920126105201,0.09513515789422042,-0.027273671623078827,-0.0359187315568023,0.10528393376014884
57,1790995731.0436606,0.06241420898437487,0.012070898437499913,-0.028452832031250264,0.06964771154052515,0.09692211560679087,-0.02747636857825282,-0.03658454000757172,0.10717871006645746
58,1790995731.0528307,0.15342495117187488,-0.026249414062500087,-0.08114326171875026,0.17553482931621966,0.09776698685111179,-0.02756511653462532,-0.03691939918961848,0.10807988436353613
59,1790995731.0728307,0.2061153808593749,-0.0645697265625001,-0.08593330078125026,0.23245931256527888,0.09987256844891713,-0.027865871255939933,-0.037790795286313995,0.11035932637438646
60,1790995731.0980747,0.09594448242187488,-0.05498964843750009,-0.01887275390625026,0.1121846067091524,0.10270347559919937,-0.028414903993440932,-0.03892412010258004,0.11344821635826578
61,1790995731.1180747,0.05762416992187487,-0.01666933593750009,-0.023662792968750263,0.06448518815095662,0.10484023702084615,-0.02889212571139284,-0.0397511346341967,0.11578593581008083
62,1790995731.128598,0.15821499023437488,0.012070898437499913,-0.06677314453125026,0.17215209134524917,0.10596623622134142,-0.02910918837763196,-0.040192386317325794,0.11701117888818466
63,1790995731.148598,0.1869552246093749,0.012070898437499913,-0.05719306640625026,0.1958800894495916,0.10830299584372977,-0.029423631410295935,-0.0410911591658383,0.11951473698121147
64,1790995731.1735306,0.10073452148437488,0.03602109374999991,0.03860771484374974,0.11373442161055976,0.111317078427761,-0.029666897571390217,-0.042078286183068817,0.12264664255212163
65,1790995731.1935306,0.10073452148437488,0.07434140624999992,0.04818779296874974,0.13414973683579332,0.11367439460764349,-0.029667221838802424,-0.042621152729205934,0.12497429616130375
66,1790995731.2179415,0.16300502929687488,0.06476132812499992,-0.014082714843750262,0.17596304172740174,0.11660289239515423,-0.029412885877253585,-0.043121918477300854,0.12775309085774497
67,1790995731.2379415,0.12947475585937487,0.03602109374999991,0.05297783203124974,0.14445719880477512,0.11908104020101402,-0.02908459085462854,-0.04341231300360376,0.13004167209344675
68,1790995731.2486696,0.06720424804687487,0.08392148437499991,0.07692802734374975,0.13220116446631605,0.12036919042090065,-0.02883839930866872,-0.04344019366969194,0.13117715389247325
69,1790995731.2686696,0.10552456054687487,0.09829160156249991,0.01944755859374974,0.14551590755511792,0.12266951066726607,-0.02817496014530676,-0.04333981066115985,0.13311640174930103
70,1790995731.2930944,0.11031459960937487,0.03602109374999991,0.0002874023437497386,0.11604702788968861,0.12545275571418,-0.027240232088770508,-0.04319945594248881,0.1354496849544466
71,1790995731.3130944,0.08157436523437488,0.045601171874999916,0.09129814453124974,0.13064912986550442,0.12767776493169813,-0.026467215488357617,-0.04296438897832716,0.13728825104116565
72,1790995731.3381612,0.07199428710937487,0.10787167968749992,0.15835869140624975,0.20468744905071615,0.13033687246576806,-0.025355157143068078,-0.042244603877322796,0.13933840416288495
73,1790995731.3581612,0.13905483398437488,0.11745175781249992,0.13919853515624975,0.22914492020839977,0.13245681485016617,-0.024262990116218314,-0.041310120419277396,0.14085462909924581
74,1790995731.3687212,0.08636440429687488,0.22762265624999992,0.07213798828124975,0.25391883215138933,0.13358678175699945,-0.023499523569741658,-0.040723343332767156,0.14161937212258593
75,1790995731.3887212,0.03367397460937487,0.25636289062499995,0.15835869140624975,0.3032051177000453,0.1355859067810837,-0.02154448580653537,-0.03943298053411486,0.1428378904216966
76,1790995731.4138103,0.06720424804687487,0.12703183593749992,0.23978935546874974,0.27955756704714,0.13790736323132438,-0.018738434140902076,-0.03730790056533094,0.14408833815427946
77,1790995731.4338102,0.2588058105468749,0.06955136718749992,0.12961845703124975,0.297689073789478,0.13996936529398013,-0.016542217023328344,-0.03531386397735319,0.1453001622637
78,1790995731.4585996,0.23485561523437487,0.012070898437499913,0.08171806640624975,0.24895925163243365,0.14305959808961025,-0.014076645475940331,-0.03282013450798852,0.14744952282913154
79,1790995731.4785995,0.2061153808593749,0.05039121093749992,0.09608818359374974,0.2329286658891493,0.14584026816081658,-0.012292117244359049,-0.030843280142117093,0.1495720157432301
80,1790995731.5031302,0.2588058105468749,0.002490820312499913,0.0002874023437497386,0.25881795602075464,0.1495946271096028,-0.010334358647896825,-0.02860499186004411,0.1526551570961088
81,1790995731.5231302,0.2683858886718749,-0.05498964843750009,-0.06677314453125026,0.28198138148477664,0.15298722198445286,-0.009056360642124022,-0.027153564343990747,0.15564197317942136
82,1790995731.5334532,0.2635958496093749,0.007280859374999913,-0.061983105468750264,0.2708831633898219,0.15488753040258801,-0.008532602157542368,-0.02661646640026047,0.15738929016114062
83,1790995731.5534532,0.2923360839843749,-0.0022992187500000872,-0.04282294921875027,0.29546484966231007,0.15885085337424432,-0.007662604792604226,-0.025889183014207704,0.16112901330013923
84,1790995731.578002,0.2923360839843749,-0.05019960937500009,-0.061983105468750264,0.3030219334376182,0.16406235572093583,-0.006851574562833095,-0.025323355509332107,0.1661465406589766
85,1790995731.598002,0.3737667480468749,-0.08851992187500009,0.01944755859374974,0.384597927775943,0.16867046616637357,-0.006498016507124632,-0.024995324114663136,0.1706362112885354
86,1790995731.6086156,0.4360372558593749,0.002490820312499913,-0.09072333984375026,0.44538232685593593,0.17139372607252548,-0.00640701429485795,-0.024904092488824053,0.17331206822345152
87,1790995731.6286156,0.4264571777343749,0.05039121093749992,-0.18173408203125027,0.46629633834360856,0.17704932540624835,-0.006181932628268351,-0.025166652083661804,0.17893585525245673
88,1790995731.6533797,0.3737667480468749,-0.1172601562500001,-0.06677314453125026,0.39737913762539384,0.1844879539263788,-0.006069236115362373,-0.025904542732705968,0.18639658286877545
89,1790995731.6733797,0.3929269042968749,-0.2465912109375001,0.03381767578124974,0.46512623300260525,0.19074444835909612,-0.006537648965504246,-0.026460521607656683,0.19268197797812153
90,1790995731.69847,0.4360372558593749,-0.10768007812500009,-0.12425361328125027,0.4660069185493136,0.1989759640603157,-0.007703800966809107,-0.027223568040330406,0.20097737554240963
91,1790995731.71847,0.5030978027343749,-0.011879296875000087,-0.22963447265625028,0.5531550486459602,0.20596191082863402,-0.008673263605289468,-0.028271400110495882,0.2080740403749511
92,1790995731.7433715,0.5653683105468749,-0.2034808593750001,-0.07156318359375026,0.6051174067473922,0.21535068062449117,-0.010101463239362916,-0.02994284938496992,0.21765690761907555
93,1790995731.7633715,0.5078878417968749,-0.2705414062500001,-0.08593330078125026,0.5818309415319676,0.22337020285306003,-0.011787516653363039,-0.0313201792024085,0.2258631149540391
94,1790995731.7734423,0.5126778808593749,-0.12684023437500008,-0.22005439453125028,0.5721459526478183,0.22757347763806055,-0.012809309783498608,-0.032140804952248386,0.2301886128469194
95,1790995731.7934422,0.5509981933593749,-0.09330996093750009,-0.21047431640625028,0.5971642954515376,0.23626431509337423,-0.014864369461761794,-0.03417185213534012,0.2391850571093364
96,1790995731.8179119,0.5414181152343749,-0.08851992187500009,-0.21526435546875028,0.5893285117895413,0.247307260240149,-0.01733524650696014,-0.03706538370044955,0.250669572161855
97,1790995731.8379118,0.5414181152343749,-0.031039453125000088,-0.29669501953125027,0.6181625658100715,0.2566034725634567,-0.019231198895466897,-0.039843569909339745,0.26038949903116704
98,1790995731.8635163,0.5078878417968749,-0.08851992187500009,-0.2823249023437503,0.5877866848587604,0.2687345542850191,-0.02152395280197805,-0.04397868219927465,0.2731586822690695
99,1790995731.8835163,0.4312472167968749,-0.14121035156250009,-0.19610419921875027,0.4943393392546086,0.2781976327523833,-0.02339081154194724,-0.047441814399483424,0.28318152956564074
100,1790995731.9086084,0.4599874511718749,-0.04061953125000009,-0.19610419921875027,0.5016923943073036,0.2899664370058,-0.025723847542591084,-0.05187305578024587,0.2956908264356768
101,1790995731.9286084,0.5509981933593749,-0.01666933593750009,-0.23442451171875028,0.5990256484829901,0.2994563113370179,-0.02739041908054036,-0.05552102647653469,0.3057889825320538
102,1790995731.9379222,0.5988985839843749,-0.0645697265625001,-0.23442451171875028,0.6463773009484629,0.304016007374348,-0.028106859559111956,-0.05729253940375932,0.3106415351582054
103,1790995731.9579222,0.5797384277343749,-0.031039453125000088,-0.21047431640625028,0.6175431402816345,0.31410651240309106,-0.02955795083394763,-0.06119332777237561,0.32137392077670623
104,1790995731.983301,0.6084786621093748,-0.05977968750000009,-0.19131416015625027,0.6406410860663745,0.3272517460193316,-0.03129595741550122,-0.06616546762844101,0.3353371606752587
105,1790995732.003301,0.6228487792968749,-0.2801214843750001,-0.23442451171875028,0.7220550530081727,0.33790410064803617,-0.0329700164270167,-0.07013467444262333,0.3466771924674721
106,1790995732.0138521,0.6420089355468749,-0.5004632812500001,-0.38770576171875026,0.9016400206687059,0.3436818382700497,-0.0343384185216311,-0.0724068913073979,0.3529009646516267
107,1790995732.033852,0.6180587402343749,-0.6872748046875001,-0.40686591796875027,1.0098926372357102,0.3548809562488607,-0.03832477621431605,-0.07725971495569497,0.36521000141701815
108,1790995732.0581846,0.709069482421875,-0.7543353515625001,-0.3350153320312503,1.0881344706491727,0.36888426466441004,-0.045078052123428435,-0.08363206935477122,0.3809225046184674
109,1790995732.0781846,0.8384005371093749,-0.7303851562500001,-0.2919049804687503,1.1496027377829643,0.3809889170899096,-0.0520233253905172,-0.08902451170426995,0.3946952558800439
110,1790995732.1037617,0.8623507324218749,-0.7208050781250002,-0.4212360351562503,1.2002701961114794,0.3974095116885924,-0.0623568104530605,-0.09625424335418872,0.41362733366417137
111,1790995732.1237617,0.9006710449218749,-0.7255951171875001,-0.7230084960937503,1.3639786987599,0.41096810901065833,-0.07139463439668428,-0.10277590203951056,0.42959849450907955
112,1790995732.1328077,0.9437813964843749,-0.8932464843750001,-0.8379694335937503,1.5462229392412095,0.4174322088168494,-0.07596761669245894,-0.10634226484082004,0.4374121683665433
113,1790995732.1528077,1.001261865234375,-0.9746771484375001,-0.9050299804687503,1.6648123413784939,0.4324975321122726,-0.0873633483424461,-0.11565890483098241,0.45613972879317594
114,1790995732.1789708,0.8815108886718749,-0.9219867187500002,-1.0152008789062503,1.6302618749546016,0.45294359820677604,-0.10375633249415703,-0.12978632256466605,0.48246012188988113
115,1790995732.1989708,0.7952901855468749,-1.0177875,-0.9481403320312503,1.6022945932654713,0.46874402647226593,-0.11731765128897303,-0.14191089597621018,0.503610063495721
116,1790995732.2238758,0.847980615234375,-1.0561078125,-0.9673004882812503,1.6643632626521019,0.4885376009313136,-0.13554556495466732,-0.15832209635108338,0.5311379047814279
117,1790995732.2438757,0.9821017089843749,-0.9603070312500002,-1.0535211914062503,1.731074886248502,0.5047936994943905,-0.15101245116675843,-0.17255551498649402,0.554433805975862
118,1790995732.2532399,0.8767208496093749,-0.9219867187500002,-1.0199909179687503,1.6306687065219316,0.5125687026637914,-0.15848985094344867,-0.17967631897866973,0.5657996884094613
119,1790995732.2732399,0.828820458984375,-0.9363568359375002,-0.9241901367187503,1.5549388689740118,0.5292420399007087,-0.17485211114783758,-0.19551995816180956,0.5906762663343728
120,1790995732.2981935,0.9389913574218749,-0.9794671875000002,-0.9768805664062503,1.6719319309482465,0.5502330960778359,-0.19579026890495366,-0.21588049205926071,0.6226513280071148
121,1790995732.3181934,0.929411279296875,-0.9890472656250001,-1.0104108398437504,1.692025379537286,0.5673361414301895,-0.21300744406669542,-0.2327323184705175,0.6491585327648284
122,1790995732.3432243,0.8910909667968749,-1.0082074218750001,-0.9481403320312503,1.6460544966237156,0.5889482237752776,-0.23507275890179125,-0.25433631220248787,0.6832321508612687
123,1790995732.3632243,0.8815108886718749,-1.0848480468750001,-0.7661188476562503,1.594018450454612,0.6062852124399865,-0.25319824546316594,-0.2715802934645549,0.710947934892084
124,1790995732.3733199,1.006051904296875,-0.9076166015625001,-0.8475495117187503,1.5982016469725973,0.6151530825832456,-0.2624838595874664,-0.2802008729765738,0.7251369669051746
125,1790995732.3933198,0.967731591796875,-0.8740863281250001,-1.0056208007812504,1.6467557614111092,0.6330463695800005,-0.28079246547789516,-0.29749682745227357,0.7537217504170497
126,1790995732.4187572,0.8575606933593749,-1.0513177734375,-1.0199909179687503,1.6973688097403372,0.6558728941248266,-0.3042589800387887,-0.32005975234762246,0.790683897176831
127,1790995732.4387572,0.9006710449218749,-1.2381292968750002,-0.8475495117187503,1.7500036176406997,0.673765384516371,-0.32337600301333835,-0.3379400399077033,0.8202044277314017
128,1790995732.4638531,1.006051904296875,-1.1950189453125002,-0.8475495117187503,1.7772312423007481,0.6964379545181353,-0.3483454683847003,-0.3602012770373546,0.8579716486090327
129,1790995732.483853,0.9246212402343749,-1.0561078125,-0.9289801757812504,1.6832386392043914,0.7146923552227762,-0.3686364654505081,-0.37794582598316995,0.8885499725124204
130,1790995732.508124,0.828820458984375,-1.0752679687500002,-0.8523395507812503,1.6030056979551897,0.7367139510206024,-0.3934468122010666,-0.39949224711567005,0.9258195802450365
131,1790995732.528124,0.9581515136718749,-1.094428125,-0.7086383789062503,1.6180221246947146,0.7548188469668391,-0.4140791001474424,-0.4169253288759547,0.9565770866864767
132,1790995732.5382009,1.049162255859375,-1.0992181640625,-0.7613288085937503,1.6996010020353733,0.7640895413190918,-0.42457300450010294,-0.425502206738806,0.9721868088197134
133,1790995732.5582008,0.9389913574218749,-1.1279583984375001,-0.8044391601562503,1.6736538711189834,0.7827118788314829,-0.4456174905503318,-0.4423204644005659,1.0034242504423627
134,1790995732.5835636,0.7761300292968749,-1.142328515625,-0.6463678710937503,1.5248225092674397,0.8060477260752628,-0.472620251514846,-0.46320888318341114,1.0429023484071178
135,1790995732.6035635,0.7378097167968749,-1.0800580078125002,-0.6176276367187503,1.4464965869571142,0.8239600500639884,-0.4940530823470521,-0.4791058429983484,1.0735646329277206
136,1790995732.6287134,0.8815108886718749,-0.9076166015625001,-0.7565387695312503,1.4741710389513147,0.8461603902013471,-0.5207111840567533,-0.4986896050863844,1.1116739024411324
137,1790995732.6487134,0.9246212402343749,-0.9267767578125001,-0.7469586914062503,1.5072447987574351,0.8638758716958526,-0.5414822744580344,-0.5141824630903845,1.1418704745286175
138,1790995732.6588995,0.8719308105468749,-0.9267767578125001,-0.6176276367187503,1.4144406650125585,0.8729176488886111,-0.5518904137622935,-0.5219320295446561,1.1571435926489588
139,1790995732.6788995,0.8144503417968749,-0.9076166015625001,-0.6511579101562502,1.3824268076986803,0.8905372552647753,-0.5720123924707826,-0.5367686418669578,1.186749912595896
140,1790995732.703307,0.8048702636718749,-0.9746771484375001,-0.8092291992187503,1.5008875980224867,0.91177858979907,-0.5963308617231596,-0.5548321987779546,1.2226158277481307
141,1790995732.723307,0.8910909667968749,-1.1040082031250003,-0.8188092773437503,1.638086034473915,0.9291173266284443,-0.6163869386363071,-0.5698556983554514,1.2521690707371769
142,1790995732.7490258,0.9198312011718749,-1.1758587890625,-0.6559479492187503,1.6306443642159094,0.9515626507037835,-0.6427070229576733,-0.5891219045914291,1.290584524176142
143,1790995732.7690258,1.0204220214843749,-0.9986273437500002,-0.7134284179687503,1.5960882748710463,0.9693091886836332,-0.6633660922588833,-0.6039107592987017,1.3207282388220822
144,1790995732.778099,1.0683224121093748,-1.0034173828125001,-0.7661188476562503,1.6538129607303302,0.9775738774933745,-0.672694894708738,-0.6106203693897065,1.3345509892238112
145,1790995732.798099,1.034792138671875,-1.1375384765625,-0.6990583007812503,1.6892220291626603,0.9962135666145134,-0.6933851075972742,-0.6253895015070535,1.3654070478577933
146,1790995732.8235435,1.0252120605468749,-1.0992181640625,-0.6703180664062502,1.6458027377077473,1.020301573013162,-0.7200278386457084,-0.6439739648034701,1.4050472787997719
147,1790995732.8435435,1.202443505859375,-1.0082074218750001,-0.8283893554687503,1.774424276930732,1.0397367314152806,-0.7409895148189324,-0.6586386749502394,1.436635944095071
148,1790995732.8682125,1.154543115234375,-1.0704779296875002,-0.8762897460937503,1.8018813839962333,1.0644739720535676,-0.7668122987812116,-0.6771675518864784,1.4763677834704847
149,1790995732.8882124,1.097062646484375,-1.0561078125,-0.7948590820312503,1.717763406940082,1.0848984344966812,-0.7877973066832382,-0.6924429896008227,1.5090084504196917
150,1790995732.9138603,1.1114327636718748,-1.0465277343750001,-0.7661188476562503,1.7080518656391888,1.1114100731012428,-0.8147163288819985,-0.7120964477615059,1.551153247765167
151,1790995732.9338603,1.1114327636718748,-1.0704779296875002,-0.8092291992187503,1.7424286737136638,1.1323168712901361,-0.8357343603245037,-0.727486216289183,1.58424417717915
152,1790995732.9434123,1.0683224121093748,-1.0369476562500002,-0.7948590820312503,1.68771270609222,1.1423657818397088,-0.8457766102492509,-0.7348830230360227,1.6001220926884068
153,1790995732.9634123,1.049162255859375,-0.9890472656250001,-0.7373786132812503,1.619470021977808,1.1634263527027324,-0.8666880925106426,-0.7503456957564816,1.633318031187802
154,1790995732.9884858,0.9821017089843749,-0.9555169921875001,-0.6607379882812503,1.5212202924977798,1.189688865513905,-0.8926286925695254,-0.7694523000631287,1.6745752958880595
155,1790995733.0084858,0.9964718261718749,-0.8692962890625001,-0.6846881835937503,1.4891037731753467,1.2104628445200931,-0.9129537728790873,-0.7844248154037988,1.7070521902973907
156,1790995733.0181105,0.986891748046875,-0.8405560546875002,-0.6846881835937503,1.4660449216131617,1.2203921597381417,-0.9225020304801217,-0.7915378271553508,1.7224689116521341
157,1790995733.0381105,0.9198312011718749,-0.8213958984375002,-0.6511579101562502,1.3945563038394317,1.2407902274118399,-0.9418598862152386,-0.8061051899217585,1.753985749919566
158,1790995733.0635843,0.8815108886718749,-0.7782855468750002,-0.6607379882812503,1.348838214345794,1.2663155013260607,-0.9658737059605156,-0.824382810370332,1.7933415689150407
159,1790995733.0835843,0.929411279296875,-0.8309759765625001,-0.6272077148437503,1.3956059319405938,1.2860661948559522,-0.984313238609892,-0.838512312356656,1.8237164547230658
160,1790995733.1081705,0.929411279296875,-0.8692962890625001,-0.6559479492187503,1.4316944773052565,1.3101315852796664,-1.0067162167830424,-0.8556425284422399,1.8606575311863283
161,1790995733.1281705,0.828820458984375,-0.8692962890625001,-0.7134284179687503,1.3969965994855884,1.3294088029492643,-1.0248145105735793,-0.8695411781306777,1.8904164638793348
162,1790995733.1539822,0.8767208496093749,-0.9171966796875002,-0.7038483398437503,1.4509623299280938,1.3538575706105347,-1.048126714469324,-0.8875316279759672,1.9285259453119603
163,1790995733.1739821,0.9821017089843749,-0.8980365234375002,-0.7517487304687503,1.5284369525692314,1.372748154650273,-1.06620335530386,-0.9015638220419788,1.9580716064975456
164,1790995733.1836243,1.034792138671875,-0.9076166015625001,-0.7661188476562503,1.5752779927438572,1.3819478752779384,-1.074916768905601,-0.9084117443011638,1.9724192980307074
165,1790995733.2036242,1.0204220214843749,-0.9650970703125001,-0.7038483398437503,1.5710111210799345,1.4012506777502265,-1.093088415276246,-0.9226902325087837,2.0024242833809516
166,1790995733.2284296,0.9629415527343749,-1.0177875,-0.6463678710937503,1.543029245970732,1.4252900507143291,-1.1159344022859314,-0.9402549337594773,2.0398138786000923
167,1790995733.2484295,1.044372216796875,-1.0129974609375,-0.6751081054687503,1.603947672822479,1.444776079428857,-1.1346377667411576,-0.9542748775911104,2.0701259196982944
168,1790995733.273365,1.039582177734375,-0.9890472656250001,-0.7373786132812503,1.6132801422033978,1.4693239060983392,-1.1582029735662618,-0.9717742183278935,2.108243819015391
169,1790995733.293365,0.9006710449218749,-0.9794671875000002,-0.7565387695312503,1.5306584244545485,1.4889699782220902,-1.177221527840879,-0.9859454205323157,2.1389180662024785
170,1790995733.3032727,0.847980615234375,-0.9986273437500002,-0.7709088867187504,1.5200750662781075,1.498541905550031,-1.1866997150490075,-0.9930476251718199,2.15407233913959
171,1790995733.3232727,0.9821017089843749,-1.0608978515625,-0.6846881835937503,1.599633060108745,1.5177108422682684,-1.2060519734813226,-1.0074172061921776,2.1846960866008116
172,1790995733.3486476,1.0635323730468749,-1.0177875,-0.6655280273437503,1.6155247007876514,1.5422763524399674,-1.2308780844137828,-1.025483467466082,2.2238015981719084
173,1790995733.3686476,0.9629415527343749,-0.9411468750000002,-0.7277985351562503,1.5305896190946606,1.561773798175904,-1.2504488111870489,-1.0396770016310413,2.2547035046294677
174,1790995733.3934753,0.8910909667968749,-0.9315667968750001,-0.7661188476562503,1.4995992454256164,1.5857994493381797,-1.2745865727445644,-1.057435513607691,2.2929240481055557
175,1790995733.4134753,0.9725216308593749,-0.9363568359375002,-0.7421686523437503,1.5405767605731313,1.6050456593209788,-1.2939160132699248,-1.0718575139808313,2.3236326620571117
176,1790995733.4234576,1.015631982421875,-0.9698871093750001,-0.6942682617187503,1.566587931742089,1.614699350250066,-1.303543690963456,-1.0790514760636318,2.3389810247079215
177,1790995733.4434576,0.9198312011718749,-0.9650970703125001,-0.6703180664062502,1.4922560450290288,1.634042822408795,-1.322842143956948,-1.093349704192173,2.3696879243797966
178,1790995733.4685302,0.8384005371093749,-0.9698871093750001,-0.6032575195312503,1.4168684132367686,1.6579611993831906,-1.3470449220726362,-1.1109805742842886,2.407829561488701
179,1790995733.4885302,0.9198312011718749,-0.9986273437500002,-0.6415778320312503,1.5016551284793704,1.6768159464385373,-1.3664079257004262,-1.1248021026772377,2.438024222159133
180,1790995733.5138903,1.0300020996093748,-1.0704779296875002,-0.7804889648437503,1.6780912810066757,1.7008462969223366,-1.3912129342137631,-1.1424038057919221,2.4765778827983507
181,1790995733.5338902,1.0683224121093748,-1.1950189453125002,-0.9241901367187503,1.8502730784074053,1.7201023705233514,-1.411239053114258,-1.1567600097064836,2.5076765242293564
182,1790995733.5437999,0.948571435546875,-1.4488910156250001,-0.8571295898437503,1.9322898533294686,1.7297112524653397,-1.421638259397866,-1.164130180227644,2.5235204445389092
183,1790995733.5637999,0.8431905761718749,-1.5973822265625002,-0.8235993164062503,1.9851740879498885,1.7488829432998654,-1.4440475177943992,-1.1792948089963864,2.556286570308421
184,1790995733.588562,0.8000802246093749,-1.6309125000000002,-0.8188092773437503,1.992599453259845,1.7721109068750855,-1.4736263187423326,-1.1983041691176963,2.597669046526245
185,1790995733.608562,0.8527706542968749,-1.6261224609375002,-0.7421686523437503,1.9804813443496736,1.7905368957298535,-1.4988186275669797,-1.2136961470246166,2.631641691152894
186,1790995733.6330457,0.986891748046875,-1.6069623046875001,-0.6751081054687503,2.003011264351547,1.8130883232294928,-1.5309695076581513,-1.232314895265728,2.673902934345964
187,1790995733.6530457,1.0252120605468749,-1.5015814453125003,-0.7086383789062503,1.9514033304410505,1.8317648203376944,-1.5579559411071031,-1.24731824319347,2.7089466349968854
188,1790995733.662884,0.8384005371093749,-1.4009906250000002,-0.5888874023437503,1.7356493207449335,1.8409491378155658,-1.571381514900269,-1.254549005237845,2.7262110703203826
189,1790995733.682884,0.47435756835937487,-1.2716595703125002,-0.5361969726562503,1.459328735725066,1.8587881460525095,-1.5985889603971588,-1.2687308928620795,2.76048150051972
190,1790995733.7225058,0.2827560058593749,-1.295609765625,-0.41644599609375027,1.3899578739281742,1.8910776430378629,-1.652033370420499,-1.295443099432272,2.8255197279168383
191,1790995733.7425058,0.31628627929687486,-1.2908197265625,-0.36854560546875026,1.3791585986624875,1.9058302079463805,-1.6788436556120545,-1.3080816181469903,2.8568833230014556
192,1790995733.7533982,0.747389794921875,-1.1135882812500002,-0.5984674804687503,1.4686162503762874,1.9135285177540151,-1.6932190937674207,-1.3147223119179203,2.8735130146236063
193,1790995733.7733982,0.886300927734375,-1.0896380859375001,-0.5601471679687503,1.5121525526916137,1.9279939653486582,-1.718959978503718,-1.3268245025132945,2.903867662030761
194,1790995733.7829528,0.46477749023437487,-1.218969140625,-0.19131416015625027,1.318523791632486,1.9348361561128846,-1.7310669699205876,-1.3322773572316087,2.9180724394613247
195,1790995733.8029528,-0.14355747070312513,-1.0752679687500002,-0.13383369140625026,1.0930331234550275,1.9474918949098892,-1.7560495829314438,-1.342467023528614,2.945955282708002
196,1790995733.8280215,-0.23456821289062516,-0.7926556640625001,-0.25837470703125026,0.8660731709864642,1.9602646784137099,-1.7861786309248864,-1.3540607449123405,2.9776756391389694
197,1790995733.8480215,0.3306563964843749,-0.7782855468750002,-0.29669501953125027,0.8961528773737208,1.9690704720456753,-1.8089665787549494,-1.362755447838845,3.0011166284483206
198,1790995733.8731706,0.6994894042968749,-0.9986273437500002,-0.3924958007812503,1.2808571161685807,1.9804254830015051,-1.8366747877689782,-1.3733486173239835,3.0301065648675896
199,1790995733.8931706,0.3114962402343749,-1.0465277343750001,-0.3014850585937503,1.1327592184800348,1.9896175805645764,-1.8584723715427052,-1.3815502279425853,3.0530605472226413
200,1790995733.9178152,-0.22977817382812515,-0.9698871093750001,-0.10988349609375027,1.0027728540469008,1.999396399812765,-1.8850301290614364,-1.3909009222342612,3.0798587510672855
201,1790995733.9378152,-0.02380649414062513,-0.5723138671875001,-0.3254352539062503,0.6588004373278791,2.005761504098191,-1.905663109070614,-1.3980040578155017,3.0998461965496813
202,1790995733.9479575,0.847980615234375,-0.3136517578125001,-0.4691364257812503,1.0185958644069526,2.009132105943188,-1.9152308717100126,-1.4016702696984156,3.1095659915877705
203,1790995733.9679575,1.015631982421875,-0.1555804687500001,-0.27753486328125027,1.064302215684624,2.017577131022226,-1.9319716525298438,-1.408935368946788,3.128614840416122
204,1790995733.992526,0.3402364746093749,0.10787167968749992,-0.061983105468750264,0.36226932425582026,2.0288935080334416,-1.9495396951179254,-1.4171469391332454,3.150463352726939
205,1790995734.012526,-0.6848318847656252,0.3234234374999999,0.05776787109374974,0.7595620825493193,2.036206876664827,-1.9610487958494887,-1.4228351811830515,3.1648555697048906
206,1790995734.03827,-1.0824051269531252,0.5485552734375,0.02902763671874974,1.2138189117673102,2.0407963990674305,-1.9719575122716393,-1.4288912126476436,3.177293891070324
207,1790995734.05827,0.17258510742187488,0.7401568359374999,-0.22484443359375028,0.7925735173514982,2.042462354134721,-1.9772279994334727,-1.4331840282768997,3.1835671013360534
208,1790995734.0686774,0.8767208496093749,0.8024273437499999,-0.3014850585937503,1.226141236029823,2.04401827907975,-1.9783551479345183,-1.4354936444142052,3.1863053556940724
209,1790995734.0886774,0.4456173339843749,0.5677154296875,-0.19131416015625027,0.7466436401181598,2.0485433008189653,-1.9781410697553716,-1.4400054712920696,3.191110700764592
210,1790995734.1127508,-0.22019809570312515,0.5389751953124999,-0.25837470703125026,0.636976413807383,2.0535799308982265,-1.9759239099975177,-1.4454335207626863,3.1954254636327004
211,1790995734.1327507,0.2013253417968749,0.7880572265625,-0.5649372070312503,0.9903131491984127,2.0571083592556616,-1.9723676625773954,-1.4505016351341515,3.197793613044373
212,1790995734.1730125,1.087482568359375,0.5629253906249999,-0.7756989257812503,1.4495558476147088,2.0670376683007494,-1.9622030069489258,-1.4632220427657814,3.2037328398431213
213,1790995734.1930125,0.867140771484375,0.15577207031249993,-0.5122467773437502,1.019114721883173,2.0741621185209937,-1.9568330718303788,-1.4705249815506414,3.2083933496816015
214,1790995734.1877005,0.6851192871093749,0.26594296874999995,-0.4116559570312503,0.8423625865125636,2.0741621185209937,-1.9568330718303788,-1.4705249815506414,3.2083933496816015
215,1790995734.2077005,1.0635323730468749,0.5102349609375,-0.5793073242187503,1.314168101794857,2.0839116384811485,-1.9512513417610022,-1.478465773189916,3.2149542077944675
216,1790995734.2333195,1.5856466308593749,-0.02145937500000009,-0.6463678710937503,1.712462311268001,2.099617216216896,-1.944234752556262,-1.4894668307720826,3.2259808845763684
217,1790995734.2533195,1.882629052734375,-0.2082708984375001,-0.6990583007812503,2.0189976288313622,2.1152413529608416,-1.9399233593849108,-1.4987849244483058,3.2378858644671777
218,1790995734.277964,1.762878076171875,-0.05977968750000009,-0.8331793945312503,1.9507692395453926,2.138344186394639,-1.935903069068139,-1.5113767738020032,3.256454560515676
219,1790995734.297964,2.294572412109375,-0.10768007812500009,-0.9481403320312503,2.485081013339962,2.1603668122769886,-1.9333810410818604,-1.5227346747231423,3.274731729959999
220,1790995734.3079307,2.902907373046875,-0.7303851562500001,-1.2642829101562503,3.2494222517046634,2.1735802819343406,-1.9329392072341265,-1.529199447668127,3.286206958124392
221,1790995734.3279307,2.385583154296875,-1.0082074218750001,-1.7097565429687505,3.1033460373946884,2.2040511377663856,-1.9347934605489465,-1.5446874229525667,3.314713620737108
222,1790995734.3525844,1.920949365234375,-0.8836664062500001,-1.8774079101562504,2.827644468890387,2.243940843747811,-1.9402344369259603,-1.5675482048641702,3.3551434477598594
223,1790995734.3725843,2.155661279296875,-0.9603070312500002,-1.7863971679687503,2.9597770164414072,2.2775617709475617,-1.946752229294807,-1.5888075996992266,3.3913775153480206
224,1790995734.3983047,2.567604638671875,-1.2285492187500002,-1.8247174804687503,3.3810531860573843,2.3234246596490964,-1.958099296526724,-1.6190125268093833,3.4429139643751885
225,1790995734.4183047,2.778366357421875,-1.1902289062500002,-2.0067389648437506,3.628080172536012,2.361756886699811,-1.9692273542978695,-1.644723785550616,3.4872436530223867
226,1790995734.4283593,2.773576318359375,-1.1279583984375001,-2.0115290039062503,3.6071130666955407,2.382323717066677,-1.975730731943072,-1.6587408834673718,3.51146686393718
227,1790995734.4483593,2.778366357421875,-1.1040082031250003,-2.08337958984375,3.6439846657194512,2.4254253773431937,-1.9900743863869264,-1.6885829117149282,3.5629196698984584
228,1790995734.4726646,2.749626123046875,-1.2237591796875003,-1.8342975585937504,3.5245819439862944,2.4800254297825717,-2.009134356107472,-1.726550609733979,3.628790983403755
229,1790995734.4926646,2.898117333984375,-1.3003998046875,-1.4846247070312504,3.5063134848868853,2.5266861701296595,-2.0262517818915535,-1.7580848873941375,3.6852003686674677
230,1790995734.5181382,3.137619287109375,-1.0225775390625,-1.3888239257812502,3.5803842686307155,2.5887338248420355,-2.0492216938712544,-1.7977145846902014,3.759339050221689
231,1790995734.5381382,2.941227685546875,-0.8740863281250001,-1.3600836914062504,3.3562888515251075,2.639260028358763,-2.0673958203765275,-1.8282851013060133,3.818696817902696
232,1790995734.5629172,2.763996240234375,-0.7639154296875001,-1.3984040039062504,3.1904193702216377,2.703072543230932,-2.0895793237984854,-1.8656057373467565,3.8927403832822205
233,1790995734.5829172,2.845426904296875,-0.7687054687500001,-1.4750446289062504,3.2959246081559317,2.755266005532411,-2.1070975096032774,-1.8955201728977804,3.9527645265157516
234,1790995734.593253,2.902907373046875,-0.6872748046875001,-1.6953864257812503,3.4312611393438814,2.782648842585133,-2.1159213115828615,-1.9111182396741528,3.984047000722525
235,1790995734.6132529,2.462223779296875,-0.6633246093750002,-1.6905963867187503,3.059519834798261,2.8357354273655995,-2.132460471094125,-1.9418526844745196,4.044697136127282
236,1790995734.6525872,2.217931787109375,-0.5387835937500001,-1.6618561523437503,2.823344655589736,2.9382875580786383,-2.163655442711152,-2.0031217166888755,4.162623603042185
237,1790995734.6725872,2.490964013671875,-0.6154242187500001,-1.5995856445312504,3.0236274440848034,2.989673145203972,-2.178868982022982,-2.034493883997864,4.221940421180809
238,1790995734.6831136,2.419113427734375,-0.6920648437500001,-1.8678278320312502,3.1336630856411527,3.0165380956385515,-2.186707350402112,-2.0512664099812126,4.253102985287153
239,1790995734.7031136,1.920949365234375,-1.0082074218750001,-2.0785895507812504,3.0045071459284607,3.0664346130850078,-2.2019165854859537,-2.084273369257249,4.312267775029618
240,1790995734.7134511,1.801198388671875,-1.180648828125,-2.1360700195312505,3.033322010444544,3.0912424035481476,-2.210295795745721,-2.1020426193133894,4.3427837012215145
241,1790995734.7334511,1.954479638671875,-1.2716595703125002,-2.4378424804687504,3.3734529313936403,3.137671882932029,-2.2277537162406413,-2.138124695424689,4.402209522313895
