imu_index,t_imu,ax,ay,az,mag,vx,vy,vz,velocity
0,1790565965.6071053,0.2699666015625001,0.38871166992187506,0.16271762695312514,0.500455546890945,0.0,0.0,0.0,0.0
1,1790565965.6271052,0.09752519531250008,2.328677490234375,-0.6515890136718749,2.420086415808927,0.0008954442583416824,0.004571686759480362,-0.0005258416042307794,0.004688139251274981
2,1790565965.6515405,0.08315507812500007,1.696392333984375,0.04775668945312513,1.6991004735466506,0.0021564865410928827,0.016695914227088396,-0.002178539327760479,0.01697498217032367
3,1790565965.6715405,0.22685625000000006,0.503672607421875,0.14355747070312513,0.5707526618649197,0.003498828695394875,0.02843101130736081,-0.003041374399418141,0.028806495177935702
4,1790565965.6970978,0.11189531250000007,0.642583740234375,-0.1869552246093749,0.678518002842823,0.005606178799270525,0.043374642184994566,-0.004061757912407091,0.04392364628243769
5,1790565965.7170978,0.2699666015625001,0.43661206054687507,-0.34502651367187487,0.6185105920764512,0.007580721160877317,0.054933517432350074,-0.005538460181557276,0.05573000279913844
6,1790565965.7274497,0.30349687500000005,0.28333081054687503,-0.5270479980468749,0.6709443297212768,0.008894665525771443,0.06057787213126974,-0.006865216089829483,0.061611077402751756
7,1790565965.7474496,-0.06533613281249993,0.5132526855468751,-0.45519741210937487,0.6891312019224236,0.011409678389944944,0.07104195988734387,-0.010517394131467236,0.07271696091637475
8,1790565965.771704,-0.06054609374999994,0.6138435058593751,-0.2061153808593749,0.6503485445366335,0.01377318886640512,0.08387871428757179,-0.015485071583656432,0.08640096575870393
9,1790565965.791704,0.2699666015625001,0.585103271484375,-0.22048549804687487,0.6810592185044575,0.015743916437108173,0.09467448241581139,-0.01960684393376358,0.09795691325538687
10,1790565965.8165102,0.2029060546875001,0.42224194335937504,-0.3593966308593749,0.5904448018518058,0.018701354871147352,0.10793024070747033,-0.025031145979238327,0.11236207457244198
11,1790565965.8365102,0.13584550781250007,0.24022045898437505,-0.13426479492187487,0.30689885314694965,0.021236244461878762,0.11800823976003871,-0.029488966943930914,0.12347680714015774
12,1790565965.847479,0.2747566406250001,0.21148022460937504,-0.07199428710937487,0.3541161876344462,0.022755748290076885,0.12307799856778866,-0.0317367955751697,0.12912490853849243
13,1790565965.867479,0.15021562500000007,0.0007185058593750272,0.09565708007812514,0.17808853757017448,0.025748181049882517,0.1312535684977632,-0.03518505714534913,0.13830566263568542
14,1790565965.891883,0.13584550781250007,0.0055085449218750275,0.014226416015625132,0.13669944027918318,0.029375395020833032,0.139744363887548,-0.038560348036355746,0.14791315530286783
15,1790565965.9118829,0.2795466796875001,0.12046948242187504,-0.10073452148437488,0.32063481741380834,0.03252524297332358,0.14584811950493162,-0.0410413777313543,0.15496438326172327
16,1790565965.9373066,0.3466072265625001,0.21627026367187505,-0.06720424804687487,0.414035997721933,0.03712262773509632,0.15308538431778065,-0.044042380422064036,0.16356330778913392
17,1790565965.9573066,0.21727617187500006,0.09651928710937503,0.06691684570312513,0.24698739216326893,0.041042562640891775,0.15839387439687913,-0.04604947720675474,0.1699813688190599
18,1790565965.9670858,0.08794511718750007,0.10130932617187503,0.12918735351562513,0.18624525635541322,0.04289561617828332,0.16074526890462784,-0.04673982992463909,0.17281113119217728
19,1790565965.9870858,0.044834765625000064,0.39350170898437503,0.08607700195312513,0.4052937224378275,0.046316095554421656,0.16557510007306492,-0.047617028510759135,0.1784031274272013
20,1790565966.0125086,0.09273515625000008,0.42703198242187507,0.11960727539062514,0.45305852110101336,0.05027412874742347,0.17235811076774865,-0.04817263527683875,0.1858908528095327
21,1790565966.0325086,0.14542558593750007,0.824605224609375,0.07170688476562513,0.8403952967628588,0.05327806735238757,0.17877129726583746,-0.04825719308523859,0.1926823444724035
22,1790565966.0571413,0.08315507812500007,1.198228271484375,-0.1917452636718749,1.2163190386337808,0.0568451536962565,0.1892222884266563,-0.04856748097923585,0.20345821719665239
23,1790565966.0771413,0.04004472656250007,0.6138435058593751,-0.05762416992187487,0.6178413831804884,0.05949173893787609,0.1991530309932376,-0.04915567657661615,0.2135824835873737
24,1790565966.1019366,-0.17071699218749994,0.364761474609375,0.09086704101562514,0.41285838240695555,0.0620377087990324,0.21143791721038316,-0.0497136976738367,0.2258896232315775
25,1790565966.1219366,-0.35752851562499993,0.5180427246093751,0.08607700195312513,0.6352984765218306,0.06299089215026214,0.22118480391088258,-0.04983086856138796,0.23531613934569778
26,1790565966.1319764,-0.5730802734375,0.503672607421875,0.13397739257812513,0.774633485586818,0.06269687312658598,0.22611306102786438,-0.04971516669920381,0.23985331364642756
27,1790565966.1519763,-0.55871015625,0.8485554199218751,-0.03367397460937487,1.016531984711589,0.060501338997862295,0.23648621258161379,-0.049368798596536104,0.24904501407696525
28,1790565966.1768663,-0.319208203125,0.5707331542968751,-0.03846401367187487,0.6550646462019624,0.05654000039276934,0.2501086294711967,-0.04913706550143879,0.2610853297036572
29,1790565966.1968663,-0.32399824218749995,0.24022045898437505,0.04296665039062513,0.4056191106210898,0.05286957339620024,0.2606292519349907,-0.04897203644596782,0.27040905885150046
30,1790565966.2215002,-0.5155998046875,0.07256909179687503,-0.02409389648437487,0.5212388584188742,0.047475660473638125,0.2722216154734942,-0.04876439255439876,0.28060027129282433
31,1790565966.2415001,-0.5635001953125,-0.22441333007812497,0.22498813476562515,0.646926173237174,0.04213464202341271,0.27999380536029284,-0.048319755253498194,0.2872397219159228
32,1790565966.252096,-0.52038984375,-0.31542407226562497,0.32078891601562515,0.687897858320012,0.038868113598692,0.2830647917832281,-0.04768580458084486,0.2896728198511652
33,1790565966.272096,-0.5922404296875,-0.08550219726562498,-0.06241420898437487,0.6016268659034681,0.03195832546801314,0.2873905181140916,-0.046281127363888494,0.29284225654552987
34,1790565966.296462,-0.31441816406249995,-0.281893798828125,-0.1965353027343749,0.46577786651050407,0.023145928983790233,0.29119867404117944,-0.04529971709284507,0.29560863681657806
35,1790565966.316462,-0.44374921874999995,-0.411224853515625,-0.00972377929687487,0.6050733849492943,0.01586036846512959,0.2928159048799369,-0.044924386444160684,0.2966663208655311
36,1790565966.3418262,-0.664091015625,-0.559716064453125,-0.06241420898437487,0.8707436381185245,0.005899237778061348,0.29271221130519837,-0.044657017281790196,0.2961578782441003
37,1790565966.3618262,-0.5922404296875,-0.818378173828125,0.04775668945312513,1.0113220374056,-0.0026615700192098492,0.29057557271034906,-0.044499802993788355,0.293975304876788
38,1790565966.3720038,-0.5682902343749999,-0.899808837890625,0.26330844726562513,1.096330731865847,-0.007250395656087146,0.28833984386526745,-0.04419435759364695,0.29179714707401055
39,1790565966.3920038,-0.55871015625,-0.626776611328125,0.4644900878906252,0.9595608375467954,-0.016605753448916218,0.2823155601397206,-0.042592465837873905,0.28599291021065687
40,1790565966.4161594,-0.36710859374999993,-0.162142822265625,0.35910922851562516,0.5385336130850628,-0.027887380420612236,0.27470167930016637,-0.039455849018584115,0.278918415704006
41,1790565966.4361594,-0.10844648437499994,-0.07113208007812498,0.07649692382812513,0.15057287984462497,-0.03654037614334655,0.2689933509700881,-0.03659498549268713,0.2739193584214599
42,1790565966.4621902,-0.05575605468749994,-0.530975830078125,0.18187778320312514,0.5640244655902369,-0.046433838551655816,0.26150267472299726,-0.032925558860040276,0.26762631162904915
43,1790565966.4821901,-0.27130781249999997,-0.904598876953125,0.4357498535156252,1.0400889347297562,-0.05338558133188911,0.2544573606442496,-0.02960271695372694,0.2616770710842353
44,1790565966.4920728,-0.24735761718749993,-0.770477783203125,0.28246860351562514,0.8570941121967568,-0.05668985089796741,0.25025665586119783,-0.027674729933415652,0.2580853030967693
45,1790565966.5120728,-0.07970624999999994,-0.765687744140625,0.052546728515625134,0.7716164633377884,-0.06286437818178683,0.24072644964087417,-0.023855726477892608,0.24994049149081682
46,1790565966.5373929,-0.21382734374999995,-1.0435100097656251,0.40700961914062517,1.1403035137581716,-0.07006622872658617,0.22703528969938233,-0.018873384987110366,0.2383495412995805
47,1790565966.5573928,-0.31441816406249995,-0.861488525390625,0.45970004882812515,1.0258388743680595,-0.07569394717031676,0.21498549569122233,-0.01422815794390878,0.22836544719878288
48,1790565966.582484,-0.06533613281249993,-0.765687744140625,0.21061801757812515,0.7968101913922734,-0.0824098459114569,0.19907380513323175,-0.008013170353952735,0.21560606088998396
49,1790565966.602484,0.020884570312500066,-0.966869384765625,0.00943637695312513,0.9671409502674352,-0.08702673603397296,0.18569434798230747,-0.0034722578186281152,0.20510509557702394
50,1790565966.6121879,0.011304492187500065,-1.2303215332031252,0.03817661132812513,1.2309656048238735,-0.08890738416918002,0.1785773634309451,-0.001564864802903439,0.19949146972140283
51,1790565966.6321878,-0.07012617187499993,-1.3261223144531251,0.21540805664062515,1.3453321908502918,-0.09229027870253632,0.16227462777617083,0.0021570276452302535,0.18669548235334704
52,1790565966.6569355,-0.13239667968749994,-1.196791259765625,0.24893833007812513,1.2295562176760164,-0.09622421742115371,0.14044512113603497,0.006933478710175586,0.17038780823830518
53,1790565966.6769354,-0.08928632812499994,-1.2782219238281252,0.25372836914062513,1.306216452297122,-0.09925909930558992,0.12173716665117407,0.01096858641216132,0.1574567128676759
54,1790565966.7018533,-0.22340742187499996,-1.4219230957031253,0.37347934570312513,1.487031602861764,-0.10305744128065818,0.09687913597902942,0.016413952452373207,0.14239319164366093
55,1790565966.7218533,-0.26651777343749994,-1.3548625488281252,0.40221958007812514,1.4382158531921938,-0.10638371468532327,0.0757547827524421,0.021292554119865685,0.13232405193714925
56,1790565966.7471287,-0.11802656249999995,-1.2638518066406252,0.23935825195312516,1.2917213443240745,-0.11068579106031827,0.048098631545652706,0.02774940279012185,0.12383396971114716
57,1790565966.7671287,-0.08928632812499994,-1.3931828613281252,0.16750766601562514,1.4060545336730257,-0.11389028619530232,0.02551188051937196,0.03270250174553499,0.12120770172600132
58,1790565966.7771735,-0.036595898437499934,-1.7093254394531252,0.36389926757812513,1.7480147009358828,-0.11535313584120734,0.013532175619738839,0.035217345539833106,0.12136608732374744
59,1790565966.7971735,-0.0030656249999999347,-1.6710051269531252,0.3255789550781251,1.7024303769464506,-0.11788837549045592,-0.011812937321805142,0.040507719076972835,0.12521217939468418
60,1790565966.8216193,0.054414843750000066,-1.4937736816406253,0.21540805664062515,1.5102057535475806,-0.1204282080164487,-0.04394755846990582,0.04699599652447042,0.13653924297009584
61,1790565966.8416193,-0.08449628906249994,-1.4650334472656252,0.15792758789062514,1.4759416477250331,-0.12223957059649875,-0.07073269816371566,0.05206805211992632,0.15052145780817788
62,1790565966.8674042,-0.05575605468749994,-1.647054931640625,0.14834750976562514,1.6546617990180597,-0.12449580463249975,-0.1061039041456453,0.0582186233843184,0.17362791237242628
63,1790565966.8874042,-0.027015820312499935,-1.7476457519531252,0.06691684570312513,1.7491350414149895,-0.12610749335842333,-0.1345161226426643,0.06259658015440148,0.19472036097693407
64,1790565966.8969176,-0.16592695312499994,-1.728485595703125,-0.03367397460937487,1.736757940788677,-0.1268967949798603,-0.14848395258127864,0.06439038996831487,0.20566089339150448
65,1790565966.9169176,-0.29525800781249995,-1.7859660644531252,0.04775668945312513,1.8108375896096018,-0.12899901866754296,-0.1787155161496586,0.0676169724070434,0.2305472565165824
66,1790565966.9416459,-0.23777753906249996,-1.7620158691406251,0.25851840820312516,1.7966830128227653,-0.1321969380243249,-0.21706765563094074,0.0715759857251076,0.26404075306028174
67,1790565966.9616458,-0.16113691406249994,-1.5943645019531252,0.37347934570312513,1.6454331015962504,-0.1349937854218406,-0.24846819871561276,0.07524568764096948,0.2926118271431651
68,1790565967.0019443,-0.13239667968749994,-1.4698234863281252,0.3159988769531252,1.5092267066248448,-0.14067107897012426,-0.31150863228136344,0.08361460410000372,0.3518769422159187
69,1790565967.0219443,-0.16113691406249994,-1.5129338378906252,0.23456821289062516,1.5394661897575872,-0.14350635616066473,-0.34257649233870446,0.08797089747691321,0.38169569838353634
70,1790565967.016999,-0.23298749999999996,-1.5799943847656253,0.23935825195312516,1.6149172746073441,-0.14350635616066473,-0.34257649233870446,0.08797089747691321,0.38169569838353634
71,1790565967.036999,-0.22340742187499996,-1.5608342285156251,0.25851840820312516,1.5977941458256375,-0.14674194380946465,-0.37367773938015164,0.09246938938615853,0.4119694636191979
72,1790565967.0616682,-0.20424726562499995,-1.5225139160156251,0.23935825195312516,1.5546890180208321,-0.15092550719778033,-0.41199032692827514,0.09810695688870362,0.44959928068818816
73,1790565967.0816681,-0.17550703124999995,-1.6231047363281252,0.25372836914062513,1.6521651819402752,-0.15437810938267021,-0.44311066652951997,0.1027315386557216,0.4803471999328977
74,1790565967.1067786,-0.18029707031249995,-1.6566350097656253,0.27288852539062514,1.6886132583970475,-0.15873279549921035,-0.4824988743905899,0.10865864672409113,0.5194304242755629
75,1790565967.1267786,-0.19945722656249995,-1.6278947753906252,0.25851840820312516,1.6603181479318885,-0.1622505812767205,-0.5140917739199862,0.1134684525911641,0.5508998936923705
76,1790565967.1368263,-0.22340742187499996,-1.5752043457031253,0.19145786132812515,1.6024467914833191,-0.16407142970129893,-0.5299965583467731,0.11586145856499336,0.5667800838812708
77,1790565967.1568263,-0.08449628906249994,-1.651844970703125,0.12918735351562513,1.6590421340071242,-0.16761403696407848,-0.5617469450996752,0.1203912298640431,0.5984547969098333
78,1790565967.1967745,-0.07491621093749994,-1.7380656738281253,0.19145786132812515,1.7501830869555295,-0.17410629824575294,-0.6258093577676567,0.12904257147187886,0.6622705947046728
79,1790565967.2167745,-0.18029707031249995,-1.6997453613281253,0.19145786132812515,1.7199701856672078,-0.17725190229356544,-0.6582278557814019,0.13329852653070345,0.6945866714590241
80,1790565967.2263877,-0.19945722656249995,-1.6231047363281252,0.18666782226562514,1.6459334877777376,-0.17881088595344216,-0.6738686669557449,0.13530998608366765,0.7101979340818515
81,1790565967.2463877,-0.14197675781249994,-1.5847844238281252,0.20582797851562515,1.6043890508561258,-0.18207992163288314,-0.7063394907561307,0.1394557665401764,0.7426415588187716
82,1790565967.2562108,-0.09407636718749994,-1.5129338378906252,0.23456821289062516,1.53389745654537,-0.18361859115421472,-0.7221776437526554,0.14151100668474437,0.7584732699090494
83,1790565967.2762108,-0.23777753906249996,-1.5560441894531252,0.31120883789062515,1.604575525924126,-0.1867792172646148,-0.7541908636163096,0.14588650246855342,0.7905524690789374
84,1790565967.3163342,-0.309628125,-1.5560441894531252,0.27767856445312517,1.6106670917599941,-0.1938161569199339,-0.8181464501974893,0.15511992648781858,0.8549798291466013
85,1790565967.3363342,-0.21861738281249996,-1.5943645019531252,0.18666782226562514,1.6200730233620382,-0.19759001834682557,-0.8499695189784021,0.15972857182938555,0.8871320167829195
86,1790565967.3473248,-0.15634687499999994,-1.5991545410156252,0.16750766601562514,1.6154870502567213,-0.19966187745629257,-0.8674665375707152,0.162173223882705,0.9048000959652948
87,1790565967.3673248,-0.20424726562499995,-1.532093994140625,0.20103793945312515,1.5586677662339148,-0.20340746200510412,-0.8992273059850465,0.16650736133988583,0.9368612729795451
88,1790565967.3914475,-0.22340742187499996,-1.3836027832031252,0.16271762695312514,1.4109374769838403,-0.20802121099204313,-0.9370640547086884,0.17160889787869318,0.9750956264289281
89,1790565967.4114475,-0.17550703124999995,-1.369232666015625,0.11002719726562514,1.3848129100497921,-0.21187102614415756,-0.9678579689697244,0.17561321694253482,1.0062198476389164
90,1790565967.4216511,-0.20903730468749995,-1.4602434082031253,0.11481723632812514,1.4795912961726028,-0.21383479185691703,-0.9833771680545846,0.177521770260137,1.0218952743680922
91,1790565967.441651,-0.27609785156249994,-1.5560441894531252,0.22498813476562515,1.5962841864635433,-0.2178342789054428,-1.013757776744004,0.18121127473374357,1.0526130006160044
92,1790565967.466678,-0.22819746093749996,-1.527303955078125,0.20582797851562515,1.5579141854144067,-0.22303486034770362,-1.0518592804407865,0.18594422514656958,1.091204723984041
93,1790565967.486678,-0.15634687499999994,-1.4794035644531252,0.13876743164062513,1.4941002817491915,-0.22714428160432196,-1.0822505923321866,0.18967607477162635,1.1219794483900691
94,1790565967.5118792,-0.12281660156249995,-1.4027629394531251,0.15792758789062514,1.4169576228453287,-0.2320733532408846,-1.1202490043675737,0.19423388196563593,1.1604062538501114
95,1790565967.5318792,-0.16113691406249994,-1.3357023925781253,0.23456821289062516,1.3656823324299159,-0.2358242730592027,-1.1499891800777051,0.1978971722485821,1.190483722208615
96,1790565967.541456,-0.14676679687499994,-1.3165422363281252,0.18187778320312514,1.3371250804332748,-0.2375721058545665,-1.1639988570466473,0.19968730013285246,1.2046613061439395
97,1790565967.561456,-0.18029707031249995,-1.4410832519531251,0.16271762695312514,1.4614051453119774,-0.24116531761326845,-1.1930041769617232,0.20338188812321614,1.2340112921218311
98,1790565967.6019933,-0.16113691406249994,-1.532093994140625,0.26330844726562513,1.562884656766709,-0.2483939065078197,-1.2520150390104157,0.21104231745975607,1.2937465170802402
99,1790565967.6219933,-0.17071699218749994,-1.3788127441406253,0.27767856445312517,1.4168183581471891,-0.2519231103030527,-1.2811285359659743,0.21506631975309282,1.323257004917497
100,1790565967.6319268,-0.21382734374999995,-1.287802001953125,0.20582797851562515,1.3215601711270986,-0.2536995341972125,-1.2954061224860416,0.21712536205942676,1.3377533026218404
101,1790565967.6519268,-0.24256757812499996,-1.4746135253906252,0.18187778320312514,1.5054579393809975,-0.25742426922994216,-1.3239841739346212,0.2212307320586959,1.3668007843226964
102,1790565967.661226,-0.26172773437499997,-1.5560441894531252,0.18666782226562514,1.58890522132105,-0.25924807658575516,-1.3373925026433737,0.22311029578046204,1.3804370595660511
103,1790565967.681226,-0.3287882812499999,-1.488983642578125,0.22498813476562515,1.5413609838509168,-0.2634679467358472,-1.366471767108416,0.22716380415044754,1.4100580992206324
104,1790565967.7063482,-0.36231855468749996,-1.3213322753906251,0.17229770507812514,1.3808983366761634,-0.2692756303402558,-1.4028145876146563,0.2322402579560407,1.4471812843369376
105,1790565967.7263482,-0.26651777343749994,-1.3548625488281252,0.10523715820312514,1.3848317981768747,-0.27414890049180674,-1.4314217939768994,0.2360917586139874,1.4764366868912318
106,1790565967.7520485,-0.16592695312499994,-1.4794035644531252,0.13397739257812513,1.49469615708745,-0.2803053513281124,-1.4681315652714844,0.24075971033745378,1.5139176401150263
107,1790565967.7720485,-0.37668867187499994,-1.532093994140625,0.22498813476562515,1.5936831627353163,-0.2851915781744327,-1.4969311997462647,0.2443858656017084,1.5433281259477232
108,1790565967.781139,-0.34794843749999993,-1.3883928222656252,0.19145786132812515,1.4440771644000672,-0.28757338389472986,-1.5100488822734968,0.2460707319372441,1.5567584536774592
109,1790565967.8011389,-0.28088789062499997,-1.374022705078125,0.14834750976562514,1.4102635870019593,-0.29297084781716787,-1.5387238546606707,0.24973130482486158,1.5861490293103075
110,1790565967.826869,-0.22340742187499996,-1.4219230957031253,0.16750766601562514,1.4490807377150505,-0.2998463146157644,-1.575476350209515,0.25434378198696755,1.6237993416347922
111,1790565967.846869,-0.24256757812499996,-1.4410832519531251,0.21061801757812515,1.4764551867042093,-0.3050879200433906,-1.6040533506814776,0.2579584488478105,1.6530602989972405
112,1790565967.901618,-0.28088789062499997,-1.3836027832031252,0.22019809570312515,1.428895332114455,-0.3194336724379114,-1.682145979833241,0.2681381897813356,1.7330756063644532
113,1790565967.921618,-0.23777753906249996,-1.450663330078125,0.22019809570312515,1.486421695437488,-0.32466613484811424,-1.710645729049896,0.2719596702660015,1.7622936678332177
114,1790565967.9319923,-0.20424726562499995,-1.488983642578125,0.20582797851562515,1.5169556322188,-0.3273170995716942,-1.7254987707328422,0.27397607289114445,1.7775110069952955
115,1790565967.9519923,-0.15634687499999994,-1.5081437988281252,0.19624790039062515,1.5288738671563862,-0.33220202544667243,-1.7543335727322773,0.2778833885111098,1.8070040530493794
116,1790565967.9464986,-0.20424726562499995,-1.4602434082031253,0.19145786132812515,1.4868368671042254,-0.33220202544667243,-1.7543335727322773,0.2778833885111098,1.8070040530493794
117,1790565967.9664986,-0.18508710937499995,-1.4171330566406253,0.14834750976562514,1.4368473551265135,-0.3367751424877349,-1.7832674678376144,0.28171045599184635,1.8365242006194051
118,1790565967.9910705,-0.15634687499999994,-1.4985637207031253,0.12439731445312514,1.511824150545628,-0.34218010462470033,-1.8188566390316043,0.2862097269642855,1.8727633873928884
119,1790565968.0110705,-0.25693769531249994,-1.5752043457031253,0.16750766601562514,1.6047880010046536,-0.346539435866045,-1.8480895357935756,0.28976038959148637,1.902494571949229
120,1790565968.0214057,-0.22340742187499996,-1.5368840332031253,0.16750766601562514,1.5620442458002082,-0.34882659276260153,-1.8633422955055159,0.29157969044931925,1.918005009878924
121,1790565968.0414057,-0.16592695312499994,-1.5368840332031253,0.17229770507812514,1.5553876637234973,-0.3531726500303715,-1.8930416200175981,0.2950818959090001,1.9481814138168903
122,1790565968.0670705,-0.13718671874999994,-1.4746135253906252,0.12439731445312514,1.4861964664570795,-0.35849658660330713,-1.9312330285841648,0.29947304163053706,1.9869234801481495
123,1790565968.0870705,-0.18508710937499995,-1.5225139160156251,0.14355747070312513,1.5404267622684,-0.3625064928235162,-1.961026133144251,0.302783602658719,2.0171049457707677
124,1790565968.1108065,-0.20424726562499995,-1.5847844238281252,0.21061801757812515,1.6117129287972072,-0.3672447029446219,-1.996612462420883,0.3067537368120958,2.0531507134118163
125,1790565968.1308064,-0.20903730468749995,-1.5847844238281252,0.24414829101562513,1.6170487478011009,-0.3712581873077032,-2.0268541308079535,0.31027933928420376,2.0838050718824226
126,1790565968.1560476,-0.21382734374999995,-1.488983642578125,0.22019809570312515,1.5202899796261518,-0.37636416878001605,-2.0651147651631656,0.314940474253104,2.1226249040184086
127,1790565968.1760476,-0.12281660156249995,-1.4937736816406253,0.19624790039062515,1.511607411992042,-0.38030802858132,-2.09535755283945,0.31870443151606337,2.1533067560179893
128,1790565968.2164917,-0.18508710937499995,-1.5368840332031253,0.19145786132812515,1.5597839216493539,-0.38802100754175434,-2.1565341221251337,0.3263502444408421,2.215333880982805
129,1790565968.2364917,-0.20903730468749995,-1.5752043457031253,0.18187778320312514,1.5993889000164747,-0.3918542091625452,-2.1869167492390744,0.3301240308708327,2.2461381224446573
130,1790565968.2466302,-0.26172773437499997,-1.5608342285156251,0.17708774414062514,1.5925027362525481,-0.3938638507714982,-2.2023928403128026,0.33202306018820954,2.2618360392615533
131,1790565968.2666302,-0.27609785156249994,-1.5847844238281252,0.17708774414062514,1.6183731840247746,-0.3980403014044453,-2.2330611572502073,0.3357385642205321,2.292971564818596
132,1790565968.2767856,-0.28567792968749994,-1.5368840332031253,0.21061801757812515,1.5773345746396927,-0.4002707659918241,-2.2486754484029126,0.3376374994048888,2.3088432253754494
133,1790565968.2967856,-0.23777753906249996,-1.5225139160156251,0.22019809570312515,1.556622620899213,-0.4047896974664554,-2.2794025234244812,0.3414624989966428,2.3401126471154994
134,1790565968.3071496,-0.18987714843749995,-1.4841936035156251,0.17229770507812514,1.5061774408716397,-0.4071125815690101,-2.295274090019031,0.34345239584115045,2.3562647029978403
135,1790565968.3271496,-0.26172773437499997,-1.4937736816406253,0.17708774414062514,1.5268337460339532,-0.41160017544418626,-2.3257748968212746,0.3472404673889678,2.3873038175528065
136,1790565968.3517325,-0.32399824218749995,-1.5129338378906252,0.25851840820312516,1.5686858914884534,-0.4173686024699545,-2.3631848170046874,0.3520012744779053,2.425436852792352
137,1790565968.3717325,-0.26172773437499997,-1.5081437988281252,0.26330844726562513,1.5531678799428714,-0.4222362770796379,-2.3935868104841425,0.35607629302249677,2.4564876591300773
138,1790565968.3963315,-0.13239667968749994,-1.5560441894531252,0.16271762695312514,1.5701208317974653,-0.42805237665342594,-2.4310241445436045,0.36112255739109894,2.4946977231659346
139,1790565968.4163315,-0.17071699218749994,-1.5991545410156252,0.13876743164062513,1.6142168186326697,-0.43252644978182725,-2.461629214373872,0.3650621681727881,2.5258598348781773
140,1790565968.4261498,-0.28567792968749994,-1.6039445800781251,0.23456821289062516,1.6459867380909334,-0.4347294628794361,-2.476758739231925,0.36698099879570045,2.5412592570877623
141,1790565968.4461498,-0.23777753906249996,-1.5368840332031253,0.25372836914062513,1.5757311873870128,-0.43932906613946615,-2.5076660880958586,0.37103581425282944,2.5727547129874666
142,1790565968.4715655,-0.18508710937499995,-1.5464641113281252,0.20103793945312515,1.5704218346617063,-0.4451034574342224,-2.546928571405927,0.3762825541225107,2.612766885162298
143,1790565968.4915655,-0.21382734374999995,-1.6231047363281252,0.22019809570312515,1.6518711570147522,-0.44956419381121193,-2.577944744832626,0.3804238382309287,2.6443580257714023
144,1790565968.5171072,-0.25693769531249994,-1.532093994140625,0.30641879882812517,1.5834208115436477,-0.45530825599875135,-2.6176578368477204,0.38592811811931155,2.68484239223572
145,1790565968.5371072,-0.21861738281249996,-1.374022705078125,0.37347934570312513,1.440561965277728,-0.4598446948204119,-2.648449067584937,0.39061147803203383,2.7163057511473867
146,1790565968.5463355,-0.15634687499999994,-1.2734318847656252,0.37347934570312513,1.3362484544899698,-0.46188340592785904,-2.662357741139777,0.3929652753613888,2.730550627642393
147,1790565968.5663354,-0.18987714843749995,-1.4219230957031253,0.4453299316406252,1.5020776842785992,-0.46615839748916643,-2.692022935345302,0.3985295870663202,2.760999269782963
148,1790565968.5914266,-0.27130781249999997,-1.4219230957031253,0.42137973632812514,1.5076584830144573,-0.47158502033003097,-2.7290088378094057,0.4060942414419957,2.799070238699606
149,1790565968.6114266,-0.29525800781249995,-1.2638518066406252,0.29683872070312517,1.3313947222498843,-0.47611155991748993,-2.7580964995704926,0.41229683707973347,2.8290929995841463
150,1790565968.6367655,-0.300048046875,-1.2399016113281252,0.33994907226562515,1.3202083956489001,-0.4821175369990775,-2.794179286892204,0.4201865978321365,2.866431925543886
151,1790565968.6567655,-0.22340742187499996,-1.220741455078125,0.45011997070312515,1.3201244503155278,-0.48693215880120577,-2.82207836615773,0.42666497927639513,2.8953880977428934
152,1790565968.6668668,-0.13718671874999994,-1.172841064453125,0.4357498535156252,1.258671638318676,-0.4892722926615141,-2.835868995976588,0.43011732413315107,2.909732161424308
153,1790565968.6868668,-0.26172773437499997,-1.172841064453125,0.37347934570312513,1.258389602259747,-0.4938089851134255,-2.8625964153857266,0.43714128031656335,2.9375837094651054
154,1790565968.7119799,-0.4197990234375,-1.196791259765625,0.38305942382812513,1.3248679412356559,-0.4999346773377819,-2.895585966335013,0.44606293289647747,2.972090999640709
155,1790565968.7319798,-0.38147871093749997,-1.225531494140625,0.39263950195312514,1.342244101690556,-0.5052832988771323,-2.9215512858558754,0.4532658745292691,2.999370447447774
156,1790565968.7567914,-0.30483808593749995,-1.220741455078125,0.3159988769531252,1.2973015258681897,-0.512200508435992,-2.9534836349597327,0.462179983530019,3.0329894955295926
157,1790565968.7767913,-0.29525800781249995,-1.115360595703125,0.19145786132812515,1.169556609270785,-0.5178400838618524,-2.9788667230836525,0.46904880631265755,3.0597078437413785
158,1790565968.802228,-0.28567792968749994,-1.105780517578125,0.24893833007812513,1.1689023589453345,-0.5250450726074087,-3.010544696677423,0.4773145686027012,3.0930374870606174
159,1790565968.822228,-0.27609785156249994,-1.105780517578125,0.40221958007812514,1.2086195295836475,-0.5307030213347735,-3.035033268454697,0.48381553360545304,3.1188379419326338
160,1790565968.8322291,-0.24256757812499996,-1.033929931640625,0.45970004882812515,1.1572269735848695,-0.5334969812717877,-3.047047124760446,0.4872252892632966,3.131533760321724
161,1790565968.852229,-0.17071699218749994,-0.986029541015625,0.39263950195312514,1.0749717790114441,-0.5388660732837575,-3.070498182409941,0.4942996910634926,3.1563694203474455
162,1790565968.8762808,-0.16113691406249994,-1.053090087890625,0.33036899414062515,1.1153956744476636,-0.5449529648633571,-3.0981480951404285,0.5028353388098955,3.1856457322325866
163,1790565968.8962808,-0.11802656249999995,-1.081830322265625,0.27767856445312517,1.1231173139016515,-0.5496739919844584,-3.120893736900814,0.5097804995319971,3.2096721596128703
164,1790565968.9213722,-0.08449628906249994,-1.0435100097656251,0.3159988769531252,1.0935758106240394,-0.5550895476624796,-3.1491489530833383,0.5183039364900213,3.239429348698791
165,1790565968.9413722,0.020884570312500066,-1.067460205078125,0.3447391113281251,1.1219414020268064,-0.5588541236340907,-3.17145893789678,0.5250698591648882,3.2628466227010477
166,1790565968.9514282,0.07357500000000007,-0.986029541015625,0.14355747070312513,0.9991377701674393,-0.5603917911184788,-3.1825425510194547,0.5283297613414959,3.27440809694234
167,1790565968.9714282,0.06399492187500007,-1.038719970703125,-0.01930385742187487,1.0408684674225905,-0.5627849067346589,-3.204316833347677,0.5340270982646159,3.2969012968853875
168,1790565968.9967868,0.07357500000000007,-1.2399016113281252,0.052546728515625134,1.243193647456733,-0.5651024302973364,-3.232117664962133,0.5402305981295433,3.325323210763674
169,1790565969.0167868,0.14063554687500007,-1.3548625488281252,0.08607700195312513,1.3648590159892386,-0.5663347393330301,-3.2546469662191027,0.5445972440741212,3.3481409871670196
170,1790565969.042016,0.21727617187500006,-1.3836027832031252,-0.09115444335937488,1.4035222581406561,-0.566978836289617,-3.2839855446490422,0.5492697407629399,3.377532132546185
171,1790565969.062016,0.17895585937500008,-1.4315031738281252,-0.13905483398437488,1.449331840241931,-0.5668184950816362,-3.307977159684253,0.5520728551395797,3.401291009711059
172,1790565969.072065,0.18853593750000008,-1.570414306640625,0.004646337890625131,1.5816979745470856,-0.5664730431134788,-3.3204861688589444,0.5531687284704474,3.413578144457134
173,1790565969.092065,0.3178669921875001,-1.4841936035156251,0.03817661132812513,1.5183305078577338,-0.565129041326427,-3.346229459354929,0.5550868423010515,3.438712525132198
174,1790565969.116641,0.4088777343750001,-1.4458732910156251,-0.11510463867187487,1.5069769915907048,-0.5623857268458494,-3.3785184689746184,0.556948478120625,3.469993711556753
175,1790565969.136641,0.37055742187500007,-1.4362932128906252,-0.2588058105468749,1.5057328593994175,-0.5593189352926274,-3.4051770737186113,0.5576753670829677,3.495578691691384
176,1790565969.1612222,0.32265703125000006,-1.412343017578125,-0.2588058105468749,1.4716659969876225,-0.5548370499089322,-3.4382790803992602,0.5574804858726586,3.527093942439249
177,1790565969.1812222,0.4328279296875001,-1.407552978515625,-0.2540157714843749,1.4943458154686209,-0.5506042190662221,-3.465401770017134,0.5565764773209889,3.5527386350248804
178,1790565969.1913085,0.4663582031250001,-1.4267131347656252,-0.29712612304687486,1.5301255750857843,-0.5481095301778867,-3.4791724450642403,0.5557720341131837,3.565662282587684
179,1790565969.2113085,0.4376179687500001,-1.6614250488281253,-0.23964565429687487,1.734725545747739,-0.5425488857033801,-3.5070144770190788,0.5536110257910701,3.5916563036121403
180,1790565969.2372918,0.32265703125000006,-1.7572258300781252,-0.17737514648437488,1.7953863429076131,-0.5349267205119216,-3.544422326477709,0.5504119707166947,3.626572701912858
181,1790565969.2572918,0.2555964843750001,-1.5799943847656253,-0.22527553710937487,1.6163108878974008,-0.5290724257322962,-3.5739027958271623,0.5477149657406474,3.654133345868449
182,1790565969.2822783,0.3466072265625001,-1.6374748535156252,-0.23964565429687487,1.6908253916430116,-0.5217270666556596,-3.611238415312536,0.5439796853042118,3.6890589480697904
183,1790565969.3022783,0.4280378906250001,-1.6757951660156252,-0.2013253417968749,1.741274753593374,-0.5155675631105329,-3.6416102240737183,0.540776869391962,3.717468837620477
184,1790565969.3113801,0.45198808593750006,-1.7715959472656253,-0.11510463867187487,1.8319646579672917,-0.5125841429247981,-3.6557122704464335,0.5393219171431114,3.730662520006532
185,1790565969.3313801,0.47114824218750007,-1.728485595703125,-0.07199428710937487,1.792993669271017,-0.5056271663917506,-3.687301439061565,0.5363237866851467,3.7602518450315445
186,1790565969.35674,0.49030839843750007,-1.7141154785156252,-0.2875460449218749,1.8059005861938828,-0.49630028758119094,-3.7278958950165695,0.5324085731084193,3.7982865437265136
187,1790565969.37674,0.4376179687500001,-1.848236572265625,-0.46477749023437487,1.955378743124111,-0.48865612776496387,-3.760451904504839,0.5286555261398507,3.8287413078731922
188,1790565969.4015884,0.22685625000000006,-1.9919377441406252,-0.4120870605468749,2.0467279936929255,-0.4793450945808251,-3.8019897052895426,0.5230579259792838,3.867620332033137
189,1790565969.4215884,0.18853593750000008,-2.020677978515625,-0.3402364746093749,2.0577769925921547,-0.47235189760562535,-3.836426557572725,0.51809986408193,3.8999631429005404
190,1790565969.4472268,0.31307695312500006,-2.0254680175781252,-0.3114962402343749,2.073057591214013,-0.4637673571895155,-3.881730240140106,0.5114442073073531,3.942649489366378
191,1790565969.4672267,0.3849275390625001,-2.1260588378906253,-0.2013253417968749,2.169983245500107,-0.45702821080953754,-3.917996981484272,0.506261817528104,3.976917922246132
192,1790565969.4769194,0.3370271484375001,-2.097318603515625,-0.1917452636718749,2.1328616620815426,-0.4537272697084681,-3.936006845124861,0.5038412472457514,3.993979759910285
193,1790565969.4969194,0.22206621093750006,-2.068578369140625,-0.08157436523437488,2.082062498672895,-0.4470991058609483,-3.9738432063480835,0.49918582703384695,4.029952100089025
194,1790565969.5220854,0.24122636718750007,-2.0829484863281253,-0.02888393554687487,2.0970691067906615,-0.4391354607595175,-4.022147180233607,0.4939981026479843,4.076093965768876
195,1790565969.5420854,0.32265703125000006,-2.097318603515625,-0.16779506835937488,2.1286164683741227,-0.432910090614894,-4.061047537564968,0.49019870912118957,4.113370032387405
196,1790565969.5670962,0.35139726562500007,-2.2218596191406252,-0.24922573242187487,2.263239640682725,-0.42502836566263835,-4.110499067484641,0.48537784927226985,4.160822436967736
197,1790565969.5870962,0.36097734375000007,-2.3320305175781253,-0.2540157714843749,2.3734352718747793,-0.4186025564292359,-4.150942351329283,0.481346224899268,4.199671974396684
198,1790565969.5966232,0.45198808593750006,-2.3224504394531253,-0.33544643554687487,2.389684829567816,-0.41541988641969135,-4.170643428303514,0.4792926501266709,4.218597128495406
199,1790565969.6166232,0.6196394531250001,-2.3895109863281254,-0.24922573242187487,2.481094369699202,-0.4081332695386012,-4.212866093840094,0.4747512305043869,4.259131627597014
200,1790565969.6416872,0.6435896484375001,-2.3655607910156253,-0.1917452636718749,2.4590347166534623,-0.3979967974558678,-4.266781130258923,0.46908467951353666,4.310900497677145
201,1790565969.6616871,0.6867000000000001,-2.274550048828125,-0.2109054199218749,2.3852915777272283,-0.3891261686211305,-4.310309876465392,0.4646372909032147,4.352709296330131
202,1790565969.6866086,0.6627498046875001,-2.2122795410156253,-0.23485561523437487,2.3213304872888614,-0.37720847723988493,-4.364800198808706,0.4590936145003464,4.4050577700748885
203,1790565969.7066085,0.6196394531250001,-2.2553898925781253,-0.24922573242187487,2.3522011149376314,-0.36715531899440734,-4.408671917973577,0.4545859101225805,4.447228289426649
204,1790565969.7170455,0.6148494140625,-2.370350830078125,-0.2731759277343749,2.4639861905291984,-0.3617296770908755,-4.431753164791595,0.4521774888518852,4.469423783258081
205,1790565969.7370455,0.5717390625000001,-2.4517814941406253,-0.2827560058593749,2.5333908126162377,-0.3511124174364965,-4.476581487273215,0.4474207138523328,4.512565460695225
206,1790565969.7621036,0.5669490234375001,-2.403881103515625,-0.2779659667968749,2.4854256443743306,-0.33766538659135975,-4.533447687294005,0.4413011097036972,4.567374794798317
207,1790565969.7821035,0.6100593750000001,-2.2793400878906254,-0.22048549804687487,2.369847575718661,-0.3267770796521388,-4.579051939282525,0.4364017434489601,4.61139310882496
208,1790565969.8072002,0.6723298828125001,-2.130848876953125,-0.16779506835937488,2.2406917665535326,-0.3127497390600576,-4.6359949123403785,0.4304451952885197,4.666427358555469
209,1790565969.8272002,0.6627498046875001,-2.020677978515625,-0.10552456054687487,2.1292046001617417,-0.301245274930658,-4.680794254314155,0.42600036686705556,4.709783421714774
210,1790565969.8367624,0.5956892578125002,-1.9823576660156252,-0.01451381835937487,2.069975424686847,-0.2956673911070092,-4.701871389038489,0.4241079177637263,4.730209434172301
211,1790565969.8567624,0.5861091796875001,-1.9105070800781252,-0.01451381835937487,1.9984423745672446,-0.28397821153333647,-4.745182070744242,0.42069993902851804,4.772251559571948
212,1790565969.8820634,0.5861091796875001,-1.8338664550781252,-0.05283413085937487,1.9259754907470732,-0.26918455208599007,-4.798858952728491,0.4169075668304626,4.8244501749468425
213,1790565969.9020634,0.5621589843750001,-1.8290764160156252,-0.08636440429687488,1.9154639306621386,-0.2575221422576665,-4.840419401032067,0.4141506360373022,4.864925321212106
214,1790565969.926484,0.5382087890625001,-1.809916259765625,-0.12947475585937487,1.8926778068104875,-0.24340254827265206,-4.890219273937008,0.4108939448157804,4.913483813098085
215,1790565969.946484,0.5717390625000001,-1.9057170410156252,-0.01451381835937487,1.989686821318646,-0.23190856940898028,-4.930459853709102,0.4084108849956183,4.952778553961948
216,1790565969.957037,0.6483796875000001,-1.8817668457031251,0.02380649414062513,1.990479698442904,-0.2257878605242034,-4.951505337323402,0.40730459256706936,4.9733572458278585
217,1790565969.977037,0.5861091796875001,-1.7811760253906253,-0.09594448242187488,1.8775828470795906,-0.21407607933770456,-4.990902602625731,0.4054142231180964,5.011915606726369
218,1790565970.0021515,0.51425859375,-1.7811760253906253,-0.14863491210937488,1.8598769507066415,-0.1995026474110889,-5.039664026298824,0.4029358143728917,5.059681025005316
219,1790565970.0221515,0.5573689453125001,-1.9057170410156252,-0.06241420898437487,1.9865329383373596,-0.18803047815506782,-5.0782008793383815,0.40094161063564154,5.097473276709495
220,1790565970.0463262,0.6244294921875001,-1.9105070800781252,-0.07678432617187488,2.01142867795203,-0.17410096020288934,-5.124713820426484,0.39864033412184363,5.14314271643346
221,1790565970.0663261,0.5525789062500001,-1.848236572265625,-0.2061153808593749,1.9400529438444298,-0.16254001543065918,-5.163060487963269,0.3965976948027569,5.180820648363207
222,1790565970.0771585,0.51425859375,-1.9200871582031251,-0.17737514648437488,1.995659925671865,-0.15635093807342562,-5.183775755166064,0.3953457609686922,5.201180151311801
223,1790565970.0971584,0.5765291015625001,-1.9296672363281253,-0.12468471679687487,2.017807653496588,-0.1450017589776097,-5.222060456720381,0.3929279147417664,5.238829379730991
224,1790565970.122658,0.5908992187500001,-1.8769768066406252,-0.12468471679687487,1.9717378370333407,-0.13046960579162456,-5.270830949420267,0.3898307030881417,5.286837352564591
225,1790565970.142658,0.6052693359375001,-1.8961369628906253,-0.1917452636718749,1.9996131118811218,-0.11898710308511737,-5.309004778076231,0.3872912189465264,5.324442144733092
226,1790565970.1672165,0.6627498046875001,-1.9823576660156252,-0.1917452636718749,2.0989867712219707,-0.10466681298577885,-5.355992060107468,0.38393431231909053,5.370755221181726
227,1790565970.1872165,0.6579597656250001,-2.087738525390625,-0.06241420898437487,2.1898535880429706,-0.09277291945168051,-5.3946228657120505,0.3812293462253033,5.408872201510242
228,1790565970.2117836,0.5573689453125001,-2.164379150390625,-0.11031459960937487,2.23771458384026,-0.07811517366197426,-5.442792114311211,0.378086821773278,5.4564675042341415
229,1790565970.2317836,0.4376179687500001,-2.293710205078125,-0.31628627929687486,2.35640679890461,-0.06647981400714977,-5.4828114438827,0.37527235404148473,5.49604132394848
230,1790565970.2419152,0.4184578125000001,-2.5427922363281255,-0.2156954589843749,2.586005380698067,-0.0608191998915901,-5.503718611484943,0.37365622621399724,5.516723348589241
231,1790565970.2619152,0.3753474609375001,-2.7487639160156254,0.14355747070312513,2.7779844365684383,-0.05013045018620925,-5.546736438491149,0.37083629032909543,5.559345081423386
232,1790565970.2869978,0.2699666015625001,-2.446991455078125,0.14834750976562514,2.466304144025677,-0.037522164247743385,-5.602368140344375,0.3683793375456456,5.614591706356402
233,1790565970.3069978,0.24122636718750007,-2.2266496582031254,0.22977817382812515,2.251434402724264,-0.028209979218720423,-5.647083557121029,0.3672813003484418,5.659085090155462
234,1790565970.332223,0.14063554687500007,-2.1500090332031254,0.4453299316406252,2.2001445288696178,-0.017504221357732032,-5.703301777668244,0.3673813555146932,5.715148871665455
235,1790565970.352223,0.19332597656250008,-2.0925285644531253,0.5602908691406252,2.1748509338132713,-0.009788352390731968,-5.747552701126674,0.36895721541591847,5.75939122571809
236,1790565970.3617885,0.030464648437500068,-1.9823576660156252,0.5698709472656251,2.0628676417435896,-0.006491006413387035,-5.768465787182405,0.370408662407342,5.780349664877081
237,1790565970.3817885,-0.18508710937499995,-1.9823576660156252,0.6129812988281251,2.083205517173168,-0.0008628917801863324,-5.811579621696649,0.3747624528047491,5.823650516637671
238,1790565970.4071019,-0.24256757812499996,-1.9775676269531253,0.6513016113281251,2.0961408678924838,0.004380040217300605,-5.86548025962446,0.3818465909761785,5.8778979814076955
239,1790565970.4271019,-0.046175976562499936,-1.6757951660156252,0.5076004394531252,1.7515935217355205,0.007467978914245528,-5.907158943957802,0.38834251512981804,5.919914903860279
240,1790565970.4513357,-0.06533613281249993,-1.8194963378906253,0.35910922851562516,1.8557465268331708,0.010445687777722694,-5.9564382345191635,0.39660819221164423,5.969636807391578
241,1790565970.4713356,-0.41021894531249997,-1.8003361816406251,0.20582797851562515,1.8579168729406261,0.011821213745503222,-5.996437319968521,0.40325395618784426,6.009992847465529
242,1790565970.4818985,-0.5299699218749999,-1.651844970703125,0.09565708007812514,1.737414804328107,0.011693885887862628,-6.017128728443786,0.4064762377374223,6.030853821265763
243,1790565970.5018985,-0.42458906249999995,-1.3979729003906252,0.09086704101562514,1.4638514000280702,0.010057126626073396,-6.055004316896399,0.41194198120816344,6.069009360621527
244,1790565970.5267246,-0.25693769531249994,-1.172841064453125,0.17708774414062514,1.2136445982514212,0.00706119734122971,-6.099753894598193,0.4182078509551141,6.1140776280461315
245,1790565970.5467246,-0.19945722656249995,-1.105780517578125,0.22019809570312515,1.144998226913314,0.0043251012571337965,-6.133814721047892,0.4230944208294269,6.148390897428505
246,1790565970.5716374,-0.49643964843749994,-1.1632609863281251,0.25851840820312516,1.2909144875760397,0.00012787514562988527,-6.174117822683974,0.4291627675886339,6.189015397122573
247,1790565970.5916374,-0.5539201171875,-0.899808837890625,0.09086704101562514,1.0605377221551462,-0.00431176009047502,-6.204714396737439,0.43382775495724557,6.219863813406783
248,1790565970.6024156,-0.07012617187499993,-0.669886962890625,0.062126806640625136,0.6764066551535616,-0.006849895799994439,-6.2199987609977185,0.4360883365893346,6.235271008159539
249,1790565970.6224155,0.13584550781250007,-0.416014892578125,0.10523715820312514,0.4501080451472674,-0.010754611607941363,-6.245734997218504,0.4399049026407373,6.261216945651877
250,1790565970.6469412,-0.14197675781249994,-0.387274658203125,0.20582797851562515,0.4609817972383782,-0.01483593415410359,-6.274038515582513,0.44445524555899396,6.2897789997153275
251,1790565970.6669412,-0.40063886718749997,-0.310634033203125,0.18666782226562514,0.5402313211529987,-0.018478831322922166,-6.294704001491271,0.44819806534191603,6.310667273702006
252,1790565970.6920164,-0.022225781249999937,-0.028021728515624972,-0.01930385742187487,0.040642853400571076,-0.023156311620354652,-6.317364035224544,0.45250152810693683,6.333591572027321
253,1790565970.7120163,0.3082869140625001,-0.14298266601562498,-0.06241420898437487,0.34551468513836037,-0.025898365447403045,-6.332983140825203,0.4552965272690594,6.349381160007041
254,1790565970.7213545,0.3274470703125001,-0.205253173828125,-0.2779659667968749,0.4760415191137,-0.0265413650549397,-6.339425806978069,0.4561673935150277,6.3558723002546875
255,1790565970.7413545,0.3561873046875001,-0.621986572265625,-0.3498165527343749,0.7975639865654977,-0.026686488303361903,-6.352395469482678,0.45681112321817346,6.3688552167291315
256,1790565970.7816133,0.15979570312500008,-0.655516845703125,-0.33544643554687487,0.7534993781410118,-0.02537682727288437,-6.378443931444922,0.45584345319810415,6.394762249198368
257,1790565970.8016133,0.09752519531250008,-0.554926025390625,-0.2635958496093749,0.6220424658396451,-0.02443782013275439,-6.39125899048414,0.4545362758610059,6.407448159491482
258,1790565970.8116713,0.4328279296875001,-0.708207275390625,-0.14384487304687488,0.8423710044485455,-0.023636361065414734,-6.397689782326013,0.45367015621562634,6.413798394016122
259,1790565970.8316712,0.9022517578125001,-0.986029541015625,-0.22048549804687487,1.3545945316146115,-0.020279111195767432,-6.411100508705441,0.45165973912814567,6.427022443948936
260,1790565970.8415926,0.6914900390625001,-1.182421142578125,-0.3641866699218749,1.417360279917284,-0.01767760529228215,-6.41836876504934,0.4503769807071175,6.434175124026445
261,1790565970.8615925,0.2555964843750001,-1.182421142578125,-0.30670620117187486,1.2480056150025531,-0.011799344977994276,-6.434370046888165,0.4471726597112551,6.44990081415418
262,1790565970.8867044,0.5429988281250001,-1.1632609863281251,-0.3977169433593749,1.3439503773180503,-0.004021659215190699,-6.455865375064043,0.4424261185890046,6.471008791919802
263,1790565970.9067044,0.5238386718750001,-1.2830119628906251,-0.5270479980468749,1.482668622220568,0.0028438466381567095,-6.474086448979159,0.43782571192752673,6.4888746936848865
264,1790565970.9464543,0.5717390625000001,-1.7045354003906252,-0.4935177246093749,1.864372878819262,0.017708410703047447,-6.513775191635173,0.4270113688319936,6.527780598647847
265,1790565970.9664543,0.6771199218750001,-1.8530266113281253,-0.5174679199218749,2.0396009558338792,0.025938885651323428,-6.536085374722811,0.42086987794306013,6.549672992265649
266,1790565970.9765174,0.7250203125000001,-2.1452189941406252,-0.3785567871093749,2.295849347719899,0.030517186219751923,-6.548644736963969,0.4175669894697207,6.56201503962887
267,1790565970.9965174,0.7825007812500001,-2.4422014160156253,-0.1869552246093749,2.5713046270433084,0.04051271094789718,-6.5767427265830305,0.4111390646819023,6.589705721951372
268,1790565971.0062175,0.7058601562500001,-2.3559807128906254,-0.23485561523437487,2.4706357157017322,0.04571618465650221,-6.591816904421045,0.4081822645189126,6.604600883627897
269,1790565971.0262175,0.4950984375000001,-2.097318603515625,-0.4456173339843749,2.2005550653903243,0.056637045830789816,-6.62491532090501,0.4019795721014037,6.637341210191713
270,1790565971.051627,0.6627498046875001,-2.327240478515625,-0.2779659667968749,2.435682784590858,0.07063703987982248,-6.669090327198778,0.39390232586433693,6.681086320805967
271,1790565971.071627,0.8495613281250001,-2.5380021972656253,-0.07199428710937487,2.677385437501863,0.08227208171500675,-6.705943097611944,0.38797337288378353,6.717660668856817
272,1790565971.0960562,0.7968708984375001,-2.5859025878906254,-0.09115444335937488,2.7074350509994103,0.09736872231983582,-6.753593394995186,0.38151873342268205,6.765061785154756
273,1790565971.1160562,0.6100593750000001,-2.523632080078125,-0.2156954589843749,2.6052669436453755,0.10998463253019582,-6.794416788682144,0.37656677604669947,6.8057327786610005
274,1790565971.1267126,0.9501521484375001,-2.6050627441406253,-0.1965353027343749,2.7798861723658352,0.11694528551124429,-6.817004514065082,0.3739945905011164,6.8282573690738335
275,1790565971.1467125,1.1225935546875,-2.710443603515625,-0.2109054199218749,2.9412925582160487,0.13115866402309778,-6.861011747586221,0.3692800470758875,6.872194158260725
276,1790565971.2018623,0.9118318359375001,-2.6625432128906255,-0.34502651367187487,2.835421829759314,0.172887814221686,-6.986382847995011,0.35593031256217295,6.997579716049388
277,1790565971.2218623,0.7010701171875001,-2.772714111328125,-0.3402364746093749,2.8801395297842824,0.18817022071823122,-7.03318150408288,0.3507873488959447,7.044437654311671
278,1790565971.216452,1.0651130859375002,-2.839774658203125,-0.33544643554687487,3.0514439707012624,0.18817022071823122,-7.03318150408288,0.3507873488959447,7.044437654311671
279,1790565971.2364519,1.2327644531250002,-2.873304931640625,-0.4360372558593749,3.156852533074089,0.20491045386985957,-7.082719060675238,0.3450528383247388,7.094079154322529
280,1790565971.2619889,1.0555330078125,-3.012216064453125,-0.4072970214843749,3.2176833923245494,0.22746175418080647,-7.147755763613296,0.33721381768194286,7.159320111904323
281,1790565971.2819889,0.7872908203125001,-3.0313762207031254,-0.4264571777343749,3.1608439302872675,0.2452383822191397,-7.200116060147191,0.3307447535099396,7.211879452381142
282,1790565971.2920551,1.0363728515625001,-2.8972551269531253,-0.5366280761718749,3.123479734246388,0.2542203363740153,-7.226992621505257,0.3272500776375064,7.238863373764648
283,1790565971.312055,1.08906328125,-2.9834758300781252,-0.4072970214843749,3.202042742209638,0.2725772702546536,-7.281203021533523,0.31993235994936375,7.293323832381993
284,1790565971.3366616,0.8495613281250001,-2.9738957519531253,-0.1869552246093749,3.0985097465941753,0.2953522103237906,-7.348889186520774,0.3111829841818539,7.361402044009649
285,1790565971.3566616,0.8495613281250001,-2.7056535644531254,-0.23964565429687487,2.846005217969003,0.31363552062602446,-7.404171157914459,0.30449836155287135,7.417063908830709
286,1790565971.3669956,0.8016609375000001,-2.676913330078125,-0.22527553710937487,2.8034397270287896,0.322945259985612,-7.432622545969062,0.30120216399786237,7.445729937043903
287,1790565971.3869956,0.7872908203125001,-2.633802978515625,-0.09594448242187488,2.7506272573893593,0.3406436834235743,-7.487392603412527,0.2952979206249054,7.50095240476957
288,1790565971.4120696,0.7250203125000001,-2.5044719238281252,0.22498813476562515,2.6169932616585516,0.36234791899339924,-7.5554208937160805,0.28924875899889646,7.5696331311486125
289,1790565971.4320695,0.7010701171875001,-2.231439697265625,0.3351590332031251,2.3628698671919817,0.3792023583872838,-7.60864741512853,0.2859876936124208,7.623457147334554
290,1790565971.4567509,0.8112410156250001,-2.2218596191406252,0.20103793945312515,2.37385517791199,0.3996813879587844,-7.67272327585604,0.2835595286434493,7.688357021238556
291,1790565971.4767509,0.7489705078125001,-2.4326213378906254,0.004646337890625131,2.545314319212754,0.41612723032958604,-7.72383910356729,0.28219558551165874,7.740186478250972
292,1790565971.4867535,0.6196394531250001,-2.643383056640625,0.052546728515625134,2.715545653212532,0.42414527209477476,-7.749377025846818,0.281658663662972,7.766084927643995
293,1790565971.5067534,0.5813191406250001,-2.5619523925781253,0.057336767578125135,2.627702325228274,0.4395738054163738,-7.800588106526669,0.28091096092732926,7.818011953563556
294,1790565971.5311956,0.8016609375000001,-2.423041259765625,-0.18216518554687489,2.558705407049685,0.45813610838539776,-7.862924200410961,0.27990542052704526,7.881231675293862
295,1790565971.5511956,0.8591414062500001,-2.5044719238281252,-0.5988985839843749,2.7146239310584197,0.4735377227680771,-7.913671329773991,0.27803445468244026,7.932700362963534
