imu_index,t_imu,ax,ay,az,mag,vx,vy,vz,velocity
0,1791286257.196856,0.044002613740808834,-0.02070987477022054,-0.020428107766545144,0.05274880582480155,0.0,0.0,0.0,0.0
1,1791286257.216856,0.07274284811580883,-0.030289952895220542,-0.015638068704045143,0.08033400519821446,0.0002312213047944277,-0.00010290473369249764,-8.014502567590502e-05,0.000265472976304092
2,1791286257.2274249,0.01047234030330883,-0.0015497185202205403,0.03226232192095486,0.03395480753371377,0.0004010422724339301,-0.00017436532927561649,-0.00010296686471491842,0.000449266454970305
3,1791286257.2474248,0.02484245749080883,0.03198055491727946,0.02268224379595486,0.046415382909321165,0.0007271710753709925,-0.00024366333064424265,-5.72589731516743e-05,0.0007690436798799112
4,1791286257.271912,0.06795280905330883,0.041560633042279464,-0.010848029641545144,0.08038998833321413,0.001236999006687054,-0.00018072076537555129,1.2043718203009129e-05,0.0012501886212611427
5,1791286257.291912,0.08232292624080884,-0.015919835707720542,-0.020428107766545144,0.0863007122840365,0.0018163543067898549,-9.856248681484874e-05,1.3242117143431133e-05,0.0018190747332827262
6,1791286257.332271,0.06316276999080883,0.017610437729779462,0.03226232192095486,0.0730788645620441,0.003250473788196339,4.747764980768305e-05,5.111897954243409e-05,0.003251222404735207
7,1791286257.352271,0.03442253561580883,0.05114071116727946,0.04663243910845486,0.07729726821900293,0.0040009298971278385,0.000212119146586535,0.00018541546011838274,0.004010837003286333
8,1791286257.3472872,0.044002613740808834,0.06072078929227946,0.013102165670954858,0.0761243128939064,0.0040009298971278385,0.000212119146586535,0.00018541546011838274,0.004010837003286333
9,1791286257.3672872,0.08232292624080884,0.012820398667279461,-0.039588264016545145,0.09224238426385842,0.0048326145351629615,0.0005840075818167323,0.00031887710616515324,0.00487820773542128
10,1791286257.3923542,0.06795280905330883,-0.03507999195772054,-0.034798224954045144,0.08401848935764983,0.006001174910939584,0.0009383510687200477,0.0003212118222709835,0.006082580050819341
11,1791286257.4123542,0.03442253561580883,-0.02070987477022054,-0.010848029641545144,0.04161117179705093,0.0069472313122490425,0.0010949747885108988,0.0002543258619554953,0.007037590094444791
12,1791286257.4376893,0.05358269186580883,0.00803035960477946,0.008312126608454857,0.05481498875055319,0.0081331110600091,0.0012395253372686859,0.0001774884160005303,0.00822893800644942
13,1791286257.4576893,0.06795280905330883,0.02240047679227946,-0.010848029641545144,0.07236743304733659,0.009111146445506379,0.0013821658194630292,0.00012212618546689552,0.009216196976472028
14,1791286257.4672458,0.07274284811580883,0.02240047679227946,-0.025218146829045145,0.08018265549364378,0.00960922063518575,0.0014722103089555647,7.379058235423859e-05,0.009721623807755514
15,1791286257.4872458,0.08232292624080884,-0.02070987477022054,-0.020428107766545144,0.08731134339116225,0.010727836432732977,0.0016349251193009168,-8.066227694809222e-05,0.010852002629750722
16,1791286257.5125952,0.02963249655330883,0.00324032054227946,0.008312126608454857,0.030946340299840967,0.012145826763954252,0.0017770126821729636,-0.0002700969503128176,0.01227810385259708
17,1791286257.5325952,0.02963249655330883,0.03677059397977946,0.017892204733454858,0.05050042003618899,0.01318566711049481,0.0019323167867957096,-0.0003578305428758062,0.013331305562874622
18,1791286257.557166,0.03442253561580883,0.03198055491727946,-0.020428107766545144,0.05123450436922696,0.014389578994280932,0.0022211916237285237,-0.0004541209675393041,0.014567082814178399
19,1791286257.577166,0.02963249655330883,0.02240047679227946,-0.015638068704045143,0.04030403708433867,0.015318616189407587,0.002502627940336945,-0.000574840974562567,0.015532340155693583
20,1791286257.5884402,0.03442253561580883,-0.015919835707720542,-0.006057990579045143,0.038406397605584425,0.015817926273275645,0.002642957815548673,-0.00065102919180562,0.01605041608838029
21,1791286257.6084402,0.05837273092830883,-0.0015497185202205403,-0.030008185891545143,0.06565263562129235,0.01671001850195502,0.0028283540574495195,-0.0008200110591976813,0.016967519652181833
22,1791286257.6472862,0.08711296530330884,0.017610437729779462,-0.015638068704045143,0.090240486666254,0.018606690111414127,0.0031812274489878985,-0.001231981033529955,0.018916841762074553
23,1791286257.6672862,0.04879265280330883,0.06072078929227946,0.02747228285845486,0.08259820546063089,0.019640579065174555,0.0034531503597040303,-0.001394518047524594,0.01999052960796609
24,1791286257.6760929,0.044002613740808834,0.08467098460477947,0.04184240004595486,0.10419305203117597,0.020088840087013584,0.0036509588085322825,-0.0014095707192029819,0.020466506440417177
25,1791286257.6960928,0.044002613740808834,0.017610437729779462,0.0035220875459548574,0.047526441416738,0.02108614642344619,0.004186219433643617,-0.0013705809088996736,0.021541320669018146
26,1791286257.7084336,0.08711296530330884,-0.03987003102022054,-0.030008185891545143,0.10039312385811275,0.021730572642481724,0.00444635241017933,-0.0013746458256688689,0.02222335456837494
27,1791286257.7284336,0.08232292624080884,-0.011129796645220541,-0.006057990579045143,0.08329247149694512,0.022872452269343733,0.004728197588900847,-0.0014343446440227949,0.02340004850018333
28,1791286257.7521868,0.03921257467830883,0.00324032054227946,0.02747228285845486,0.04798804033895965,0.024241705743731523,0.004998668260794151,-0.0014564619362866305,0.024794520828582037
29,1791286257.7721868,0.02963249655330883,0.03198055491727946,0.0035220875459548574,0.04374066580975143,0.025324938898395724,0.0052450735927877575,-0.0014257996246606647,0.025901664652506776
30,1791286257.8117156,0.04879265280330883,0.02240047679227946,-0.010848029641545144,0.05477393609381686,0.02737725049971013,0.0058202504883602055,-0.0013960065814879858,0.0280238825833733
31,1791286257.8317156,0.04879265280330883,0.03198055491727946,-0.0012679515165451428,0.05835311955199719,0.028406256242837862,0.006149185559803136,-0.001401367583007321,0.029097967418453136
32,1791286257.8569126,0.06316276999080883,-0.02549991383272054,-0.020428107766545144,0.07111321048377421,0.029719763323177856,0.006513680792686237,-0.0014481092620209554,0.03045963541951
33,1791286257.8769126,0.04879265280330883,0.02719051585477946,-0.025218146829045145,0.06128623050510232,0.030773895974557312,0.006762135091921193,-0.0015481143514195171,0.031546090130146684
34,1791286257.871662,0.044002613740808834,0.02240047679227946,-0.006057990579045143,0.04974646345621032,0.030773895974557312,0.006762135091921193,-0.0015481143514195171,0.031546090130146684
35,1791286257.891662,0.01047234030330883,0.05114071116727946,0.02268224379595486,0.056916837875470035,0.03173553302032886,0.0071151834551818624,-0.001635308709631371,0.03256446109274762
36,1791286257.9167545,0.005682301240808829,0.05593075022977946,0.03226232192095486,0.06481816708599987,0.03279146010369364,0.00769318976437357,-0.001624893305842418,0.03372099201889182
37,1791286257.9367545,0.02484245749080883,0.02240047679227946,0.013102165670954858,0.03592486325615231,0.03355262711202075,0.008202279918398113,-0.0015497903086769851,0.0345753963387108
38,1791286257.961591,0.08711296530330884,0.00324032054227946,-0.020428107766545144,0.08953477530029207,0.0345646238686212,0.008787414201654188,-0.0014841613713174322,0.035695022153051016
39,1791286257.981591,0.06316276999080883,-0.011129796645220541,-0.006057990579045143,0.06442132516590747,0.03548272344803956,0.00917608962049252,-0.0014789691327591347,0.036679853240014756
40,1791286257.9919198,0.044002613740808834,0.017610437729779462,-0.006057990579045143,0.0477813434607385,0.035968760986750906,0.009351727964419429,-0.0014860756179621236,0.037194287243941374
41,1791286258.0119197,0.05837273092830883,0.00324032054227946,-0.010848029641545144,0.059460534309315645,0.03692228653738694,0.009672084871613739,-0.0015231310929947057,0.0381984868448876
42,1791286258.0371547,0.07274284811580883,-0.015919835707720542,-0.025218146829045145,0.0786188148629304,0.03819308123047713,0.0099916656210029,-0.0016311321451463316,0.039512092172329795
43,1791286258.0571547,0.05837273092830883,0.00803035960477946,0.008312126608454857,0.05950591432929839,0.03924584882566876,0.01019512291716389,-0.0017292480631498869,0.04058531113848007
44,1791286258.0819032,0.04879265280330883,0.02240047679227946,0.02268224379595486,0.05828368992887139,0.0405520797349889,0.010465606307758961,-0.001774917892403971,0.0419183780667463
45,1791286258.1019032,0.08232292624080884,0.08467098460477947,-0.006057990579045143,0.1182494780903842,0.041646013237470386,0.01081201052256825,-0.0017813525025388698,0.04306347880575821
46,1791286258.1118412,0.11585319967830883,0.06551082835477946,-0.015638068704045143,0.13400814042521414,0.04225576357750958,0.01107025773500368,-0.0018002414201302175,0.0437188864337662
47,1791286258.1318412,0.12543327780330885,0.041560633042279464,-0.020428107766545144,0.1337090160994338,0.04366073422368944,0.011672623448044176,-0.0018866520882704356,0.045233497623040964
48,1791286258.1572976,0.12064323874080883,-0.006339757582720541,0.008312126608454857,0.1210953138186381,0.04565058809811576,0.012391567285133938,-0.002003271945452886,0.04734490713871206
49,1791286258.1772976,0.09190300436580884,0.00803035960477946,-0.0012679515165451428,0.09226189130888365,0.047298245709971556,0.01287421898680501,-0.002070585261867425,0.04906278513382334
50,1791286258.2023723,0.09190300436580884,0.02719051585477946,0.0035220875459548574,0.09590563833577388,0.049399782245927226,0.01345480614723101,-0.002138080352933227,0.051243942881087814
51,1791286258.2223723,0.06795280905330883,-0.006339757582720541,-0.030008185891545143,0.07455379269322683,0.05106435079958284,0.01387970468265385,-0.0022235693129758344,0.05296374595088746
52,1791286258.232433,0.044002613740808834,-0.0015497185202205403,-0.034798224954045144,0.05612083484292677,0.05186057042969426,0.014055431364644471,-0.002309023275982397,0.053781088726694064
53,1791286258.252433,0.015262379365808829,0.00324032054227946,0.008312126608454857,0.017678556215866968,0.053294861642523124,0.014354897384663974,-0.0024931462542706587,0.055250530627905275
54,1791286258.2775233,0.02005241842830883,0.041560633042279464,0.017892204733454858,0.04949259231362665,0.05489075113942281,0.01475853348786474,-0.0026401726508906006,0.056901488407501095
55,1791286258.2975233,0.03442253561580883,0.05114071116727946,0.0035220875459548574,0.061746970756451684,0.056053765218077804,0.01517107073237811,-0.0027076696043199684,0.05813361727070119
56,1791286258.3224492,0.05358269186580883,0.012820398667279461,-0.044378303079045146,0.07074532686863341,0.05745032958595291,0.015727665459339478,-0.002855551246422117,0.059632658864555585
57,1791286258.3424492,0.07753288717830883,0.012820398667279461,-0.020428107766545144,0.0811974063816938,0.05859948699681543,0.016145735115089297,-0.003053618943963104,0.060859750470664095
58,1791286258.3520906,0.06316276999080883,0.08946102366727947,0.04184240004595486,0.11723308709624207,0.05917210387494236,0.016391003726387913,-0.0031192944210186807,0.06147953218617095
59,1791286258.3720906,0.07753288717830883,0.09904110179227947,0.03705236098345486,0.13112347575045927,0.06039280018059134,0.017106220660311068,-0.0031167531071899252,0.06284605993109882
60,1791286258.397682,0.10148308249080884,0.03198055491727946,-0.010848029641545144,0.10695443736356748,0.062064066324981536,0.01813559201821487,-0.0030636937246359087,0.06473201870698317
61,1791286258.417682,0.11106316061580883,-0.030289952895220542,-0.025218146829045145,0.1178493182918718,0.0634930836100794,0.018821924606579915,-0.003082546347909261,0.06629584153021455
62,1791286258.441779,0.09669304342830884,0.02240047679227946,0.017892204733454858,0.1008536414720566,0.06533204374324177,0.019510554492570845,-0.0031150937077941785,0.06825424151717438
63,1791286258.4617789,0.07753288717830883,0.06072078929227946,0.02747228285845486,0.10224035001865321,0.06689073628594097,0.02012105249544734,-0.003070008628879741,0.06991889807041615
64,1791286258.5018616,0.07753288717830883,0.02719051585477946,-0.015638068704045143,0.08363744340572478,0.0700121531365955,0.021425324800795682,-0.002957629433867837,0.07327682922663734
65,1791286258.5218616,0.09190300436580884,0.012820398667279461,-0.06353845932904514,0.11246181862018141,0.07159017076738669,0.022038512729589056,-0.0030287315344816193,0.07496680471077723
66,1791286258.5324247,0.13022331686580885,0.02240047679227946,-0.010848029641545144,0.13258044110334732,0.07247457229299908,0.02234169665308056,-0.003119583251797684,0.07590419512817667
67,1791286258.5524247,0.06795280905330883,0.05593075022977946,0.02268224379595486,0.09088628754174392,0.07419516472611037,0.02294712823349779,-0.0032480458981768916,0.0777305793433698
68,1791286258.5616956,0.05358269186580883,0.041560633042279464,0.017892204733454858,0.07013217575895597,0.07495760788011338,0.023253464203607768,-0.003270449822719241,0.07854974486667814
69,1791286258.5816956,0.07753288717830883,-0.015919835707720542,-0.034798224954045144,0.0864621664262324,0.07655236670993275,0.023853651074910314,-0.0033368907183357333,0.08025208008619904
70,1791286258.607811,0.11106316061580883,-0.011129796645220541,-0.04916834214154515,0.12196894640967001,0.07869179442362524,0.02446682133227273,-0.003575095533609474,0.08248518148000819
71,1791286258.627811,0.11585319967830883,0.017610437729779462,-0.015638068704045143,0.11822284290918136,0.08042484162562147,0.024875689050785615,-0.0038273658752034706,0.08427101391226015
72,1791286258.6375039,0.09190300436580884,0.05114071116727946,0.0035220875459548574,0.10523278790775406,0.08128980073117106,0.025094101568618674,-0.003940096309879306,0.08516613173897693
73,1791286258.6575038,0.10148308249080884,0.012820398667279461,-0.006057990579045143,0.10246891188882652,0.08309689509579551,0.02557310769974581,-0.004141613343847288,0.08704154624703295
74,1791286258.6817899,0.10148308249080884,0.02719051585477946,-0.015638068704045143,0.10622000459931152,0.08533179399899755,0.0261403953657861,-0.004389128966896206,0.08935379001505764
75,1791286258.7017899,0.13980339499080885,0.03198055491727946,-0.006057990579045143,0.14354248288792082,0.08725813066205601,0.026626247684403612,-0.004594931531031195,0.0913457816659451
76,1791286258.7270849,0.13022331686580885,0.041560633042279464,0.013102165670954858,0.13732102977940785,0.08984129316875279,0.027288074971741974,-0.00480281369277627,0.09401682835144311
77,1791286258.7470849,0.12064323874080883,0.02719051585477946,-0.039588264016545145,0.12985124510055532,0.09195365461163729,0.02783599482216656,-0.00498225384031659,0.09620363848371494
78,1791286258.7572274,0.09669304342830884,0.012820398667279461,-0.010848029641545144,0.09814064915477501,0.09302953394625854,0.028102616828705435,-0.005097969708309804,0.09731516096696317
79,1791286258.7772274,0.10148308249080884,0.00324032054227946,-0.0012679515165451428,0.10154271716918618,0.09513008248962694,0.028573593843841456,-0.005310095382399593,0.09947049800119742
80,1791286258.801974,0.10148308249080884,0.05114071116727946,0.0035220875459548574,0.11369517787141539,0.09771600564909433,0.029169867490195855,-0.005529011470325616,0.10212672959244515
81,1791286258.821974,0.13980339499080885,0.012820398667279461,-0.025218146829045145,0.14263697557938956,0.0998543629562953,0.02967542570619227,-0.005711942307047047,0.10432713442422507
82,1791286258.8469317,0.13980339499080885,0.03677059397977946,-0.034798224954045144,0.14868753240448318,0.10264589637990662,0.03030449765124055,-0.006018317407778662,0.10719497546969887
83,1791286258.8669317,0.10627312155330883,0.07509090647977947,-0.010848029641545144,0.13057679865789015,0.10491647227440316,0.030900784008293727,-0.006295475054953238,0.10955344637664471
84,1791286258.8763602,0.10627312155330883,0.05114071116727946,-0.006057990579045143,0.11809338657704442,0.10597661799295074,0.031228986037485456,-0.006418490243720917,0.11066837916569491
85,1791286258.8963602,0.13980339499080885,0.00803035960477946,-0.034798224954045144,0.14429273157817243,0.10825721970104396,0.03190950461098016,-0.006701576063883535,0.11306083859435274
86,1791286258.9225726,0.16854362936580883,-0.006339757582720541,-0.044378303079045146,0.1744035014275298,0.11140406913249885,0.03267094656813805,-0.007172598090885231,0.1163172538031658
87,1791286258.9425726,0.16375359030330883,-0.02070987477022054,-0.015638068704045143,0.1657971243508601,0.11394339130186971,0.03312420234317583,-0.007568102044741946,0.11890157850424982
88,1791286258.9666188,0.10148308249080884,0.02719051585477946,0.017892204733454858,0.10657519023914144,0.1170168311848683,0.033599100909555535,-0.007968227490727578,0.12200545484453738
89,1791286258.9866188,0.07753288717830883,0.02719051585477946,-0.006057990579045143,0.08238550841324692,0.11945819158596005,0.03401641248629476,-0.008233353772389804,0.12447957249993676
90,1791286258.997301,0.12064323874080883,-0.03507999195772054,-0.04916834214154515,0.1349182076614331,0.12072534330538967,0.03419955111439612,-0.008397967126334841,0.12575668437298032
91,1791286259.017301,0.13022331686580885,-0.030289952895220542,-0.039588264016545145,0.139437527766994,0.12311819998929853,0.03439294483238509,-0.008793069154172727,0.12813385145229364
92,1791286259.0419364,0.07753288717830883,0.017610437729779462,-0.006057990579045143,0.0797381675303277,0.12600738590814153,0.0345720011306729,-0.009291079960836397,0.13099392631882292
93,1791286259.0619364,0.08232292624080884,0.07988094554227947,0.0035220875459548574,0.11476251455183281,0.12824089726125704,0.034841798660947006,-0.009638543945977776,0.1332388088872788
94,1791286259.0867734,0.09669304342830884,0.03677059397977946,-0.010848029641545144,0.10401586886700727,0.13093200099374716,0.03534388570246236,-0.010018964566295495,0.13598808327113085
95,1791286259.1067734,0.10148308249080884,0.05114071116727946,-0.025218146829045145,0.1164050827929034,0.13307122199541496,0.03581941182109782,-0.010333447075936957,0.13819464720108954
96,1791286259.1168349,0.08711296530330884,0.017610437729779462,-0.006057990579045143,0.08908139811894361,0.13412830037561854,0.0360746340604956,-0.010491525652278672,0.13929053196381744
97,1791286259.1368349,0.07274284811580883,0.02719051585477946,-0.0012679515165451428,0.07766887282236659,0.13615413077239363,0.03657306067874512,-0.010769605205323742,0.14139137346413952
98,1791286259.1624217,0.11106316061580883,0.041560633042279464,-0.010848029641545144,0.11907976995254821,0.13870982976694923,0.03724700502673296,-0.011095251287304726,0.14405159096159245
99,1791286259.1824217,0.16375359030330883,0.017610437729779462,-0.006057990579045143,0.1648091778515813,0.1408200693995061,0.037783532411178274,-0.011336970631770742,0.1462409456009291
100,1791286259.2071402,0.14938347311580882,-0.006339757582720541,0.0035220875459548574,0.14955941851662372,0.14361747823734972,0.03836806953272905,-0.011595607327486506,0.14910582458179564
101,1791286259.2271402,0.11106316061580883,0.06072078929227946,0.017892204733454858,0.12783650061103133,0.14593204532500273,0.03885165214124553,-0.011741361419361176,0.15147102790574526
102,1791286259.2519784,0.11106316061580883,0.046350672104779465,0.017892204733454858,0.121669804967221,0.1487891514673504,0.03956159373335015,-0.011828561518888435,0.1544125842044712
103,1791286259.2719784,0.12064323874080883,-0.006339757582720541,-0.006057990579045143,0.12096149317007979,0.15109219624523515,0.040107514465639656,-0.011870492467406447,0.15677491213277364
104,1791286259.2823918,0.11106316061580883,-0.015919835707720542,-0.015638068704045143,0.11328290253928966,0.15229241940379618,0.04033173788620026,-0.01190599460303146,0.15799171749262786
105,1791286259.3023918,0.07753288717830883,0.00803035960477946,-0.006057990579045143,0.07818269961725702,0.1545346884351601,0.0406859504580319,-0.011996496220428844,0.16025053015822505
106,1791286259.3270705,0.06316276999080883,0.03198055491727946,0.013102165670954858,0.0719997093813447,0.15714689747717248,0.041131521239002634,-0.01207838039957297,0.16288903185669767
107,1791286259.3470705,0.04879265280330883,0.00803035960477946,-0.0012679515165451428,0.049465314554894155,0.15911425661818446,0.041498470004062975,-0.012117035199163018,0.16488266195647536
108,1791286259.372101,0.02963249655330883,0.00324032054227946,-0.030008185891545143,0.042297467414729534,0.16135436455131866,0.041909989260405366,-0.012216870821519786,0.16715540700867812
109,1791286259.392101,0.015262379365808829,-0.059030187270220545,-0.010848029641545144,0.06192885418096331,0.16294311575042567,0.04210579512636069,-0.012345960216243517,0.16874768053914324
110,1791286259.4020288,-0.003897776884191171,-0.015919835707720542,0.0035220875459548574,0.016764215886259617,0.1636219190350649,0.04213260506900822,-0.012405881632734489,0.16941426946306432
111,1791286259.4220288,0.05837273092830883,0.00324032054227946,0.008312126608454857,0.059050544806974,0.1648659939839043,0.04215949436438843,-0.01249073798338376,0.17062894676089171
112,1791286259.4472945,0.09190300436580884,-0.0015497185202205403,-0.025218146829045145,0.09531274189973277,0.16648663451339202,0.04219157146913134,-0.012613891813721653,0.17221219016468858
113,1791286259.4672945,0.09190300436580884,-0.04945010914522054,-0.039588264016545145,0.11161857441205646,0.1678527887938638,0.04213665483202368,-0.012793965205852458,0.17353311479945008
114,1791286259.491817,0.03442253561580883,-0.03507999195772054,-0.025218146829045145,0.055240127837167835,0.16950894393626553,0.04192395323712932,-0.013100830677819754,0.17510720057686355
115,1791286259.511817,0.05358269186580883,0.012820398667279461,-0.006057990579045143,0.05542712999452521,0.1707890630291093,0.04174311083260282,-0.013360475960033282,0.17632326468796639
116,1791286259.5224407,0.16375359030330883,0.041560633042279464,0.017892204733454858,0.16989012786599106,0.17154021482919032,0.041704788704044454,-0.013468278497312549,0.17705007548762844
117,1791286259.5424407,0.15417351217830882,0.06072078929227946,0.02747228285845486,0.167961937459436,0.1732190945681929,0.04179688780326705,-0.013572736938561139,0.17870661359073098
118,1791286259.5673797,0.09669304342830884,0.02240047679227946,0.02268224379595486,0.10181262294808735,0.17546778599854318,0.042049977127528754,-0.013589643089765702,0.18094701682803024
119,1791286259.5873797,0.10148308249080884,0.02240047679227946,-0.015638068704045143,0.10509589233243229,0.17729789506871907,0.042289699606193415,-0.013590601100506977,0.18277764285287654
120,1791286259.6122587,0.12543327780330885,0.02719051585477946,-0.020428107766545144,0.12996206723445364,0.17965638335847275,0.04263570498578954,-0.013658910783243614,0.18515070959860352
121,1791286259.6322587,0.14459343405330882,0.017610437729779462,-0.039588264016545145,0.15094574964604565,0.18167299492664296,0.0429393342982389,-0.013795611748970597,0.18718755946675594
122,1791286259.642398,0.12064323874080883,-0.03987003102022054,-0.034798224954045144,0.13173961775934176,0.182743710540097,0.04305324904764748,-0.013911087921977393,0.18826142558340117
123,1791286259.662398,0.09669304342830884,-0.04466007008272054,-0.039588264016545145,0.11362788898446548,0.18486489294575362,0.043117445240779914,-0.014216276679748683,0.19035820247778074
124,1791286259.6870294,0.11585319967830883,-0.0015497185202205403,-0.010848029641545144,0.11637029367625508,0.187478055692277,0.04309928231247357,-0.014628930529476914,0.19292375465567496
125,1791286259.7070293,0.11585319967830883,0.00324032054227946,-0.044378303079045146,0.12410438081346849,0.18962916544945874,0.043089282538345756,-0.014996575040132477,0.19504051866640917
126,1791286259.731859,0.08711296530330884,-0.02070987477022054,-0.07311853745404515,0.11560228439071743,0.19227711382782853,0.04304619798810126,-0.015603340824926872,0.1976535552629635
127,1791286259.751859,0.06795280905330883,-0.06861026539522054,-0.034798224954045144,0.1026443823878851,0.19432267068066184,0.04288271940842045,-0.016180647301922684,0.199654805380275
128,1791286259.762696,0.06795280905330883,-0.030289952895220542,-0.010848029641545144,0.07518474081709647,0.1953752670867557,0.04272704085169807,-0.016483641360896913,0.200670888376163
129,1791286259.782696,0.08711296530330884,0.02240047679227946,-0.020428107766545144,0.09223750685799417,0.1972590598504729,0.04247099571694616,-0.01700585837100416,0.20249474410269508
130,1791286259.806648,0.13980339499080885,0.02719051585477946,-0.04916834214154515,0.15067129544924335,0.1995843206187234,0.042299436969953946,-0.017662478168147148,0.20478063028483126
131,1791286259.826648,0.14938347311580882,0.012820398667279461,-0.020428107766545144,0.1513178517196538,0.20166845886244336,0.042237689129968295,-0.01823290992226132,0.2068492897914473
132,1791286259.8523777,0.12543327780330885,0.03198055491727946,0.013102165670954858,0.13010737803279385,0.2044778083975362,0.04225662064608413,-0.018870820614534923,0.20964947885972088
133,1791286259.8723776,0.11585319967830883,0.012820398667279461,0.03705236098345486,0.12230782457446591,0.20669591867294587,0.042336330359328336,-0.019217066405911434,0.21186048075466185
134,1791286259.8970363,0.13022331686580885,0.00324032054227946,-0.006057990579045143,0.13040441396902705,0.20947558107949105,0.04244956844223765,-0.01952260920913942,0.21462319818662526
135,1791286259.9170363,0.15417351217830882,-0.006339757582720541,-0.030008185891545143,0.15719464241539635,0.21181850784958856,0.04252298695639311,-0.019787353221943266,0.21694889728885403
136,1791286259.9276547,0.12543327780330885,-0.030289952895220542,-0.039588264016545145,0.1349748831254186,0.21309850860919127,0.04252694829106839,-0.01996225355911282,0.21821550648285995
137,1791286259.9476547,0.11106316061580883,-0.06382022633272054,-0.015638068704045143,0.12904493840490242,0.21550251583714747,0.042392125197009446,-0.020325105917450657,0.2205709331290379
138,1791286259.9718978,0.03921257467830883,-0.011129796645220541,-0.0012679515165451428,0.040781197717995224,0.21825268125742242,0.04211693579651613,-0.02072970392810731,0.22324379001864503
139,1791286259.9918978,0.05837273092830883,-0.03987003102022054,-0.04916834214154515,0.08610761266305166,0.2203275556782083,0.04184746525435369,-0.021089074280568467,0.22525583498182605
140,1791286260.0174692,0.07274284811580883,-0.02070987477022054,-0.04916834214154515,0.0902105688594518,0.22283395459236932,0.041438425950673215,-0.021668227066873432,0.22768756340381247
141,1791286260.0374691,0.11585319967830883,0.012820398667279461,-0.020428107766545144,0.11833695147590909,0.22478311736714277,0.041154659974870826,-0.022157645874720182,0.22959119574070652
142,1791286260.0620635,0.10627312155330883,0.00803035960477946,-0.006057990579045143,0.10674812546327091,0.2272302256012527,0.04089651176901667,-0.022718070851401234,0.2319961440301946
143,1791286260.0820634,0.09669304342830884,-0.030289952895220542,-0.010848029641545144,0.10190537591769798,0.2292261554526327,0.0406846861848501,-0.0231308046894024,0.23395492762310766
144,1791286260.092615,0.11585319967830883,-0.0015497185202205403,0.008312126608454857,0.11616134017799983,0.23028940494746655,0.04056449911160238,-0.023317896691056987,0.23499449552133816
145,1791286260.1126149,0.12543327780330885,0.012820398667279461,0.008312126608454857,0.126360441797364,0.23236438983766652,0.040387765588800056,-0.023594393806252348,0.2370254768858644
146,1791286260.1372027,0.07753288717830883,0.00324032054227946,0.008312126608454857,0.07804447270739977,0.23490700679079063,0.04023269904307767,-0.023852672647555483,0.23951810349977903
147,1791286260.1572027,0.10148308249080884,-0.08777042164522054,-0.034798224954045144,0.13861233497625108,0.23693348868593733,0.03999869143958326,-0.024070975020276296,0.2414886854827674
148,1791286260.167575,0.09190300436580884,-0.12609073414522054,-0.04916834214154515,0.16359266889958918,0.23797723434743528,0.03972917165036809,-0.0242325250946191,0.24248461068723495
149,1791286260.1875749,0.05358269186580883,-0.0015497185202205403,-0.010848029641545144,0.054691738335711844,0.23990616287850458,0.03909596794684475,-0.024587330301679422,0.24431127380485773
150,1791286260.2117627,0.05837273092830883,0.05114071116727946,-0.015638068704045143,0.07916626331661916,0.24209216456285929,0.03853500783321849,-0.02500011192797344,0.24641138075959063
151,1791286260.2317626,0.07753288717830883,-0.006339757582720541,-0.034798224954045144,0.08522005386271683,0.24383241668723424,0.038207947979037024,-0.025365882801597222,0.24810788525681765
152,1791286260.2573636,0.10627312155330883,-0.02070987477022054,0.008312126608454857,0.10859082247794954,0.2460788002064655,0.03780015672604877,-0.025814711157599396,0.2502998742942507
153,1791286260.2773635,0.09190300436580884,0.06072078929227946,0.05142247817095486,0.1215625259896388,0.24786774870934855,0.03758938404759027,-0.026023148535259763,0.2520487788167326
154,1791286260.2869997,0.09190300436580884,0.03677059397977946,0.03705236098345486,0.10569350144420384,0.24873322879482312,0.037573522983484625,-0.026044569573611297,0.2528997990121047
155,1791286260.3069997,0.11106316061580883,0.00324032054227946,-0.030008185891545143,0.11509134000302193,0.25056454548291984,0.037605557432974085,-0.02607179401406758,0.25470867249863893
156,1791286260.3318918,0.13022331686580885,-0.054240148207720544,-0.020428107766545144,0.14253916486373117,0.25295238209431004,0.037544235225453686,-0.02619475501919636,0.25706155371110195
157,1791286260.3518918,0.07753288717830883,-0.03987003102022054,0.013102165670954858,0.08816254711058921,0.2548947823757289,0.03736119026273263,-0.02628971979317639,0.2589562858611894
158,1791286260.376994,0.08711296530330884,-0.03987003102022054,0.0035220875459548574,0.09586810313222124,0.25727698861591003,0.03701578676988042,-0.026359734370481357,0.2612593595214278
159,1791286260.3969939,0.12064323874080883,-0.006339757582720541,0.0035220875459548574,0.12086103044720754,0.2592019300898191,0.036712553685370825,-0.026396584264483283,0.2631163845548595
160,1791286260.4073114,0.10627312155330883,-0.011129796645220541,0.017892204733454858,0.10834195737696536,0.2602216027423613,0.03656606867798352,-0.026396172078499522,0.26410058275733517
161,1791286260.4273114,0.08232292624080884,0.00324032054227946,0.008312126608454857,0.08280492322815929,0.26218458484262247,0.03631287491115812,-0.02635618647077078,0.26599629692665605
162,1791286260.452222,0.08711296530330884,-0.015919835707720542,0.008312126608454857,0.08894493432259809,0.2645793616829066,0.03602112817788024,-0.026282794377894284,0.26831053945764455
163,1791286260.472222,0.03921257467830883,-0.006339757582720541,0.02268224379595486,0.04574169566958294,0.2664031349353034,0.035788639956837356,-0.026186217362403903,0.27006883387956604
164,1791286260.4963772,0.03442253561580883,-0.03507999195772054,0.04184240004595486,0.06454690725031749,0.26840881036950975,0.03547493135662828,-0.025970176801607448,0.27198568036174203
165,1791286260.5163772,0.0008922621783088289,-0.08298038258272054,0.03705236098345486,0.09088133735711508,0.2698733433666289,0.03507705809370051,-0.025699789036790717,0.273354167008529
166,1791286260.5270882,0.0008922621783088289,-0.03987003102022054,0.03705236098345486,0.05443613652525716,0.270541455777301,0.03479725142467263,-0.025517174274215505,0.2739610450114284
167,1791286260.5470881,0.03442253561580883,-0.054240148207720544,0.04663243910845486,0.07938191867812763,0.2716548282802773,0.034211988730025435,-0.025101808603308316,0.274948916520883
168,1791286260.5720005,0.02005241842830883,-0.08298038258272054,0.013102165670954858,0.08636845560543385,0.2729354230480587,0.03333594000316218,-0.02455041958176181,0.2760575178327114
169,1791286260.5920005,0.06795280905330883,-0.11172061695772055,0.008312126608454857,0.13102737103523124,0.2739412978969573,0.03244608047558433,-0.024142034928285275,0.2769104921850672
170,1791286260.6169562,0.02005241842830883,-0.08777042164522054,0.05142247817095486,0.10368229193958874,0.2751728669780357,0.03112889370880186,-0.02359708971020042,0.2779315336323622
171,1791286260.6369562,-0.056588206571691176,0.05114071116727946,0.19991368910845486,0.2139698122508113,0.2759570144844452,0.03017667485515851,-0.02284886635822342,0.2785407981648976
172,1791286260.6625397,-0.06616828469669117,0.20921200022977948,0.3627750172334549,0.42397360303276094,0.27657407748481355,0.0296408823999647,-0.02095565686147738,0.2789461270577532
173,1791286260.6825397,-0.056588206571691176,0.27148250804227947,0.23344396254595487,0.36249284261221476,0.2767999751197931,0.0300058947434358,-0.01880331045650979,0.2790558088085538
174,1791286260.6921346,0.015262379365808829,0.18047176585477948,-0.07790857651654515,0.1971617224247206,0.27686235380339697,0.030479975864449317,-0.017813691037628872,0.2791041373226826
175,1791286260.7121346,0.05837273092830883,0.06072078929227946,-0.15933924057904514,0.1802314721590349,0.277083327025337,0.0316817269199709,-0.016416184718230833,0.27937142491093203
176,1791286260.7522027,0.015262379365808829,0.02240047679227946,-0.025218146829045145,0.03702264866157738,0.2776809035746904,0.033977975014717166,-0.014590989504234684,0.2801322615674066
177,1791286260.7722027,-0.051798167509191174,-0.015919835707720542,0.02268224379595486,0.05874500412707599,0.27787963777368135,0.03496194061787549,-0.013820405483927172,0.28041118734590526
178,1791286260.7822764,-0.1332288315716912,0.11341121897977946,0.05621251723345486,0.18377125250201407,0.2778249295959765,0.03545686397172946,-0.013430887614221915,0.2804001951672375
179,1791286260.8022764,-0.12843879250919119,0.08946102366727947,0.09453282973345487,0.18285582865807415,0.2773401047940973,0.03659638858889958,-0.012547432130360706,0.2800254764088736
180,1791286260.812718,-0.1571790268841912,0.03677059397977946,0.11848302504595486,0.200238733260894,0.27690128428083755,0.03720092475883955,-0.011988568629023663,0.2796461260540951
181,1791286260.832718,-0.08053840188419117,-0.16920108570772055,0.07058263442095486,0.2002432267631868,0.27583026018595086,0.037986530905606976,-0.010795078867363804,0.2786428586779941
182,1791286260.85696,-0.17154914407169117,-0.09256046070772055,0.14243322035845488,0.24142031807583117,0.2742684556200713,0.038320010389008535,-0.00917813746691767,0.27708454874242694
183,1791286260.87696,-0.24818976907169119,-0.10214053883272055,0.2573941578584549,0.3718636896021996,0.27254362162767015,0.03826181395586463,-0.007444505662920343,0.27531693148385383
184,1791286260.9022365,-0.3008801987591912,-0.16441104664522055,0.2669742359834549,0.43455164128478074,0.269649831132657,0.037693986209919844,-0.004588091684310193,0.272310335117064
185,1791286260.9222364,-0.3104602768841912,-0.11172061695772055,0.19991368910845486,0.3857882357840559,0.2667865651928606,0.03689788923920344,-0.001966642421622112,0.2693332383500549
186,1791286260.9624736,-0.29609015969669117,-0.04466007008272054,0.18075353285845486,0.349765270102419,0.26005970394911615,0.03506457409485184,0.0036650245339047856,0.2624385763933904
187,1791286260.9824736,-0.3344104721966912,-0.12609073414522054,0.24781407973345487,0.4349035010967764,0.2562718931925967,0.03403388288560046,0.0066872226771552065,0.25860840545489294
188,1791286260.977505,-0.25776984719669116,-0.16441104664522055,0.2573941578584549,0.3996599040214637,0.2562718931925967,0.03403388288560046,0.0066872226771552065,0.25860840545489294
189,1791286260.997505,-0.21465949563419118,0.02240047679227946,0.22386388442095487,0.3109590313441393,0.2520715273954067,0.03270580341800808,0.010236787099257029,0.2543904799924443
190,1791286261.0226908,-0.20507941750919118,-0.0015497185202205403,0.20470372817095486,0.2897647070305306,0.24678260181327305,0.03132361488912565,0.014845772709525997,0.24920517325046374
191,1791286261.0426908,-0.19549933938419117,-0.04945010914522054,0.24781407973345487,0.31949510654823576,0.24261180335861304,0.030314162496691537,0.018635532253963694,0.24520750118865178
192,1791286261.0525386,-0.22423957375919118,0.012820398667279461,0.22865392348345487,0.32051578086900706,0.24055616171931538,0.029864616690100994,0.020573595261398358,0.24327440287287913
193,1791286261.0725386,-0.20507941750919118,0.012820398667279461,0.13285314223345487,0.24468732600851995,0.23636361535918401,0.029127045659569698,0.024461452738437507,0.23940448225668992
194,1791286261.0975442,-0.20507941750919118,-0.006339757582720541,0.14722325942095488,0.25253207346126666,0.231138817082914,0.02835535472233215,0.029118487531418224,0.23468503407766636
195,1791286261.1175442,-0.19549933938419117,-0.04945010914522054,0.20470372817095486,0.2873480839003761,0.22698588275948947,0.0277470377419922,0.032812451608086025,0.2310176314831689
196,1791286261.1425152,-0.1571790268841912,-0.03507999195772054,0.19033361098345486,0.2493245591553631,0.2219179977832445,0.026943139731551626,0.03747257672130429,0.22666654919694715
197,1791286261.1625152,-0.1619690659466912,-0.03507999195772054,0.14243322035845488,0.21852186714623664,0.21798911656371064,0.026290615061624348,0.041144287664765106,0.2233904738076055
198,1791286261.172344,-0.18591926125919117,-0.09256046070772055,0.12327306410845486,0.24151533890889018,0.2160914765170804,0.025923947929391688,0.04287391999666573,0.22182369196156262
199,1791286261.192344,-0.19070930032169117,-0.17878116383272055,0.11369298598345487,0.2850593566827883,0.21224436033818936,0.0248827453847699,0.04622095507908519,0.21863942051165722
200,1791286261.2178435,-0.1619690659466912,-0.12609073414522054,0.06579259535845486,0.2155493381222166,0.2074006261729992,0.023171301581230458,0.050191508941536074,0.21464183311681995
201,1791286261.2378435,-0.10927863625919118,0.00324032054227946,0.05621251723345486,0.12293155458874988,0.20376454908030625,0.021846045998858192,0.05302159318091046,0.21168025541161542
202,1791286261.262304,-0.09011848000919118,-0.006339757582720541,0.05142247817095486,0.10395097030146944,0.19961877360671998,0.020462657988197026,0.05616113757915601,0.20837573880463567
203,1791286261.282304,-0.013477855009191173,0.03677059397977946,0.02747228285845486,0.047837803907887805,0.1965820824721292,0.01954685526253914,0.058461449959051746,0.20602023160614194
204,1791286261.3067043,0.015262379365808829,0.16610164866727947,0.07537267348345486,0.18304026284382818,0.19343626624468305,0.018968417581851176,0.061035107147045756,0.20372205150325465
205,1791286261.3267043,0.09669304342830884,0.19484188304227948,0.03705236098345486,0.22064854744443343,0.19141246514036367,0.01910682675648942,0.06299684742667867,0.20241641589928833
206,1791286261.3373535,0.11106316061580883,0.19963192210477948,-0.025218146829045145,0.22983447282492886,0.1906624426042244,0.01948453199730777,0.06389416649527835,0.20202544027693548
207,1791286261.3573534,0.015262379365808829,0.13257137522977946,0.02747228285845486,0.13624549930062205,0.18965462334315422,0.020585790718673204,0.06532999365678992,0.2016448834117616
208,1791286261.3819218,-0.07095832375919117,0.07030086741727946,-0.0012679515165451428,0.09989446116469325,0.18849967757808142,0.02210949229483799,0.06687750387327833,0.2012301136035472
209,1791286261.4019217,0.07274284811580883,-0.06861026539522054,-0.12580896714154516,0.1607071457117717,0.18770319268456143,0.023166349484334766,0.06775768429186647,0.2008986612026177
210,1791286261.4270465,0.005682301240808829,-0.08298038258272054,-0.13059900620404516,0.15483582551351027,0.1870004836603453,0.024009215148493964,0.06821438021826695,0.20049644627726454
211,1791286261.4470465,0.02484245749080883,-0.06382022633272054,-0.05395838120404515,0.0871875902035569,0.18657080238927834,0.024359315872684643,0.06824655489935595,0.20014902655170516
212,1791286261.4569852,0.11106316061580883,-0.02070987477022054,-0.04916834214154515,0.12321302864518513,0.18649061135435452,0.024444187917116125,0.06818327430376314,0.20006305341324368
213,1791286261.4769852,-0.027847972196691172,0.03677059397977946,-0.11622888901654514,0.12504695429763113,0.1864782687974306,0.024613450970060024,0.06782693845384519,0.19995114473881873
214,1791286261.5020707,0.18770378561580883,-0.13567081227022054,-0.18807947495404514,0.29835074884363244,0.1867658641117598,0.02460783609995096,0.06687450878381389,0.19989805781950654
215,1791286261.5220706,0.21165398092830884,-0.15962100758272055,-0.14017908432904516,0.2998773905913105,0.1875597986606477,0.024161093690277753,0.06573667596885778,0.2002092582508803
216,1791286261.5469685,0.10627312155330883,-0.17399112477022055,-0.16412927964154514,0.2617351873538278,0.18899358366575444,0.023065403636493446,0.06396442299064874,0.2008532671386391
217,1791286261.5669684,0.11585319967830883,-0.18836124195772055,-0.21681970932904515,0.30969776831790163,0.19030574721050458,0.021773749150662446,0.06218292304929557,0.20138790800934167
218,1791286261.5775714,0.19249382467830883,-0.31290225758272056,-0.22160974839154515,0.429036800195287,0.1911422461527865,0.020793080824745076,0.06103148466915075,0.20172395146694302
219,1791286261.5975714,0.16854362936580883,-0.5236639763327205,-0.27909021714154514,0.6168648672217523,0.19302498205959126,0.017965901952166262,0.05843430470398836,0.20247465347124052
220,1791286261.6230333,0.09190300436580884,-0.6482049919577205,-0.35573084214154516,0.7450908037689791,0.19555971159225902,0.012668668525644381,0.05441153052499249,0.2033831620718204
221,1791286261.6430333,-0.056588206571691176,-0.6050946403952205,-0.29346033432904517,0.6748782977563708,0.1973050295724201,0.007251952624882174,0.05075188608544725,0.20385686020508928
222,1791286261.6677027,-0.06137824563419118,-0.5524042107077206,-0.28867029526654514,0.6262972460533618,0.19891664753624178,-0.0005688188200244386,0.0458378672893314,0.20413051290667406
223,1791286261.6877027,-0.03742805032169117,-0.6146747185202206,-0.29346033432904517,0.682161884279172,0.1998790233911949,-0.0077088224103604155,0.04157836322520961,0.20430323106417034
224,1791286261.6976492,-0.056588206571691176,-0.6386249138327206,-0.28867029526654514,0.7031177320051917,0.20021571323011572,-0.011662071755475636,0.03934347612359181,0.20437770146315237
225,1791286261.7176492,-0.1619690659466912,-0.7344256950827206,-0.3222005687040452,0.8181859729881655,0.20046332357596902,-0.02047825380602131,0.034607463170264204,0.2044567912424253
226,1791286261.741595,-0.02305793313419117,-0.7487958122702206,-0.3701009593290452,0.8355845599639332,0.20038301950682638,-0.032114233483577,0.028544304092809933,0.20493768759077396
227,1791286261.761595,-0.051798167509191174,-0.8733368278952206,-0.34615076401654515,0.9408616351752442,0.20021372473897547,-0.04280822727323948,0.023165474567169955,0.20604542971891845
228,1791286261.78753,-0.19549933938419117,-0.9930878044577206,-0.27430017807904516,1.048658174409806,0.19954609863937708,-0.05822594983802164,0.016029884654415155,0.20848468509406076
229,1791286261.80753,-0.2529798081341912,-1.0745184685202207,-0.21681970932904515,1.1249886705510346,0.19843576106929037,-0.07143345593958461,0.010615926996836757,0.2111686241007959
230,1791286261.8170836,-0.25776984719669116,-1.0984686638327206,-0.23118982651654515,1.151749727775526,0.19761896409320087,-0.07835311842149005,0.008096680016556501,0.21273932961004735
231,1791286261.8370836,-0.2529798081341912,-1.1607391716452207,-0.28388025620404517,1.2214344877142285,0.19539941625694152,-0.09405490605280291,0.0028412796082361216,0.21687630137008346
232,1791286261.8626676,-0.24818976907169119,-1.3188104607077207,-0.28388025620404517,1.3716585554016145,0.19202441333015963,-0.11588553493638437,-0.003962442022039515,0.2243179294418125
233,1791286261.8826675,-0.2625598862591912,-1.3858710075827205,-0.17849939682904514,1.4217728996570154,0.18901567566455116,-0.13444851759964513,-0.009176931598121801,0.23213691133730863
234,1791286261.9078925,-0.28651008157169117,-1.4481415153952206,-0.18328943589154514,1.4875472741270523,0.1847513588525276,-0.15971073559706045,-0.015451636025233017,0.24470254742986608
235,1791286261.9278924,-0.2913001206341912,-1.4385614372702207,-0.10664881089154515,1.4716279210272676,0.18101076787102968,-0.18106590339162537,-0.020115292021174253,0.25681585704426885
236,1791286261.9379108,-0.4110510971966912,-1.5008319450827206,-0.030008185891545143,1.5563932739214366,0.17889036824382556,-0.19236710164068926,-0.022203665331378658,0.26362827693212015
237,1791286261.9579108,-0.4014710190716912,-1.5870526482077205,-0.11622888901654514,1.6411655132800047,0.17407351229889184,-0.21617575583333318,-0.02596674969634697,0.2787612189383202
238,1791286261.9820204,-0.3487805893841912,-1.5726825310202206,-0.16412927964154514,1.6192333566669763,0.16778125713432535,-0.24628500589828056,-0.03032957747786906,0.29954421651214824
239,1791286262.0020204,-0.3487805893841912,-1.4864618278952206,-0.07311853745404515,1.5285820180285397,0.16229816805530317,-0.27210412922618166,-0.03376173364195815,0.3186239274670949
240,1791286262.0270576,-0.3823108628216912,-1.4673016716452205,-0.0012679515165451428,1.5162906710605897,0.15509084983917168,-0.305124458495291,-0.03755352492128753,0.34433177911702373
241,1791286262.0470576,-0.3871009018841912,-1.6397430778952207,-0.10664881089154515,1.6881879156685804,0.1490430607205687,-0.3322053826496774,-0.04028997542206625,0.3663298135968248
242,1791286262.0722442,-0.4685315659466912,-1.7307538200827206,-0.25993006089154513,1.8117931036888488,0.14095305085401413,-0.36756042321217475,-0.043911615134206,0.3961018268080342
243,1791286262.0922441,-0.5068518784466912,-1.6876434685202206,-0.22160974839154515,1.7759927319969708,0.1340295190884395,-0.39655136140318437,-0.04707839726188249,0.4212282869259197
244,1791286262.1022964,-0.4110510971966912,-1.6589032341452206,-0.12580896714154516,1.7136950840150353,0.13037963308979778,-0.41145985622810854,-0.048693231307248196,0.43436055620535713
245,1791286262.1222963,-0.2817200425091912,-1.5918426872702207,-0.17849939682904514,1.6264044263452406,0.12316790049279315,-0.4415487662797228,-0.05188065194499994,0.46133203526439187
246,1791286262.147102,-0.24339973000919118,-1.6205829216452206,-0.25993006089154513,1.6592456331272318,0.11458800364488317,-0.47924640970707955,-0.056056649053605426,0.49593334199221245
247,1791286262.167102,-0.2913001206341912,-1.7307538200827206,-0.36531092026654516,1.7927120835422556,0.10790595076102698,-0.5101084862831043,-0.05985641806719594,0.5248210673853672
248,1791286262.1919856,-0.2913001206341912,-1.8648749138327205,-0.3317806468290452,1.916427040649967,0.09975205951924063,-0.5494570687140528,-0.06517582057685559,0.5622289847793653
249,1791286262.2119856,-0.22902961282169118,-1.8217645622702205,-0.3509408030790452,1.8693421653508562,0.09340096785559505,-0.5818692952442972,-0.06983402578782501,0.5934411585845656
250,1791286262.2216845,-0.19549933938419117,-1.7068036247702205,-0.30304041245404517,1.7444861985148339,0.09047422466239907,-0.5977964224693085,-0.07222986437232619,0.6089033596167875
251,1791286262.2416844,-0.19549933938419117,-1.8696649528952207,-0.41321131089154517,1.9247365054035455,0.08475778957872768,-0.6310778740356968,-0.07750361945226987,0.6414436662871409
252,1791286262.2675169,-0.30567023782169117,-1.9031952263327205,-0.38447107651654516,1.9655544694826992,0.07751085591576719,-0.6749265264087727,-0.08483901732124492,0.6846396188470553
253,1791286262.2875168,-0.3104602768841912,-1.7547040153952207,-0.19286951401654515,1.7923644759378874,0.07181754607558956,-0.7092696109363772,-0.09053235950042711,0.7186217705016137
254,1791286262.3121936,-0.23381965188419118,-1.6445331169577206,-0.14017908432904516,1.6669765979344913,0.06483927052292389,-0.7515786077150426,-0.09711973047559298,0.7605963296154397
255,1791286262.3321936,-0.23860969094669118,-1.6828534294577207,-0.22639978745404515,1.7146973824586436,0.05932325457759401,-0.7857165845564947,-0.10220767454125673,0.7945540941408161
256,1791286262.3420267,-0.3392005112591912,-1.5774725700827206,-0.06832849839154514,1.6149753805845848,0.05659194787620599,-0.8023875181745617,-0.10455131908487887,0.8111469387288248
257,1791286262.3620267,-0.3823108628216912,-1.6684833122702207,-0.030008185891545143,1.7119867553156405,0.05078765302148114,-0.8360780473077335,-0.10875064176415657,0.8446493881922007
258,1791286262.3871396,-0.4206311753216912,-1.8313446403952207,-0.17849939682904514,1.887489287976263,0.04308042815814245,-0.8786276812786729,-0.11362528670416233,0.8869911112170342
259,1791286262.4071395,-0.42542121438419117,-1.7594940544577207,-0.17370935776654514,1.818509686060499,0.03659399762902489,-0.912817617867019,-0.11745345688243232,0.9210702680493631
260,1791286262.4329166,-0.40626105813419117,-1.5343622185202206,-0.12580896714154516,1.5922133529121745,0.027880055399740297,-0.9566416009698706,-0.12222637753267504,0.9648210909593808
261,1791286262.4529166,-0.4493714096966912,-1.4720917107077207,-0.14496912339154516,1.545964008418077,0.020849767978509043,-0.9900531694909583,-0.12578028273498665,0.99822876675076
262,1791286262.4626555,-0.4589514878216912,-1.5152020622702207,-0.23118982651654515,1.5999757790561782,0.017276443335597035,-1.0060643474921356,-0.12752601409596337,1.0142617172408255
263,1791286262.4826555,-0.4493714096966912,-1.6205829216452206,-0.21202967026654515,1.6950457960935128,0.009676467036971647,-1.0387166746669108,-0.13123814141952564,1.0470192997307424
264,1791286262.5070853,-0.3727307846966912,-1.5822626091452205,-0.08269861557904515,1.6276738810886973,0.00027937502667158345,-1.078486887081553,-0.1356323336827278,1.0869821404225033
265,1791286262.5270853,-0.42542121438419117,-1.4720917107077207,-0.025218146829045145,1.5325381461196963,-0.007457014004169923,-1.1107433447331252,-0.1388519988693203,1.119413356413436
266,1791286262.552227,-0.4589514878216912,-1.5583124138327207,-0.10664881089154515,1.6279889484095047,-0.017391129512715948,-1.150924359239798,-0.1425409403495938,1.1598479433757747
267,1791286262.572227,-0.3823108628216912,-1.6493231560202206,-0.15454920151654514,1.7000923282296667,-0.025370137030001558,-1.182904860233294,-0.1454270753026244,1.1920807801686701
268,1791286262.5823548,-0.28651008157169117,-1.6684833122702207,-0.22639978745404515,1.707975835287391,-0.029312576149533413,-1.1991904167777108,-0.146958720424266,1.2085171692287864
269,1791286262.6023548,-0.2529798081341912,-1.5774725700827206,-0.32699060776654515,1.6307487084939023,-0.03673938903444354,-1.2313954571384982,-0.15035974722675854,1.2410852541844375
270,1791286262.627771,-0.3871009018841912,-1.5391522575827206,-0.3317806468290452,1.6213929745351183,-0.04598186265530314,-1.272123858652743,-0.15528924796361762,1.2823915915116963
271,1791286262.647771,-0.4014710190716912,-1.6301629997702207,-0.17370935776654514,1.687834507867988,-0.05334669384500042,-1.3041196615313604,-0.15934465666078915,1.3149010156446024
272,1791286262.6727967,-0.3200403550091912,-1.6732733513327207,-0.05874842026654514,1.704617527188565,-0.0625341563066528,-1.344350724905827,-0.1640942958699543,1.3557714889305144
273,1791286262.6927967,-0.3104602768841912,-1.5966327263327207,-0.039588264016545145,1.627018400930828,-0.06972092301175313,-1.3765844242553813,-0.1674682169237523,1.3884852494311026
274,1791286262.7164462,-0.40626105813419117,-1.6062128044577206,-0.025218146829045145,1.656986293090483,-0.07821561717631542,-1.4146635205202354,-0.17097430199988742,1.4271029293661082
275,1791286262.7364461,-0.4445813706341912,-1.5678924919577206,-0.06353845932904514,1.6309434684458797,-0.08559813737742519,-1.446797145861624,-0.17362772283855402,1.4596902440360173
276,1791286262.7468307,-0.3631507065716912,-1.5152020622702207,-0.14496912339154516,1.5648424112121837,-0.08948546553232736,-1.4633803786426667,-0.17496118920671472,1.476516575886136
277,1791286262.7668307,-0.30567023782169117,-1.5391522575827206,-0.19286951401654515,1.5810194862015245,-0.09685242425375121,-1.4951093918701093,-0.17765089014991856,1.508738653482801
278,1791286262.791823,-0.3439905503216912,-1.4577215935202206,-0.21202967026654515,1.5126924089183138,-0.1058951271068392,-1.5344284110461714,-0.18126676158184235,1.5487226883548326
279,1791286262.811823,-0.4397913315716912,-1.4673016716452205,-0.22639978745404515,1.5484338780515288,-0.1132217431996367,-1.5655611643326208,-0.1843839600403396,1.5804424592878519
280,1791286262.852545,-0.3727307846966912,-1.4673016716452205,-0.21202967026654515,1.5286788461108531,-0.1283834333317369,-1.6284051269295168,-0.1911179049109119,1.6446007469723212
281,1791286262.872545,-0.22902961282169118,-1.4768817497702207,-0.15933924057904514,1.5030047438188308,-0.13561551790450382,-1.6590564277938205,-0.19448613065768922,1.6759130807767744
282,1791286262.8670692,-0.2625598862591912,-1.4864618278952206,-0.14496912339154516,1.5164176556605218,-0.13561551790450382,-1.6590564277938205,-0.19448613065768922,1.6759130807767744
283,1791286262.8870692,-0.3152503159466912,-1.5726825310202206,-0.12580896714154516,1.6088943412461487,-0.14233418949866,-1.689568964288803,-0.19771383330222767,1.7070421982093003
284,1791286262.9117987,-0.3152503159466912,-1.6157928825827206,-0.13538904526654516,1.6518170584806455,-0.15056493944153035,-1.7275514754268975,-0.20159060981553487,1.745778529826874
285,1791286262.9317987,-0.27693000344669116,-1.6732733513327207,-0.17849939682904514,1.705401996526787,-0.15711133683929396,-1.758595679965714,-0.20472648433855684,1.777429512286529
286,1791286262.957366,-0.3248303940716912,-1.6732733513327207,-0.22639978745404515,1.719481130153001,-0.16537862807255208,-1.7987458145241324,-0.20891037328803475,1.8183729375347044
287,1791286262.977366,-0.3775208237591912,-1.6157928825827206,-0.24076990464154516,1.6766868397998163,-0.1719291697895957,-1.8303756899259696,-0.21239304246839985,1.8506608576898935
288,1791286262.9862432,-0.3583606675091912,-1.6301629997702207,-0.26472009995404516,1.6899498528527874,-0.17489053542535882,-1.8444703001433955,-0.21404355320850996,1.8650662267497529
289,1791286263.0062432,-0.3200403550091912,-1.6253729607077205,-0.22160974839154515,1.6713389754374648,-0.18157915038582326,-1.8763447742079877,-0.21793377490935822,1.8976658899286525
290,1791286263.0323932,-0.3439905503216912,-1.5631024528952207,-0.18807947495404514,1.6115187451148885,-0.19031504358924084,-1.91802268016231,-0.22306077484610057,1.940305884830618
291,1791286263.0523932,-0.39668098000919116,-1.4720917107077207,-0.14496912339154516,1.5314783222012478,-0.19710521273101222,-1.9496700768528679,-0.22689338570766224,1.9726997951890934
292,1791286263.0768304,-0.39668098000919116,-1.4194012810202206,-0.05874842026654514,1.4749600582208013,-0.20561142218723027,-1.9878379755201454,-0.23124723586018642,2.0117781085265998
293,1791286263.0968304,-0.30567023782169117,-1.4098212028952206,-0.04916834214154515,1.4434152709084949,-0.212582380748532,-2.0186336993562977,-0.2344379118173575,2.0432900957227997
294,1791286263.1074505,-0.2913001206341912,-1.5295721794577206,-0.06353845932904514,1.5583593771227626,-0.21620425275175836,-2.0348747686063398,-0.23596781263306094,2.0598884463527343
295,1791286263.1274505,-0.3104602768841912,-1.6014227653952207,-0.06832849839154514,1.6326693605079776,-0.2229045465289055,-2.0655688900047044,-0.23861457729489163,2.091219307656694
296,1791286263.1514678,-0.3344104721966912,-1.5343622185202206,-0.11143884995404515,1.5743304604866755,-0.23090539448428726,-2.102548025540291,-0.24164004461634297,2.1289470195539173
297,1791286263.1714678,-0.29609015969669117,-1.5870526482077205,-0.20723963120404515,1.6276835551156554,-0.23751431620513513,-2.133404768127064,-0.2442595525009348,2.1604378454511575
298,1791286263.1978564,-0.3296204331341912,-1.7355438591452206,-0.20244959214154515,1.7781304660554396,-0.2461647182210196,-2.17458708698132,-0.24800821479250526,2.2024836303517223
299,1791286263.2178564,-0.3679407456341912,-1.7020135857077205,-0.14975916245404516,1.7477581196980416,-0.2527837851796516,-2.206273721256892,-0.25095147512878785,2.2348422803472734
300,1791286263.2414775,-0.30567023782169117,-1.5583124138327207,-0.22160974839154515,1.603397253950902,-0.26062200288313514,-2.243859769091196,-0.254564115389978,2.2732429215939716
301,1791286263.2614775,-0.2625598862591912,-1.5870526482077205,-0.26472009995404516,1.6302608789317303,-0.26711547631884763,-2.275628317133947,-0.25789360996952787,2.305719850609358
302,1791286263.271698,-0.26734992532169116,-1.6110028435202206,-0.17849939682904514,1.6427623623239251,-0.2703422616532816,-2.2918791476418545,-0.25967959726768547,2.3223325470458516
303,1791286263.291698,-0.3296204331341912,-1.5439422966452205,-0.12101892807904514,1.5833676219574186,-0.27660488525972465,-2.323641853663131,-0.26309953847978046,2.3547915181163814
304,1791286263.316943,-0.4014710190716912,-1.5199921013327207,-0.17849939682904514,1.582219012000758,-0.2847083534471458,-2.3635215902640545,-0.26733593198212485,2.3955712585301363
305,1791286263.336943,-0.3296204331341912,-1.5247821403952206,-0.24076990464154516,1.5784740582565495,-0.291261875847878,-2.394943815003312,-0.2708176283603629,2.4277420672665735
306,1791286263.3466966,-0.2913001206341912,-1.5391522575827206,-0.25514002182904516,1.5871174698308896,-0.29443274660874635,-2.410210711589086,-0.27262367767282,2.443384944326659
307,1791286263.3666966,-0.3200403550091912,-1.5199921013327207,-0.24076990464154516,1.5718689398068046,-0.3008763493332667,-2.4414084937573093,-0.2765153520396539,2.475371234964982
308,1791286263.3921769,-0.3200403550091912,-1.5535223747702207,-0.21681970932904515,1.600896119084448,-0.30907741464122923,-2.4810665112840864,-0.2816041579830984,2.5160526193722705
309,1791286263.4121768,-0.3296204331341912,-1.5391522575827206,-0.20244959214154515,1.587017687147763,-0.3155235099895401,-2.512164643644889,-0.28562822226698564,2.5479618842304075
310,1791286263.4365408,-0.26734992532169116,-1.5870526482077205,-0.18328943589154514,1.6198169983248396,-0.3232890969197277,-2.5500783632887014,-0.29049988393064896,2.5868524661572945
311,1791286263.4565408,-0.3008801987591912,-1.6301629997702207,-0.15454920151654514,1.6648861088719002,-0.32955988166329814,-2.581358490242706,-0.2944058446402963,2.618911257012806
312,1791286263.4820101,-0.30567023782169117,-1.5295721794577206,-0.15454920151654514,1.5674536044650293,-0.3375063014005718,-2.6212532705185203,-0.299224276878357,2.659777129678821
313,1791286263.50201,-0.19549933938419117,-1.5343622185202206,-0.15933924057904514,1.554952218851195,-0.3435620480957963,-2.652477717968246,-0.30291126579322325,2.69173330033907
314,1791286263.511716,-0.20507941750919118,-1.5726825310202206,-0.15454920151654514,1.5935097635569975,-0.34635161490047756,-2.667619403978689,-0.30466062439393976,2.7072071996217595
315,1791286263.5317159,-0.27693000344669116,-1.5678924919577206,-0.13538904526654516,1.5979071583557543,-0.3519606427576525,-2.698851403580654,-0.3081595882223493,2.7390942890804277
316,1791286263.5574925,-0.2721399643841912,-1.6014227653952207,-0.14975916245404516,1.6312703149631707,-0.3591668631543901,-2.7391933650501374,-0.31254399154087487,2.780263453950212
317,1791286263.5774925,-0.24339973000919118,-1.6445331169577206,-0.18328943589154514,1.6725213357827948,-0.36469275812665475,-2.770668287042154,-0.3159351289461114,2.8123688538940494
318,1791286263.6010356,-0.26734992532169116,-1.6253729607077205,-0.24555994370404516,1.6654167436174132,-0.3711237256346642,-2.8079353597947936,-0.32008547909397084,2.8503839247444698
319,1791286263.6210356,-0.3296204331341912,-1.6445331169577206,-0.22639978745404515,1.692452559591992,-0.37666284462534494,-2.8397499716459165,-0.3237902972283791,2.8828622853968384
320,1791286263.6471057,-0.26734992532169116,-1.6110028435202206,-0.19765955307904515,1.6449545414154028,-0.3839673151833257,-2.881365374798056,-0.32872431136434327,2.925364420904889
321,1791286263.6671057,-0.2529798081341912,-1.6062128044577206,-0.23118982651654515,1.6423663088398697,-0.38951095899109295,-2.9133280551212852,-0.3325849910659239,2.9580081000925693
322,1791286263.6767156,-0.27693000344669116,-1.5966327263327207,-0.24076990464154516,1.6382601858638755,-0.39215703920619926,-2.9286907765522705,-0.3345019432192573,2.9737028025811143
323,1791286263.6967156,-0.3296204331341912,-1.5439422966452205,-0.16891931870404514,1.5877472032855635,-0.3977477810099349,-2.960578295284949,-0.33850756563595685,3.006295812424892
324,1791286263.7217982,-0.26734992532169116,-1.5008319450827206,-0.16891931870404514,1.5337882012134971,-0.4048305904794208,-3.0002985528774553,-0.34341314331028994,3.04690200045632
325,1791286263.7417982,-0.2625598862591912,-1.5631024528952207,-0.17849939682904514,1.595020064697566,-0.41042590187310335,-3.031815265831745,-0.34725907693457414,3.0791138487513283
326,1791286263.7523627,-0.3296204331341912,-1.5535223747702207,-0.16412927964154514,1.5965650062828416,-0.41340737532937544,-3.048435529691188,-0.3492573590949835,3.096101668153408
327,1791286263.7723627,-0.3487805893841912,-1.5535223747702207,-0.14975916245404516,1.5992208963060188,-0.4192226175618021,-3.0798406103459706,-0.3529437294985371,3.1282159555254405
328,1791286263.7968647,-0.26734992532169116,-1.4673016716452205,-0.24076990464154516,1.510768124221408,-0.4264104822753015,-3.1180951293274535,-0.35750014266800934,3.167356861317886
329,1791286263.8168647,-0.24818976907169119,-1.5152020622702207,-0.33657068589154515,1.5718509081911345,-0.4321708692494099,-3.149110598420956,-0.3615274794301731,3.199120400938064
330,1791286263.8414524,-0.27693000344669116,-1.5966327263327207,-0.26951013901654514,1.642730046184813,-0.4391586903407443,-3.187259446741489,-0.36685360385285737,3.238219372248349
331,1791286263.8614523,-0.28651008157169117,-1.5966327263327207,-0.20244959214154515,1.634720137209165,-0.4448352563225072,-3.218425602344221,-0.3712440458999171,3.270162672514689
332,1791286263.8717508,-0.18591926125919117,-1.5056219841452205,-0.17370935776654514,1.526970357218574,-0.44768470946663647,-3.2344627411302924,-0.37345622228343806,3.286584910330559
333,1791286263.8917508,-0.12843879250919119,-1.5487323357077205,-0.14496912339154516,1.5607960846391251,-0.4528599118570861,-3.2655171866474766,-0.3775859361320507,3.318321222428892
334,1791286263.9173534,-0.1523889878216912,-1.5199921013327207,-0.08269861557904515,1.5298488332975484,-0.45903034835471884,-3.305200404063818,-0.38251668785032344,3.3587762039496267
335,1791286263.9373534,-0.19070930032169117,-1.4864618278952206,-0.11622888901654514,1.503146020072837,-0.4636421341016813,-3.3360595374689166,-0.3860890731686298,3.3901802368711746
336,1791286263.9619343,-0.1619690659466912,-1.5535223747702207,-0.19765955307904515,1.5743999003298867,-0.4691102157990258,-3.373902243814954,-0.390399789958628,3.4286575713223875
337,1791286263.9819343,-0.1619690659466912,-1.6253729607077205,-0.23118982651654515,1.6497029961808807,-0.4733778022238074,-3.4048422823178845,-0.39402431918902775,3.4601000961258737
338,1791286263.9923944,-0.18591926125919117,-1.6636932732077205,-0.21681970932904515,1.688032009583146,-0.4755479066675497,-3.421177178018592,-0.39598709463091686,3.4766945327487977
339,1791286264.0123944,-0.19070930032169117,-1.6397430778952207,-0.18328943589154514,1.6609402204907682,-0.4796397373572322,-3.452680061086962,-0.3997771917588036,3.5086857489564576
340,1791286264.0516696,-0.1619690659466912,-1.6301629997702207,-0.22160974839154515,1.6531110866259568,-0.48750866865728265,-3.5148965152628464,-0.4072962941272973,3.571841609902758
341,1791286264.0716696,-0.09969855813419118,-1.6253729607077205,-0.24555994370404516,1.6468384103626414,-0.49130718188053935,-3.5467097738364104,-0.4112516391396772,3.6041172119520737
342,1791286264.082399,-0.10927863625919118,-1.6205829216452206,-0.20244959214154515,1.636831287466459,-0.4932074532292995,-3.563828515628171,-0.4134157741522804,3.6214692989232082
343,1791286264.1023989,-0.20028937844669117,-1.5295721794577206,-0.19286951401654515,1.5546400022920361,-0.4966826762810696,-3.5956774128960216,-0.4174377006309063,3.653743829613178
344,1791286264.1275396,-0.17154914407169117,-1.5247821403952206,-0.22160974839154515,1.5503227293315816,-0.501097017279598,-3.635466591209236,-0.4225165867286113,3.6940811878714586
345,1791286264.1475396,-0.21944953469669118,-1.5295721794577206,-0.18807947495404514,1.5566383778349502,-0.5046684570574059,-3.6669532446396653,-0.42656542241396234,3.72601588959592
346,1791286264.1566327,-0.2817200425091912,-1.5104120232077207,-0.12580896714154516,1.5416025941905531,-0.5063904440736849,-3.681194617744922,-0.42834417968439453,3.7404683973845874
347,1791286264.1766326,-0.21465949563419118,-1.5391522575827206,-0.18807947495404514,1.5653888526455335,-0.5103543685118376,-3.7123940430691325,-0.432140503063187,3.7721448178538957
348,1791286264.2024946,-0.11885871438419118,-1.5152020622702207,-0.25034998276654513,1.5403375595512179,-0.5153581651964229,-3.752610801097532,-0.4371635744673148,3.812977032948077
349,1791286264.2224946,-0.20028937844669117,-1.5343622185202206,-0.18807947495404514,1.5587678280102668,-0.5191260575979265,-3.78362102599694,-0.441123058693387,3.84445958295237
350,1791286264.2468178,-0.3296204331341912,-1.5678924919577206,-0.14975916245404516,1.6091501803796624,-0.5239877550079767,-3.8213367383462247,-0.4458324275832061,3.8827753204013233
351,1791286264.2668178,-0.19549933938419117,-1.5870526482077205,-0.17849939682904514,1.6089804643161851,-0.5281733705410807,-3.8524294100168297,-0.44961628615779586,3.914375336281598
352,1791286264.2768886,-0.09490851907169118,-1.5535223747702207,-0.30304041245404517,1.5856458896879861,-0.5301842014838423,-3.868109474954348,-0.4515995252141497,3.930306391225537
353,1791286264.2968886,-0.1523889878216912,-1.5774725700827206,-0.29825037339154514,1.612636164235721,-0.5339495242795023,-3.899274647510278,-0.45584926102422074,3.961974686942237
354,1791286264.3224273,-0.18112922219669117,-1.6110028435202206,-0.21202967026654515,1.6349601028884937,-0.5386752082275439,-3.939208381543539,-0.46143929429694536,4.002556667369385
355,1791286264.3424273,-0.1380188706341912,-1.5295721794577206,-0.19765955307904515,1.5484539256127665,-0.5422996109423466,-3.9705013790324024,-0.46577486810387175,4.034342114482064
356,1791286264.3674226,-0.1571790268841912,-1.4960419060202206,-0.22160974839154515,1.5205122530394286,-0.546703215280865,-4.009415971701138,-0.47116654160621646,4.0738555140873345
357,1791286264.3874226,-0.18591926125919117,-1.5774725700827206,-0.18328943589154514,1.598931111205229,-0.5502128701441136,-4.040493083984334,-0.4754409097285034,4.10540651127765
358,1791286264.3974907,-0.19070930032169117,-1.5199921013327207,-0.12101892807904514,1.5366820120950364,-0.5519990416325123,-4.056129854538596,-0.47749969052852764,4.12127386778619
359,1791286264.4174907,-0.21465949563419118,-1.5056219841452205,-0.14975916245404516,1.5282028873635376,-0.5556230208433184,-4.087070748652986,-0.4813820810393718,4.152660948564393
360,1791286264.4574733,-0.20986945657169118,-1.5583124138327207,-0.20244959214154515,1.585360717712261,-0.5630541363514302,-4.148835176789526,-0.48903543862882054,4.215331415780201
361,1791286264.4774733,-0.1571790268841912,-1.5631024528952207,-0.22160974839154515,1.5865388130523252,-0.5667643074292174,-4.179778603253922,-0.49292561991092987,4.246733641183492
362,1791286264.487381,-0.22902961282169118,-1.5295721794577206,-0.21202967026654515,1.5610900668422802,-0.5686135646986185,-4.195106320302252,-0.494885920450946,4.262294041811258
363,1791286264.507381,-0.27693000344669116,-1.5247821403952206,-0.18807947495404514,1.5610972715933507,-0.5725455175489617,-4.225987629429029,-0.4988496293042519,4.293673341837916
364,1791286264.516714,-0.22423957375919118,-1.5822626091452205,-0.15454920151654514,1.605529135963638,-0.5744559715064357,-4.240411849855235,-0.5006617032954146,4.308335462883405
365,1791286264.536714,-0.17633918313419117,-1.5774725700827206,-0.16891931870404514,1.59626092889078,-0.5785366656046642,-4.2714246722258356,-0.5044475364054195,4.339843398203908
366,1791286264.5614667,-0.16675910500919117,-1.5726825310202206,-0.18807947495404514,1.5926433471994361,-0.5834664471837532,-4.3098978587144705,-0.5090929335345596,4.378907199577953
367,1791286264.5814667,-0.18591926125919117,-1.6684833122702207,-0.17370935776654514,1.6877729337819811,-0.5873812156148132,-4.341182810929164,-0.5128260537159028,4.410654764514425
368,1791286264.607438,-0.12843879250919119,-1.7355438591452206,-0.18807947495404514,1.7504236342488333,-0.5923146067623956,-4.3823452606080595,-0.5176513323770243,4.452386941683048
369,1791286264.627438,-0.09011848000919118,-1.7211737419577207,-0.23597986557904516,1.7396111310872362,-0.595871668686281,-4.414473840544435,-0.5214458804340297,4.484924541239878
370,1791286264.6374016,-0.1475989487591912,-1.8073944450827206,-0.24076990464154516,1.8293250877774,-0.5975555429673368,-4.430715447464219,-0.5234089382702907,4.501363006911382
371,1791286264.6574016,-0.1475989487591912,-2.0037860466452204,-0.27430017807904516,2.0278522032187394,-0.6008714060639685,-4.464144031901872,-0.5275309590060789,4.535186577959089
372,1791286264.6819735,-0.1475989487591912,-2.0421063591452207,-0.27909021714154514,2.066367629692326,-0.604878201538123,-4.5065098653200035,-0.532855451122669,4.578039289555481
373,1791286264.7019734,-0.1475989487591912,-2.0037860466452204,-0.27909021714154514,2.028505686388139,-0.6080930860098275,-4.54188935829504,-0.5373764530382368,4.613817247846585
374,1791286264.7268379,-0.1475989487591912,-2.0277362419577205,-0.29346033432904517,2.0541710455675672,-0.612040876105088,-4.586794380490968,-0.5432216853145803,4.65922381114312
375,1791286264.7468379,-0.23381965188419118,-1.9367254997702206,-0.23118982651654515,1.9644403851866326,-0.6153121344516305,-4.623442937122716,-0.5480050849462692,4.696290364613363
376,1791286264.7569716,-0.3104602768841912,-1.8265546013327207,-0.08748865464154515,1.8548157751819263,-0.6171346841988138,-4.642087111010179,-0.5503074264707404,4.715152831910844
377,1791286264.7769716,-0.25776984719669116,-1.7451239372702205,-0.08748865464154515,1.7662268017580045,-0.6210444689748231,-4.678721383428198,-0.5544322130942375,4.752212652555551
378,1791286264.801987,-0.2817200425091912,-1.7020135857077205,-0.09227869370404515,1.7276376314484347,-0.6262133353990963,-4.724136593218121,-0.5591547654915028,4.798152117699692
379,1791286264.821987,-0.42542121438419117,-1.5583124138327207,0.008312126608454857,1.6153606037668604,-0.6307867147269199,-4.759890435525819,-0.562490076708063,4.834340071207362
380,1791286264.8465157,-0.5308020737591912,-1.5343622185202206,0.10411290785845487,1.6269166409844404,-0.6373134585728948,-4.802852290018937,-0.5657602236559407,4.877872814546267
381,1791286264.8665156,-0.6409729721966912,-1.7068036247702205,0.21907384535845487,1.8363056157229287,-0.6435945695596212,-4.83748934161042,-0.5675418645601586,4.91300527866493
382,1791286264.8919287,-0.8421546128216912,-1.7451239372702205,0.28134435317095485,1.9580185375505392,-0.6532053234977028,-4.881478562000934,-0.5685123489200579,4.957692652514378
383,1791286264.9119287,-0.9235852768841912,-1.6541131950827206,0.21907384535845487,1.907116560555268,-0.6622830193617724,-4.916003886055945,-0.5684109252967661,4.992875322441852
384,1791286264.921668,-0.8469446518841912,-1.4433514763327207,0.08016271254595486,1.6754118264086006,-0.6673337955647389,-4.932557333964254,-0.5681503647221883,5.009815474094963
385,1791286264.941668,-0.7798841050091913,-1.2900702263327206,0.10411290785845487,1.511072434960974,-0.6785900951410029,-4.965551272927545,-0.5674191467398857,5.043723669015072
386,1791286264.9672863,-0.8900550034466912,-1.3571307732077207,0.20949376723345486,1.6364258257732125,-0.6940542993339749,-5.006560656617486,-0.5660204560648334,5.086033831532969
387,1791286264.9872863,-1.0241760971966911,-1.3236004997702207,0.17117345473345486,1.6823065453913,-0.7071874900232054,-5.037795048648705,-0.5645213026548014,5.118415516484159
388,1791286265.012415,-1.0912366440716912,-1.1798993278952206,0.07537267348345486,1.6089253796371303,-0.7252001021432837,-5.075870546513964,-0.5624556048338905,5.158171507474878
389,1791286265.032415,-1.0145960190716912,-0.8972870232077206,0.02747228285845486,1.3547264706421556,-0.7405447270714633,-5.104745130547916,-0.5609038531940578,5.188587714703679
390,1791286265.0414908,-0.8996350815716913,-0.5045038200827205,0.07058263442095486,1.033851678314817,-0.7477665365544779,-5.116836973687055,-0.5602385582737256,5.201446207609783
391,1791286265.0614908,-0.9762757065716913,-0.2889520622702206,0.14243322035845488,1.0280538759199094,-0.764107533889531,-5.140676324960776,-0.5586728743361962,5.2270956354249
392,1791286265.0869665,-1.1582971909466913,-0.20752139820772056,0.23344396254595487,1.1996722873010948,-0.7858787454201192,-5.16743626957041,-0.5562594958058914,5.256370195224941
393,1791286265.1069665,-1.0720764878216913,-0.24584171070772054,0.21428380629595487,1.120581854263433,-0.803752251171107,-5.185973247938936,-0.5539774551970822,5.277047207526912
394,1791286265.1470034,-0.9810657456341912,0.03198055491727946,0.15680333754595485,0.9940322126647302,-0.8403303941360432,-5.218157400641488,-0.548980113145,5.313821693828939
395,1791286265.1670034,-1.0098059800091912,0.4247637580422795,0.09932286879595487,1.0999988180331748,-0.8588480606328014,-5.231137924410278,-0.5464740142048332,5.329264285401629
396,1791286265.1621833,-1.1822473862591911,0.6738457892922795,0.2573941578584549,1.3849291615686656,-0.8588480606328014,-5.231137924410278,-0.5464740142048332,5.329264285401629
397,1791286265.1821833,-1.2684680893841913,0.6067852424172795,0.3340347828584549,1.4452608277956864,-0.878698009760996,-5.237194682280608,-0.5433214013802935,5.3381191891586734
398,1791286265.2075064,-1.3403186753216911,0.5157745002297794,0.24302404067095487,1.4565500921174699,-0.9050159228373534,-5.24158117077417,-0.5388324779413346,5.346360203885244
399,1791286265.2275064,-1.2732581284466913,0.4487139533547795,0.008312126608454857,1.3500368754369643,-0.9266040725022605,-5.243079184727903,-0.5354419619858908,5.351184218391298
400,1791286265.252722,-1.4217493393841913,0.7073760627297795,-0.08748865464154515,1.5904107465851258,-0.9548360619178032,-5.242498189037275,-0.5319582007355049,5.355229098229838
401,1791286265.272722,-1.4265393784466913,0.9181377814797795,-0.06832849839154514,1.6978399122803443,-0.9781420602974663,-5.239668222313071,-0.5298432284413168,5.356455807412725
402,1791286265.2823262,-1.3642688706341912,0.7648565314797795,-0.006057990579045143,1.564056189648769,-0.989665356616807,-5.237300799739592,-0.5290335217861956,5.356177149069469
403,1791286265.3023262,-1.1247669175091912,0.6259453986672795,-0.07311853745404515,1.2892845230418637,-1.0137957676918719,-5.23102413217308,-0.5277190616654197,5.354426462097702
404,1791286265.3418837,-1.0241760971966911,0.8702373908547795,-0.15454920151654514,1.3528249148356863,-1.0607391625985603,-5.21603295033083,-0.5261846465811861,5.348741683078835
405,1791286265.3618836,-1.1199768784466912,1.2726006721047796,-0.14975916245404516,1.7018485495588813,-1.0841295107272997,-5.206376172747561,-0.5259816873449232,5.344000971519893
406,1791286265.371944,-1.1151868393841913,1.4498321174172795,-0.020428107766545144,1.8292272037713893,-1.0958168551904042,-5.200193147266348,-0.526023319620454,5.340367392022744
407,1791286265.391944,-0.9571155503216913,1.1384795783547794,-0.006057990579045143,1.4873609603079967,-1.1186746633559461,-5.185862563125047,-0.5261333992444784,5.331174343412244
408,1791286265.4026039,-0.6313928940716912,0.8558672736672795,-0.15454920151654514,1.074733098265932,-1.1303003427510974,-5.177775656239465,-0.5263116751967899,5.325781031043027
409,1791286265.4226038,-0.5834925034466912,1.1815899299172796,-0.16412927964154514,1.3279897155083924,-1.1506627818441504,-5.161822836495272,-0.5270739989656454,5.314719826413341
410,1791286265.4475877,-0.7607239487591912,1.4881524299172795,-0.06832849839154514,1.6727125767976168,-1.1748027271891945,-5.1398813368830325,-0.5283190239110662,5.298835966141622
411,1791286265.4675877,-0.8708948471966912,1.3348711799172794,0.02268224379595486,1.594005453576341,-1.1936758896358928,-5.120716974978912,-0.5292346555349989,5.284571296515401
412,1791286265.4923341,-0.8900550034466912,1.0091485236672795,-0.07311853745404515,1.3475626042970166,-1.2167935332388422,-5.096210903212597,-0.5302912558969844,5.266228336165801
413,1791286265.512334,-0.8421546128216912,0.8462871955422795,-0.11143884995404515,1.1991017581985064,-1.2352729139714087,-5.076592878540382,-0.5312939417754634,5.251663324986252
414,1791286265.5374231,-0.8229944565716912,1.0187286017922794,-0.06353845932904514,1.3111693160958637,-1.2581104656332902,-5.052165123772663,-0.5326923410499094,5.233638840406748
415,1791286265.557423,-0.7176135971966912,1.1145293830422796,0.02747228285845486,1.325858117172284,-1.2758957911281286,-5.032413324147522,-0.5336939766667982,5.218996378194414
416,1791286265.567018,-0.6553430893841912,1.1193194221047795,0.06579259535845486,1.2987221408402165,-1.2841363743915317,-5.022751329310875,-0.5340353128603458,5.21173971524974
417,1791286265.587018,-0.5020618393841912,1.0378887580422795,0.05621251723345486,1.154313220807119,-1.3004728959049887,-5.002396690387053,-0.5344570744928672,5.196233902111636
418,1791286265.61222,-0.4014710190716912,1.1049493049172796,0.15201329848345488,1.1854113161715056,-1.3196785557310908,-4.976544798969289,-0.5345152395391393,5.176220258828285
419,1791286265.63222,-0.3439905503216912,1.0570489142922794,0.17596349379595486,1.1254532673842952,-1.3337518871081566,-4.955863462186054,-0.5340625099375413,5.1599127431300715
420,1791286265.6576395,-0.12843879250919119,0.9660381721047795,0.03705236098345486,0.9752431239640764,-1.349856378233348,-4.929663885659266,-0.5331673068555187,5.1388681287351625
421,1791286265.6776395,-0.04700812844669117,0.8462871955422795,0.09932286879595487,0.8533913602472991,-1.360889877121399,-4.909423700799246,-0.5323640521129511,5.122291851857231
422,1791286265.6870794,-0.07095832375919117,0.7025860236672795,0.18554357192095486,0.7301291813401926,-1.365400015173146,-4.90020678213487,-0.531840103603289,5.1146063000895925
423,1791286265.7070794,-0.12364875344669118,0.7504864142922795,0.17596349379595486,0.7806932966377274,-1.373814035540307,-4.881428830524039,-0.5303542876048135,5.098724164151228
424,1791286265.7323358,-0.08532844094669118,0.8031768439797795,0.19991368910845486,0.832069389313574,-1.383241477505042,-4.858329623084661,-0.5280474182379747,5.078932740993925
425,1791286265.7523358,-0.07095832375919117,0.6738457892922795,0.11369298598345487,0.6870439043609101,-1.3898214828125535,-4.840566102443682,-0.5260242636638953,5.063534879131105
426,1791286265.7769344,0.19249382467830883,0.5828350471047795,-0.05395838120404515,0.6161672431857078,-1.3964762727624558,-4.819676937931527,-0.5237989699810864,5.0451756289916005
427,1791286265.7969344,0.45594597311580887,0.4343438361672795,-0.11622888901654514,0.6403518197514947,-1.4001027102121497,-4.803714760860234,-0.5225163599147297,5.030803757773547
428,1791286265.8074872,0.3745153090533088,0.40081356272977947,-0.006057990579045143,0.5485890338252215,-1.4010718779506772,-4.795894758099282,-0.5220378978508644,5.0235577536981655
429,1791286265.8274872,0.48947624655330885,0.32417293772977945,0.017892204733454858,0.5873629376173601,-1.401337155785642,-4.782209781783587,-0.5212493763964106,5.010486716234827
430,1791286265.8520687,0.5661168715533088,0.19005184397977948,-0.13059900620404516,0.6112807179020979,-1.399668195377861,-4.7669648959479405,-0.520633385768622,4.9954063397014234
431,1791286265.8720686,0.7960387465533089,-0.0015497185202205403,-0.29825037339154514,0.8500784510089943,-1.3964707471929887,-4.756139111669901,-0.5208506535085293,4.984202564160305
432,1791286265.8975978,0.9780602309283088,-0.09256046070772055,-0.28388025620404517,1.0226227330117577,-1.3896047062807015,-4.744573438153554,-0.5222009841249394,4.971385341891208
433,1791286265.9175978,1.126551441865809,-0.24584171070772054,-0.3701009593290452,1.211004136239803,-1.381875661429511,-4.737379402149789,-0.5240811467996961,4.962560326282717
434,1791286265.9271617,1.116971363740809,-0.46139346852022056,-0.5425423655790451,1.3247117341739783,-1.3771247929725403,-4.7349625588287205,-0.5255000048670405,4.959081909390562
435,1791286265.9471617,1.0594908949908088,-0.5476141716452205,-0.5904427562040452,1.3307985895352217,-1.3654153789437409,-4.732180101826415,-0.5297215175910217,4.9536342779192815
436,1791286265.9721894,1.2654625746783088,-0.5332440544577206,-0.5569124827665451,1.4818556822400621,-1.3485961770128139,-4.731249315517325,-0.5363655374056908,4.948850343660963
437,1791286265.9921894,1.471434254365809,-0.7727460075827206,-0.5090120921415452,1.7382026542099203,-1.333066471201766,-4.7325760664820145,-0.5424773422208904,4.946577009256376
438,1791286266.0170166,1.557654957490809,-0.9739276482077206,-0.5617025218290451,1.9210241418494003,-1.3110398708624675,-4.737228381123101,-0.5509199835799438,4.946076334451076
439,1791286266.0370166,1.509754566865809,-0.8637567497702205,-0.5617025218290451,1.8278250184235063,-1.2913564634534727,-4.743170489450519,-0.5583860283482621,4.947429915052045
440,1791286266.0470147,1.5432848403033088,-0.7248456169577205,-0.42758142807904514,1.757826824340482,-1.280703270257898,-4.746886627195542,-0.5623003128959692,4.94866801874808
441,1791286266.0670147,1.686986012178309,-0.8924969841452206,-0.3413607249540452,1.9388140231942668,-1.2577439852152723,-4.75563127813607,-0.5701092782038764,4.952067585870113
442,1791286266.0919702,1.595975269990809,-1.0745184685202207,-0.25993006089154513,1.941466105335954,-1.2272485343060242,-4.768587535103243,-0.5795169606338064,4.957963891816937
443,1791286266.1119702,1.437903980928309,-0.9787176872702206,-0.15454920151654514,1.7462364173944058,-1.2019238646834487,-4.780493339014668,-0.5865473013902869,4.96404827511049
444,1791286266.1373312,1.3373131606158088,-0.7775360466452206,0.22386388442095487,1.5630367340971105,-1.1693490838153122,-4.79666649798815,-0.5939930848854899,4.972747184166253
445,1791286266.1573312,1.5337047621783089,-0.6817352653952206,0.28134435317095485,1.7018131256613043,-1.1432070887548484,-4.809696567569964,-0.5982263183119444,4.979756846252103
446,1791286266.1670742,1.471434254365809,-0.5284540153952205,0.3627750172334549,1.6049885122445984,-1.1301863693604726,-4.815976330952839,-0.5995085293116669,4.983007096774358
447,1791286266.1870742,1.394793629365809,-0.21710147633272056,0.17117345473345486,1.4219292075032002,-1.1031678916118213,-4.828051878258262,-0.6009448671040908,4.988807379478101
448,1791286266.2121263,1.3325231215533089,0.05114071116727946,-0.08748865464154515,1.3363710212751012,-1.0692765697564524,-4.841220707293616,-0.602316920270202,4.994352409652568
449,1791286266.2321262,1.1361315199908089,-0.15004092945772055,0.0035220875459548574,1.1460015341742975,-1.0425754156109917,-4.850305240181531,-0.6033739260373946,4.997647898240795
450,1791286266.2573814,1.0547008559283089,-0.49013370289522057,0.17596349379595486,1.1762602149858536,-1.0097660638268162,-4.861268678305482,-0.6041684893146779,5.001657748168202
451,1791286266.2773814,0.9541100356158089,-0.30332217945772055,-0.09706873276654515,1.0058591568876254,-0.9846679578776442,-4.869838657883321,-0.6045849900548221,5.005039715255549
