imu_index,t_imu,ax,ay,az,mag,vx,vy,vz,velocity
0,1791285907.923858,-2.1464262794961733,0.6181105508609693,0.23476079201211789,2.245956156264764,0.0,0.0,0.0,0.0
1,1791285907.943858,-2.0458354591836736,0.4744093789859694,0.2778711435746179,2.1184237907828054,-0.009025077507384559,0.0024268685326737476,0.001068266894415882,0.009406535443343935
2,1791285907.9544208,-2.0314653419961735,0.41692891023596945,0.3401416513871179,2.101517902595773,-0.016306755289596783,0.0042224805157065354,0.0020374374491045812,0.016967343962427585
3,1791285907.9744208,-2.0602055763711733,0.3163380899234694,0.4742627451371179,2.137625307548613,-0.034163427876823506,0.008212247716804389,0.004818831272204553,0.03546550368579385
4,1791285907.9989889,-2.0362553810586737,0.1486867227359694,0.7089746591996179,2.1612701788058755,-0.06035653698663598,0.013234998474654727,0.009903248572380709,0.062579158462939
5,1791285908.0189888,-1.8973442482461735,0.20616719148596938,0.7664551279496179,2.056665643792961,-0.08438135948749896,0.01724279171185919,0.015634574431464907,0.0875326659746526
6,1791285908.0586674,-1.7105327248086735,0.3833986367984694,0.5940137216996179,1.850883307750043,-0.13563205826934724,0.025755782547076816,0.029348153889522874,0.1411408151518016
7,1791285908.0786674,-1.6482622169961734,0.38818867586096945,0.4646826670121179,1.7559580761126752,-0.16262821888783524,0.030560488740370775,0.0368116760203629,0.16951985294386065
8,1791285908.074193,-1.6147319435586733,0.46003926179846943,0.3928320810746179,1.7243295554696807,-0.16262821888783524,0.030560488740370775,0.0368116760203629,0.16951985294386065
9,1791285908.094193,-1.5189311623086734,0.48877949617346944,0.3066113779496179,1.624828547508977,-0.19099374869787225,0.03653660533381341,0.04434656520899788,0.1994496262639284
10,1791285908.1192074,-1.4806108498086734,0.42650898836096945,0.1772803232621179,1.550982501106889,-0.22677689405190704,0.04460704723229959,0.05326482367817341,0.23718071123108087
11,1791285908.1392074,-1.4518706154336734,0.34028828523596943,0.03836919044961788,1.491709286625363,-0.25549411976077613,0.05124197798939534,0.05964921640970491,0.26732193056105835
12,1791285908.1640868,-1.3656499123086734,0.3115480508609694,-0.11012202048788212,1.405058265831097,-0.29111645697046923,0.05947390692774464,0.06626604414619798,0.30442918015701936
13,1791285908.1840868,-1.3225395607461734,0.3642384805484694,-0.24903315330038214,1.3942015894029351,-0.3194892681561739,0.06611241376607323,0.07024855087677066,0.333735078499744
14,1791285908.1941457,-1.3991801857461734,0.4217189492984694,-0.32088373923788216,1.4961679178786673,-0.33367203331636996,0.06954333288839967,0.0715211292446807,0.3482650899747803
15,1791285908.2141457,-1.5668315529336734,0.3259181680484694,-0.12449213767538213,1.6052046784991636,-0.36209059213049166,0.0764632034529909,0.07300378383426033,0.37720786159069236
16,1791285908.2391295,-1.6961626076211735,0.06725605867346938,0.5317432138871179,1.7788315868669382,-0.3983800434025188,0.08454755939895522,0.07534119374344428,0.4141633062650527
17,1791285908.2591295,-1.6338920998086734,0.3259181680484694,0.6467041513871179,1.7871911776591218,-0.4280678430303045,0.09063822332051132,0.07869932567352367,0.4445795200240151
18,1791285908.284224,-1.5141411232461734,0.5175197305484694,0.4982129404496179,1.675907559098532,-0.46565528160192,0.09872144842617815,0.08443566759509308,0.4834357740438279
19,1791285908.304224,-1.6147319435586733,0.4217189492984694,0.4503125498246179,1.728579623354309,-0.4958117604889055,0.10560619208082678,0.08974447269305755,0.5148165110249235
20,1791285908.3145225,-1.6243120216836735,0.36902851961096944,0.5125830576371179,1.7427888521128954,-0.5115126318580162,0.10923031271307111,0.09281179161306596,0.5312160223752075
21,1791285908.3345225,-1.6434721779336734,0.45524922273596946,0.4934229013871179,1.7753080898979303,-0.5423321365959043,0.11644915749929859,0.09938410152447406,0.5635261771229461
22,1791285908.359502,-1.8015434669961734,0.6372707071109693,0.4646826670121179,1.9666221799419943,-0.5815052909987093,0.12615972861297559,0.10815646827521096,0.6047830207710531
23,1791285908.379502,-1.7392729591836735,0.7330714883609694,0.3449316904496179,1.9187084470215192,-0.613475993504296,0.1348238168860645,0.11534096599894846,0.638618661364809
24,1791285908.404106,-1.5907817482461735,0.6995412149234693,0.22518071388711788,1.7523272627669944,-0.6530515283991601,0.14652712857956246,0.12390556090619345,0.6806607717341504
25,1791285908.424106,-1.5955717873086734,0.6851710977359694,0.2395508310746179,1.7529099698206545,-0.6851757024075074,0.1566905782997356,0.13052034978654245,0.714879879564342
26,1791285908.4342268,-1.6626323341836735,0.7187013711734693,0.23476079201211789,1.826469427355912,-0.7014666980234275,0.1621278880860587,0.13372565083287397,0.7322728523042568
27,1791285908.4542267,-1.6147319435586733,0.6420607461734694,0.22997075294961788,1.752851333838046,-0.7337466617659039,0.1733020574291606,0.1398066791942685,0.7667878939505481
28,1791285908.4792619,-1.5524614357461735,0.5462599649234694,0.22518071388711788,1.6610968703431994,-0.7740392038981541,0.18742254654529417,0.1471314691105727,0.8098836764174511
29,1791285908.4992619,-1.5380913185586735,0.4839894571109694,0.20602055763711788,1.6255507279040047,-0.8060354701199924,0.19855636401668147,0.1527521309589106,0.8440681384198614
30,1791285908.5245185,-1.5620415138711734,0.41692891023596945,0.21560063576211788,1.6310386388398437,-0.8462529358885952,0.21221405469184365,0.1595840490234922,0.8869306090171609
31,1791285908.5445185,-1.5333012794961733,0.3354982461734694,0.22997075294961788,1.5863349060341232,-0.8779659135877899,0.22253554729608885,0.16485090016350912,0.9206095994052699
32,1791285908.5693517,-1.5141411232461734,0.3115480508609694,0.1916504404496179,1.5576955480532728,-0.9171120057381432,0.23463409292435108,0.17119486395314612,0.9620058576097181
33,1791285908.5893517,-1.5237212013711734,0.24448750398596938,0.1293799326371179,1.5486250695641235,-0.9484669066250458,0.24375040710972623,0.17601927551112098,0.9949806627671216
34,1791285908.59875,-1.4901909279336734,0.22053730867346938,0.09584965919961788,1.5094677417492042,-0.9631156098444917,0.2477195703832023,0.17810507494293917,1.010286138278357
35,1791285908.61875,-1.4854008888711734,0.24448750398596938,0.11979985451211789,1.510146332447848,-0.9940756435040111,0.25559655000660264,0.18220135371138185,1.0424554257508816
36,1791285908.6444914,-1.4854008888711734,0.33070820711096943,0.1820703623246179,1.53262302466942,-1.0336815972444624,0.2653245013253194,0.18726550596863742,1.083495779969208
37,1791285908.6644914,-1.5428813576211735,0.37860859773596944,0.2539209482621179,1.6088204380666244,-1.0643804092555316,0.2728129671280588,0.19126393788043913,1.115309134085129
38,1791285908.6891093,-1.5955717873086734,0.49835957429846944,0.27308110451211787,1.693748766314504,-1.102294077385126,0.2822670500425256,0.19642037270379217,1.154689518178429
39,1791285908.7091093,-1.5476713966836735,0.5797902383609694,0.2682910654496179,1.6743427272848155,-1.1331903532862977,0.2904128231146962,0.20079322421705945,1.1869195016942196
40,1791285908.7185907,-1.5237212013711734,0.5702101602359695,0.2395508310746179,1.644460558059354,-1.1478244420682653,0.29451302691937375,0.20291644359876473,1.202253698649876
41,1791285908.7385907,-1.5428813576211735,0.5127296914859695,0.23476079201211789,1.6427072927616806,-1.1786629226864471,0.30348900530232764,0.207434793373788,1.2346582746481636
42,1791285908.7642655,-1.5716215919961734,0.4744093789859694,0.29224126076211787,1.6674722311901544,-1.2183106060467328,0.31518426771025954,0.2133799315063898,1.2763827210471324
43,1791285908.7842655,-1.6051518654336734,0.46961933992346944,0.2970312998246179,1.6986119123009995,-1.249327551408833,0.324344054934419,0.21820027419325008,1.309056819369771
44,1791285908.808639,-1.5907817482461735,0.45045918367346943,0.23476079201211789,1.6699139726869396,-1.2872994769783555,0.3355143765302102,0.22416567567262527,1.3490589647739522
45,1791285908.828639,-1.5285112404336734,0.36902851961096944,0.1293799326371179,1.5777413689789388,-1.3184629664947032,0.34453465218113616,0.22887261810041556,1.3818217670480257
46,1791285908.8387406,-1.5285112404336734,0.3259181680484694,0.1341699716996179,1.5686206825431168,-1.3341580204628756,0.3489337092632461,0.23109305631461421,1.3982619059755779
47,1791285908.8587406,-1.5572514748086734,0.4025587930484694,0.1820703623246179,1.6187141052364518,-1.3651999812430473,0.35742962900234676,0.23530420807491348,1.4306973819828337
48,1791285908.8847764,-1.5093510841836735,0.44566914461096946,0.20123051857461788,1.5865860844563442,-1.4055366976304189,0.36848687170808586,0.24071240538633218,1.4728402646295045
49,1791285908.9047763,-1.4997710060586735,0.38818867586096945,0.20123051857461788,1.5622090898105632,-1.4363881076587994,0.3769574488465768,0.24484736167022478,1.5050773882367035
50,1791285908.9295623,-1.5189311623086734,0.3642384805484694,0.1868604013871179,1.573130114183563,-1.4744987776844753,0.3872791282482939,0.24992459013893192,1.5448605339401622
51,1791285908.9495623,-1.4806108498086734,0.39776875398596945,0.1868604013871179,1.5444563055733456,-1.5051370717514005,0.3955014737021149,0.25396749217465175,1.5768191105965221
52,1791285908.959455,-1.4566606544961733,0.4217189492984694,0.1916504404496179,1.5285408159022638,-1.5201979598710862,0.3995664996801681,0.2559481280032338,1.5925340401671904
53,1791285908.979455,-1.5189311623086734,0.3929787149234694,0.2395508310746179,1.5871259392007362,-1.550542528399487,0.4077740354266964,0.25999852687758673,1.6242108946568983
54,1791285909.004319,-1.5859917091836735,0.3738185586734694,0.2778711435746179,1.6529738016192288,-1.588398268206464,0.4178770175077609,0.2652435481721128,1.6637260591964673
55,1791285909.024319,-1.5907817482461735,0.38818867586096945,0.28266118263711787,1.6616781766604685,-1.6190461474957363,0.4259276374378298,0.2696704714348289,1.6957142870242143
56,1791285909.0488982,-1.5428813576211735,0.40734883211096945,0.23476079201211789,1.6129254738466012,-1.6568382961302424,0.4358040122980516,0.2752487667293513,1.7351657443151862
57,1791285909.0688982,-1.5524614357461735,0.36902851961096944,0.20602055763711788,1.60896333952469,-1.6876198153285205,0.4437994594698351,0.27976810256912116,1.7672828841275845
58,1791285909.0789623,-1.6051518654336734,0.37860859773596944,0.22518071388711788,1.664500926792025,-1.7031692590196068,0.4477836414008286,0.2820266135229216,1.7834894799551775
59,1791285909.0989623,-1.5668315529336734,0.4025587930484694,0.21081059669961788,1.6313968875813256,-1.7341928303499075,0.45568533836668934,0.28649560110622563,1.8158066058621454
60,1791285909.1245816,-1.5237212013711734,0.4025587930484694,0.1820703623246179,1.5864833747019444,-1.7739102411569239,0.4658358528972249,0.29211642313177616,1.8571732795270353
61,1791285909.1445816,-1.5189311623086734,0.3833986367984694,0.1772803232621179,1.5765705514017516,-1.804829196639865,0.4737502879188117,0.29638521492007647,1.8893628449744844
62,1791285909.1694798,-1.5764116310586735,0.4025587930484694,0.22518071388711788,1.6425083154445275,-1.8433271221161296,0.4835928465376393,0.30165390240892603,1.9294330766289467
63,1791285909.1894798,-1.5572514748086734,0.44087910554846943,0.2443408701371179,1.63679840002438,-1.874313115926423,0.49157827624946543,0.30595552351335226,1.9617103865205336
64,1791285909.2141588,-1.5189311623086734,0.45045918367346943,0.22039067482461788,1.5995741313042657,-1.9125067379900214,0.5016036402811925,0.31132748675430444,2.0015526570163793
65,1791285909.2341588,-1.4949809669961733,0.38818867586096945,0.20123051857461788,1.5576110751254035,-1.943337111522367,0.509767539072542,0.31566037134396024,2.033731433338527
66,1791285909.2437346,-1.5237212013711734,0.3738185586734694,0.21560063576211788,1.5836509238016285,-1.9580522607912068,0.5136372962485665,0.3177231048863297,2.0490826970783056
67,1791285909.2637346,-1.5333012794961733,0.4025587930484694,0.22518071388711788,1.6011785501535907,-1.9887615766106452,0.521671836339763,0.32204624461122694,2.0811121779234183
68,1791285909.289418,-1.5045610451211735,0.4217189492984694,0.1916504404496179,1.5742556025048968,-2.0281338954741384,0.5320296730886814,0.3275680722444066,2.122188378295355
69,1791285909.309418,-1.4901909279336734,0.3929787149234694,0.1820703623246179,1.551854016625192,-2.0586867705992824,0.5401076267546938,0.3317835805801342,2.1540630938442042
70,1791285909.3488755,-1.5045610451211735,0.3259181680484694,0.20123051857461788,1.5525528372219728,-2.118784770150238,0.5557813777876524,0.3399870771548521,2.216694172579618
71,1791285909.3688755,-1.5380913185586735,0.34028828523596943,0.21081059669961788,1.5893275713254473,-2.1492415017453474,0.5635336006899145,0.34413955116797473,2.2483863508323543
72,1791285909.3644512,-1.5428813576211735,0.4121388711734694,0.2443408701371179,1.6155629958768123,-2.1492415017453474,0.5635336006899145,0.34413955116797473,2.2483863508323543
73,1791285909.3844512,-1.5093510841836735,0.45524922273596946,0.22518071388711788,1.592513392105337,-2.1797530710351354,0.5713950063463742,0.34842431291361853,2.280178766192248
74,1791285909.408756,-1.5045610451211735,0.3929787149234694,0.22997075294961788,1.5719487129328467,-2.2167641902084254,0.5810617118520737,0.35367997076435986,2.3187853953504964
75,1791285909.428756,-1.5668315529336734,0.39776875398596945,0.2395508310746179,1.634186555318773,-2.24725861782386,0.5890091871001826,0.3580603103967502,2.3505978609182474
76,1791285909.454036,-1.5333012794961733,0.43608906648596946,0.21081059669961788,1.607988680088904,-2.28589971208376,0.5991289565889201,0.36362043678458833,2.3909230063670726
77,1791285909.474036,-1.5141411232461734,0.36902851961096944,0.1868604013871179,1.5696248593208513,-2.3164557608724126,0.6071418503902792,0.3679559483700496,2.4228041808027374
78,1791285909.4840176,-1.5141411232461734,0.34028828523596943,0.1820703623246179,1.5625521031348164,-2.3316852809738853,0.6110720888526125,0.37007134795718605,2.4386713902991954
79,1791285909.5040176,-1.5141411232461734,0.35944844148596944,0.23476079201211789,1.5738294547561478,-2.362165501443517,0.618815386776893,0.37429938748804187,2.470396399486459
80,1791285909.5288553,-1.5141411232461734,0.3929787149234694,0.2395508310746179,1.5825423255498177,-2.399981738083485,0.6283908917402657,0.37964608747764184,2.5097646518535224
81,1791285909.5488553,-1.5141411232461734,0.4121388711734694,0.23476079201211789,1.586692919157164,-2.430407172592624,0.6361524434274934,0.38401705953751064,2.5414637628509045
82,1791285909.5745978,-1.4949809669961733,0.3450783242984694,0.1916504404496179,1.5462137733528265,-2.469504062339597,0.6461059873507401,0.38962242694669147,2.5821907165006377
83,1791285909.5945978,-1.4949809669961733,0.32112812898596943,0.19644047951211788,1.5416485425990563,-2.4998080044024267,0.6536784681751728,0.39390626388762123,2.6137134011517382
84,1791285909.6046338,-1.4614506935586735,0.34028828523596943,0.1916504404496179,1.5127339944935783,-2.514958850670798,0.6574062065419168,0.39602556487671137,2.6294556830270275
85,1791285909.6246338,-1.4375004982461734,0.37860859773596944,0.20123051857461788,1.5000819558755458,-2.5449713182242957,0.6647989733575309,0.40020477339410676,2.6606391236334486
86,1791285909.649286,-1.4614506935586735,0.40734883211096945,0.20123051857461788,1.530445988047637,-2.5817759437316243,0.673997703702904,0.40532753676233896,2.698912807092132
87,1791285909.669286,-1.4901909279336734,0.3738185586734694,0.21081059669961788,1.5507580159990733,-2.611583568993524,0.6815128224632748,0.40947821333263784,2.729926898693974
88,1791285909.6946154,-1.4806108498086734,0.33070820711096943,0.22997075294961788,1.5344259363142714,-2.6493150679179753,0.690941226704979,0.41478376320566823,2.769172381430391
89,1791285909.7146153,-1.4375004982461734,0.34028828523596943,0.22997075294961788,1.495021854936926,-2.6790160086717085,0.6982756645577157,0.41903453431344784,2.8000545743574534
90,1791285909.7240012,-1.4758208107461734,0.3450783242984694,0.22039067482461788,1.5315672250612387,-2.6929144459597842,0.7016838112697572,0.421047184009448,2.814503351467045
91,1791285909.7440012,-1.4806108498086734,0.30196797273596937,0.20123051857461788,1.5244300137216016,-2.722522500042536,0.7088273527320993,0.42532500759458575,2.845253300025217
92,1791285909.7688622,-1.4758208107461734,0.3115480508609694,0.22997075294961788,1.5257771136830491,-2.759318810388277,0.7175191529325217,0.4306489561765978,2.8834237558228537
93,1791285909.7888622,-1.4614506935586735,0.37860859773596944,0.2539209482621179,1.5309011881728545,-2.788885979290101,0.7244978278087729,0.43501530167334557,2.914107139531848
94,1791285909.8138847,-1.4662407326211735,0.4312990274234694,0.2395508310746179,1.5470182085943416,-2.8258237716545977,0.7334392962157604,0.44058481732409166,2.9525121796426492
95,1791285909.8338847,-1.4566606544961733,0.3833986367984694,0.23476079201211789,1.5244564298537042,-2.8553032020940954,0.740736065382034,0.44508014462023865,2.983210121594123
96,1791285909.8587203,-1.4087602638711734,0.35944844148596944,0.19644047951211788,1.467105151357605,-2.891756467667238,0.7498215814862392,0.4506282082129796,3.021184147713454
97,1791285909.8787203,-1.4135503029336733,0.3738185586734694,0.20123051857461788,1.4759263177199595,-2.920942226159388,0.7571405257817232,0.4550223692095838,3.051591489833311
98,1791285909.8890822,-1.4758208107461734,0.40734883211096945,0.2395508310746179,1.5496337428961087,-2.936040552097855,0.760970733059602,0.4573000270590943,3.0673333524226862
99,1791285909.9090822,-1.4470805763711734,0.35944844148596944,0.1868604013871179,1.5027182657451046,-2.9651955551645206,0.7684048525999738,0.46167642030268863,3.097737208823583
100,1791285909.9337242,-1.4231303810586735,0.2875978555484694,0.1868604013871179,1.4638747957441025,-3.0010337484699883,0.7773863371180085,0.4669504457748074,3.1350559477308972
101,1791285909.9537241,-1.4087602638711734,0.30675801179846945,0.1868604013871179,1.4538303781636572,-3.030005585582731,0.7844740046786676,0.4711494641319708,3.1651722117810555
102,1791285909.9786215,-1.4327104591836735,0.34028828523596943,0.1868604013871179,1.4843760259885914,-3.0659676614877784,0.7931819635768823,0.4762904532608483,3.2025221192834783
103,1791285909.9986215,-1.4470805763711734,0.2971779336734694,0.21560063576211788,1.4929301902346908,-3.094842367952345,0.8000839850478727,0.48040442857301463,3.232486980731017
104,1791285910.0081742,-1.4854008888711734,0.2875978555484694,0.2539209482621179,1.5341460735998,-3.1086662225711277,0.8033051075705748,0.48241105550190727,3.2468177044105944
105,1791285910.0281742,-1.4518706154336734,0.30675801179846945,0.2491309091996179,1.5046909887684354,-3.1376730113489115,0.8099289394543617,0.4867366191802419,3.276871884826141
106,1791285910.0545797,-1.4470805763711734,0.24927754304846939,0.21560063576211788,1.4841378379786825,-3.175966664623691,0.818463637560668,0.4925112934587426,3.3165063477995
107,1791285910.0745797,-1.4997710060586735,0.30675801179846945,0.22039067482461788,1.5466045383246638,-3.205040501918395,0.824792353289886,0.49688303171327186,3.346559396183991
108,1791285910.0991051,-1.5045610451211735,0.3259181680484694,0.2395508310746179,1.5579830523560672,-3.2408712383155716,0.8325527156694069,0.5022858473895928,3.3835900283866382
109,1791285910.119105,-1.5093510841836735,0.32112812898596943,0.22518071388711788,1.559477580620886,-3.270228469355699,0.8389024426637234,0.5067279497918916,3.413930984245577
110,1791285910.1281688,-1.5189311623086734,0.30675801179846945,0.21560063576211788,1.5645242049185295,-3.283595687044911,0.8417752353031356,0.5087387193112227,3.4277399649442506
111,1791285910.1481688,-1.5428813576211735,0.30675801179846945,0.19644047951211788,1.5852987805106193,-3.313260057053424,0.8480837402803145,0.5131281950652069,3.458357815606185
112,1791285910.1734254,-1.5333012794961733,0.2780177774234694,0.21560063576211788,1.5731466341092037,-3.3509290792700757,0.8559630498239922,0.5186204011384699,3.49719395479273
113,1791285910.1934254,-1.5380913185586735,0.3546584024234694,0.21081059669961788,1.5924661987985729,-3.3808908002265334,0.8622155464549326,0.5229567655303894,3.528076250624268
114,1791285910.2189403,-1.5812016701211735,0.40734883211096945,0.2539209482621179,1.6524550343602369,-3.4193498643967457,0.8704538268930586,0.5285483564321607,3.56777335672965
115,1791285910.2389402,-1.5812016701211735,0.42650898836096945,0.2539209482621179,1.6572822592162806,-3.4497179030420058,0.8771935995442581,0.5330356739783783,3.599187304292947
116,1791285910.2489817,-1.5380913185586735,0.4217189492984694,0.2443408701371179,1.6134665280824168,-3.465027034331513,0.8807086953529607,0.5353259418373597,3.6150565719947743
117,1791285910.2689817,-1.5668315529336734,0.4217189492984694,0.23476079201211789,1.6394879130179973,-3.495602416886034,0.8879248263239261,0.5399219637849705,3.646801678336687
118,1791285910.2937229,-1.5524614357461735,0.4025587930484694,0.22518071388711788,1.619535873405224,-3.5335405800320028,0.8970421140013434,0.5456081466732194,3.6862286736909153
119,1791285910.3137228,-1.4949809669961733,0.3833986367984694,0.1772803232621179,1.5535092273287787,-3.5641795479400664,0.9044856567675396,0.5501188883711295,3.7180775872210026
120,1791285910.3384318,-1.5524614357461735,0.3163380899234694,0.1581201670121179,1.5922337403256592,-3.6020019776681385,0.9135990999451072,0.5554773221733821,3.7573443571217426
121,1791285910.3584318,-1.5285112404336734,0.28280781648596937,0.1772803232621179,1.5645303404579822,-3.632645571946623,0.9207679410719494,0.5596670685230138,3.7890836201222093
122,1791285910.3682816,-1.5189311623086734,0.2684376992984694,0.2539209482621179,1.5632295168027521,-3.6477247304562646,0.9241761588897586,0.5617395078336648,3.8046745664384574
123,1791285910.3882816,-1.5285112404336734,0.2636476602359694,0.2874512216996179,1.5774932347672972,-3.678321371925187,0.930856611244396,0.566128438148658,3.8362799108432677
124,1791285910.4132354,-1.4901909279336734,0.30196797273596937,0.28266118263711787,1.5465286943422383,-3.7164199290616997,0.9390000647728426,0.5718500583688075,3.875630361634966
125,1791285910.4332354,-1.5189311623086734,0.2684376992984694,0.21560063576211788,1.557464063270181,-3.7468885229478994,0.9454034585354354,0.5764953451585296,3.907084358674497
126,1791285910.4591389,-1.5716215919961734,0.2875978555484694,0.1916504404496179,1.6091727210803684,-3.7864355459227723,0.953533186973762,0.582400524222819,3.9478487879733737
127,1791285910.4791389,-1.5859917091836735,0.3115480508609694,0.21081059669961788,1.6299917169346194,-3.8171259714441477,0.9597673016260913,0.5868796795353711,3.9794511824365424
128,1791285910.4883673,-1.5285112404336734,0.36902851961096944,0.22997075294961788,1.5891555014002139,-3.8313187280615955,0.9626834362940497,0.5889415304535863,3.994072448116515
129,1791285910.5083673,-1.4375004982461734,0.3738185586734694,0.19644047951211788,1.49824459260084,-3.861912561339625,0.969169587984948,0.5933793320904531,4.025637508949335
130,1791285910.5339808,-1.4614506935586735,0.36902851961096944,0.22039067482461788,1.5233490169816772,-3.900785228771304,0.9776572830770759,0.5990109591206594,4.0658029088115795
131,1791285910.5539808,-1.5380913185586735,0.36902851961096944,0.27308110451211787,1.605141813720327,-3.931084741286593,0.9843977412983429,0.6034889369813236,4.097153286528148
132,1791285910.57916,-1.5428813576211735,0.3929787149234694,0.27308110451211787,1.6153911116876356,-3.969326917981434,0.9930498073448116,0.6093122797785927,4.136782029061785
133,1791285910.59916,-1.4518706154336734,0.4025587930484694,0.2682910654496179,1.530347006930286,-3.9996386758651528,1.0000846518310897,0.6140560324158344,4.168254269985306
134,1791285910.6235642,-1.4327104591836735,0.3929787149234694,0.28266118263711787,1.5122793638765981,-4.036357232839915,1.0088371637989495,0.6199845927338301,4.206460867450016
135,1791285910.6435642,-1.4854008888711734,0.3642384805484694,0.3018213388871179,1.5589039713783341,-4.066312478121267,1.016069973005628,0.6249911404068031,4.237677345593382
136,1791285910.6542063,-1.5045610451211735,0.30675801179846945,0.3305615732621179,1.5706926402120163,-4.0822473146796225,1.0198768415807278,0.6277602788537685,4.254288997929999
137,1791285910.6742063,-1.4710307716836735,0.24927754304846939,0.3209814951371179,1.5261389009290751,-4.11216556069423,1.0267921184812625,0.6331611106621045,4.285452210116197
138,1791285910.6985774,-1.4470805763711734,0.1870070352359694,0.3209814951371179,1.4940023246163088,-4.148487953319485,1.0347522443025985,0.6399285589223314,4.323213280240817
139,1791285910.7185774,-1.5859917091836735,0.2732277383609694,0.4551025888871179,1.672465684258113,-4.178374078575064,1.0409951456720783,0.6458132869517078,4.354257185264119
140,1791285910.74365,-1.7296928810586734,0.44087910554846943,0.5988037607621179,1.8827580281058764,-4.21645525462387,1.048990327742942,0.6540657783619472,4.393936465672633
141,1791285910.76365,-1.6482622169961734,0.4025587930484694,0.5221631357621179,1.7752397748435869,-4.247342401756807,1.055676464981416,0.6613426724187235,4.4262562518271436
142,1791285910.7739196,-1.5476713966836735,0.3450783242984694,0.2491309091996179,1.605126789986405,-4.26328499407317,1.0591705451595106,0.665112815546598,4.442951298610788
143,1791285910.7939196,-1.5045610451211735,0.32112812898596943,0.1293799326371179,1.5438802999880956,-4.294254113644566,1.0659538244567581,0.6719215361933928,4.475304961589518
144,1791285910.8190014,-1.4949809669961733,0.3354982461734694,0.1485400888871179,1.539347693951201,-4.332909154691299,1.0744198751525893,0.6797023070264396,4.515581362029438
145,1791285910.8390014,-1.4901909279336734,0.30196797273596937,0.1724902841996179,1.5302308833628206,-4.363586509571906,1.0811141906912256,0.6854575004836522,4.547477004318018
146,1791285910.8635836,-1.5955717873086734,0.2540675821109694,0.22039067482461788,1.630635371346016,-4.401325539514028,1.089133166204206,0.6921945336854756,4.586612129989684
147,1791285910.8835835,-1.6434721779336734,0.3115480508609694,0.20123051857461788,1.6848016824668506,-4.432282833439489,1.0955271764775358,0.6974860148903148,4.61863590803289
148,1791285910.8936338,-1.5812016701211735,0.3163380899234694,0.1916504404496179,1.6238837396978116,-4.447936540381607,1.0987315845242653,0.7000423504663479,4.63480418729201
149,1791285910.9136338,-1.5859917091836735,0.1726369180484694,0.2443408701371179,1.613962721964788,-4.479165426016281,1.1048852728252514,0.7050203547240721,4.666984902514791
150,1791285910.939238,-1.5668315529336734,0.05767598054846939,0.2682910654496179,1.5906815299741384,-4.519202549284299,1.1120238772257927,0.7114217439039728,4.708068572427271
151,1791285910.959238,-1.5668315529336734,0.028935746173469386,0.3161914560746179,1.5986792766436142,-4.550485755156982,1.1168934831551045,0.716548680020902,4.740022539127915
152,1791285910.9833915,-1.5907817482461735,0.08641621492346938,0.3401416513871179,1.6290336631767948,-4.588318750116718,1.122101209327124,0.7230005546087734,4.778546837544928
153,1791285911.0033915,-1.5812016701211735,0.12473652742346938,0.28266118263711787,1.611103741860675,-4.619704790069277,1.126083302032654,0.72847579322732,4.810448308819456
154,1791285911.0139444,-1.5285112404336734,0.024145707110969385,0.2539209482621179,1.5496468872844256,-4.636242597780874,1.1279870977554558,0.7313561132260785,4.827212661830207
155,1791285911.0339444,-1.5333012794961733,-0.06207499601403062,0.2539209482621179,1.5554234043504287,-4.667476606226284,1.1309970905241051,0.7367578768107388,4.85873486182219
156,1791285911.0585072,-1.4854008888711734,-0.07165507413903062,0.2395508310746179,1.506298393738001,-4.705643550967617,1.1338929274973224,0.7433059739899978,4.897070366123075
157,1791285911.0785072,-1.4470805763711734,-0.018964644451530614,0.20123051857461788,1.461128185292348,-4.736457681666464,1.1357612121475802,0.7484990954924707,4.927903793418581
158,1791285911.1042128,-1.4279204201211735,0.004985550860969386,0.1724902841996179,1.4383095911728048,-4.775664517018739,1.1377753401960256,0.7548930216532856,4.967028062937719
159,1791285911.1242127,-1.4135503029336733,0.024145707110969385,0.1820703623246179,1.4254322470509728,-4.805855551243196,1.1391510493737917,0.7596533859705227,4.997097753648705
160,1791285911.133484,-1.3896001076211735,0.07204609773596939,0.1389600107621179,1.3983879947606692,-4.819700675312662,1.1397599974635528,0.7617523078476884,5.010871583860309
161,1791285911.1534839,-1.3800200294961735,0.11036641023596938,0.08626958107461788,1.3871115553328017,-4.849242137148544,1.1411502102797206,0.7659388284677874,5.040241600962502
162,1791285911.179145,-1.4039702248086734,0.12473652742346938,0.06231938576211788,1.4108774926494327,-4.886818199554394,1.1431188582841678,0.7707906349252314,5.07758121969008
163,1791285911.199145,-1.3848100685586735,0.12952656648596939,0.028789112324617883,1.3911523534090584,-4.915894656370576,1.1448044372806327,0.7741415094420936,5.106455967575898
164,1791285911.2236376,-1.3464897560586735,0.09599629304846938,0.00962895607461788,1.3499417277220083,-4.951178508033257,1.1469732823993968,0.7777001146799578,5.141452498790755
165,1791285911.2436376,-1.3129594826211735,0.08162617586096939,-0.00474116111288212,1.3155029130333553,-4.9796578220919,1.1487450880453012,0.7801774361943364,5.16965029130366
166,1791285911.2835932,-1.3273295998086734,0.06725605867346938,-0.01911127830038212,1.3291698480310246,-5.0359310592619035,1.1521999694244505,0.7843127358410394,5.225257206184485
167,1791285911.3035932,-1.3800200294961735,0.05767598054846939,0.00483891701211788,1.3812332227617092,-5.063934749610015,1.153857321551733,0.7860507802824135,5.252875183743563
168,1791285911.2985349,-1.4518706154336734,0.05288594148596939,0.08147954201211788,1.4551165322863715,-5.063934749610015,1.153857321551733,0.7860507802824135,5.252875183743563
169,1791285911.3185349,-1.4566606544961733,0.08641621492346938,0.1293799326371179,1.4649461394631902,-5.092140865759624,1.1554046778151932,0.7877328622319415,5.280661097674847
170,1791285911.3437476,-1.3991801857461734,0.12952656648596939,0.1485400888871179,1.4129920316891151,-5.127765220081675,1.157471075988497,0.7900608211596492,5.315817109829936
171,1791285911.3637476,-1.3943901466836734,0.1678468789859694,0.1629102060746179,1.4138727634398796,-5.15597568410097,1.1593104274153836,0.7920976480546033,5.343735080092213
172,1791285911.3888466,-1.4327104591836735,0.1486867227359694,0.1868604013871179,1.452475063806195,-5.191389886343001,1.1618683339964724,0.7949287699953463,5.37888266528788
173,1791285911.4088466,-1.4231303810586735,0.1726369180484694,0.22039067482461788,1.4504053352477473,-5.219660253606904,1.1640828303612287,0.7974572105579064,5.407021361313111
174,1791285911.4185908,-1.4518706154336734,0.23011738679846938,0.28266118263711787,1.4969233914387616,-5.233468877114609,1.1652942521190317,0.7988719439536318,5.420821299820273
175,1791285911.4385908,-1.5189311623086734,0.1917970742984694,0.3401416513871179,1.5683221405534598,-5.26201603865434,1.1680406080796168,0.8022743361267767,5.449474815391495
176,1791285911.4635658,-1.5476713966836735,0.1917970742984694,0.3880420420121179,1.607062380927131,-5.29806131388641,1.1716742247896583,0.8072497575290346,5.485793137347318
177,1791285911.4835658,-1.5668315529336734,0.2540675821109694,0.42157231544961793,1.6423259934318195,-5.327268302601886,1.1748163453910165,0.8118508395758219,5.5153497440347925
178,1791285911.5086613,-1.5716215919961734,0.2780177774234694,0.4167822763871179,1.6495441124451626,-5.364326325568882,1.1791690694660986,0.8183360785331757,5.553027152734439
179,1791285911.5286613,-1.6051518654336734,0.22532734773596938,0.4167822763871179,1.6736165602232058,-5.394195054501179,1.1828726767547033,0.8239796070339246,5.583499838651883
180,1791285911.538431,-1.6434721779336734,0.20616719148596938,0.4646826670121179,1.7203010467673263,-5.408977251534647,1.184726625098796,0.8269687383440079,5.598614951756868
181,1791285911.558431,-1.6482622169961734,0.23490742586096938,0.4694727060746179,1.7298423212682685,-5.43963699677694,1.1886142476727097,0.8335712861401392,5.630035130934116
182,1791285911.5833972,-1.5955717873086734,0.21574726961096938,0.4167822763871179,1.6631607495099237,-5.478242991780247,1.1935831091127844,0.8422365105890723,5.669669236835425
183,1791285911.6033971,-1.5620415138711734,0.1343166055484694,0.4407324716996179,1.6285759893825849,-5.509266957563771,1.197491595923166,0.8494230962922331,5.701537347814646
184,1791285911.628886,-1.5428813576211735,0.12473652742346938,0.5030029795121179,1.6275914973870715,-5.548810084909929,1.2022207935321527,0.859012266580473,5.742171215571243
185,1791285911.648886,-1.4854008888711734,0.21095723054846938,0.4503125498246179,1.566429106697619,-5.57972609211204,1.205878507838945,0.8668378082340572,5.773984241790741
186,1791285911.659009,-1.4087602638711734,0.2588576211734694,0.4072021982621179,1.4891025415905603,-5.5952243629095015,1.207808856557891,0.8708556270364655,5.78996782619876
187,1791285911.679009,-1.4231303810586735,0.34986836336096944,0.4455225107621179,1.5317304791538457,-5.625499061980005,1.2119636566152419,0.8788819969860125,5.821299611420136
188,1791285911.703577,-1.4135503029336733,0.46961933992346944,0.4646826670121179,1.5603194430550205,-5.662337105549247,1.2178118609844195,0.8889398360783437,5.859636614825287
189,1791285911.723577,-1.3081694435586735,0.5606300821109694,0.42157231544961793,1.4843640386313306,-5.691909915776844,1.2234039225103677,0.8972287800676982,5.8906345270025255
190,1791285911.7485774,-1.3081694435586735,0.5510500039859695,0.4646826670121179,1.493617548428995,-5.728237177037335,1.2314300008677193,0.9076976593202752,5.928999582068229
191,1791285911.7685773,-1.3464897560586735,0.5893703164859695,0.5125830576371179,1.5566417134659905,-5.756921346328457,1.2385982849275834,0.9162822925665783,5.959516955165818
192,1791285911.779315,-1.2937993263711733,0.6276906289859694,0.4263623545121179,1.499899023261373,-5.772137681253409,1.2428496664467286,0.9209560530830494,5.975818668303326
193,1791285911.799315,-1.2506889748086734,0.6181105508609693,0.3880420420121179,1.4480539324080977,-5.800045087747773,1.251449202893228,0.9295772102920689,6.005893931566187
194,1791285911.824245,-1.2650590919961735,0.5989503946109694,0.3736719248246179,1.4487052111623517,-5.834317531179999,1.262836235278233,0.9401357654138844,6.043001875655537
195,1791285911.844245,-1.2842192482461734,0.5989503946109694,0.3114014170121179,1.4508382043797157,-5.86151212196196,1.272398001056661,0.9483633449116732,6.072537695475594
196,1791285911.8684628,-1.2746391701211734,0.38818867586096945,0.27308110451211787,1.3601355637271768,-5.894150161398861,1.2840325164073485,0.9578932760438491,6.107970625060309
197,1791285911.8884628,-1.2123686623086734,0.23490742586096938,0.2539209482621179,1.2607518074700834,-5.920791302801793,1.2931341365580544,0.9653734190605311,6.1367671769991174
198,1791285911.8985183,-1.1596782326211734,0.2540675821109694,0.2443408701371179,1.212066994977772,-5.933965602380818,1.2973925816759244,0.9689459119760152,6.150937445752598
199,1791285911.9185183,-1.1213579201211734,0.28280781648596937,0.1724902841996179,1.169263333995944,-5.959659734917282,1.305397257105301,0.9756108446533964,6.178464426947661
200,1791285911.9434128,-1.1596782326211734,0.1438966836734694,0.1485400888871179,1.1779745399600892,-5.991103434290209,1.3146630275444127,0.9832618428573867,6.211961291570923
201,1791285911.9634128,-1.0878276466836734,-0.06207499601403062,0.1485400888871179,1.0996756121811893,-6.015947018972835,1.321113185675438,0.988932189893813,6.238184468309814
202,1791285911.9887714,-1.0686674904336735,-0.04291483976403062,0.1389600107621179,1.0785183230584383,-6.046823502849254,1.3278651297884863,0.9955901735671283,6.270446560750019
203,1791285912.0087714,-0.9776567482461734,0.07683613679846939,0.09105962013711788,0.9848900262104957,-6.070592004890847,1.3324423890222226,1.000398590695721,6.295100265299506
204,1791285912.0343132,-0.9489165138711734,0.024145707110969385,0.1485400888871179,0.9607755843462626,-6.100083959153368,1.3376045707496282,1.0060772415607167,6.325535685805349
205,1791285912.0543132,-0.8147954201211735,-0.023754683514030615,0.1916504404496179,0.8373683496310472,-6.1223586458230095,1.341040978809036,1.0103670975811516,6.348425628988924
206,1791285912.0629241,-0.7621049904336734,-0.10039530851403063,0.21560063576211788,0.798352596636703,-6.131528828170488,1.342218409559347,1.0122000521867462,6.357809762433336
207,1791285912.0829241,-0.8626958107461734,-0.19140605070153063,0.2635010263871179,0.92212424815272,-6.152070034272827,1.3441052216719935,1.0165373695963533,6.378709334756481
208,1791285912.108627,-0.8387456154336734,-0.27283671476403065,0.1772803232621179,0.899645704346084,-6.1777886715246,1.3452714002340582,1.0221250571467815,6.4046520313560125
209,1791285912.128627,-0.7189946388711734,-0.23451640226403064,0.09105962013711788,0.7617368890081864,-6.19713563683617,1.345281684074198,1.0262232741912993,6.423971288801209
210,1791285912.1542675,-0.5800835060586734,-0.2776267538265306,0.03357915138711788,0.6439728626653914,-6.220716620814675,1.344308020577668,1.0309288754197845,6.447270250023935
211,1791285912.1742675,-0.6136137794961734,-0.4692283163265306,0.047949268574617884,0.773948457965419,-6.23814167052821,1.3425421872140415,1.0341710440299048,6.464235513526704
212,1791285912.184132,-0.5705034279336734,-0.6177195272640307,0.00483891701211788,0.8408775123436348,-6.2463230884193255,1.3409977007882226,1.035569360566046,6.472034522388057
213,1791285912.204132,-0.5321831154336734,-0.5698191366390306,-0.12928217673788212,0.7903332196325963,-6.2620764630746635,1.3365547227070151,1.037792467547723,6.486678145390205
214,1791285912.229077,-0.4986528419961734,-0.5793992147640307,-0.16760248923788212,0.7825910179006468,-6.280706196723259,1.3296943898955587,1.0395938918445105,6.503546183432396
215,1791285912.249077,-0.5226030373086734,-0.6081394491390306,-0.14844233298788212,0.8154646837394367,-6.294934206862074,1.323237779934155,1.0403474922694123,6.516093752827577
216,1791285912.2736719,-0.41243213887117336,-0.7710007772640307,-0.23945307517538214,0.906576109836641,-6.3115312255480225,1.3139448449684432,1.0404196999227213,6.530264207417197
217,1791285912.2936718,-0.4747026466836734,-0.8428513632015306,-0.29214350486288215,1.0104894114500815,-6.324333832495279,1.3051007662575453,1.0396722159463578,6.540749555788027
218,1791285912.3042784,-0.6758842873086733,-0.8620115194515307,-0.20113276267538213,1.1137045468701838,-6.3310202439006344,1.2997578509407488,1.038942870617134,6.546036211950552
219,1791285912.3242784,-0.7381547951211734,-0.8141111288265307,-0.11491205955038213,1.1049227181435362,-6.343858180962675,1.28868012439504,1.037299820021659,6.556006711390314
220,1791285912.3487132,-0.6615141701211734,-0.7518406210140307,-0.06222162986288212,1.0033627698398329,-6.359755172260187,1.2743063453101742,1.0352689274759104,6.568266458129199
221,1791285912.3687131,-0.7429448341836734,-0.7231003866390306,-0.047851512675382124,1.0378492005407356,-6.372921844513652,1.2620936919023884,1.0336908686257142,6.578413952868828
222,1791285912.3934872,-0.9489165138711734,-0.6416697225765307,0.028789112324617883,1.1458670935834148,-6.389928595274299,1.2466991805003673,1.031993912768331,6.591696119767305
223,1791285912.4134872,-0.9153862404336734,-0.5793992147640307,0.028789112324617883,1.0837270100135503,-6.404395088603555,1.234303856524206,1.0309158279664035,6.603224205303914
224,1791285912.4241102,-0.9058061623086734,-0.5554490194515306,-0.01911127830038212,1.0627199338698357,-6.412377364218408,1.227803492680748,1.0304368080259227,6.609681149126206
225,1791285912.4441102,-0.9393364357461734,-0.7805808553890307,-0.23466303611288214,1.2436744557310453,-6.427919135005425,1.2153968980881933,1.0292895698745503,6.622293488264004
226,1791285912.46842,-0.8866460060586734,-1.1158835897640307,-0.32088373923788216,1.4609256312597645,-6.4473056410228455,1.1991210583355598,1.0270913817402356,6.63781274575849
227,1791285912.48842,-1.0974077248086733,-1.2308445272640307,-0.2586132314253821,1.6691802683454662,-6.463838773567581,1.1842192150623252,1.0246849360857877,6.6508319824093896
228,1791285912.513912,-1.1213579201211734,-1.1829441366390308,-0.24424311423788214,1.6481671985207582,-6.485992968880405,1.1634595094579152,1.0211163618596284,6.668164773531886
229,1791285912.533912,-0.9489165138711734,-1.2547947225765308,-0.34004389548788216,1.6095285635744112,-6.503872489332824,1.1459587452799265,1.0178601339662503,6.682036969046317
230,1791285912.5442452,-0.9105962013711734,-1.3458054647640307,-0.40231440330038215,1.6739876552840172,-6.513165678269436,1.1362575521720768,1.0158547847104331,6.689123210187874
231,1791285912.5642452,-0.8674858498086734,-1.4751365194515307,-0.42147455955038216,1.7624415607293313,-6.5311216287804,1.1160660790358474,1.011319971863335,6.702530962866733
232,1791285912.5899525,-0.8435356544961734,-1.6427878866390306,-0.46937495017538217,1.905417876673346,-6.554038486859417,1.087994210901133,1.004647825018105,6.719261056284572
233,1791285912.6099524,-0.8339555763711733,-1.7481687460140307,-0.7040868642378821,2.0609013028995777,-6.571709445887717,1.0643440916354572,0.9984753996514218,6.731801134189737
234,1791285912.6335676,-0.9632866310586734,-1.8104392538265308,-0.7519872548628822,2.184283923130999,-6.592627948476087,1.0343050278451158,0.9897015816371535,6.746261140687396
235,1791285912.6535676,-1.1357280373086733,-1.6523679647640308,-0.5555956533003822,2.0805971728505535,-6.610835217003064,1.007486389928603,0.9814241390866301,6.758799037775961
236,1791285912.67903,-1.1500981544961735,-1.4751365194515307,-0.5603856923628822,1.9526355625666831,-6.634903454001347,0.9724920019576296,0.9703355170707525,6.775635435402315
237,1791285912.69903,-1.2554790138711733,-1.5469871053890307,-0.9914892079878822,2.2254095146887694,-6.654580993438569,0.9445947905343375,0.9606043798386878,6.7895852812306385
238,1791285912.7086408,-1.4614506935586735,-1.9541404257015307,-1.3986425283003823,2.8125973503213313,-6.664576954288978,0.9306761325676132,0.9549067204578378,6.796660274586799
239,1791285912.7286408,-2.3044975685586735,-3.659394331951531,1.0538574716996179,4.451122497850283,-6.6879069756116785,0.8976361698630331,0.9443113816584656,6.8136315128873415
240,1791285912.7537675,-1.7728032326211733,-3.726454878826531,4.2583936045121185,5.929857785518288,-6.720504451246589,0.8484346211508264,0.9430077208034057,6.8391728262332565
241,1791285912.7737675,-1.9117143654336735,1.4372072305484693,1.537651417012118,2.843341048623195,-6.7480857163423495,0.8117124311361138,0.950819761424656,6.862914550297139
242,1791285912.7988777,-1.7488530373086735,-1.4607664022640308,2.074135792012118,3.0812927014149287,-6.784413898645493,0.7724786404094698,0.9659586296460523,6.896236022078325
243,1791285912.8188777,-2.1895366310586737,-2.198432417889031,1.2502490732621179,3.345190353323105,-6.814916160533305,0.7404280272128454,0.9811944258370546,6.924886890041888
244,1791285912.8289316,-2.1943266701211734,-2.035571089764031,-0.05743159080038212,2.993646202260725,-6.831255082787167,0.7235405102592689,0.9886039620506528,6.9402373640873405
245,1791285912.8489316,-2.0554155373086735,-2.806767378826531,-0.6226562001753821,3.53417273113122,-6.865256994611464,0.687722092124857,1.0001125349248121,6.971724346284208
246,1791285912.873912,-2.0985258888711735,-2.5097849569515307,-0.47416498923788214,3.305701721786421,-6.909138525427154,0.6397338244029316,1.010275950223261,7.0118551058351475
247,1791285912.893912,-1.7536430763711734,-1.9445603475765307,-0.15802241111288212,2.6232708718478617,-6.944779424924957,0.6003949079524827,1.0162441682458274,7.044372755316824
248,1791285912.9184818,-1.5285112404336734,-1.1494138632015307,0.07189946388711789,1.9138099106126525,-6.9880443280425135,0.5536152440773566,1.0223175717538389,7.084093914303977
249,1791285912.9384818,-1.4375004982461734,-1.4080759725765308,0.3880420420121179,2.0493077497960805,-7.022428634057823,0.5174118324900875,1.0272097142230474,7.1159945701096605
250,1791285912.9490354,-1.4710307716836735,-1.2404246053890307,0.737714893574618,2.06077849297216,-7.040153130764364,0.49907723480701643,1.0302950378561386,7.132625186840037
251,1791285912.9690354,-1.6578422951211735,-1.2116843710140308,0.5269531748246179,2.1199763533846436,-7.07339747081732,0.46586527496187774,1.0371619498076445,7.164194800862758
252,1791285912.9942682,-1.5716215919961734,-1.4272361288265307,0.2635010263871179,2.1392592612311843,-7.1151601534461655,0.4252548960755434,1.046021892119576,7.204200686725606
253,1791285913.0142682,-1.4375004982461734,-1.5900974569515307,0.42157231544961793,2.184614570631459,-7.147810430494463,0.39336863859655236,1.0530186731826932,7.235660381899373
254,1791285913.0394385,-1.5476713966836735,-1.5517771444515307,0.8239355966996179,2.341403195877142,-7.188373065396261,0.35332748653276136,1.062854646988682,7.275108771742141
255,1791285913.0594385,-1.3943901466836734,-1.4990867147640308,0.536533252949618,2.116471778945146,-7.220182069206316,0.32170748778318836,1.0715385437086256,7.3063479023953795
256,1791285913.069423,-1.1453081154336735,-1.6667380819515307,0.1581201670121179,2.0284842864369543,-7.235581765411996,0.3059191275313017,1.0757436625017411,7.32150629474323
257,1791285913.089423,-0.9680766701211734,-2.088261519451531,-0.10054194236288212,2.30393517596069,-7.264971957015963,0.2734047616378247,1.082989827402306,7.350335683910733
258,1791285913.1139898,-0.8147954201211735,-2.275073042889031,-0.16281245017538212,2.4220563207867207,-7.298943044502351,0.23141719814187578,1.0900702681763055,7.383520615265257
259,1791285913.1339898,-0.8195854591836734,-2.504994917889031,0.052739307637117885,2.636190679394271,-7.324902186664377,0.19519222741915954,1.0948047362303526,7.408838604013305
260,1791285913.1590235,-0.7573149513711734,-2.461884566326531,0.20123051857461788,2.5835818692452737,-7.355481670549027,0.1473257995505588,1.1003187323447532,7.438784632568998
261,1791285913.1790235,-0.5752934669961733,-2.164902144451531,0.1437500498246179,2.244644280291177,-7.37824660758838,0.10788031945292725,1.1045806670925116,7.461250539676928
262,1791285913.1894357,-0.5082329201211734,-2.069101363201531,-0.09096186423788212,2.132546649675678,-7.389166681971484,0.08711851899674412,1.1065078799447403,7.472063542201007
263,1791285913.2094357,-0.4555424904336734,-2.0978415975765308,-0.28256342673788215,2.165248350476873,-7.4084415055456345,0.04697040182191231,1.1090941452703005,7.491148215247875
264,1791285913.2335,-0.7189946388711734,-2.2032224569515306,0.00962895607461788,2.3175925445030487,-7.430274350921024,-0.0018530937613445916,1.1112466079864358,7.512912177556229
265,1791285913.2535,-0.5992436623086734,-2.308603316326531,0.01920903419961788,2.385185784371073,-7.447675299931065,-0.04311169206556915,1.1128104505100862,7.530476285731235
266,1791285913.2799315,-0.5609233498086734,-2.1265818319515306,-0.10533198142538212,2.2018356248044286,-7.469522400481031,-0.09825138947529086,1.1143964538214082,7.552833751851782
267,1791285913.2999315,-0.8147954201211735,-1.9685105428890308,-0.11491205955038213,2.133572149130612,-7.485637373857461,-0.13985821512543606,1.1150861576453506,7.569527353289766
268,1791285913.3082573,-0.8291655373086734,-1.8248093710140307,-0.08617182517538212,2.006207943423378,-7.492366165267879,-0.1569493717227782,1.1152046435629992,7.576533855052689
269,1791285913.3282573,-0.7142045998086733,-2.179272261639031,-0.31130366111288216,2.3143521275206695,-7.508420334751991,-0.19785289825389987,1.114850360206438,7.593313704721878
270,1791285913.3538203,-0.7333647560586734,-2.3996140585140306,-0.28256342673788215,2.5250373433628717,-7.528637360052449,-0.25107041542851244,1.1133268797331966,7.614651245711613
271,1791285913.3738203,-0.7764751076211734,-2.370873824139031,-0.2681933095503821,2.5091600056653487,-7.544346904308977,-0.2936170128375579,1.1114875958766064,7.631434061732542
272,1791285913.398801,-0.7668950294961734,-2.2798630819515306,-0.3687841298628821,2.4334965364984993,-7.563917075597856,-0.3475014966055084,1.1083414424037195,7.6525825424893945
273,1791285913.418801,-0.8052153419961734,-2.4091941366390306,-0.31609370017538213,2.559785803986822,-7.579593179679701,-0.3912046762539523,1.1051730985912724,7.66972499155086
274,1791285913.4437652,-0.7046245216836734,-2.3469236288265307,-0.46458491111288214,2.494070042267458,-7.5990520182623245,-0.4464775707612842,1.1003498948942425,7.691274516531274
275,1791285913.4637651,-0.5082329201211734,-2.471464644451531,-0.7711474111128822,2.638390895893732,-7.614122331879484,-0.491344737942282,1.0952118054940019,7.708162390299187
276,1791285913.4733176,-0.30226124043367336,-2.5193650350765306,-0.6992968251753822,2.632029271709386,-7.620821256010795,-0.5131355530853806,1.0920723611254315,7.71575315532063
277,1791285913.4933176,-0.3549516701211734,-2.557685347576531,-0.34004389548788216,2.604491289328506,-7.633728755094074,-0.5595309514577274,1.0849262673262483,7.730715012049259
278,1791285913.5182393,-0.4651225685586734,-2.7492869100765307,-0.22508295798788214,2.7974237890740383,-7.648932829235664,-0.6185910195039173,1.0763010370646828,7.749016208394232
279,1791285913.5382392,-0.42201221699617336,-2.787607222576531,-0.10533198142538212,2.821337123593326,-7.660634791889769,-0.6671834112819024,1.0699218263072912,7.763709927181108
280,1791285913.5634341,-0.3549516701211734,-2.557685347576531,-0.13886225486288212,2.5859287985470703,-7.674633224746923,-0.7293158974112928,1.062629638883475,7.7820998812685405
281,1791285913.583434,-0.29268116230867336,-2.6486960897640306,-0.31609370017538213,2.6834992949490757,-7.68504996909805,-0.7790487067065276,1.0570268784751786,7.7964232656246955
282,1791285913.5931573,-0.2783110451211734,-2.8163474569515308,-0.43105463767538216,2.8627046890615966,-7.689770930771064,-0.8035854077583591,1.0541667674863504,7.803178458100677
283,1791285913.6131573,-0.37411182637117335,-2.658276167889031,-0.26340327048788215,2.6973641071055425,-7.699003676308877,-0.8546972139568412,1.0481244740002653,7.816887478297326
284,1791285913.639037,-0.24478077168367338,-2.600795699139031,-0.3975243642378821,2.6423628658851657,-7.710359887256715,-0.921122030226795,1.0401958044761315,7.834546744849778
285,1791285913.6590369,-0.40285206074617336,-2.6295359335140307,-0.5891259267378821,2.7246684873657037,-7.71879108153997,-0.972601110407901,1.0335075914767553,7.848173457694965
286,1791285913.6837835,-0.5609233498086734,-2.744496871014031,-0.46937495017538217,2.840283599082763,-7.729447220812821,-1.036717604969224,1.0245087943158182,7.865669456658766
287,1791285913.7037835,-0.43159229512117336,-2.461884566326531,-0.18197260642538213,2.5060450029107577,-7.738256343206632,-1.0885726903995956,1.0173499526896317,7.880393560076748
288,1791285913.7133114,-0.4268022560586734,-2.241542769451531,-0.22987299705038214,2.293363413816078,-7.742436887011214,-1.1129317776518435,1.014156769977921,7.887487562281873
289,1791285913.7333114,-0.5513432716836734,-2.294233199139031,-0.33046381736288216,2.382580892613851,-7.7513631468421105,-1.1631975984737495,1.0076188998392954,7.9026549421463725
290,1791285913.7589157,-0.5848735451211734,-2.3804539022640308,-0.07659174705038212,2.4524486009502606,-7.763258436657208,-1.2268728273902545,0.9997228336105529,7.922931542867209
291,1791285913.7789156,-0.6040337013711734,-2.342133589764031,0.08626958107461788,2.4203076055146164,-7.772939693613884,-1.2762339777865825,0.994494743822914,7.939545606777926
292,1791285913.8036084,-0.5465532326211734,-2.3038132772640307,-0.01911127830038212,2.367834726822158,-7.785230468275532,-1.3366398340184527,0.9891325313071965,7.960829269274697
293,1791285913.8236084,-0.7333647560586734,-2.3133933553890307,0.06710942482461789,2.4277801294778336,-7.795612048520614,-1.3851526451301046,0.9855128603411288,7.978812609608553
294,1791285913.8484664,-0.7237846779336734,-2.284653121014031,-0.03348139548788212,2.396794765351118,-7.809296470541993,-1.44497714387959,0.981751495742173,8.002306311966946
295,1791285913.8684664,-0.7860551857461734,-2.581635542889031,-0.2969335439253821,2.7149391081301397,-7.820919783661283,-1.4931895796088208,0.9786835372292465,8.022108379295332
296,1791285913.8788996,-0.7333647560586734,-2.615165816326531,-0.30172358298788216,2.732755611620412,-7.827262622569453,-1.5186339621671483,0.976854726686582,8.03284099374376
297,1791285913.8988996,-0.7381547951211734,-2.370873824139031,-0.15802241111288212,2.4881491663407043,-7.83980500209817,-1.5675724147236574,0.9731852212186269,8.05399995164666
298,1791285913.9239366,-0.7189946388711734,-2.5720554647640306,-0.00474116111288212,2.6706637907375574,-7.855887247021079,-1.6289283581248726,0.9689749558213627,8.081292254263598
299,1791285913.9439366,-0.6758842873086733,-2.6726462850765307,-0.06701166892538213,2.75759828451069,-7.868899296380999,-1.678455664052177,0.9660085856216731,8.103700521383363
300,1791285913.954206,-0.8052153419961734,-2.6055857382015306,-0.052641551737882125,2.7276766522215574,-7.875719156870321,-1.7041371819175894,0.9646217556207506,8.11551174628594
301,1791285913.974206,-0.8435356544961734,-2.5768455038265308,0.00483891701211788,2.7114034310878834,-7.889481886895488,-1.7544240393112756,0.9622542915569132,8.139278928442309
302,1791285913.9986296,-0.7668950294961734,-2.567265425701531,-0.10054194236288212,2.6812475518762717,-7.906717593653689,-1.8160448240942295,0.9596215485634996,8.169153898989762
303,1791285914.0186296,-0.8291655373086734,-2.548105269451531,-0.24903315330038214,2.691165818731683,-7.921108551827808,-1.8666088624665458,0.9572646723929998,8.19417750529545
304,1791285914.0436537,-0.8100053810586734,-2.5289451132015306,-0.06222162986288212,2.6562273310378957,-7.939490163260772,-1.9299138323347869,0.9541739003866073,8.226209290124503
305,1791285914.0636537,-0.8722758888711734,-2.3996140585140306,0.11979985451211789,2.5560447690260233,-7.954500990967738,-1.980312414830519,0.9521605751379612,8.252413770315062
306,1791285914.0888298,-0.8962260841836734,-2.370873824139031,0.04315922951211788,2.534980592243442,-7.973901614343984,-2.043245697460626,0.9503140511354614,8.286196759141943
307,1791285914.1088297,-0.9010161232461734,-2.481044722576531,-0.2586132314253821,2.6522243067362714,-7.9896976359676986,-2.0930189104429213,0.9487440155826373,8.313610026983667
308,1791285914.118609,-0.8243754982461734,-2.567265425701531,-0.41189448142538215,2.727655365316479,-7.997528204680823,-2.1174081435113403,0.9475997041483762,8.327173579923473
309,1791285914.138609,-0.8818559669961734,-2.6295359335140307,-0.40231440330038215,2.8024963962994143,-8.013700047280476,-2.1676010737964266,0.9443891447805163,8.355223140029583
310,1791285914.16387,-0.9201762794961734,-2.591215621014031,-0.3783642079878821,2.775658886430544,-8.034476252653329,-2.23137939740243,0.939463222931518,8.391332064508184
311,1791285914.18387,-0.9441264748086734,-2.514574996014031,-0.34004389548788216,2.707414275996969,-8.051254449319252,-2.281958920038985,0.9350706183805783,8.420474557991799
312,1791285914.2083776,-1.0255571388711735,-2.495414839764031,-0.28256342673788215,2.712693266429883,-8.072350532340552,-2.343849751921928,0.9293510179442941,8.456959742786847
313,1791285914.2283776,-0.9537065529336735,-2.481044722576531,-0.25382319236288214,2.670124588388109,-8.089953016350465,-2.3942458702002636,0.9245789584161083,8.487319915266234
314,1791285914.2386699,-0.9105962013711734,-2.471464644451531,0.1677002451371179,2.639213197705822,-8.099091840476822,-2.420113232274098,0.9224250705319418,8.503123232568857
315,1791285914.2586699,-1.0447172951211734,-2.437934371014031,0.6419141123246179,2.7289213897982445,-8.117119586366492,-2.4702029626514745,0.9200818712478646,8.534405878903675
316,1791285914.2837682,-1.1596782326211734,-2.1409519491390308,0.22518071388711788,2.4452474732926923,-8.140498915839624,-2.5322518430862555,0.919214624956679,8.574670694687585
317,1791285914.3037682,-1.2075786232461734,-2.2559128866390306,-0.30172358298788216,2.5765143515913533,-8.159885445759794,-2.58087503873838,0.9185123941288668,8.607456736555443
318,1791285914.3285334,-1.2219487404336735,-2.5289451132015306,-0.4981151845503821,2.852514828517637,-8.184802828300413,-2.6409394981620498,0.9162876634352798,8.648996580717935
319,1791285914.3485334,-1.1357280373086733,-2.730126753826531,-0.5651757314253821,3.010464062911334,-8.20544375239621,-2.690059045429811,0.9131655733532121,8.683294087268624
320,1791285914.3595636,-1.1357280373086733,-2.610375777264031,-0.2777733876753821,2.8602618635636254,-8.216998979382112,-2.717503504395349,0.9110046458980348,8.702518427927371
321,1791285914.3795636,-0.9537065529336735,-2.4331443319515307,0.014418995137117882,2.6134183432120572,-8.237942299670923,-2.767366784478754,0.9072791454997826,8.737572185704822
322,1791285914.4038613,-0.6854643654336734,-2.241542769451531,0.1437500498246179,2.348412114681835,-8.262556607775526,-2.827377107967691,0.9037202291777224,8.779556552581672
323,1791285914.4238613,-0.6902544044961734,-2.0738914022640307,0.19644047951211788,2.1945536113984514,-8.2818416737989,-2.875836693282421,0.9017405057873469,8.813198859442544
324,1791285914.448949,-0.6423540138711734,-2.222382613201531,0.08147954201211788,2.314787695311036,-8.304911485010809,-2.935589763202317,0.9001525883635644,8.854350157635528
325,1791285914.468949,-0.6423540138711734,-2.5193650350765306,-0.08138178611288212,2.601238523129607,-8.322471079529574,-2.983192172427232,0.8990767325372379,8.886579734533816
326,1791285914.4784253,-0.7142045998086733,-2.591215621014031,0.07668950294961789,2.688934340001194,-8.330507124734261,-3.005995643460039,0.8986401093845625,8.901736505308598
327,1791285914.4984252,-0.5944536232461733,-2.514574996014031,0.3832520029496179,2.612153253263361,-8.346886527819555,-3.0545630468690725,0.8985467324956112,8.933546683488714
328,1791285914.5238853,-0.4363823341836734,-2.7828171835140307,0.4263623545121179,2.8489095941769844,-8.366578262808558,-3.117230838043375,0.899991652824919,8.973669533724975
329,1791285914.5438852,-0.5273930763711734,-2.9792087850765308,0.3976221201371179,3.0515458037695855,-8.381172357867117,-3.1677179863042584,0.9021924208772317,9.005134007738013
330,1791285914.5688863,-1.0255571388711735,-3.1756003866390308,0.694604542012118,3.408618595633054,-8.399591153159298,-3.2329036348699236,0.9065788482084305,9.045810226873325
331,1791285914.5888863,-0.9441264748086734,-2.969628706951531,0.1677002451371179,3.1206077660937015,-8.41506991907812,-3.286445808548068,0.9108549467395773,9.079855975151618
332,1791285914.599166,-0.4890727638711734,-3.0654294882015307,-0.7519872548628822,3.1939841807642537,-8.422937331278225,-3.31449049643096,0.9122726431680541,9.09747008310796
333,1791285914.619166,-0.3549516701211734,-3.611493941326531,-1.1591405751753823,3.8095256987422945,-8.437214102384816,-3.370884784366879,0.9117504701186951,9.131305216600692
334,1791285914.6442113,-0.3645317482461734,-3.999487105389031,-1.1974608876753823,4.190786689771367,-8.453762211087161,-3.4452090750351845,0.9067680022350443,9.17375546339597
335,1791285914.6642113,-0.6279838966836734,-3.994697066326531,-1.3842724111128821,4.274128979614452,-8.466483290742836,-3.507649204470793,0.899513471952238,9.208369385525094
336,1791285914.688655,-0.5800835060586734,-4.037807417889031,-1.5279735829878822,4.356040505811422,-8.481913365504376,-3.587241217587001,0.8866381270956358,9.2518798663567
337,1791285914.7086549,-0.6231938576211734,-3.9132664022640307,-1.3363720204878822,4.1818554131399726,-8.494449544349385,-3.654522243910729,0.8733871045571966,9.288380425410157
338,1791285914.7190669,-0.6998344826211734,-3.7935154257015307,-1.034599559550382,3.9938607683196663,-8.50103007292039,-3.6903129487703312,0.8656719137485573,9.307809077479615
339,1791285914.7390668,-0.6758842873086733,-3.5540134725765307,-0.9052685048628821,3.7292549388561413,-8.513837897847914,-3.7597709105856296,0.8501652647613166,9.345806226769522
340,1791285914.764135,-0.7573149513711734,-3.213920699139031,-0.7807274892378822,3.3929850586727213,-8.530177826461333,-3.846495346644636,0.8304747440913656,9.39410179332676
341,1791285914.7841349,-0.9249663185586734,-2.5720554647640306,-0.5651757314253821,2.791138766110118,-8.543782226756482,-3.9139867878647094,0.8151026944500018,9.432915758996215
342,1791285914.808329,-0.8531157326211734,-1.8391794882015307,-0.16760248923788212,2.034325007825873,-8.560997486640693,-3.991389767048217,0.7979666130833735,9.479378721960698
343,1791285914.828329,-0.7237846779336734,-1.2452146444515306,0.08147954201211788,1.4425888834087859,-8.575459066667218,-4.050403239317696,0.7857968315795142,9.516393290826135
344,1791285914.8533585,-0.8052153419961734,-0.8093210897640307,-0.11491205955038213,1.1474219602016353,-8.593712841550612,-4.1170356910712815,0.7727884497170712,9.560286882337936
345,1791285914.8733585,-0.9968169044961734,-0.8045310507015307,-0.22987299705038214,1.3014437165721642,-8.608813852077935,-4.164713231250987,0.7634359790696412,9.593713917582908
346,1791285914.8834002,-1.3512797951211735,-0.5075486288265306,-0.17718256736288213,1.4542889525481908,-8.617026977878421,-4.186048894181106,0.7591380297123359,9.610018201341498
347,1791285914.9034002,-1.5955717873086734,0.043305863360969386,0.03836919044961788,1.5966204686877195,-8.635351551579431,-4.2228651804410315,0.7516536544530981,9.641932895835733
348,1791285914.9292014,-1.7057426857461735,0.44087910554846943,0.12458989357461789,1.7661979326413906,-8.661833722295166,-4.262299185138029,0.7437619935141048,9.682341642356672
349,1791285914.9492013,-1.6626323341836735,0.5127296914859695,0.03836919044961788,1.7403189966153065,-8.684334956444502,-4.2868512048828,0.7388067434162102,9.712909054070582
350,1791285914.9733596,-1.7249028419961734,0.5893703164859695,0.052739307637117885,1.8235757782037165,-8.713575328424644,-4.310062545958353,0.7338841351180838,9.748929175965003
351,1791285914.9933596,-2.0889458107461736,0.9725734414859694,0.3688818857621179,2.333595411583008,-8.739872340851507,-4.324053290651288,0.7310525613335985,9.778406988983729
352,1791285915.0189846,-2.2997075294961733,1.2503957071109695,0.4551025888871179,2.6569272688567693,-8.776945887600803,-4.335017827661307,0.7295523932885538,9.816282665783778
353,1791285915.0389845,-2.3140776466836734,1.0779543008609693,0.2682910654496179,2.566889348107121,-8.8084616779159,-4.3387993360592505,0.7296422498792118,9.84614415000664
354,1791285915.0489333,-2.1799565529336733,0.8240822305484694,0.08147954201211788,2.3319436123437267,-8.825140475139406,-4.33897902525683,0.7299412261854648,9.861169179222493
355,1791285915.0689332,-2.0362553810586737,1.1114845742984694,0.1581201670121179,2.3252388959007617,-8.859964833651773,-4.33638272337113,0.7308115038922168,9.891272791270035
356,1791285915.0935776,-2.1895366310586737,1.6144386758609695,0.3640918466996179,2.7446394607847178,-8.904250061777153,-4.328624990131356,0.7326882405338159,9.927713509447413
357,1791285915.1135776,-2.2422270607461736,1.6527589883609695,0.19644047951211788,2.792451132525214,-8.94144617967752,-4.31837282136696,0.7348236335469207,9.956795136026937
358,1791285915.1238906,-2.1607963966836734,1.3605666055484693,-0.00953120017538212,2.553482602218314,-8.961155040346453,-4.311548511331462,0.7359041557587738,9.971625000427675
359,1791285915.1438906,-2.2805473732461734,1.2312355508609694,0.10063969826211788,2.593639460717358,-9.000305094385403,-4.296411633403947,0.7378219489314252,10.00045128701668
360,1791285915.1684024,-2.2422270607461736,1.6288087930484694,0.22039067482461788,2.7801389040485165,-9.049404389757127,-4.275384878347855,0.7404099936640337,10.035877770582832
361,1791285915.1884024,-2.0889458107461736,1.8204103555484694,0.3784619638871179,2.796573246123081,-9.089953588815655,-4.25562810719562,0.74310319066801,10.06428483229469
362,1791285915.213684,-2.1320561623086736,1.9305812539859695,0.5077930185746179,2.9207295676240808,-9.14152611156283,-4.227287662452549,0.7476774054741852,10.099330776450744
363,1791285915.233684,-2.2039067482461734,1.9832716836734694,0.4886328623246179,3.0048849562619813,-9.182708618428988,-4.202360111746187,0.7522478517305187,10.126590981677824
364,1791285915.2436924,-2.2518071388711736,1.7581398477359695,0.4119922373246179,2.886421438127839,-9.203570359971174,-4.188948664660316,0.754867944124639,10.1401589681408
365,1791285915.2636924,-2.0793657326211736,1.5042677774234694,0.3305615732621179,2.587634895017313,-9.245502504081635,-4.161274607350907,0.7604322171054397,10.167289711008294
366,1791285915.288287,-1.8494438576211734,1.5282179727359695,0.4167822763871179,2.4350770461314672,-9.296579928182076,-4.126754072676649,0.7676269237985983,10.200281791772797
367,1791285915.308287,-1.8686040138711735,1.5282179727359695,0.4263623545121179,2.4513090360445813,-9.337462196240796,-4.098308501080511,0.773864689267029,10.226592755827776
368,1791285915.33333,-1.9787749123086735,1.3845168008609694,0.2635010263871179,2.429376404832227,-9.388200624880515,-4.062562281544717,0.7817994429676332,10.259333976114688
369,1791285915.35333,-1.9596147560586734,1.1114845742984694,0.03836919044961788,2.2532110744096085,-9.428551045874297,-4.034552624279686,0.7876386083838183,10.285697073128112
370,1791285915.3642502,-1.9308745216836734,1.0204738321109694,0.11979985451211789,2.187234616050945,-9.450464579104306,-4.019806869581676,0.7904781824999993,10.300241928549527
371,1791285915.3842502,-1.8494438576211734,1.2503957071109695,0.1533301279496179,2.237731470706723,-9.490248599532022,-3.9934453467715136,0.7953083394361732,10.326903677934993
372,1791285915.4087186,-1.7871733498086735,1.4132570352359695,0.09584965919961788,2.280454162459531,-9.53829402872688,-3.9611436105112645,0.8007885404512401,10.359101021230515
373,1791285915.4287186,-1.9021342873086735,1.2887160196109695,0.10063969826211788,2.299789593641885,-9.577208622181567,-3.9346483005561907,0.804890766518367,10.385192891221868
374,1791285915.4535732,-1.8446538185586734,1.1641750039859693,0.09105962013711788,2.1831955946841646,-9.62529942933216,-3.9020882342672474,0.8095813932119507,10.417682262602554
375,1791285915.4735732,-1.7775932716836735,1.3174562539859693,0.06710942482461789,2.213601702114023,-9.663625738836,-3.87609549641522,0.8130269212844949,10.443696256228316
376,1791285915.4990487,-1.8159135841836735,1.4228371133609694,-0.02869135642538212,2.3071260889499947,-9.711987991681589,-3.842717126452537,0.816830832498058,10.476468788357005
377,1791285915.5190487,-1.8638139748086735,1.3845168008609694,-0.05743159080038212,2.322496004771647,-9.749780053244471,-3.8162324757877166,0.8192400252233276,10.502047210655098
378,1791285915.5291731,-1.8015434669961734,1.2120753946109695,-0.08138178611288212,2.172857248143295,-9.768824801988227,-3.8028647343225606,0.8201712694961897,10.514960727972383
379,1791285915.549173,-1.8590239357461735,0.7953419961734693,0.4455225107621179,2.0705142337473013,-9.806293738616505,-3.777407799110745,0.822281134919487,10.540794696494967
380,1791285915.5742686,-2.2182768654336735,0.5893703164859695,1.111337940449618,2.5501336513123807,-9.853930670995469,-3.747650246742586,0.8274616891735493,10.574947985108246
381,1791285915.5942686,-1.8638139748086735,0.8911427774234694,1.183188526387118,2.3807295250448424,-9.892323661694057,-3.725271337014155,0.8344128485420444,10.603393738039882
382,1791285915.6333349,-1.7680131935586734,0.9342531289859693,0.713764698262118,2.1232427101259117,-9.966709468131116,-3.682766824733387,0.8515120200460723,10.659415641946524
383,1791285915.6533349,-1.7536430763711734,0.4312990274234694,0.4886328623246179,1.8708407106176979,-10.004361458501576,-3.66222235861231,0.860756440365503,10.688312422730839
384,1791285915.648361,-1.4997710060586735,-0.10039530851403063,0.4407324716996179,1.5664090781773221,-10.004361458501576,-3.66222235861231,0.860756440365503,10.688312422730839
385,1791285915.668361,-1.5380913185586735,-0.21535624601403064,0.4167822763871179,1.6080456096868778,-10.04026990968462,-3.6474307068806855,0.8699067446125704,10.71762606014676
386,1791285915.6935656,-1.6961626076211735,-0.09560526945153063,0.3640918466996179,1.737432252455415,-10.084848876907484,-3.632173730126948,0.8811846663673316,10.755154545246079
387,1791285915.7135656,-1.6195219826211735,0.00019551179846938584,0.2970312998246179,1.6465354789659352,-10.11988992485271,-3.622026351804954,0.8897830585173235,10.78531227529038
388,1791285915.7395694,-1.5428813576211735,0.043305863360969386,0.2874512216996179,1.5700275431829205,-10.1647836315804,-3.610726992851238,0.9004256024228227,10.824552737145673
389,1791285915.7595694,-1.6386821388711734,0.20137715242346937,0.3161914560746179,1.6810142612923236,-10.198905189827835,-3.602973023639509,0.9082886184085862,10.85467963113153
390,1791285915.7692723,-1.6578422951211735,0.3642384805484694,0.3305615732621179,1.7292720144391467,-10.215374995135232,-3.5993638749323096,0.9120017804587107,10.869271081492158
391,1791285915.7892723,-1.6817924904336734,0.5127296914859695,0.3640918466996179,1.7955168031081004,-10.249240333014932,-3.591725021929009,0.9195493979706526,10.89921956528811
392,1791285915.8141327,-1.7775932716836735,0.6995412149234693,0.3976221201371179,1.951230150785398,-10.291471463679816,-3.5813937462046845,0.9289442009381373,10.936347808182886
393,1791285915.8341327,-1.8254936623086735,0.8145021524234693,0.3928320810746179,2.0371936361949037,-10.325754508184943,-3.5720579680930062,0.9365542191431016,10.966218039785328
394,1791285915.8741148,-1.9212944435586734,0.9294630899234694,0.3545117685746179,2.163550916534533,-10.395244958866558,-3.5509646882227104,0.9517264939270937,11.026162128822882
395,1791285915.8941147,-2.0362553810586737,1.0108937539859695,0.3928320810746179,2.3070672297658916,-10.430727927876248,-3.539085502483417,0.9592986092851516,11.056467117530909
396,1791285915.8886914,-2.1416362404336735,1.1114845742984694,0.4263623545121179,2.4502629660074136,-10.430727927876248,-3.539085502483417,0.9592986092851516,11.056467117530909
397,1791285915.9086914,-2.0937358498086733,1.1737550821109695,0.4263623545121179,2.437871132545872,-10.468044231799723,-3.524368904783336,0.9670930203843385,11.087668606429183
398,1791285915.9340682,-2.0649956154336735,1.1258546914859695,0.3976221201371179,2.385342539033671,-10.516205567419378,-3.5041200803122226,0.9770676652964516,11.127627702975937
399,1791285915.9540682,-2.0697856544961732,1.0204738321109694,0.4263623545121179,2.346734828421506,-10.55467114055557,-3.4873358490937054,0.9849856820521351,11.15942610547238
400,1791285915.978357,-2.0602055763711733,0.9773634805484694,0.3976221201371179,2.314689987977447,-10.601901809640417,-3.4663704466991736,0.994660309175705,11.198455035658075
401,1791285915.998357,-2.0697856544961732,0.9821535196109694,0.3066113779496179,2.3114170391191915,-10.641153900967172,-3.448757326802266,1.0024880047246687,11.230897811077172
402,1791285916.0089104,-2.0985258888711735,0.8815626992984694,0.3209814951371179,2.2986937201979325,-10.662058406298332,-3.439382386379441,1.0064956098682518,11.248194258268219
403,1791285916.0289104,-2.0745756935586734,0.8719826211734694,0.3449316904496179,2.276663319643341,-10.701992280835286,-3.4216503558687323,1.0139501688782353,11.281330811648193
404,1791285916.053706,-1.9117143654336735,0.9055128946109694,0.3353516123246179,2.1417437104380466,-10.75148820584323,-3.399658598803604,1.0230709650838883,11.322493163098093
405,1791285916.073706,-1.8207036232461735,0.8528224649234694,0.3449316904496179,2.039913162724413,-10.79102156681808,-3.3819434016143277,1.0303446683334667,11.355408304540124
406,1791285916.0990894,-1.8350737404336734,0.7282814492984694,0.3736719248246179,2.00935815862271,-10.840629825890396,-3.359822228479903,1.0395595784013676,11.39685678360565
407,1791285916.1190894,-1.7728032326211733,0.7761818399234693,0.3066113779496179,1.9594131997379287,-10.879265601186702,-3.342750400160856,1.0467514717158959,11.429264582748937
408,1791285916.129176,-1.7440629982461735,0.8671925821109694,0.1820703623246179,1.9562536474488015,-10.89848839097927,-3.3341888827261483,1.0502041626030665,11.445383064675177
409,1791285916.149176,-1.7488530373086735,0.8911427774234694,0.21560063576211788,1.9746154131877978,-10.936126107855603,-3.3171216858517965,1.056619880075715,11.476872226205206
410,1791285916.1740723,-1.7775932716836735,0.9629933633609694,0.28266118263711787,2.041345488050015,-10.982535156333086,-3.2956008346405707,1.0643387021933979,11.515636334756431
411,1791285916.1940722,-1.6530522560586733,0.9390431680484694,0.2635010263871179,1.9193271278305426,-11.01937058491631,-3.2780527114976308,1.0704285838122365,11.546340330170336
412,1791285916.2188847,-1.6003618263711734,0.8145021524234693,0.3066113779496179,1.8216976337188084,-11.064269060299324,-3.2562844465120646,1.077911491885494,11.583752907397157
413,1791285916.2388847,-1.6434721779336734,0.8336623086734694,0.27308110451211787,1.8629457679133843,-11.099896502815977,-3.2388979150559583,1.0839078618718505,11.61348433203437
414,1791285916.2643414,-1.5859917091836735,0.6899611367984694,0.21081059669961788,1.7423711371497277,-11.144608020947922,-3.2171782855446542,1.091319261028812,11.650901329555978
415,1791285916.2843413,-1.4901909279336734,0.24448750398596938,0.2587109873246179,1.5321143939874695,-11.179080680250623,-3.20127222690283,1.0969728813789994,11.680040163833901
416,1791285916.2941213,-1.3560698341836734,-0.13392558195153062,0.2874512216996179,1.3926556148382825,-11.195496869717077,-3.194579817975959,1.0997234012443247,11.694181541797125
417,1791285916.3141212,-1.3081694435586735,-0.27283671476403065,0.1485400888871179,1.344548743627553,-11.228028700179499,-3.1835568671542784,1.1051584844419329,11.722842577386837
418,1791285916.3390536,-1.3033794044961735,-0.45485819913903064,0.07668950294961789,1.3825972418790158,-11.267383728028515,-3.1732373846743447,1.111338810563964,11.75833515111737
419,1791285916.3590536,-1.2937993263711733,-0.8141111288265307,0.07189946388711789,1.5303147257688416,-11.298113461524418,-3.1681045650127504,1.11577570886766,11.786823565186383
420,1791285916.3838968,-1.0878276466836734,-0.9865525350765307,-0.07180170798788213,1.470309619986636,-11.33499661767225,-3.166040211304563,1.120460535441711,11.82207218526943
421,1791285916.4038968,-0.9776567482461734,-1.0152927694515308,-0.05743159080038212,1.4106489686359622,-11.363333645255478,-3.1676303581741774,1.1234724693414715,11.849954599440036
422,1791285916.4135957,-1.0974077248086733,-0.9386521444515307,0.08626958107461788,1.4466561455204192,-11.376523665678004,-3.1697071493359634,1.1247349725347848,11.863277914924105
423,1791285916.4335957,-1.1548881935586734,-1.0871433553890306,0.11500981544961789,1.5902435890257476,-11.403021313442505,-3.176385998190454,1.1272497819867502,11.89071129728216
424,1791285916.459119,-1.0542973732461733,-1.1110935507015307,-0.047851512675382124,1.5324364903347996,-11.435993494242899,-3.187838846485511,1.130106271129369,11.925661570561774
425,1791285916.479119,-1.0303471779336735,-1.1494138632015307,-0.10054194236288212,1.546892439108115,-11.461081717508863,-3.198857822052406,1.1317862577425122,11.952825006429928
426,1791285916.5188396,-1.1548881935586734,-1.3362253866390308,-0.03827143455038212,1.7665587242496037,-11.509943662234285,-3.2248640422342914,1.1342087534447631,12.006872227815768
427,1791285916.5388396,-1.2698491310586735,-1.4463962850765308,0.11021977638711788,1.927881590824624,-11.534493178503805,-3.2401683676295456,1.1353534792958149,12.034627184025563
428,1791285916.5340958,-1.3033794044961735,-1.3937058553890307,-0.03348139548788212,1.9084902114641,-11.534493178503805,-3.2401683676295456,1.1353534792958149,12.034627184025563
429,1791285916.5540957,-1.3464897560586735,-1.3937058553890307,-0.23945307517538214,1.95263628198586,-11.55948586721265,-3.259027983082074,1.1358689837499785,12.06371316208431
430,1791285916.579127,-1.2458989357461734,-1.7864890585140307,-0.31130366111288216,2.200163012984738,-11.590940720714134,-3.2850617919396945,1.1353834311763098,12.100852585820588
431,1791285916.599127,-1.1309379982461734,-2.011620894451531,-0.24424311423788214,2.3206236398269446,-11.615868482737046,-3.3084397682486717,1.1342203496070495,12.130978118430349
432,1791285916.6237516,-1.1357280373086733,-1.7577488241390307,-0.16281245017538212,2.099063361936287,-11.64614270853863,-3.3398673313713005,1.132251363240937,12.168374868008039
433,1791285916.6437516,-1.0590874123086733,-1.6475779257015308,-0.23945307517538214,1.9731996714424491,-11.670335233074116,-3.3666718463158336,1.1302886437448918,12.198719448830907
434,1791285916.6540387,-1.0830376076211734,-2.0738914022640307,-0.22029291892538214,2.35000531446955,-11.68256491261359,-3.3812619968929027,1.1290758358673425,12.214338617878656
435,1791285916.6740386,-1.0111870216836734,-2.1505320272640307,-0.15323237205038212,2.381337303481812,-11.70591655233435,-3.411709756909626,1.126511308045861,12.244887648433645
436,1791285916.7287602,-0.9058061623086734,-1.9924607382015307,-0.13407221580038212,2.1927972902210047,-11.76809232845907,-3.499524535193546,1.119367930365228,12.328327282607685
437,1791285916.7487602,-0.9201762794961734,-2.025991011639031,-0.15802241111288212,2.230770056954211,-11.79014702318659,-3.5328330244203077,1.1167106044915165,12.35862122491721
438,1791285916.75881,-0.9297563576211734,-2.0978415975765308,-0.02869135642538212,2.2948223127277134,-11.800961336630573,-3.5501679547037437,1.1154348804490104,12.37378583731662
439,1791285916.77881,-0.9632866310586734,-1.9541404257015307,0.1533301279496179,2.1840549592614136,-11.822094077209133,-3.585569186971028,1.1134638606576635,12.403951649935193
440,1791285916.7743537,-0.9441264748086734,-1.9541404257015307,-0.01432123923788212,2.17030981698211,-11.822094077209133,-3.585569186971028,1.1134638606576635,12.403951649935193
441,1791285916.7943537,-0.9872368263711734,-2.059521285076531,-0.052641551737882125,2.284520870553842,-11.842691473856766,-3.622150117442043,1.1121165909318245,12.434070778714062
442,1791285916.818677,-1.0159770607461733,-2.0834714803890306,0.09584965919961788,2.319967662431004,-11.86763813314774,-3.6675230380443904,1.1108026889926526,12.47098403125439
443,1791285916.838677,-0.8626958107461734,-1.9589304647640307,0.07189946388711789,2.14168675593955,-11.887891854115727,-3.7052986681830857,1.1101360003448724,12.501344443492952
444,1791285916.8642337,-0.8052153419961734,-1.9685105428890308,-0.11970209861288213,2.130195788387445,-11.913087725768902,-3.7538572038970504,1.1093202401799531,12.539684783294529
445,1791285916.8842337,-0.8483256935586734,-2.179272261639031,-0.3687841298628821,2.3674640033461594,-11.93232793304787,-3.7923792474548446,1.108044880686853,12.569421375542193
446,1791285916.9091659,-0.9489165138711734,-2.3756638632015306,-0.35441401267538214,2.5826015243547946,-11.956075870863451,-3.8417151930657005,1.105341171678373,12.606676999125597
447,1791285916.9291658,-0.8291655373086734,-2.351713667889031,-0.2969335439253821,2.5112232464487394,-11.974935522784852,-3.8824459670909417,1.1025206272890926,12.636772499172135
448,1791285916.9386857,-0.8483256935586734,-2.0978415975765308,-0.3592040517378821,2.2912056655087003,-11.983763702821493,-3.9021022553724696,1.1009109829027868,12.651047367262555
449,1791285916.9586856,-0.8052153419961734,-2.059521285076531,-0.5508056142378821,2.278900282010003,-12.002008909802266,-3.9434394555356302,1.0966715517476973,12.680757907272767
450,1791285916.9838037,-0.9010161232461734,-2.088261519451531,-0.6513964345503821,2.365794484505476,-12.024700346342106,-3.9953816122610952,1.089881092321851,12.717874564655633
451,1791285917.0038037,-1.0399272560586734,-2.198432417889031,-0.48374506736288214,2.4796296263992836,-12.042969363721648,-4.036966192185165,1.0835825865328559,12.747719731552833
452,1791285917.0291417,-1.0782475685586734,-2.413984175701531,0.00483891701211788,2.6438534064425623,-12.066667860144381,-4.090512280992916,1.0758898702130593,12.7864890795254
453,1791285917.0491416,-0.9153862404336734,-2.4091941366390306,0.4503125498246179,2.616281664829062,-12.085558343388497,-4.133672726105386,1.0714113215702874,12.817795945402777
454,1791285917.059333,-0.8579057716836734,-2.035571089764031,0.4119922373246179,2.2470624330861453,-12.095095933800849,-4.155764488241158,1.0701306076690063,12.833818747630891
455,1791285917.079333,-1.0447172951211734,-1.9685105428890308,0.4742627451371179,2.2784628887948917,-12.113859184982447,-4.198621096815132,1.0693236750356072,12.865358782023778
456,1791285917.1036584,-1.1932085060586735,-1.9062400350765307,0.5940137216996179,2.3260158881286204,-12.137340060893287,-4.2499966179160555,1.070438411067936,12.904392019694404
457,1791285917.1236584,-1.3704399513711734,-1.7864890585140307,0.4551025888871179,2.2971214993805464,-12.15759533156614,-4.291439908244108,1.0727911264016747,12.937328222360101
458,1791285917.1494358,-1.3512797951211735,-1.8583396444515308,0.08147954201211788,2.299135105775532,-12.185047652260788,-4.343889156449673,1.076405989933588,12.980886300501677
459,1791285917.1694357,-1.3464897560586735,-1.9733005819515308,-0.08138178611288212,2.3903081067117937,-12.207198925156849,-4.384226540734497,1.078790114960371,13.015411482967703
460,1791285917.1791704,-1.2458989357461734,-1.7960691366390307,-0.01911127830038212,2.1859766107255116,-12.218256094356812,-4.403667018508518,1.0797031106838122,13.03241435822263
461,1791285917.1991704,-1.3033794044961735,-1.5421970663265308,0.07189946388711789,2.020479942082626,-12.241389595317683,-4.442624114991219,1.081376694683595,13.067436772652025
462,1791285917.2237365,-1.5093510841836735,-1.5182468710140307,-0.10533198142538212,2.143433946493645,-12.270724788231352,-4.488936547265973,1.0830624242601496,13.110845219463915
463,1791285917.2437365,-1.5237212013711734,-1.7960691366390307,-0.02869135642538212,2.3555071294795127,-12.295574574718039,-4.525956581043846,1.084027927465729,13.146883799725028
464,1791285917.268478,-1.3225395607461734,-1.8774998007015307,0.28266118263711787,2.3138741831704643,-12.32698593613351,-4.571700248987399,1.0855144325797106,13.192170671256633
465,1791285917.288478,-1.2075786232461734,-1.7098484335140307,0.2491309091996179,2.1080545549938066,-12.3523640595376,-4.608512036539781,1.0873335072423713,13.22881609238938
466,1791285917.2994294,-1.2602690529336735,-1.7098484335140307,-0.023901317362882122,2.1242483433780537,-12.366203054399117,-4.628454530652581,1.0883651728186172,13.248777606796521
467,1791285917.3194294,-1.0878276466836734,-1.9685105428890308,-0.00474116111288212,2.249094312153962,-12.391207393035405,-4.66492868970918,1.0899236580413767,13.285010873824882
468,1791285917.3434968,-1.0207670998086733,-2.045151167889031,0.06710942482461789,2.286725266941783,-12.420589599556287,-4.709481731386005,1.0916303570497796,13.328237731046702
469,1791285917.3634968,-0.9632866310586734,-2.088261519451531,-0.08617182517538212,2.301343714148854,-12.444319767716959,-4.747151838223406,1.0928072885103628,13.363785871756562
470,1791285917.3886573,-0.7716850685586734,-2.2175925741390308,-0.22987299705038214,2.359249089156527,-12.47296897980802,-4.795558728770805,1.0934694204439572,13.40775947225296
471,1791285917.4086573,-0.7094145607461734,-2.2175925741390308,-0.07180170798788213,2.3294079353228874,-12.494547760436731,-4.834918111072351,1.0934642850341725,13.441942605935173
472,1791285917.4193375,-0.8483256935586734,-2.035571089764031,0.028789112324617883,2.2054557254280502,-12.50559033365888,-4.856190531533782,1.0934275002960647,13.459864775333536
473,1791285917.4393375,-0.8770659279336734,-2.0068308553890306,0.023999073262117882,2.1902489994521317,-12.5257552045573,-4.896114060881583,1.093448131158191,13.493039137169578
474,1791285917.463714,-0.7333647560586734,-2.069101363201531,0.12458989357461789,2.1987557750264957,-12.549590200459916,-4.944926483230268,1.0937411594048982,13.532951704924095
475,1791285917.4837139,-0.8195854591836734,-1.9397703085140308,0.1341699716996179,2.1100783767442874,-12.568542039949286,-4.984981343579526,1.0943336553825793,13.565244345573413
476,1791285917.5088356,-0.9872368263711734,-1.8152292928890308,0.01920903419961788,2.066413057474405,-12.592180685412801,-5.034821723112438,1.0952552326931126,13.605588124823923
477,1791285917.5288355,-0.9920268654336734,-1.8870798788265308,-0.09575190330038212,2.134093764997161,-12.611145978367324,-5.074102438102109,1.095764054888854,13.637749715551703
478,1791285917.538624,-0.9393364357461734,-1.9158201132015307,-0.06701166892538213,2.134762330902439,-12.620453659881742,-5.093235550292274,1.0958562401305563,13.653490390776147
479,1791285917.558624,-0.9728667091836735,-1.8439695272640308,0.03357915138711788,2.0851428753742707,-12.639486871883943,-5.132104238820345,1.0959661920818198,13.685622535961986
480,1791285917.584109,-1.1165678810586734,-1.7098484335140307,0.10063969826211788,2.04461092813976,-12.664095731843563,-5.180996194531683,1.0963418256532131,13.726762461400968
481,1791285917.604109,-1.0974077248086733,-1.7577488241390307,0.014418995137117882,2.072243361831003,-12.68383221431878,-5.218811326498037,1.0967649826836086,13.75930538689421
482,1791285917.6297507,-0.9824467873086734,-1.8008591757015306,-0.03348139548788212,2.0516862490267234,-12.709340311022256,-5.26686486622865,1.0971894681511771,13.801123917620293
483,1791285917.6497507,-0.8962260841836734,-1.8343894491390307,-0.01911127830038212,2.0417078846010446,-12.729069738204357,-5.304176387684098,1.0973920056329212,13.833574113936084
484,1791285917.6736152,-0.9632866310586734,-1.9062400350765307,-0.03348139548788212,2.136069570203358,-12.752408389270252,-5.348714441182833,1.0975032953935038,13.872172842905604
485,1791285917.6936152,-1.0016069435586734,-2.025991011639031,-0.07180170798788213,2.261196925059175,-12.771981114411332,-5.386339654423379,1.0974246486243282,13.904693355809819
486,1791285917.7041936,-0.9537065529336735,-2.059521285076531,0.00483891701211788,2.269627178174813,-12.782331968406053,-5.406496641365894,1.0973361635304464,13.922010025115906
487,1791285917.7241936,-1.0063969826211734,-2.002040816326531,0.09584965919961788,2.2428083899511093,-12.80190643715036,-5.444982218484779,1.0973449964829267,13.954956317612512
488,1791285917.7495024,-1.0207670998086733,-1.9733005819515308,0.06231938576211788,2.2225580677732197,-12.826809154039402,-5.493924194109139,1.0976547281624707,13.996966886687423
489,1791285917.7695024,-1.0111870216836734,-1.9685105428890308,0.06710942482461789,2.2140543410646125,-12.846584267722866,-5.532711290075037,1.0980569183413713,14.030372431369946
490,1791285917.7945046,-0.9824467873086734,-1.9637205038265308,0.11021977638711788,2.19853321697642,-12.87133562808749,-5.581299907408487,1.098816806180589,14.072298599761778
491,1791285917.8145046,-0.9872368263711734,-1.8918699178890308,0.03357915138711788,2.13422957925448,-12.891119551008995,-5.62012055416418,1.0995491812867242,14.10587560996528
492,1791285917.8235497,-0.9393364357461734,-1.9349802694515308,-0.03827143455038212,2.151270853562979,-12.900031806900293,-5.637639990042037,1.0998275363907553,14.121027791423815
493,1791285917.8435497,-0.9249663185586734,-1.9445603475765307,-0.04306147361288212,2.1537715585327653,-12.919578521242242,-5.6763864420345,1.100228695503713,14.154411870094313
494,1791285917.868694,-1.0255571388711735,-1.9349802694515308,-0.03827143455038212,2.1902923985073066,-12.94414517900715,-5.725108408862796,1.1005040086731375,14.196438630218184
495,1791285917.888694,-1.0351372169961734,-1.9828806600765307,-0.09096186423788212,2.2386600525452165,-12.963845633741677,-5.7639259157865395,1.1004962970099241,14.230081787463183
496,1791285917.9145122,-0.9872368263711734,-1.9924607382015307,-0.10533198142538212,2.2261246979738156,-12.989378406102084,-5.814216913776406,1.1001077400275316,14.27372785004055
497,1791285917.9345121,-1.0207670998086733,-2.0068308553890306,-0.05743159080038212,2.252250861208658,-13.009202512110795,-5.853330049647213,1.0996077488108165,14.30768883756065
498,1791285917.9445207,-1.0399272560586734,-1.9780906210140308,0.01920903419961788,2.2348736406858167,-13.019181834441321,-5.872958653583497,1.0993663786614052,14.324780815756982
499,1791285917.9645207,-1.0782475685586734,-1.9493503866390307,0.028789112324617883,2.227871980608596,-13.039309393037529,-5.912189820180395,1.0990283984452631,14.359158796315004
500,1791285917.9891062,-1.1261479591836734,-1.8870798788265308,0.01920903419961788,2.197646168526769,-13.064405069623742,-5.960255881036241,1.0987637526116878,14.401757246068653
501,1791285918.0091062,-1.0782475685586734,-1.9254001913265308,0.09584965919961788,2.2088392592109583,-13.085064422465173,-5.999210557477553,1.098753347359487,14.436644248971007
502,1791285918.0339105,-1.1548881935586734,-1.9062400350765307,0.11021977638711788,2.231516571763834,-13.110997585488866,-6.047404135465409,1.0991257347256382,14.480242810294142
503,1791285918.0539105,-1.0303471779336735,-1.8870798788265308,0.00962895607461788,2.1500647648252196,-13.132049063229386,-6.086124200268363,1.099560728137977,14.515531480969596
504,1791285918.0644903,-0.8818559669961734,-1.8966599569515308,0.014418995137117882,2.0916971210600503,-13.143032020176612,-6.106536752862569,1.0997754015995513,14.534049254471807
505,1791285918.0844903,-0.8914360451211734,-1.8487595663265308,0.028789112324617883,2.0526565639710848,-13.163339705010271,-6.144954387299591,1.1001851575479031,14.568609542175983
506,1791285918.109538,-1.0063969826211734,-1.8391794882015307,-0.03827143455038212,2.096874049425189,-13.188523115452897,-6.1927792753669655,1.1006035423805465,14.611604473080655
507,1791285918.129538,-1.0063969826211734,-1.9924607382015307,-0.07659174705038212,2.2335176237540235,-13.208634340616484,-6.230985588916343,1.1007152064958345,14.645981582646053
508,1791285918.1532633,-0.9201762794961734,-2.0307810507015307,0.00483891701211788,2.229533466076184,-13.23234112699019,-6.27666890729174,1.1007001235620817,14.686829645461557
509,1791285918.1732633,-0.9537065529336735,-1.9541404257015307,0.08147954201211788,2.17597332433927,-13.252138687305528,-6.315379973734146,1.100818793679382,14.721243358383147
510,1791285918.1989682,-1.0734575294961735,-1.8870798788265308,0.00962895607461788,2.1710537196253505,-13.277674780725038,-6.365075525748173,1.1011240805972247,14.765612356825947
511,1791285918.2189682,-1.0207670998086733,-2.045151167889031,-0.04306147361288212,2.2861458969364556,-13.297704483741214,-6.403840163415383,1.101275834252771,14.800368976434076
512,1791285918.2285016,-1.0782475685586734,-2.025991011639031,0.06231938576211788,2.295896579592949,-13.307320727569904,-6.4224573246271675,1.1013510898094947,14.817075192361457
513,1791285918.2485015,-1.0495073341836734,-1.9206101522640306,0.09105962013711788,2.190548072036882,-13.32766005845933,-6.461575372770578,1.1017153539296394,14.852348489479086
514,1791285918.2732038,-0.9824467873086734,-1.8822898397640309,-0.047851512675382124,2.1237953051170817,-13.352777835856045,-6.509688955571589,1.1021778268314992,14.895889439505725
515,1791285918.2932038,-0.9632866310586734,-1.9637205038265308,-0.14844233298788212,2.1922943408557116,-13.372982338801991,-6.548569448234584,1.1022016574550848,14.931016942792548
516,1791285918.3183131,-1.0447172951211734,-1.9589304647640307,-0.047851512675382124,2.2206153561054296,-13.398324957679206,-6.597447729993684,1.1018574282590152,14.975163371856011
517,1791285918.338313,-1.0734575294961735,-1.9349802694515308,0.04315922951211788,2.2132154052172206,-13.418660172828782,-6.636381121689003,1.1016173330519832,15.010514847088094
518,1791285918.3489842,-0.9776567482461734,-1.8870798788265308,0.028789112324617883,2.125491001969116,-13.42952425686728,-6.6570972726693185,1.1015660269596004,15.029388330045888
519,1791285918.3689842,-0.9537065529336735,-1.9301902303890308,-0.00953120017538212,2.15297035705898,-13.449728660211882,-6.69582566991404,1.1015131790615522,15.064614622314473
520,1791285918.3932183,-1.0016069435586734,-1.9541404257015307,-0.02869135642538212,2.1960656790450135,-13.474092041079764,-6.742773901642311,1.1013892768848084,15.107257016394293
521,1791285918.4132183,-1.0255571388711735,-2.025991011639031,-0.01432123923788212,2.2708175008628677,-13.494223488050496,-6.781677876977432,1.101237841733314,15.142587201551928
522,1791285918.4382498,-0.9393364357461734,-1.9924607382015307,0.00483891701211788,2.2027882667003573,-13.519329006186192,-6.830609693790297,1.1010589367650991,15.186896205236922
523,1791285918.4582498,-0.9201762794961734,-1.9972507772640307,0.04315922951211788,2.1994539712667946,-13.53916847995381,-6.869825898630664,1.1010094320699608,15.222214450452942
524,1791285918.4688034,-1.0207670998086733,-1.9158201132015307,0.1293799326371179,2.1746428086397365,-13.549603341855663,-6.8905127520726905,1.1011237959872129,15.240846115691602
525,1791285918.4888034,-1.0447172951211734,-1.8343894491390307,0.21560063576211788,2.122004361913266,-13.569510285739016,-6.929460929675954,1.1018254864260195,15.276225239672934
526,1791285918.5137072,-0.9824467873086734,-1.8679197225765307,0.08147954201211788,2.112099594159807,-13.59436632514521,-6.977599235853269,1.103123044922958,15.320266555470315
527,1791285918.5337071,-0.9968169044961734,-1.9972507772640307,-0.052641551737882125,2.232806695918946,-13.614302616547478,-7.016257484084387,1.1040520500745863,15.35565158979506
528,1791285918.5589674,-0.9345463966836735,-2.045151167889031,-0.12449213767538213,2.2520032325499204,-13.639364418755086,-7.065417825302492,1.104713810234154,15.400415039739238
529,1791285918.5789673,-0.9537065529336735,-1.9924607382015307,-0.16281245017538212,2.214941054817335,-13.659063251877077,-7.104558879297534,1.104728214746803,15.43584109197299
530,1791285918.5880647,-0.9872368263711734,-2.0403611288265306,-0.15802241111288212,2.272153421268826,-13.668003860297578,-7.122443863365652,1.1045148783360785,15.451973635376495
531,1791285918.6080647,-0.9728667091836735,-2.0499412069515306,-0.02869135642538212,2.2692623867083546,-13.68765112017615,-7.162000565506325,1.1038361511542278,15.48755950873369
532,1791285918.6334982,-0.8962260841836734,-1.9972507772640307,0.023999073262117882,2.189248230962039,-13.712453687465063,-7.212478534469923,1.103093546357176,15.532805545460178
533,1791285918.6534982,-0.9105962013711734,-1.9876706991390307,4.887794961788039e-05,2.186325742554505,-13.731742154609833,-7.252195793139442,1.102633255205378,15.568265366385651
534,1791285918.679028,-0.9776567482461734,-2.0499412069515306,0.00962895607461788,2.2711592604095965,-13.756286042768872,-7.303020794396629,1.1021523605646055,15.61359209918606
535,1791285918.699028,-1.0686674904336735,-1.9972507772640307,0.21560063576211788,2.2754218304597083,-13.775698963926468,-7.342935246242918,1.1021699834996064,15.649388443251347
536,1791285918.7085292,-1.0638774513711735,-1.8870798788265308,0.2443408701371179,2.180047742923843,-13.785057577092392,-7.36182072972617,1.1025048500453072,15.666516326380659
537,1791285918.7285292,-0.9872368263711734,-1.8679197225765307,0.03836919044961788,2.1131097548659343,-13.804879073318991,-7.401243932079071,1.103528072163068,15.702575335821503
538,1791285918.7538366,-0.9393364357461734,-1.9972507772640307,-0.17239252830038213,2.213838926077482,-13.829855150036341,-7.45098250888325,1.1043742314971678,15.74806896930115
539,1791285918.7738366,-0.8866460060586734,-2.035571089764031,-0.20113276267538213,2.2293822439779936,-13.84937153067729,-7.490443087302267,1.1043823424823225,15.78389970182387
540,1791285918.7981875,-0.8435356544961734,-2.0403611288265306,0.014418995137117882,2.2079025893035515,-13.872729154229626,-7.53872531151734,1.1040497382868315,15.827315607320658
541,1791285918.8181875,-0.8291655373086734,-2.0212009725765308,0.023999073262117882,2.1847985754577324,-13.89154476815102,-7.578524725389708,1.1038751656946677,15.862773825542762
542,1791285918.828749,-0.8339555763711733,-1.9876706991390307,-0.20113276267538213,2.164895170625555,-13.901307771022978,-7.599564666646813,1.103656497201472,15.881366393703834
543,1791285918.848749,-0.8339555763711733,-2.102631636639031,-0.15323237205038212,2.2671616313355543,-13.919524393822028,-7.6395664973289525,1.1027729760698495,15.916414290098993
544,1791285918.8738425,-0.8147954201211735,-2.222382613201531,0.07189946388711789,2.368131244044164,-13.942054982150152,-7.69036728352587,1.1016776511065842,15.960461764240113
545,1791285918.8938425,-0.9632866310586734,-2.1074216757015307,0.00962895607461788,2.3171620507828328,-13.959985768171423,-7.731277694342847,1.1010579002432894,15.995817763849402
546,1791285918.9187326,-1.0207670998086733,-2.1170017538265307,-0.15802241111288212,2.3555536462093887,-13.982657320250846,-7.782440112417729,1.100125291269548,16.040304096101917
547,1791285918.9387326,-0.9441264748086734,-2.1361619100765306,-0.12928217673788212,2.3390759687788143,-14.001089316796714,-7.823763758380675,1.099057363325297,16.076371123227702
548,1791285918.963348,-0.7860551857461734,-2.1601121053890306,0.12458989357461789,2.3020620548689856,-14.023566132370043,-7.87492607229937,1.0979314870860415,16.120803989363292
549,1791285918.983348,-0.8531157326211734,-2.121791792889031,0.2682910654496179,2.302560957155554,-14.04154798342055,-7.916683000375433,1.0977432473675082,16.15685550273555
550,1791285918.993681,-1.0734575294961735,-2.145741988201531,0.4694727060746179,2.444774911788836,-14.050937867539181,-7.938328037448636,1.0982323327221035,16.175661385063236
551,1791285919.013681,-1.2267387794961735,-2.1936423788265307,0.8191455576371179,2.6434739196557446,-14.069836424662816,-7.980447588708442,1.1009699029892683,16.212957023941655
552,1791285919.0390592,-1.2937993263711733,-2.2463328085140306,1.235878956074618,2.8718155542431902,-14.095017458037974,-8.034327615045896,1.1078340456492999,16.261833649406945
553,1791285919.0590591,-0.8818559669961734,-2.155322066326531,0.5940137216996179,2.40331759401213,-14.115148828407722,-8.077022429811889,1.115176930322512,16.3008998943527
554,1791285919.083995,-0.7333647560586734,-2.2894431600765306,-0.33046381736288216,2.4266396896194244,-14.13950441992364,-8.13058209941964,1.1234516580757652,16.349131296325087
555,1791285919.103995,-0.8674858498086734,-2.610375777264031,-0.8142577626753822,2.8687295275473756,-14.15851001309244,-8.174445894743952,1.1273758373272107,16.38767670402136
556,1791285919.1136699,-0.7956352638711734,-2.821137496014031,-1.0202294423628822,3.1036624107005815,-14.167531487013992,-8.196422915442014,1.1276582563413193,16.406459404375173
557,1791285919.1336699,-0.7429448341836734,-3.127699996014031,-1.0968700673628822,3.39670402543157,-14.185691373422271,-8.243962928111054,1.1249788606586282,16.445739324791244
558,1791285919.1590316,-0.6710942482461734,-3.2953513632015308,-0.9100585439253822,3.4839510114745975,-14.207955179362399,-8.307422691070592,1.118273357362162,16.496357096300727
559,1791285919.1790316,-0.5082329201211734,-3.1612302694515306,-0.5124853017378821,3.242579020176511,-14.22464758446861,-8.359644596109728,1.1116448487087898,16.536626347150015
560,1791285919.2033014,-0.04359913105867336,-2.8786179647640306,-0.29214350486288215,2.8937329003770977,-14.242869736034262,-8.42450378771413,1.1033431374637996,16.584600340853527
561,1791285919.2233014,-0.4699126076211734,-2.821137496014031,-0.21071284080038213,2.867757753279697,-14.256403850791196,-8.47848453829707,1.0967738554125452,16.62325671199579
562,1791285919.2333472,-0.33100147480867337,-2.744496871014031,-0.27298334861288215,2.7778309811706015,-14.262785614858036,-8.505724706591614,1.0936046975840403,16.642427031965685
563,1791285919.2533472,-0.3884819435586734,-2.7923972616390307,-0.25382319236288214,2.830693713608303,-14.274664401349481,-8.560127309216691,1.0874514701907894,16.68005917319155
564,1791285919.2784395,-0.37411182637117335,-2.811557417889031,-0.2873534658003821,2.8508572021455407,-14.28876739957101,-8.628689919163003,1.0798710505849138,16.726903030925953
565,1791285919.2984395,-0.27352100605867335,-2.4762546835140307,-0.31130366111288216,2.5106893411576836,-14.299293577262674,-8.683072545549804,1.0738373593781834,16.763611553433904
566,1791285919.3237748,-0.3501616310586734,-1.9349802694515308,-0.45021479392538216,2.0172890649834154,-14.311812747411588,-8.750011136432844,1.0658935735506,16.808533788370955
567,1791285919.3437748,-0.8626958107461734,-1.6763181600765307,-0.3592040517378821,1.919196234486269,-14.322032389825484,-8.800343845676855,1.0593491694389083,16.84306635503594
568,1791285919.3684123,-0.6231938576211734,-1.5757273397640308,-0.30651362205038213,1.7219865951740256,-14.335478947788015,-8.859056037900451,1.0512664497120023,16.884726580357288
569,1791285919.3884122,-0.5369731544961733,-1.4942966757015308,-0.19155268455038213,1.5993608581619958,-14.346497395811022,-8.904172806018764,1.0449422297692827,16.917392977377208
570,1791285919.3990777,-0.7189946388711734,-1.1254636678890306,-0.15323237205038212,1.3442849096482137,-14.3524965015058,-8.926718926353791,1.0417997875655862,16.9341611369808
571,1791285919.4190776,-0.8626958107461734,-0.5602390585140307,-0.23945307517538214,1.0561484932407148,-14.364431221023592,-8.96518453425008,1.0362019105199438,16.964230970958848
572,1791285919.4441168,-0.7860551857461734,-0.5219187460140307,-0.42626459861288213,1.0353663315512587,-14.380228008798046,-9.00815058596853,1.0289946577135756,16.999898957644074
573,1791285919.4641168,-0.7285747169961734,-0.44527812101403064,-0.46458491111288214,0.9720765725669992,-14.393224941852822,-9.038772531475493,1.02276512933327,17.02675487614449
574,1791285919.4736779,-0.7429448341836734,-0.009384566326530615,-0.06222162986288212,0.745604873876329,-14.399561384037508,-9.05154165109571,1.0198560261613545,17.038717106293017
575,1791285919.4936779,-1.0495073341836734,0.11994648836096938,0.23476079201211789,1.0821115626596018,-14.413516529496494,-9.074079858373118,1.0149423227038066,17.062194816043355
576,1791285919.5189123,-1.2315288185586735,0.2875978555484694,-0.01911127830038212,1.2648086805580023,-14.432799996865842,-9.097479998412343,1.0100806796777662,17.090644254986458
577,1791285919.5389123,-1.0638774513711735,0.4744093789859694,-0.19155268455038213,1.1805049433883514,-14.449234013902405,-9.112101224865592,1.0064894861545355,17.112094360610886
578,1791285919.5637226,-1.1309379982461734,0.7522316446109694,-0.023901317362882122,1.358471374745477,-14.470646742843858,-9.125235920314237,1.0023018792499268,17.136923785053103
579,1791285919.5837226,-1.4183403419961735,0.9725734414859694,0.1820703623246179,1.7293750436659778,-14.489142621045875,-9.131648585451348,0.9996697916801113,17.155803667376865
580,1791285919.5940754,-1.3033794044961735,0.9198830117984694,0.09584965919961788,1.5981770191780715,-14.49939406022588,-9.133000712113828,0.9987274770699963,17.16512705151464
581,1791285919.6140754,-1.2842192482461734,0.9150929727359693,0.08147954201211788,1.579003844860178,-14.520108915871706,-9.13246852164671,0.9974461350384616,17.18227118340146
582,1791285919.6386309,-1.2842192482461734,1.1306447305484695,0.3161914560746179,1.7399866727011373,-14.546457278638913,-9.128145573808325,0.9968412911335574,17.202213623124564
583,1791285919.6586308,-1.5093510841836735,1.3366164102359694,0.3688818857621179,2.049575070369938,-14.568888869305407,-9.121451864929895,0.9974501605875419,17.2176744606599
584,1791285919.6838417,-1.3464897560586735,1.3797267617984694,0.21081059669961788,1.9393611597829543,-14.598323341355835,-9.10914370661686,0.9991986321890747,17.23618117081451
585,1791285919.7038417,-1.1932085060586735,1.0923244180484695,0.1724902841996179,1.6268595733310738,-14.621980902971277,-9.097136094477275,1.0009525983528815,17.24998889137171
586,1791285919.7284365,-1.1500981544961735,1.1929152383609694,0.21081059669961788,1.6703932586580208,-14.651032146645937,-9.080369412830574,1.0034930230619101,17.265944801338144
587,1791285919.7484365,-1.2602690529336735,1.3845168008609694,0.3449316904496179,1.903718132687994,-14.674727995419081,-9.064914090904717,1.0060825844080663,17.27809339544351
588,1791285919.7588785,-1.1644682716836734,1.5809084024234694,0.3161914560746179,1.9887772045922274,-14.687142822737158,-9.05573285530067,1.0077495555330178,17.283923773516495
589,1791285919.7788785,-1.1932085060586735,1.4419972696109695,0.3018213388871179,1.895837225371386,-14.71089112241025,-9.036251117497065,1.0113904631219197,17.29413376098293
590,1791285919.8034637,-1.5428813576211735,1.3940968789859693,0.3305615732621179,2.1055307989699186,-14.740750161571444,-9.010665700630442,1.0163607995410873,17.306495918273875
591,1791285919.8234637,-1.7488530373086735,1.4946876992984695,0.3640918466996179,2.3291932374474777,-14.766334416218069,-8.988640955741394,1.0208396218543556,17.317113265679286
592,1791285919.8489802,-1.4614506935586735,1.5521681680484694,0.2491309091996179,2.1464226893891842,-14.800223011539687,-8.958925276849751,1.0268702406921135,17.33099552243625
593,1791285919.8689802,-1.3177495216836734,1.6000685586734695,0.1820703623246179,2.0808250313733643,-14.826969565222395,-8.934399310560552,1.0315348493720307,17.341469997495746
594,1791285919.878445,-1.5333012794961733,1.6575490274234694,0.21560063576211788,2.268251579115095,-14.839752250593408,-8.92222125692001,1.033693485883594,17.34626188085449
595,1791285919.898445,-1.6770024513711734,1.7389796914859694,0.2395508310746179,2.4277092474128987,-14.867527172937901,-8.895252999595249,1.0382534222430084,17.35646451134719
596,1791285919.9239738,-1.5764116310586735,1.6335988321109693,0.11500981544961789,2.2730917342819987,-14.90389160560025,-8.859535621683444,1.0438797261930015,17.369716212595883
597,1791285919.9439738,-1.5524614357461735,1.5090578164859694,-0.07659174705038212,2.1663929234311814,-14.932800391117624,-8.831037041772264,1.0476839716535156,17.38025846926841
598,1791285919.968588,-1.7919633888711735,1.4803175821109693,-0.05743159080038212,2.3250314661490905,-14.969216225687244,-8.79570577535995,1.0514162144811119,17.39388831038513
599,1791285919.988588,-1.9260844826211734,1.6048585977359695,0.07189946388711789,2.508095310355727,-14.99994402729686,-8.766676341519407,1.0540156040224709,17.40585774365968
600,1791285919.9992108,-1.7823833107461735,1.5665382852359695,0.07189946388711789,2.374047598184122,-15.01677116839364,-8.751043844546155,1.0553037076814629,17.412577368342514
601,1791285920.0192108,-1.8063335060586734,1.6000685586734695,0.09584965919961788,2.415004613812217,-15.049083367075383,-8.721276645690788,1.0576167335278197,17.425674439599018
602,1791285920.0429704,-2.0649956154336735,1.6431789102359695,0.19644047951211788,2.646286584025909,-15.088610305291542,-8.685438830691105,1.0604732426128003,17.442121778181825
603,1791285920.0629704,-2.1272661232461734,1.6048585977359695,0.1772803232621179,2.6706292499809456,-15.123180195372662,-8.654924841323217,1.0630776540277944,17.457045492555686
604,1791285920.0884845,-2.0745756935586734,1.4324171914859694,0.1293799326371179,2.524365759104292,-15.168706577505642,-8.616024947044268,1.0664885637705612,17.477498189935694
605,1791285920.1084845,-2.0841557716836734,1.3605666055484693,0.11021977638711788,2.4913841871302944,-15.205278757545262,-8.585916595087685,1.0691206416920733,17.494613022840813
606,1791285920.1181295,-2.2278569435586735,1.2887160196109695,0.11979985451211789,2.5765262555048145,-15.223389339998379,-8.571658390557639,1.070365952901485,17.50344519900937
607,1791285920.1381295,-2.2853374123086736,1.1354347696109695,0.07668950294961789,2.553010083020018,-15.262080336123438,-8.542891051427226,1.0728556377045975,17.52321611240915
608,1791285920.164177,-2.2901274513711734,0.5462599649234694,0.6083838388871179,2.431710218800966,-15.313850428482915,-8.507759784391286,1.0769500966810426,17.551518823326756
609,1791285920.184177,-2.8074516701211736,-0.21535624601403064,2.040605518574618,3.4773889738136297,-15.355284746711089,-8.48433486802286,1.0835958418759117,17.576771255092826
610,1791285920.2086198,-2.0170952248086733,1.1019044961734694,0.9676367685746179,2.4938299020845003,-15.407172188345887,-8.458375249456362,1.0960143711508175,17.61040357867258
611,1791285920.2286198,-1.7967534279336734,0.7043312539859694,0.5125830576371179,1.9967841112923228,-15.448980542213803,-8.437611048397807,1.1068717549342455,17.637727888807465
612,1791285920.2385573,-2.0506254982461734,0.23490742586096938,0.5269531748246179,2.1302408505236534,-15.469505606826086,-8.428141359536815,1.112232100212729,17.65152205167312
613,1791285920.2585573,-1.7440629982461735,-0.20098612882653064,0.6035937998246179,1.8564688634660231,-15.510309573264765,-8.41189081420023,1.1230977862733496,17.68024204489483
614,1791285920.298461,-1.6243120216836735,-0.014174605389030615,0.3257715341996179,1.6567189127063198,-15.589590061018542,-8.384975338435773,1.1443063517816816,17.738448825179503
615,1791285920.318461,-2.0027251076211736,0.34986836336096944,0.22039067482461788,2.0449664490956265,-15.628806151330613,-8.373005108947849,1.1541609921635583,17.76791726303813
616,1791285920.3282824,-2.0075151466836734,0.5558400430484695,0.2539209482621179,2.098463977671961,-15.648129328021652,-8.367341458716998,1.1586238037061167,17.782540979054993
617,1791285920.3482823,-1.9021342873086735,0.7043312539859694,0.2874512216996179,2.048615524483139,-15.687440473278361,-8.355647935652222,1.1671605856052298,17.812212239354537
618,1791285920.3584023,-1.9165044044961734,0.8097121133609694,0.3880420420121179,2.116411931866208,-15.707246393406082,-8.349469439559549,1.1713449232468858,17.827037839038862
619,1791285920.3784022,-2.0027251076211736,1.0396339883609693,0.5077930185746179,2.312920326376311,-15.746396294204564,-8.336316449185787,1.1797177525682494,17.855948649422952
620,1791285920.4042888,-2.0123051857461736,1.2120753946109695,0.5652734873246179,2.416202193168944,-15.797263327497594,-8.317474136194193,1.1910127100782733,17.892803467319695
621,1791285920.4242887,-1.9883549904336735,1.2503957071109695,0.5604834482621179,2.4147850190275384,-15.836669274107805,-8.301406470793802,1.200118871546173,17.920762494845153
622,1791285920.4478478,-2.0697856544961732,1.2839259805484695,0.6083838388871179,2.5104998455495924,-15.883295426481094,-8.280840547014249,1.2113018379093268,17.953234970680715
623,1791285920.4678478,-2.1751665138711735,1.2408156289859693,0.7425049326371179,2.6119506816157103,-15.92330776947492,-8.26221329288964,1.2213976751645577,17.980759469486266
624,1791285920.4939415,-2.1416362404336735,1.2839259805484695,0.7041846201371179,2.5944070014367226,-15.97612893495467,-8.23661496925493,1.2354250128942972,18.01679208018273
625,1791285920.5139415,-2.0745756935586734,1.3605666055484693,0.637124073262118,2.56143180295089,-16.016866082900147,-8.215971000571496,1.24657574385325,18.044282465228484
626,1791285920.5241532,-2.1176860451211734,1.4132570352359695,0.5844336435746179,2.6121738680813,-16.037756681486776,-8.204887150586243,1.2523507020948768,18.058189134281058
627,1791285920.5441532,-2.0745756935586734,1.3174562539859693,0.574853565449618,2.523888252514626,-16.078822786107626,-8.182339195415736,1.2637035189715151,18.085247122440748
628,1791285920.568594,-2.0410454201211734,1.1881251992984694,0.4503125498246179,2.4042232194068824,-16.12902369523708,-8.154325003955279,1.2773752587372411,18.11822588398995
629,1791285920.588594,-1.9787749123086735,1.2072853555484695,0.3401416513871179,2.3428154913079156,-16.169971092489504,-8.131246380632664,1.2880704346521157,18.14508909537572
630,1791285920.6142528,-1.9691948341836734,1.1977052774234693,0.22039067482461788,2.315339775517482,-16.222221836762404,-8.101450899651052,1.3008122412227912,18.17927667668609
631,1791285920.6342528,-1.9404545998086735,1.1545949258609693,0.06710942482461789,2.258972592052154,-16.262704456461776,-8.078181787227802,1.309685433593839,18.205709356152223
632,1791285920.659264,-1.9069243263711735,1.0779543008609693,-0.023901317362882122,2.1906430869090694,-16.312953820940194,-8.049259233609115,1.3191985230499796,18.238512036818854
633,1791285920.679264,-1.9308745216836734,0.9342531289859693,-0.09096186423788212,2.1469465266403027,-16.352864609907773,-8.026582494067595,1.3254922002144491,18.264696467690772
634,1791285920.6890273,-1.9452446388711735,0.7761818399234693,-0.17239252830038213,2.1014647599942813,-16.372263379420744,-8.015920596023102,1.3279108474233727,18.27756379788
635,1791285920.7090273,-1.8207036232461735,0.6755910196109693,-0.27298334861288215,1.961097860408969,-16.411689888672363,-7.995178191986248,1.3314541894661829,18.304076310543785
636,1791285920.733049,-1.8254936623086735,0.5702101602359695,-0.23945307517538214,1.92740875612217,-16.458510271723227,-7.9717573929442835,1.334148441740077,18.33606905421602
637,1791285920.753049,-1.8398637794961734,0.5941603555484695,-0.18676264548788213,1.942422595872757,-16.497142852682437,-7.9534360569301334,1.3354158275774781,18.362902898126755
638,1791285920.7627988,-1.8207036232461735,0.5606300821109694,-0.19155268455038213,1.914669737481625,-16.51582782159018,-7.944999801292718,1.3356643551797096,18.376060234572893
639,1791285920.7827988,-1.8398637794961734,0.3833986367984694,-0.25382319236288214,1.8964491701024189,-16.553897926188323,-7.9288742378907076,1.3354296266831853,18.403313710274357
640,1791285920.8090804,-1.8159135841836735,0.23490742586096938,-0.24424311423788214,1.8472623914322623,-16.603627022185986,-7.909643730455295,1.3341856939813377,18.439711106755983
641,1791285920.8290803,-1.7632231544961734,0.22532734773596938,-0.07659174705038212,1.7792117923129311,-16.641162484439675,-7.896514319917248,1.3328998168743245,18.467805748382894
642,1791285920.8536568,-1.9356645607461735,0.23490742586096938,0.052739307637117885,1.9505794587822733,-16.687186148201402,-7.881952343238162,1.3315127538387606,18.502980313977464
643,1791285920.8736567,-1.8207036232461735,0.1486867227359694,-0.01432123923788212,1.8268208787708269,-16.72465614392148,-7.871304154673543,1.330610922845336,18.53219030918328
644,1791285920.8837051,-1.6434721779336734,-0.028544722576530616,0.04315922951211788,1.644286568673813,-16.74326867038351,-7.866666229133853,1.3302475227961854,18.546995492562843
645,1791285920.9037051,-1.6291020607461735,-0.047704878826530614,0.1533301279496179,1.6369970702259455,-16.779666418902124,-7.858934106284825,1.329927452061083,18.576564737440133
646,1791285920.9292471,-1.6003618263711734,-0.057284956951530616,0.22997075294961788,1.6178152208491645,-16.825364046225868,-7.85074172541146,1.330314274391768,18.61442335920716
647,1791285920.9492471,-1.4662407326211735,-0.14350566007653062,0.28266118263711787,1.5001176969295744,-16.8603788815115,-7.845590314204303,1.3313406786127884,18.64398378590221
648,1791285920.9738808,-1.3321196388711734,-0.03812480070153062,0.3832520029496179,1.3866788851279486,-16.902207032828485,-7.840532708890869,1.333645543189605,18.67985990778983
649,1791285920.9938807,-1.2650590919961735,-0.15308573820153062,0.3928320810746179,1.333464207770237,-16.93496892177439,-7.837329208445165,1.3364002837570477,18.708363563429007
650,1791285921.0040681,-1.1884184669961735,-0.3494773397640306,0.4024121591996179,1.3024624407551173,-16.951028242207055,-7.836326192220239,1.3382005978899847,18.722610595191348
651,1791285921.024068,-1.1117778419961735,-0.6081394491390306,0.5700635263871179,1.3895524400574844,-16.98127717904795,-7.836088854275014,1.342663545526589,18.7502215602972
652,1791285921.0497699,-0.9920268654336734,-0.5650290975765306,0.6083838388871179,1.2936406294907927,-17.018374237517744,-7.838091041233307,1.349810151758313,18.785172884609267
653,1791285921.0697699,-0.8147954201211735,-0.5075486288265306,0.555693409199618,1.1091854454066843,-17.045621673672827,-7.841024218093716,1.3562832645904734,18.811549200545
654,1791285921.0940104,-0.6902544044961734,-0.5985593710140307,0.4407324716996179,1.0143813756006828,-17.07642881728677,-7.84605698663737,1.3647635467831127,18.842176385122055
655,1791285921.1140103,-0.6567241310586734,-0.9099119100765307,0.3784619638871179,1.1842549246353946,-17.10005449248163,-7.851849198037608,1.3719396030724194,18.866521082304587
656,1791285921.1388595,-0.6567241310586734,-1.2021042928890306,0.2587109873246179,1.3940131600022594,-17.12745321359667,-7.861902440133444,1.380705663297019,18.896177171342874
657,1791285921.1588595,-0.6615141701211734,-1.1398337850765308,0.12458989357461789,1.323761570847987,-17.148174764428102,-7.872293034727602,1.3872777094771098,18.919763075133936
658,1791285921.1686165,-0.6231938576211734,-0.8380613241390307,0.11979985451211789,1.0512227986186131,-17.15770758809442,-7.8780491316040715,1.3901818096840795,18.9310114167864
659,1791285921.1886165,-0.5752934669961733,-0.9194919882015307,0.06710942482461789,1.0867068438339624,-17.176114639015857,-7.89071447751192,1.395522073332473,18.953357774162054
660,1791285921.214564,-0.6519340919961734,-1.1877341757015307,-0.01432123923788212,1.354967021860524,-17.198801702345712,-7.908782281623535,1.4015139002747157,18.981882372077735
661,1791285921.234564,-0.8579057716836734,-1.2308445272640307,-0.04306147361288212,1.5009446538409361,-17.215930267917614,-7.924247569433326,1.4053534716459266,19.00413041714193
662,1791285921.2592385,-0.9441264748086734,-1.0679831991390307,-0.13886225486288212,1.4322170365916946,-17.23722717916667,-7.944719622092497,1.4090432259967003,19.032235116049584
663,1791285921.2792385,-0.7046245216836734,-1.4511863241390308,-0.44063471580038216,1.6723027287828545,-17.254373280851674,-7.9626030457722266,1.410716119152783,19.05535527216291
664,1791285921.2887745,-0.6710942482461734,-1.6858982382015308,-0.6226562001753821,1.9184163008108974,-17.262306196850513,-7.972094517290101,1.4106336440331835,19.066499246167577
665,1791285921.3087745,-0.9728667091836735,-1.5900974569515307,-0.3592040517378821,1.8983959300489732,-17.278914234161245,-7.99392905875758,1.409013825740169,19.090549988648203
666,1791285921.3340902,-1.1213579201211734,-1.3841257772640307,0.08626958107461788,1.7834489599997054,-17.300759435343217,-8.0230684025718,1.406752813597747,19.122365363901206
667,1791285921.3540902,-0.8722758888711734,-1.3170652303890307,0.12458989357461789,1.5846288805227047,-17.318419324017714,-8.046687772436613,1.4055507926731559,19.148169756412106
668,1791285921.3786836,-0.8052153419961734,-1.3362253866390308,-0.03348139548788212,1.5604457807717824,-17.339971901643395,-8.076269173544336,1.404462467913322,19.1800225270228
669,1791285921.3986835,-0.9680766701211734,-1.4176560507015308,-0.052641551737882125,1.7174668119916996,-17.357529905971816,-8.100847928798697,1.4035809867219446,19.20618705491841
670,1791285921.4084263,-1.0255571388711735,-1.4703464803890307,-0.11491205955038213,1.7963549200845996,-17.36625684976411,-8.113135451756406,1.4030935624001661,19.219222548671794
671,1791285921.4284263,-0.8195854591836734,-1.6140476522640308,-0.3783642079878821,1.849332209899195,-17.384252099831315,-8.139202388929919,1.4015031478930677,19.24637752077014
672,1791285921.4543314,-0.7046245216836734,-1.7960691366390307,-0.5508056142378821,2.006426396562104,-17.407025679995638,-8.174526747669615,1.3979468805117323,19.281641165967333
673,1791285921.4743314,-0.5896635841836734,-1.9685105428890308,-0.3879442861128821,2.091228746241127,-17.423912044348768,-8.203354868670868,1.3942049921291921,19.308846407556977
674,1791285921.498988,-0.5705034279336734,-1.9589304647640307,-0.22029291892538214,2.0521724335916214,-17.443752755399068,-8.240826744671137,1.3891590768298976,19.342324021893507
675,1791285921.518988,-0.5369731544961733,-1.7912790975765307,-0.11012202048788212,1.8732719592895462,-17.459093578463353,-8.272287853582581,1.3851844388402077,19.36929092258349
676,1791285921.5290942,-0.5226030373086734,-1.7577488241390307,-0.01911127830038212,1.8338920645241559,-17.466485888563753,-8.28849107706987,1.3833792998670742,19.382748822531966
677,1791285921.5490942,-0.5034428810586734,-1.7290085897640308,-0.21071284080038213,1.8130982707080792,-17.480459658993656,-8.320976865676196,1.3799981157708223,19.40900617466938
