imu_index,t_imu,ax,ay,az,mag,vx,vy,vz,velocity
0,1791286529.9991677,-0.3142744628906251,0.023519091796875002,0.0830592773437507,0.32591475765452355,0.0,0.0,0.0,0.0
1,1791286530.0191677,-0.3190645019531251,0.033099169921875005,0.0591090820312507,0.3261772448143647,-0.0013507070993152741,0.00011491412502838648,0.00031915281330765284,0.0013926497917688822
2,1791286530.044813,-0.2999043457031251,0.076209521484375,0.07347919921875071,0.3180404069522076,-0.004013396846333773,0.0004504055396506941,0.0009220247902052389,0.004142505173208951
3,1791286530.064813,-0.21368364257812508,0.033099169921875005,0.0878493164062507,0.2333961365319028,-0.0065488485014534095,0.000836762324356473,0.0015636551378502802,0.0067847332499204865
4,1791286530.0738642,-0.19931352539062508,0.052259326171875,0.1596999023437507,0.2606932630203191,-0.007804552885234274,0.0010433322157721498,0.0019785271153834436,0.00811875343862555
5,1791286530.0938642,-0.22805375976562509,0.138480029296875,0.2028102539062507,0.3351376358256689,-0.010804037909421329,0.0017174157317995328,0.003301494710259603,0.011427012700873219
6,1791286530.1196897,-0.2376338378906251,0.138480029296875,0.1788600585937507,0.32808151423823195,-0.014998223278308225,0.0029937269743452845,0.005492825869564814,0.01625054579810382
7,1791286530.1396897,-0.21368364257812508,0.143270068359375,0.1501198242187507,0.29786401799583734,-0.018436077904137645,0.004256500796054366,0.007428768494823399,0.020327158406032175
8,1791286530.164522,-0.18973344726562508,0.195960498046875,0.1261696289062507,0.30052965421804556,-0.022815623470152233,0.0062209857280980056,0.00998647394446156,0.025670664183156035
9,1791286530.184522,-0.17057329101562507,0.15764018554687498,0.0830592773437507,0.24666681831981452,-0.026354289328334862,0.008096258893529341,0.012051304268065968,0.030088733915439893
10,1791286530.1950076,-0.2424238769531251,0.11452983398437501,0.0543190429687507,0.27356347968709827,-0.028256052947580976,0.009145997536551063,0.01307951387557275,0.032451925710755565
11,1791286530.2150075,-0.2376338378906251,0.11931987304687501,0.0686891601562507,0.2746366212607512,-0.03205939580263803,0.011198673068558748,0.014931023104455156,0.037096503725721125
12,1791286530.2395768,-0.21847368164062508,0.100159716796875,0.0686891601562507,0.24996183540974903,-0.03687129503050028,0.0137465008440677,0.017117506374509747,0.04291232581862151
13,1791286530.2595768,-0.26158403320312507,0.100159716796875,0.0638991210937507,0.2872999703658141,-0.040920832661621914,0.01580987398995255,0.018829261215938593,0.04773895410706743
14,1791286530.284036,-0.2759541503906251,0.085789599609375,0.0351588867187507,0.29111285755570904,-0.046116461155316195,0.018295890534500637,0.02079036930574172,0.05379318781973554
15,1791286530.304036,-0.2376338378906251,0.057049365234375,0.0399489257812507,0.24762953712218758,-0.050497993872000616,0.02023802102765102,0.02226607262949434,0.05878267491833094
16,1791286530.3149936,-0.2472139160156251,0.066629443359375,0.0926393554687507,0.2722797333181929,-0.05293695066320941,0.021244120719833753,0.023062277639125328,0.061526433836051615
17,1791286530.3349936,-0.25200395507812506,0.100159716796875,0.0878493164062507,0.2850534417208349,-0.05746961444020487,0.02305518383334714,0.024568255937533034,0.06661754487601117
18,1791286530.3593054,-0.25200395507812506,0.10973979492187501,0.1022194335937507,0.29325352268769095,-0.06307199662189476,0.025309195149679855,0.026470878772580704,0.07293380245119231
19,1791286530.3793054,-0.22326372070312508,0.11452983398437501,0.1117995117187507,0.2747051194922341,-0.06770235650717848,0.02722171399394967,0.02812231363013127,0.07820163242097287
20,1791286530.4041812,-0.21368364257812508,0.12410991210937501,0.1022194335937507,0.2674187390469858,-0.07341290154205361,0.029688906422011888,0.030267546505993326,0.08477623280643405
21,1791286530.4241812,-0.20889360351562508,0.11931987304687501,0.0878493164062507,0.2561079305424006,-0.07794930918069423,0.031740111002601275,0.03201868493871845,0.09004846269320664
22,1791286530.4350784,-0.22326372070312508,0.11452983398437501,0.0591090820312507,0.25779382349712854,-0.0804034509461538,0.03288120713128694,0.03294979638109401,0.09290628497586538
23,1791286530.4550784,-0.18494340820312508,0.076209521484375,0.0543190429687507,0.20727400664749585,-0.08484431563738984,0.03494746929322992,0.03457250770329367,0.09805682941474593
24,1791286530.4801552,-0.19452348632812508,0.080999560546875,0.1022194335937507,0.2341989072268749,-0.09029093439195827,0.037445298362232995,0.03659635330605117,0.10437382946941673
25,1791286530.5001552,-0.2424238769531251,0.061839404296875004,0.0974293945312507,0.2684882398905069,-0.09463869938036033,0.0393528724056035,0.0382678215602046,0.10940547588645452
26,1791286530.5239947,-0.27116411132812507,0.085789599609375,0.0878493164062507,0.2976698390273261,-0.09996203687376963,0.041549540435329754,0.04029258844718408,0.11550872612107768
27,1791286530.5439947,-0.2759541503906251,0.095369677734375,0.0447389648437507,0.2953771208544437,-0.1045787977483784,0.04338772813900338,0.04193533662417437,0.12073852885199124
28,1791286530.555001,-0.18973344726562508,0.085789599609375,0.030368847656250697,0.21043028137699948,-0.10712279673864245,0.04439712095705473,0.04276576558062226,0.12359331954470916
29,1791286530.575001,-0.21368364257812508,0.042679248046875,0.0782692382812507,0.2315346431539561,-0.11165728264898611,0.04614889251900256,0.044211370481607275,0.12865346605959732
30,1791286530.6001651,-0.17536333007812507,0.11931987304687501,0.0782692382812507,0.22608760094516242,-0.11724106053007428,0.0483281134078134,0.04605284741558235,0.1349145565714016
31,1791286530.620165,-0.18494340820312508,0.090579638671875,0.0543190429687507,0.21297721382522633,-0.12155372060937752,0.05011516601104934,0.047495765556026574,0.1397951522909528
32,1791286530.645232,-0.21847368164062508,0.061839404296875004,0.011208691406250698,0.2273334472893114,-0.12690660935623307,0.052305538578517635,0.04915616026887682,0.14579946830034685
33,1791286530.665232,-0.21368364257812508,0.10973979492187501,0.0638991210937507,0.2485691440454847,-0.1311850979306737,0.054048386732191256,0.05039487801830587,0.15056693447737085
34,1791286530.6898403,-0.19931352539062508,0.095369677734375,0.0926393554687507,0.23958987252482825,-0.136422023776917,0.05624971225015693,0.051979311294488725,0.1564507830030407
35,1791286530.7098403,-0.26158403320312507,0.052259326171875,0.0591090820312507,0.27322358459205015,-0.14073114833750427,0.057991877664097496,0.05330149367489995,0.16127418645082567
36,1791286530.7199347,-0.19931352539062508,0.052259326171875,0.0447389648437507,0.21085182842666583,-0.142928753489021,0.058818417572351046,0.05394734787260698,0.16370263028469903
37,1791286530.7399347,-0.09872270507812507,0.018729052734375,0.0495290039062507,0.11202710449804038,-0.14707679373018986,0.06031687570538321,0.05517643259422086,0.16826808212681352
38,1791286530.7646518,-0.12746293945312506,0.052259326171875,0.07347919921875071,0.15613145366580786,-0.15185351526004318,0.062022569134081294,0.056695588743579446,0.1735531012739477
39,1791286530.7846518,-0.20889360351562508,0.052259326171875,0.0926393554687507,0.23441336340607194,-0.15564339508932926,0.06335249306098575,0.05798961535875665,0.17776726442579868
40,1791286530.8097694,-0.22805375976562509,0.018729052734375,0.1022194335937507,0.25061545715257,-0.1605122251928496,0.06490591708454967,0.05973806887076863,0.18315455053411914
41,1791286530.8297694,-0.13704301757812506,-0.048331494140625,0.0926393554687507,0.17233331707609273,-0.16435516537013342,0.06591289359876364,0.061213735724199296,0.18736128566947322
42,1791286530.8399227,-0.10830278320312507,-0.057911572265625,0.1022194335937507,0.15978753285549854,-0.16620028329556835,0.06626651568340834,0.061998893069202525,0.1893611576067093
43,1791286530.8599226,-0.16099321289062507,-0.048331494140625,0.1692799804687507,0.2385591325231797,-0.16969356678023712,0.06669923198681715,0.06372075582263602,0.19314509798811372
44,1791286530.8851695,-0.20410356445312508,-0.072281689453125,0.1740700195312507,0.2778187886955794,-0.17413314981072298,0.06693515054157627,0.06621843983404294,0.19795845527555003
45,1791286530.9051695,-0.21847368164062508,0.042679248046875,0.1788600585937507,0.28555767953885575,-0.1777564103402146,0.06704960278860211,0.06842965111822441,0.20192971005602417
46,1791286530.930021,-0.2759541503906251,0.11931987304687501,0.22676044921875071,0.3765743307125749,-0.18250481807191804,0.06747243119737895,0.07152113821907076,0.20730607999598172
47,1791286530.950021,-0.2999043457031251,0.229490771484375,0.22676044921875071,0.4404871531588666,-0.18661680560949204,0.06828488709608854,0.07431618472503415,0.21215926388848047
48,1791286530.960091,-0.3382246582031251,0.320501513671875,0.1932301757812507,0.5044353680255151,-0.18885860112402053,0.06904798639532951,0.07582960666728504,0.2149077124979154
49,1791286530.980091,-0.37175493164062506,0.358821826171875,0.1788600585937507,0.546759318801797,-0.19370809419310667,0.07135520931495247,0.07894265012332055,0.22101206677645266
50,1791286531.0050027,-0.40049516601562507,0.37798198242187503,0.1357497070312507,0.5671813995509057,-0.2002853259536599,0.07517459634276513,0.08282638024156172,0.22940279203091934
51,1791286531.0250027,-0.4627656738281251,0.416302294921875,0.1261696289062507,0.6351208112549608,-0.2060685926564417,0.07897241414202724,0.08586955983640193,0.23680052445322786
52,1791286531.0502667,-0.4340254394531251,0.430672412109375,0.1596999023437507,0.6319500513910804,-0.21397745524704306,0.084655064196767,0.08967875506429726,0.2469718817153914
53,1791286531.0702667,-0.37175493164062506,0.37798198242187503,0.1501198242187507,0.5510064154419303,-0.2205079424227596,0.08969185971334022,0.09270666477295746,0.25546606049274345
54,1791286531.0795822,-0.4148652832031251,0.354031787109375,0.1405397460937507,0.5632078920995008,-0.22364300082672686,0.09219740110702092,0.0941085134100043,0.2595630268083519
55,1791286531.0995822,-0.4196553222656251,0.306131396484375,0.1596999023437507,0.543443723147064,-0.2306159973430408,0.09776004636483605,0.09711712781639664,0.26864940240225105
56,1791286531.124913,-0.38133500976562507,0.258231005859375,0.1213795898437507,0.4762695107717174,-0.23964456966316727,0.10482074419266377,0.10089007676160196,0.28034927460421655
57,1791286531.144913,-0.3861250488281251,0.253440966796875,0.1022194335937507,0.473047238220121,-0.24685501033562215,0.11032682399522736,0.10375757489628044,0.2896118757389469
58,1791286531.1698985,-0.4388154785156251,0.267811083984375,0.0447389648437507,0.5160265263192129,-0.25605755287520043,0.1171504411293717,0.1070779215406249,0.3012563319213435
59,1791286531.1898985,-0.2376338378906251,0.267811083984375,-0.06543193359374931,0.36396971790154553,-0.26333356743727937,0.12259661200340098,0.10930602129872263,0.3103583466029445
60,1791286531.199487,-0.2663740722656251,0.205540576171875,-0.12291240234374931,0.3582032013792597,-0.2666610721005697,0.12515638960964193,0.11007855079558411,0.3144670675590716
61,1791286531.219487,-0.2999043457031251,0.224700732421875,-0.11812236328124931,0.3929197480780192,-0.27341001891116556,0.13034013220468807,0.11108666226786934,0.3226171648222629
62,1791286531.2449968,-0.2472139160156251,0.215120654296875,-0.15165263671874932,0.3610957468603654,-0.28177378498130184,0.13680166798677373,0.11166348179993463,0.33253555514311056
63,1791286531.2649968,-0.21368364257812508,0.224700732421875,-0.1947629882812493,0.366174466423623,-0.28803881984896,0.14176742519587546,0.11152825659974103,0.33985720031629085
64,1791286531.2897208,-0.15141313476562507,0.200750537109375,-0.11812236328124931,0.2778121815838955,-0.29529893772280813,0.1477742147800575,0.11080598237887063,0.3483053931609846
65,1791286531.3097208,-0.14662309570312507,0.253440966796875,-0.031901660156249304,0.2945307653968042,-0.3007379772812295,0.15258571082109806,0.11008431790839159,0.3547453835856654
66,1791286531.335308,-0.12746293945312506,0.272601123046875,-0.007951464843749303,0.301033883497539,-0.3071787114773013,0.15882753121488932,0.10922305501035594,0.3626494467146848
67,1791286531.355308,-0.09393266601562507,0.291761279296875,0.0399489257812507,0.30910177371349384,-0.31178997001130837,0.1638210829256478,0.10869883589015214,0.3685997416364515
68,1791286531.3648388,-0.08914262695312507,0.325291552734375,0.0543190429687507,0.3416307372726958,-0.3137886639852483,0.16628483897965715,0.10855387996490672,0.3713460894846921
69,1791286531.3848388,-0.07477250976562506,0.358821826171875,0.0782692382812507,0.37479341618429873,-0.3175995915225916,0.17170559079095132,0.10849420542829798,0.3769924442952463
70,1791286531.409504,-0.06519243164062506,0.325291552734375,0.0591090820312507,0.3369844670042454,-0.32185338562952365,0.17865352432459589,0.10868578442080927,0.38382194222054644
71,1791286531.429504,-0.11788286132812507,0.277391162109375,0.0255788085937507,0.3024838859515846,-0.32505984858292075,0.18434628444464526,0.10894485847425532,0.3892511270854241
72,1791286531.4547563,-0.12746293945312506,0.282181201171875,0.0447389648437507,0.31284917484967667,-0.32896577331679994,0.19151568861941515,0.10935608000837367,0.39604985953297195
73,1791286531.4747562,-0.16099321289062507,0.291761279296875,0.1213795898437507,0.35464977586970553,-0.33202794221417675,0.19720307478860274,0.10988209368201618,0.4015042734878464
74,1791286531.484499,-0.14183305664062507,0.205540576171875,0.1117995117187507,0.2736104442992632,-0.33351716116208335,0.19992141314801143,0.11027028362937721,0.4041804098127669
75,1791286531.504499,-0.16099321289062507,0.234280810546875,0.1165895507812507,0.3072449123073004,-0.33656992028697386,0.2053243403671941,0.11129021484658237,0.4096619434482556
76,1791286531.530098,-0.22326372070312508,0.301341357421875,0.1309596679687507,0.3972451853824621,-0.34062894058325627,0.21223085631966465,0.11287513383158967,0.4169062333121789
77,1791286531.550098,-0.2328437988281251,0.301341357421875,0.1213795898437507,0.39969469996011675,-0.3440086468009202,0.21772141205852377,0.11430616761466751,0.4228598612984096
78,1791286531.5743294,-0.17057329101562507,0.282181201171875,0.0591090820312507,0.334985613842267,-0.3482223461378616,0.22443625819985097,0.11610791148918713,0.4302458407177085
79,1791286531.5943294,-0.14183305664062507,0.282181201171875,0.030368847656250697,0.3172776594070145,-0.35164714925372925,0.2299937180700471,0.11750617300117108,0.4363032530515215
80,1791286531.60467,-0.19452348632812508,0.248650927734375,0.0591090820312507,0.32118616747143824,-0.35341314286093073,0.23284779706742428,0.11819007541815521,0.4394176146598384
81,1791286531.62467,-0.20410356445312508,0.282181201171875,0.0782692382812507,0.3569461709815646,-0.35691435730137394,0.23833611957653714,0.11952047089606335,0.4455076961241758
82,1791286531.6500225,-0.16578325195312507,0.263021044921875,0.0399489257812507,0.31346462858036184,-0.3613901665952597,0.2452863517858121,0.12117873145880205,0.4532687192407029
83,1791286531.6700225,-0.17536333007812507,0.18159038085937498,-0.007951464843749303,0.25256799035092253,-0.3649031186546724,0.25061371350213546,0.12233866635265832,0.459269276878155
84,1791286531.6952302,-0.18015336914062507,0.16243022460937498,0.011208691406250698,0.24282596451452815,-0.36933878558256356,0.2569714789544261,0.12358749830795294,0.4666040604941691
85,1791286531.7152302,-0.20410356445312508,0.210330615234375,0.0543190429687507,0.29807346603879836,-0.3729065616554147,0.26181826437466277,0.12452799573649503,0.4723508537178407
86,1791286531.7251964,-0.20410356445312508,0.210330615234375,0.0351588867187507,0.29518363783015417,-0.3747228515173904,0.26418560184142303,0.12499323508652628,0.47522053458056157
87,1791286531.7451963,-0.2328437988281251,0.18638041992187498,0.0495290039062507,0.30233593536149855,-0.37847645374289124,0.2688188128501297,0.12591386044499067,0.48100133100866627
88,1791286531.7695255,-0.2472139160156251,0.215120654296875,0.1022194335937507,0.34327893728151065,-0.38323360203674184,0.2743421276030539,0.1271426728111799,0.4881565895871906
89,1791286531.7895255,-0.19452348632812508,0.239070849609375,0.0974293945312507,0.32324409474099103,-0.3872202581189783,0.2788828225444075,0.12830077666255432,0.4941419293080464
90,1791286531.8151908,-0.20410356445312508,0.200750537109375,0.0686891601562507,0.29440999285884406,-0.39233612091620307,0.28468231221988627,0.12988376903989332,0.5018380656411415
91,1791286531.8351908,-0.2855342285156251,0.200750537109375,0.0591090820312507,0.3540119452536777,-0.3964591849296812,0.28912598708526277,0.13112399720821297,0.5079047394610471
92,1791286531.8451438,-0.2472139160156251,0.239070849609375,0.0830592773437507,0.3537915134052752,-0.39860094088429027,0.291333995006014,0.13175474384475716,0.51099659416243
93,1791286531.8651438,-0.18973344726562508,0.248650927734375,0.0830592773437507,0.32361228102055895,-0.4029145282903822,0.29583690379784483,0.13308125077610053,0.517271891817338
94,1791286531.889413,-0.2328437988281251,0.215120654296875,0.1070094726562507,0.33458056996185065,-0.4081329449425944,0.3013255775800228,0.13479543701431626,0.5249184834727479
95,1791286531.909413,-0.2424238769531251,0.200750537109375,0.0974293945312507,0.32948839309665007,-0.412501198152235,0.30579404357749534,0.13630283370567975,0.5312680096153943
96,1791286531.9344835,-0.20410356445312508,0.17201030273437498,0.0638991210937507,0.27446112100950865,-0.4179951443791599,0.31125606392765964,0.1382122993314305,0.5391687284540666
97,1791286531.9544835,-0.14662309570312507,0.133689990234375,0.0351588867187507,0.20151300949997497,-0.42224661875648584,0.3154183502305268,0.1396556739722127,0.5452381589599772
98,1791286531.9795566,-0.17057329101562507,0.11931987304687501,0.0351588867187507,0.21111283008648582,-0.4273734951983878,0.3203294859512943,0.1413259733073213,0.5524781576670417
99,1791286531.9995565,-0.19931352539062508,0.152850146484375,0.0686891601562507,0.26039825154348734,-0.43140444013886414,0.32406757971311045,0.1426142384826741,0.5580935479027088
100,1791286532.0097914,-0.15620317382812507,0.18638041992187498,0.0543190429687507,0.2491739369863447,-0.433430722870288,0.3259539763639983,0.1432690317377134,0.56092263431816
101,1791286532.0297914,-0.06040239257812507,0.10494975585937501,0.0447389648437507,0.12909095731070677,-0.43712127198875356,0.32952426251351696,0.14450522550633538,0.5661651757294686
102,1791286532.0546744,-0.10830278320312507,0.080999560546875,0.07347919921875071,0.15391430854913665,-0.44133898010814926,0.3336469704394873,0.1460331593073941,0.5722115691452316
103,1791286532.0746744,-0.15620317382812507,0.15764018554687498,0.07347919921875071,0.23377136764595763,-0.4446172592973953,0.336821546612594,0.14729747470808816,0.5769140382960073
104,1791286532.1002343,-0.12746293945312506,0.152850146484375,0.0543190429687507,0.20630202772480669,-0.4487222296077658,0.3408652864907496,0.14891588487484606,0.5828522313988715
105,1791286532.1202343,-0.09393266601562507,0.128899951171875,0.0495290039062507,0.16700798000353193,-0.4517845533630044,0.34397741731506065,0.15014806727699892,0.5873450335085562
106,1791286532.1296356,-0.10830278320312507,0.18159038085937498,0.0926393554687507,0.23083892533942693,-0.453150720884543,0.34543981599790957,0.1507406365985821,0.5894039207852255
107,1791286532.1496356,-0.16099321289062507,0.16243022460937498,0.1165895507812507,0.2567012189586796,-0.4560250433584613,0.34860023573035587,0.1521259959295439,0.5938209184248242
108,1791286532.1902103,-0.18015336914062507,0.12410991210937501,0.1022194335937507,0.2414690856005015,-0.4620197580718227,0.3549221318155292,0.15518081099738568,0.6029204430130328
109,1791286532.2102103,-0.14183305664062507,0.148060107421875,0.0686891601562507,0.2162327729294775,-0.4650143967145731,0.35797912803807846,0.15671707694916454,0.6074106415516703
110,1791286532.2197514,-0.15141313476562507,0.195960498046875,0.0351588867187507,0.25012517164338854,-0.4664385462051801,0.35946489620916156,0.15741433546660966,0.6095565617750822
111,1791286532.2397513,-0.18973344726562508,0.205540576171875,0.0447389648437507,0.2832795164491327,-0.4694877805470748,0.36271445287059567,0.15877654041331202,0.6141583999180129
112,1791286532.2501905,-0.19452348632812508,0.239070849609375,0.0447389648437507,0.311441540006286,-0.4711414668296377,0.36450426883185616,0.15945095811322935,0.6166540779126134
113,1791286532.2701905,-0.2328437988281251,0.258231005859375,0.0447389648437507,0.35057247754943244,-0.47447551608113786,0.368164904618802,0.16068345220530608,0.6216844731582482
114,1791286532.2948918,-0.15620317382812507,0.205540576171875,0.0207887695312507,0.2589952372258402,-0.4786963789967563,0.3728670558538156,0.16209873198400943,0.6280573727905137
115,1791286532.3148918,-0.10830278320312507,0.148060107421875,-0.017531542968749304,0.18427871081105754,-0.48199802255521423,0.37663357393261865,0.16307764258236981,0.633063393563881
116,1791286532.3400567,-0.15141313476562507,0.128899951171875,-0.017531542968749304,0.19962086511817898,-0.48601933115835644,0.3811846149670401,0.16405841737604343,0.6390865866681281
117,1791286532.3600566,-0.19452348632812508,0.15764018554687498,-0.007951464843749303,0.2505055700491764,-0.4892548105457291,0.38468885781209616,0.1646827504161579,0.6437982566390988
118,1791286532.3697896,-0.21847368164062508,0.15764018554687498,-0.007951464843749303,0.269526257463023,-0.4908946471065376,0.3863685381793354,0.16492939787250163,0.6461113744048116
119,1791286532.3897896,-0.22805375976562509,0.138480029296875,0.011208691406250698,0.2670409530771289,-0.49442864237424367,0.38974651562333484,0.16536508811315395,0.6509282919087472
120,1791286532.4148126,-0.22326372070312508,0.148060107421875,0.0638991210937507,0.2754116592821263,-0.49903396618197815,0.3938766763796246,0.16596939163511196,0.6570537075147697
121,1791286532.4348125,-0.19931352539062508,0.224700732421875,0.0830592773437507,0.311633027947027,-0.5027965722663599,0.3972417441353434,0.16660037759102514,0.6620884247439783
122,1791286532.4600759,-0.17057329101562507,0.215120654296875,0.0686891601562507,0.28300237496527797,-0.5075372934858594,0.40168814016212895,0.16756538704052754,0.668599749596052
123,1791286532.4800758,-0.15620317382812507,0.18638041992187498,0.0926393554687507,0.2602290195691085,-0.5112175458527931,0.40528242438588435,0.16845674600962632,0.6737765935234056
124,1791286532.4896672,-0.14662309570312507,0.243860888671875,0.1357497070312507,0.3152688506282769,-0.5129355741431797,0.40705706535907915,0.16898438459320783,0.6762795870915255
125,1791286532.5096672,-0.19931352539062508,0.239070849609375,0.1596999023437507,0.3498354060771883,-0.5164995640404989,0.4109268897726366,0.17036276121678146,0.6816569362968766
126,1791286532.5353131,-0.14662309570312507,0.195960498046875,0.0830592773437507,0.2584524957148086,-0.5210495430553846,0.4159815836525255,0.1723320640825177,0.6886447883831179
127,1791286532.555313,-0.09872270507812507,0.16722026367187498,0.0543190429687507,0.20164163138963848,-0.5244336128776579,0.4198769668536566,0.17384352613591936,0.6939372112731165
128,1791286532.5796862,-0.16099321289062507,0.18159038085937498,0.0782692382812507,0.25499010702108854,-0.5284137765120592,0.4245496407163592,0.17565155148233977,0.7002263806643386
129,1791286532.5996861,-0.21847368164062508,0.19117045898437499,0.0782692382812507,0.3006708626039993,-0.5317591042372293,0.42836792895334974,0.1771474402042112,0.7054417361241586
130,1791286532.6103156,-0.18973344726562508,0.17201030273437498,0.0638991210937507,0.26394965984941693,-0.5335957832502182,0.43038237285920355,0.17793654630935554,0.7082477400478124
131,1791286532.6303155,-0.12746293945312506,0.148060107421875,0.0638991210937507,0.2055521686102144,-0.5370090402509808,0.4340842462973865,0.17939028757670772,0.7134344521199573
132,1791286532.6550312,-0.13225297851562506,0.19117045898437499,0.0543190429687507,0.23872065923080885,-0.5410758110038656,0.4386015788459376,0.1811364596035456,0.7196838161424411
133,1791286532.6750312,-0.16578325195312507,0.17201030273437498,0.07347919921875071,0.2499416403738151,-0.544320080585888,0.44225347158775435,0.18252921286510607,0.724699521739599
134,1791286532.7002833,-0.17536333007812507,0.148060107421875,0.0447389648437507,0.23382828725617646,-0.5484479809450501,0.4467789230877655,0.1842478314641801,0.7309951144278726
135,1791286532.7202833,-0.19452348632812508,0.17680034179687498,0.011208691406250698,0.26310336819543123,-0.5517817568908212,0.45031279518660416,0.1854887451154329,0.7359692896519473
136,1791286532.745498,-0.19452348632812508,0.16722026367187498,0.0351588867187507,0.2589172659963827,-0.5560900400458775,0.45475035691750293,0.1869062244387523,0.7422721579641602
137,1791286532.765498,-0.21368364257812508,0.11452983398437501,0.0064186523437506976,0.24252624822038202,-0.5596070376931925,0.4581648301060175,0.18792426940662846,0.7472553641251705
138,1791286532.7747033,-0.21368364257812508,0.128899951171875,0.001628613281250697,0.24955670477626432,-0.5612780380985506,0.4596687295755293,0.1883281123091682,0.7495304229230951
139,1791286532.7947032,-0.18494340820312508,0.195960498046875,0.0207887695312507,0.27025312943829255,-0.5649619016735905,0.46293334934342206,0.1891075360944961,0.7544871744997987
140,1791286532.8202887,-0.21368364257812508,0.229490771484375,0.0543190429687507,0.31824090203961924,-0.5697325930870626,0.46729963612307335,0.1900991916087403,0.7609874376077188
141,1791286532.8402886,-0.22805375976562509,0.17201030273437498,0.0495290039062507,0.2899123726541421,-0.5735650389966758,0.47080302479368347,0.1909138595850077,0.7662117487325445
142,1791286532.8648307,-0.17057329101562507,0.17201030273437498,0.0399489257812507,0.24551722653563096,-0.5782961688908026,0.4750904231031558,0.19192828901481232,0.7726408203054435
143,1791286532.8848307,-0.14662309570312507,0.17680034179687498,0.0830592773437507,0.24424482923068339,-0.5820491541918648,0.4785834627391569,0.1928154830079406,0.7778182044606905
144,1791286532.8951976,-0.18494340820312508,0.17680034179687498,0.0878493164062507,0.27051788756073986,-0.5839604975899527,0.48039740752644267,0.19333926032962967,0.7804944596141862
145,1791286532.9151976,-0.18015336914062507,0.17201030273437498,0.0543190429687507,0.2549379122228207,-0.5876424210030279,0.4838951845728994,0.19441141857457145,0.7856678460312078
146,1791286532.9396393,-0.17536333007812507,0.195960498046875,0.0543190429687507,0.26852071197564953,-0.5921188154465776,0.48820312252317327,0.1957242963555817,0.7919943059335227
147,1791286532.9596393,-0.16099321289062507,0.15764018554687498,0.07347919921875071,0.23699880888715064,-0.5957368228050345,0.49172982928236664,0.19682914129549,0.7971463466108482
148,1791286532.985459,-0.18494340820312508,0.128899951171875,0.0686891601562507,0.23566387583350693,-0.6003769134166101,0.496154711640487,0.19831684030862978,0.8037110831615483
149,1791286533.005459,-0.2376338378906251,0.133689990234375,0.0782692382812507,0.28367045679912173,-0.6040658577689924,0.499461980136378,0.1995167926504798,0.8088045379901591
150,1791286533.0149996,-0.21847368164062508,0.152850146484375,0.0782692382812507,0.27788485117226397,-0.6058879931582994,0.501008023295853,0.20011535207077819,0.8112678064576586
151,1791286533.0349996,-0.19452348632812508,0.085789599609375,0.1261696289062507,0.24722058448423373,-0.6097542871468569,0.5041208223878003,0.20148856201337054,0.816416397974183
152,1791286533.0745723,-0.13225297851562506,0.095369677734375,0.1357497070312507,0.2121655219786743,-0.6172266402647932,0.5098937310561797,0.20457544865965194,0.8263240627122352
153,1791286533.0945723,-0.03645219726562507,0.253440966796875,0.0830592773437507,0.26918382174509087,-0.6206897347892001,0.5128969217262663,0.20622975284157213,0.8311736943299296
154,1791286533.1046796,-0.09872270507812507,0.234280810546875,-0.0798020507812493,0.2664620760958983,-0.6222798096229303,0.5145566870881693,0.2069428444756647,0.8335622871574635
155,1791286533.1246796,-0.21368364257812508,0.11452983398437501,-0.12291240234374931,0.2718183964117516,-0.6254228523275221,0.5178715524882015,0.2078381608173065,0.8381774216608046
156,1791286533.134981,-0.2424238769531251,0.0043589355468750006,0.0207887695312507,0.24335264406763532,-0.6271512904151666,0.5194146802352358,0.20815123648911102,0.84049823816902
157,1791286533.154981,-0.26158403320312507,0.037889208984375006,0.1692799804687507,0.31387499163166205,-0.6307596864462849,0.5220246256797109,0.20895299789139143,0.8450022764405181
158,1791286533.1800737,-0.2855342285156251,0.128899951171875,0.0974293945312507,0.3280815142382318,-0.6356375049104888,0.5251218844828798,0.2103099708927373,0.8508926577827468
159,1791286533.2000737,-0.22805375976562509,0.138480029296875,0.0686891601562507,0.2755057832065815,-0.6397125274091314,0.5276212956311205,0.21147847522910548,0.8557683651624828
160,1791286533.2252812,-0.10830278320312507,0.148060107421875,0.1309596679687507,0.2253923754118708,-0.6447140865240759,0.5308406887434839,0.2131077668779896,0.861895011293112
161,1791286533.2452812,-0.12267290039062508,0.133689990234375,0.1501198242187507,0.23549440673311992,-0.64843360765762,0.5334344763674277,0.21462818211030885,0.8666508758855805
162,1791286533.2551174,-0.21368364257812508,0.17201030273437498,0.0207887695312507,0.27510073844112215,-0.6502366468746161,0.534744299767875,0.21538985641269495,0.868994794759129
163,1791286533.2751174,-0.2855342285156251,0.11452983398437501,0.011208691406250698,0.3078514467881258,-0.654101681169403,0.5374378886231771,0.21675426081289667,0.8738826597529689
164,1791286533.3000805,-0.22326372070312508,0.133689990234375,0.1070094726562507,0.2813729370590555,-0.6591548189302978,0.5407603358972619,0.21842313673698827,0.8801224249277928
165,1791286533.3200805,-0.21368364257812508,0.19117045898437499,0.1788600585937507,0.33793159670843514,-0.6632514433947339,0.543510224028389,0.2199884508195035,0.8852687497492231
166,1791286533.3450093,-0.17536333007812507,0.10973979492187501,0.1165895507812507,0.23746208850458314,-0.6683191018741047,0.546986262795125,0.22219925301831348,0.8917493491213122
167,1791286533.3650093,-0.13225297851562506,0.071419482421875,0.1357497070312507,0.2025329004254205,-0.6722363714895827,0.5496284558345728,0.22408539886138096,0.8967761396242885
168,1791286533.3898337,0.030608349609374936,0.143270068359375,0.1357497070312507,0.19972773095536858,-0.6765584815038655,0.5528157829015377,0.22658083824251365,0.902593787358708
169,1791286533.4098337,0.040188427734374935,0.200750537109375,0.0351588867187507,0.2077306794596445,-0.6794121105145706,0.5555145267048139,0.22854610268307232,0.9068795544864588
170,1791286533.4196718,-0.15141313476562507,0.100159716796875,-0.07022197265624931,0.19465105109430716,-0.6806873374090946,0.5568649539866858,0.22934194714336925,0.9088627822763942
171,1791286533.4396718,-0.2376338378906251,-0.010011181640625,-0.18518291015624933,0.3014345283513602,-0.6834744656380001,0.5593336792661721,0.23033403835087787,0.9127131417721597
172,1791286533.4653509,-0.2424238769531251,0.071419482421875,-0.10854228515624931,0.27504818896573924,-0.6874407942084031,0.5621462236766094,0.23085107511127478,0.9175377056098479
173,1791286533.4853508,-0.15620317382812507,0.085789599609375,0.0782692382812507,0.19464162087344916,-0.6906645073624255,0.5642439865980233,0.23114795221482043,0.9213132550632912
174,1791286533.5102875,-0.12267290039062508,0.234280810546875,0.1261696289062507,0.29301009187243016,-0.6946025981413547,0.5670658280873623,0.2318449373961272,0.9261687199022327
175,1791286533.5302875,-0.17536333007812507,0.200750537109375,0.0447389648437507,0.2702862383864231,-0.6977343514700286,0.5696420975810154,0.23257645305665697,0.930277996662404
176,1791286533.540201,-0.20410356445312508,0.18159038085937498,0.0830592773437507,0.28553839495939937,-0.6993359642008334,0.5710118097263793,0.2329796756057571,0.9324187937386654
177,1791286533.560201,-0.07956254882812507,0.11452983398437501,0.07347919921875071,0.15762764594558004,-0.7025079745740549,0.5738048285397145,0.23390594576479828,0.9367397862051963
178,1791286533.5854228,-0.046032275390625065,0.18638041992187498,0.07347919921875071,0.20556221448924328,-0.7061457229140436,0.5773679581258748,0.2351768331332323,0.9419679845423705
179,1791286533.6054227,-0.14183305664062507,0.17680034179687498,0.1453297851562507,0.2692502985496517,-0.7088794313861633,0.5803143450493966,0.23636164826600925,0.9461192398865509
180,1791286533.6458852,-0.12746293945312506,0.16722026367187498,0.0830592773437507,0.22607136278040285,-0.7143977030899349,0.5864251166787912,0.23909221397848957,0.9546850697675356
181,1791286533.6658852,-0.15141313476562507,0.143270068359375,0.0399489257812507,0.21224553361220397,-0.7171344732410072,0.5894582421385886,0.24042395081762508,0.9589298973660836
182,1791286533.6605155,-0.17536333007812507,0.11452983398437501,0.0830592773437507,0.2253180506782447,-0.7171344732410072,0.5894582421385886,0.24042395081762508,0.9589298973660836
183,1791286533.6805155,-0.16578325195312507,0.128899951171875,0.1117995117187507,0.23790421362560224,-0.7200401486555267,0.5923435141748179,0.24183525389816093,0.9632304731936349
184,1791286533.7047937,-0.08914262695312507,0.19117045898437499,0.0926393554687507,0.23037925798575307,-0.7235024761545156,0.5959034082203897,0.2436637238308729,0.9684671988464657
185,1791286533.7247937,-0.06998247070312506,0.200750537109375,0.0207887695312507,0.21361296143736166,-0.7261655442459922,0.598983987583823,0.24511419163887957,0.9727174214409223
186,1791286533.7496128,-0.08435258789062507,0.152850146484375,-0.012741503906249304,0.17504534351399778,-0.7292618711823163,0.6028916314119551,0.24665914524677507,0.9778251019076836
187,1791286533.7696128,-0.12746293945312506,0.16243022460937498,0.001628613281250697,0.2064776771999891,-0.731700437878465,0.6060411105492908,0.24770069917190643,0.9818487637297337
188,1791286533.779968,-0.20410356445312508,0.17201030273437498,0.0399489257812507,0.2698920635000559,-0.7330311545482584,0.607686930359784,0.24819137572322103,0.9839802019613173
189,1791286533.799968,-0.16099321289062507,0.17680034179687498,0.0495290039062507,0.24419315650583523,-0.7357634105192835,0.6109120557700337,0.2491311265124096,0.9882447340317472
190,1791286533.8246982,-0.06998247070312506,0.148060107421875,0.015998730468750697,0.16454574133687766,-0.7390635121665808,0.614904314535362,0.2502403758120073,0.9934497655829104
191,1791286533.8446982,-0.15620317382812507,0.152850146484375,0.0064186523437506976,0.21864079649549462,-0.7416713389646129,0.618100029272416,0.25103651958099715,0.9975687221397148
192,1791286533.870537,-0.20410356445312508,0.15764018554687498,0.0447389648437507,0.2617446620220067,-0.7452333732760174,0.6222111141434501,0.2520099457127853,1.0030097028175482
193,1791286533.890537,-0.18015336914062507,0.234280810546875,0.1022194335937507,0.312716400605159,-0.7481533036415012,0.6255037737702687,0.25287082287302076,1.0074383305250096
194,1791286533.9005976,-0.08914262695312507,0.224700732421875,0.0351588867187507,0.24428052400126585,-0.7496049840750972,0.6272579489971155,0.2533425689293546,1.0097240335666073
195,1791286533.9205976,-0.11309282226562507,0.17680034179687498,0.0207887695312507,0.21090405459857697,-0.7523613387162605,0.6308243475236617,0.2542236312733213,1.0142073733321855
196,1791286533.945216,-0.18973344726562508,0.138480029296875,0.0543190429687507,0.24109346311006044,-0.7558043962937362,0.635137934798107,0.2552841488362293,1.0197109778381233
197,1791286533.965216,-0.15620317382812507,0.19117045898437499,0.0686891601562507,0.256249442194997,-0.7587008700841864,0.6386111150841738,0.2562009908780794,1.0242510016116475
198,1791286533.9899101,-0.06998247070312506,0.17680034179687498,0.0255788085937507,0.19185979910935308,-0.7621596434862395,0.6429377400266656,0.2573378113325011,1.029795615086348
199,1791286534.00991,-0.12746293945312506,0.16243022460937498,0.0207887695312507,0.20751518435841385,-0.7648369000543765,0.6464251204712527,0.2581899725541285,1.034167772650339
200,1791286534.0194676,-0.17057329101562507,0.16243022460937498,0.0591090820312507,0.24284297200687166,-0.7661380201090366,0.6480745355048995,0.2585933866165384,1.0362618438542917
201,1791286534.0394676,-0.14662309570312507,0.205540576171875,0.1022194335937507,0.27238589032999,-0.7689281279372958,0.6515603202286439,0.25955293530541107,1.0407444657817124
202,1791286534.0646772,-0.06998247070312506,0.200750537109375,0.0495290039062507,0.21829211296645992,-0.7723270239166066,0.6560632158268024,0.26086792163934963,1.0464033866407936
203,1791286534.0846772,-0.09393266601562507,0.152850146484375,0.0351588867187507,0.18281865424622237,-0.7748649211269092,0.6596301164846786,0.2618817063551469,1.050766179837401
204,1791286534.1099176,-0.15620317382812507,0.19117045898437499,0.0447389648437507,0.2508927079003422,-0.7780608865502951,0.6641076402111431,0.26312046156632096,1.0562433802212055
205,1791286534.1299176,-0.11309282226562507,0.19117045898437499,0.0686891601562507,0.23249587428440943,-0.7806173837853003,0.6676968626201347,0.2641249327123159,1.0606340463613562
206,1791286534.1552618,-0.050822314453125066,0.128899951171875,0.0399489257812507,0.144201323605437,-0.7836826267363092,0.6721713029312364,0.26541337575926865,1.066028601851061
207,1791286534.1752617,-0.10351274414062507,0.18159038085937498,0.0399489257812507,0.2128047727172754,-0.7859701899557192,0.6756383405593842,0.26639746625277244,1.070142007753534
208,1791286534.1849537,-0.17057329101562507,0.18638041992187498,0.0591090820312507,0.259474068293409,-0.7871116887010585,0.6773339192586221,0.2668748263379678,1.0721698660198384
209,1791286534.2049537,-0.13704301757812506,0.19117045898437499,0.0255788085937507,0.23660348371123074,-0.7895753365114777,0.680874342046795,0.26783916227382765,1.0764557113659694
210,1791286534.2302585,-0.10830278320312507,0.17680034179687498,0.001628613281250697,0.20734152042042808,-0.7926905102117696,0.685380263578251,0.2689278978353811,1.0818625443726877
211,1791286534.2502584,-0.13225297851562506,0.17680034179687498,0.0399489257812507,0.22437719994870708,-0.7951441446509294,0.6889377818858343,0.26972168622796466,1.0861119951939064
212,1791286534.2900276,-0.14662309570312507,0.143270068359375,0.0591090820312507,0.21335071656745117,-0.800123056908316,0.6959053390691707,0.2713587997087246,1.0945851932675892
213,1791286534.3100276,-0.08914262695312507,0.17680034179687498,0.0447389648437507,0.20299345746818098,-0.8026050226928616,0.6993638405875342,0.2722143825836358,1.0988108454408998
214,1791286534.3050504,-0.08435258789062507,0.195960498046875,0.0447389648437507,0.21798497850520637,-0.8026050226928616,0.6993638405875342,0.2722143825836358,1.0988108454408998
215,1791286534.3250504,-0.08914262695312507,0.17201030273437498,0.0351588867187507,0.19690124301836517,-0.8048796917342415,0.7028898332268851,0.2730664721253603,1.10292825424817
216,1791286534.349827,-0.12746293945312506,0.17680034179687498,0.0686891601562507,0.22852431493496245,-0.8076774502115914,0.7072509191475886,0.27415670734406894,1.1080201380828545
217,1791286534.369827,-0.07477250976562506,0.18638041992187498,0.0591090820312507,0.2093381778975877,-0.809900423312306,0.7107879526002099,0.27509644535192246,1.1121314056748484
218,1791286534.3949008,-0.04124223632812507,0.16243022460937498,0.0351588867187507,0.17123272829485275,-0.812487473201686,0.7152130928935746,0.2762751380781643,1.1171363454279708
219,1791286534.4149008,-0.09872270507812507,0.15764018554687498,0.0830592773437507,0.20370430567384118,-0.8144514371390434,0.7186934378681098,0.27725161741135235,1.1210351736006086
220,1791286534.4254527,-0.13225297851562506,0.205540576171875,0.1165895507812507,0.2707967912119613,-0.8155149842938957,0.7205416437658186,0.2778475278504203,1.1231403290511879
221,1791286534.4454527,-0.15620317382812507,0.272601123046875,0.1501198242187507,0.348205062317976,-0.8176611257702429,0.7242364599043486,0.27920764986271723,1.1274063500763625
222,1791286534.4700255,-0.13704301757812506,0.253440966796875,0.1596999023437507,0.32941944558033687,-0.8204428844606187,0.7290646068609719,0.28119907583665094,1.1330201445211776
223,1791286534.4900255,-0.17536333007812507,0.263021044921875,0.1884401367187507,0.3680245273544494,-0.8228359692893379,0.733179506824751,0.28309899332575755,1.1378735701325375
224,1791286534.5154097,-0.2472139160156251,0.368401904296875,0.2219704101562507,0.496090260281613,-0.8262222071263478,0.7388208921620976,0.285930024798718,1.1446638918587966
225,1791286534.5354097,-0.2663740722656251,0.435462451171875,0.2650807617187507,0.5751960561316316,-0.8292603776377688,0.7438047662616787,0.2885565641939109,1.150731591194454
226,1791286534.545102,-0.27116411132812507,0.445042529296875,0.30340107421875073,0.6030298831670148,-0.8309026006974616,0.7464977682394417,0.29005172214520386,1.1540312176677332
227,1791286534.5651019,-0.2903242675781251,0.569583544921875,0.2794508789062507,0.6977151200253728,-0.8346252711875778,0.7527431977157439,0.2935484876037253,1.1616334962399697
228,1791286534.5903397,-0.3142744628906251,0.713284716796875,0.2602907226562507,0.8217632174428972,-0.8397626409321093,0.7618703498285829,0.29832078608724794,1.1724517109309498
229,1791286534.6103396,-0.3142744628906251,0.713284716796875,0.2746608398437507,0.8264273121000199,-0.8441659554969387,0.7701581802086853,0.30233779559522694,1.1820185809063217
230,1791286534.6352255,-0.3046943847656251,0.718074755859375,0.28424091796875073,0.8302185992604127,-0.8499783969880182,0.7815953654604393,0.30762954924343755,1.1949855774122462
231,1791286534.6552255,-0.2759541503906251,0.698914599609375,0.32256123046875074,0.8177273739251115,-0.8548199482613534,0.7915337865034439,0.3121546400291941,1.2061025654619006
232,1791286534.6647859,-0.18015336914062507,0.828245654296875,0.3656715820312507,0.9231261052421899,-0.8571141846870776,0.796666930824593,0.31448673364373686,1.2117032763425117
233,1791286534.6847858,-0.15620317382812507,0.9958970214843751,0.3848317382812507,1.0790300161274469,-0.8616982763481589,0.8085307788991818,0.31975936164240243,1.2241290737690458
234,1791286534.7101755,-0.06998247070312506,1.043797412109375,0.42315205078125073,1.128480501299123,-0.8670755041790907,0.8252166450925349,0.3269874376875043,1.240855844040976
235,1791286534.7301755,-0.10351274414062507,1.000687060546875,0.4279420898437507,1.093262966355901,-0.8709361394000511,0.8394556070334479,0.3331037297585769,1.2546607389537758
236,1791286534.7548444,-0.03645219726562507,1.015057177734375,0.32256123046875074,1.0656995750008917,-0.8752427064540618,0.8581136398712661,0.34090479622551967,1.2722518988878369
237,1791286534.7748444,0.030608349609374936,0.9767368652343751,0.2698708007812507,1.0137958493148398,-0.878219236294435,0.8739590495415398,0.34716935526709913,1.286701211824138
238,1791286534.799926,-0.03166215820312507,0.986316943359375,0.2986110351562507,1.0310151091700586,-0.8813941115914296,0.894542533415993,0.35491657432222457,1.305001034009924
239,1791286534.819926,-0.03645219726562507,0.895306201171875,0.28424091796875073,0.9400504539597989,-0.8836481694415397,0.9113161651468907,0.36104180897526034,1.3197281644503716
240,1791286534.830493,0.12161909179687494,0.9767368652343751,0.1165895507812507,0.9911605474133565,-0.8845929607747713,0.9203327665414254,0.3641102927710485,1.32743866627573
241,1791286534.850493,0.10245893554687494,0.895306201171875,0.001628613281250697,0.9011513078897642,-0.8857768131640364,0.9376466300220151,0.3692241602451207,1.3416811268104627
242,1791286534.875079,0.12640913085937494,0.833035693359375,-0.017531542968749304,0.8427544658880322,-0.8865918051036478,0.9589249331999691,0.3745383386771857,1.358624680891885
243,1791286534.895079,0.14077924804687494,0.871356005859375,0.0686891601562507,0.8853238313469358,-0.8867545497623692,0.9761944184893477,0.37828956806378794,1.3720029779559173
244,1791286534.9199274,0.18867963867187496,0.770765185546875,-0.031901660156249304,0.794164147529453,-0.8863124270092274,0.9974923554376607,0.3823196521006202,1.3880594489465856
245,1791286534.9399273,0.31801069335937493,0.531263232421875,-0.2570334960937493,0.6704011048084758,-0.8852499155719672,1.014016301845954,0.38464341702915916,1.399945367395952
246,1791286534.9498813,0.428181591796875,0.5025229980468751,-0.3193040039062493,0.7333647701044054,-0.8842433576013619,1.021778435564402,0.3851962089894997,1.405095586167165
247,1791286534.9698813,0.48566206054687494,0.603113818359375,-0.3049338867187493,0.8322250838685797,-0.8811535346604364,1.0366935166742082,0.38520394359569987,1.4140534209571423
248,1791286534.9948359,0.567092724609375,0.296551318359375,-0.2666135742187493,0.6932673659442397,-0.8759062348354966,1.0541958056966316,0.3841424431398246,1.4234134837051038
249,1791286535.0148358,0.6964237792968749,0.033099169921875005,-0.4055247070312493,0.8065679905825919,-0.8704363037413003,1.066613499014702,0.38241110261469985,1.428832378746434
250,1791286535.0399706,0.6772636230468749,0.066629443359375,-0.49174541015624934,0.8396064829637141,-0.8620036066614098,1.0800664521848051,0.3788701795597999,1.4328769563336643
251,1791286535.0599706,0.648523388671875,0.076209521484375,-0.48216533203124934,0.8117104682287486,-0.8543114530571545,1.0893796477107138,0.37501440300191435,1.4343053643244272
252,1791286535.0700426,0.773064404296875,-0.163292431640625,-0.41031474609374935,0.8903095991192999,-0.8499448823156527,1.0933004727851778,0.37268971990818045,1.4340885098528962
253,1791286535.0900426,0.911975537109375,-0.21119282226562502,-0.3863645507812493,1.0127089189707226,-0.8400472211274607,1.099356498602931,0.3675709925250427,1.4315629498175446
254,1791286535.114296,0.868865185546875,-0.20161274414062502,-0.41031474609374935,0.9818006926649098,-0.826605663470562,1.1048479687109993,0.3608456045722445,1.426245247909888
255,1791286535.134296,0.844914990234375,-0.311783642578125,-0.44384501953124933,1.0040362452943286,-0.8146133656940029,1.1079270269234438,0.3548503204765698,1.420216878683343
256,1791286535.159337,0.792224560546875,-0.5704457519531251,-0.5300657226562493,1.1108545271952341,-0.798775904321374,1.1095470083748857,0.34664076695352014,1.4104245213524231
257,1791286535.179337,0.825754833984375,-0.6518764160156251,-0.5492258789062493,1.1867868273899407,-0.7855971514639601,1.1088133050246758,0.33944850332391324,1.4006623848011617
258,1791286535.1894045,0.811384716796875,-0.565655712890625,-0.41989482421874935,1.0745339490137298,-0.7787222522131976,1.1075800676789433,0.3356394228683435,1.3949178379370888
259,1791286535.2094045,0.840124951171875,-0.46985493164062503,-0.3049338867187493,1.0097317790571736,-0.7646359901976753,1.1039443505390139,0.32812014264832523,1.3823979725839233
260,1791286535.2348034,0.830544873046875,-0.694986767578125,-0.3384641601562493,1.1346230127066064,-0.7462479757742281,1.0978008159287893,0.31877777761842124,1.3651637060456845
261,1791286535.2548034,0.5958329589843749,-0.757257275390625,-0.4486350585937493,1.0628870645292121,-0.7318009847659628,1.0915104745580564,0.3113441182298519,1.3505047046681142
262,1791286535.2791755,0.547932568359375,-0.8674281738281251,-0.5109055664062493,1.1461615217780554,-0.7147458731722577,1.0820250680742696,0.3018902687353544,1.3314569634483142
263,1791286535.2991755,0.643733349609375,-1.0973500488281251,-0.5252756835937493,1.3764026659510926,-0.7010621253399056,1.072461659938326,0.29374176630424603,1.3145137279219696
264,1791286535.309195,0.6964237792968749,-1.245841259765625,-0.5875461914062493,1.543482119086752,-0.6942280809021772,1.066628437778188,0.289435634953213,1.3051520368796226
265,1791286535.329195,0.5958329589843749,-1.2266811035156249,-0.5683860351562493,1.4774390443246816,-0.6806944911246573,1.0530225293227293,0.2803955987229616,1.2848436205592892
266,1791286535.355109,0.605413037109375,-1.413492626953125,-0.5348557617187494,1.6280531434190308,-0.6634546745688542,1.0329064420084462,0.268295206513332,1.2566026185663641
267,1791286535.375109,0.5766728027343749,-1.408702587890625,-0.46300517578124933,1.5910274338751953,-0.650371941701435,1.0154766660682255,0.2588603584086313,1.2333633718563959
268,1791286535.399681,0.653313427734375,-1.183570751953125,-0.25224345703124934,1.3752399504639181,-0.6344426714077807,0.9924971335274171,0.24768925015461069,1.2037101096216374
269,1791286535.419681,0.749114208984375,-1.159620556640625,-0.18997294921874933,1.3935500188083199,-0.6213185265139163,0.9730841914434136,0.2392973072850448,1.1790643563013765
270,1791286535.4301043,0.883235302734375,-1.332061962890625,-0.3049338867187493,1.6271073560910818,-0.6142286468755526,0.9625366905436221,0.23519290858627298,1.1657913258960677
271,1791286535.4501042,0.792224560546875,-1.475763134765625,-0.3145139648437493,1.7042346136458701,-0.6001520211489674,0.9411222140753923,0.22756955335774925,1.1391581856488608
272,1791286535.4743524,0.7347440917968749,-1.609884228515625,-0.4773752929687493,1.8328838697502803,-0.5828684484546878,0.9134420195525648,0.21827319634297462,1.1053303305030682
273,1791286535.4943523,0.7970145996093749,-1.820645947265625,-0.6737668945312494,2.098558020511113,-0.568453567346275,0.8888900733117718,0.21002895271501307,1.075814659520625
274,1791286535.535044,0.911975537109375,-1.964347119140625,-0.7408274414062493,2.2889264476392714,-0.5383089228756766,0.8348787432808861,0.19145423742186227,1.01165890371045
275,1791286535.555044,1.055676708984375,-1.940396923828125,-0.6258665039062493,2.2959317099176886,-0.5227637353741609,0.8064569900858779,0.18164412637949678,0.978084550807797
276,1791286535.5641575,0.940715771484375,-2.060147900390625,-0.6641868164062493,2.36014822866938,-0.5153781094283277,0.7927140614851464,0.17696264040905021,0.9619386441217219
277,1791286535.5841575,0.868865185546875,-2.079308056640625,-0.7551975585937494,2.376714551133976,-0.49888694462644745,0.760869477001268,0.166100944234109,0.9248784072657106
278,1791286535.5951433,0.892815380859375,-2.131998486328125,-0.6210764648437493,2.3933810447121235,-0.4897357171562281,0.7425314093140188,0.15989566216252044,0.9037480784238376
279,1791286535.6151433,1.026936474609375,-2.1224184082031248,-0.6114963867187493,2.4358132632311333,-0.47269508496981416,0.7077726670470008,0.14844448145556788,0.8639551815042589
280,1791286535.6393917,1.189797802734375,-2.275699658203125,-0.6929270507812494,2.659807444805313,-0.451102340184699,0.6639532876873957,0.13427113462157728,0.813852583176818
281,1791286535.6593916,1.089206982421875,-2.438560986328125,-0.7551975585937494,2.775477416068112,-0.4325456460042141,0.6261611169896388,0.12216233342158173,0.770776956073494
282,1791286535.684626,0.8976054199218749,-2.491251416015625,-0.7791477539062494,2.7602717855476,-0.40888401921498746,0.5763002268136161,0.10627218232774452,0.7145641114214518
283,1791286535.704626,0.883235302734375,-2.5583119628906252,-0.7072971679687493,2.7973798425101624,-0.39027236573596175,0.5351355408209277,0.09333761979653804,0.6688755323497296
284,1791286535.7147505,1.007776318359375,-2.5631020019531254,-0.6546067382812494,2.8308329095983944,-0.38082806176270323,0.513533955490904,0.08673787657905523,0.6451903558652395
285,1791286535.7347505,0.911975537109375,-2.6732729003906255,-0.6114963867187493,2.8899853306234835,-0.3620904795695833,0.4694081184204948,0.07375707644945115,0.5974057275925384
286,1791286535.759529,0.8544950683593749,-2.7355434082031254,-0.6210764648437493,2.9324214456992492,-0.339075286623251,0.41288784681589796,0.057796495986017125,0.5373907879701418
287,1791286535.779529,0.8976054199218749,-2.6301625488281255,-0.5540159179687494,2.833793245897439,-0.3206569873886402,0.36606214405599513,0.045083702112128546,0.4887278762953529
288,1791286535.8050609,0.883235302734375,-2.7786537597656253,-0.5971262695312494,2.976168862551356,-0.29726116760555077,0.30489426882911874,0.029084731898621458,0.42681452477706633
289,1791286535.8250608,0.931135693359375,-2.8361342285156255,-0.6689768554687493,3.059117695473422,-0.27896182275388176,0.2557442904179964,0.016532880559063302,0.378811531998635
290,1791286535.8345635,0.988616162109375,-2.5822621582031253,-0.6162864257812494,2.832886995323668,-0.27020319014905164,0.23203274958465428,0.010547646996426052,0.35631476773170745
291,1791286535.8545635,1.012566357421875,-2.309229931640625,-0.4965354492187493,2.5698990170235163,-0.25153246129570883,0.1822762102405384,-0.0018290059377977091,0.31063892410296995
292,1791286535.8801577,0.993406201171875,-2.218219189453125,-0.6210764648437493,2.5086028438490664,-0.22737266402029974,0.11946249134505203,-0.017437116056899446,0.25743672659206285
293,1791286535.9001577,0.8353349121093749,-2.079308056640625,-0.6067063476562493,2.3215079155768077,-0.20858234079679752,0.07129461482313793,-0.02964587409575523,0.22241491147392153
294,1791286535.9245536,0.7586942871093749,-1.9835072753906249,-0.37199443359374934,2.1559911853819527,-0.186183408783856,0.013919069356683737,-0.04409498764015674,0.19183943841952358
295,1791286535.9445536,0.753904248046875,-2.093678173828125,-0.4055247070312493,2.261926214269638,-0.16830611932516243,-0.03217807837998824,-0.05532993522797494,0.18006604416951127
296,1791286535.954769,0.782644482421875,-2.155948681640625,-0.5875461914062493,2.367669240153561,-0.1593674746322944,-0.0554469866727179,-0.06096842427740144,0.17941435020819485
297,1791286535.9747689,0.6006229980468749,-2.088888134765625,-0.5875461914062493,2.251535509909497,-0.1424171359934605,-0.10053769413823867,-0.0721144749908341,0.18865568125666796
298,1791286535.999727,0.591042919921875,-2.012247509765625,-0.5683860351562493,2.1729092154778065,-0.12220691228546979,-0.15604313761201116,-0.08610107611114118,0.21609577856507536
299,1791286536.019727,0.533562451171875,-2.088888134765625,-0.5204856445312493,2.2178926563357977,-0.10675401357461042,-0.20000181431598918,-0.09726121589681311,0.2466918913578272
300,1791286536.0452986,0.533562451171875,-2.151158642578125,-0.4151047851562493,2.2548801248622325,-0.08791329984501184,-0.2559076670746152,-0.11118432174954689,0.2925396310931526
301,1791286536.0652986,0.552722607421875,-2.170318798828125,-0.33367412109374933,2.264315434825651,-0.07375857153953454,-0.2995560754589187,-0.12156356669316767,0.33158991234213725
302,1791286536.0742948,0.629363232421875,-2.1224184082031248,-0.38157451171874934,2.2464098214256003,-0.06754906444223345,-0.3191410375785617,-0.12601456827179275,0.3497049461910258
303,1791286536.0942948,0.643733349609375,-1.978717236328125,-0.4390549804687493,2.1266132235589366,-0.05390547218119697,-0.3623019449555728,-0.13565645694506037,0.3906036015714086
304,1791286536.1196754,0.753904248046875,-1.978717236328125,-0.5204856445312493,2.180504258819103,-0.03652797556237038,-0.41639178164108726,-0.14788347020971343,0.4433801186095191
305,1791286536.1396754,0.6772636230468749,-2.064937939453125,-0.5300657226562493,2.236878266520239,-0.02274174415685737,-0.4586867383408091,-0.15764897345424095,0.48555525914997744
306,1791286536.179742,0.643733349609375,-1.949977001953125,-0.40073466796874935,2.092221596212368,0.004703564398092632,-0.5427729984702633,-0.1770750943285847,0.5709467929833082
307,1791286536.199742,0.6964237792968749,-1.700894970703125,-0.2905637695312493,1.860773249457745,0.018358619898715595,-0.5839264190906008,-0.18635438645634983,0.6132169756196253
308,1791286536.2097914,0.6149931152343749,-1.906866650390625,-0.2570334960937493,2.0200057357027035,0.02517907569625079,-0.6042221142987999,-0.19073027328858272,0.6341107051685588
309,1791286536.2297914,0.562302685546875,-2.098468212890625,-0.3001438476562493,2.1931346242243084,0.038482850258417564,-0.6445633489423299,-0.19896851291729875,0.6756710069969591
310,1791286536.2395236,0.629363232421875,-1.964347119140625,-0.3288840820312493,2.08876097776029,0.044855387994812305,-0.6642148493591445,-0.20283515984051834,0.6959421484641413
311,1791286536.2595236,0.523982373046875,-2.0026674316406248,-0.3576243164062493,2.100744991830976,0.05771675447072896,-0.7044919921486286,-0.21061905943335843,0.737563949054433
312,1791286536.2842898,0.528772412109375,-2.160738720703125,-0.5204856445312493,2.2845781643701435,0.07320963167784376,-0.7546196778169355,-0.22044317703866054,0.7895604489979469
313,1791286536.3042898,0.5766728027343749,-2.045777783203125,-0.5156956054687494,2.18716716717328,0.08550239626860019,-0.795338020002535,-0.22874090401968922,0.8319829487441255
314,1791286536.330064,0.682053662109375,-1.801485791015625,-0.3480442382812493,1.9574685297671524,0.10140117151998604,-0.8473781694047319,-0.23949995402959492,0.8863927952942297
315,1791286536.350064,0.581462841796875,-1.892496533203125,-0.2953538085937493,2.001718271092907,0.1137828415973386,-0.8872433962149789,-0.2475614251738423,0.9281347091899749
316,1791286536.3591402,0.6006229980468749,-2.170318798828125,-0.44384501953124933,2.2952189602938247,0.11936354642631138,-0.9053864200320962,-0.2511741992031271,0.9471328862093923
317,1791286536.3791401,0.729954052734375,-2.055357861328125,-0.44384501953124933,2.2258318127363887,0.13181232473842627,-0.9457076399560767,-0.25927262350063063,0.9894239346817624
318,1791286536.4049609,0.591042919921875,-1.873336376953125,-0.3193040039062493,1.9901447086370878,0.1480315751625148,-0.9975635595428997,-0.2696375698484564,1.0439113092819603
319,1791286536.4249609,0.523982373046875,-1.940396923828125,-0.3049338867187493,2.0329000035749147,0.16038262337130504,-1.0374253158103308,-0.2773980514233041,1.0857824601166997
320,1791286536.449707,0.5766728027343749,-2.112838330078125,-0.5061155273437493,2.247841243833576,0.17541516497887308,-1.0868711249593686,-0.2870651337947592,1.137745891407924
321,1791286536.469707,0.624573193359375,-2.069727978515625,-0.5348557617187494,2.227091436101636,0.1875439985962647,-1.12711295736253,-0.29526762419380553,1.1801437793595484
322,1791286536.4797952,0.634153271484375,-2.0026674316406248,-0.4055247070312493,2.1394572913477785,0.19369659735524047,-1.1474478453091441,-0.29949594120805634,1.2016042394780801
323,1791286536.4997952,0.634153271484375,-2.112838330078125,-0.36241435546874934,2.235526860905832,0.2059670123560785,-1.1878881211719103,-0.30777313197078665,1.2442768580036065
324,1791286536.5248487,0.571882763671875,-2.117628369140625,-0.45342509765624933,2.2398647558186955,0.2212983980870376,-1.2388970085259676,-0.31811944882046306,1.2980904292260673
325,1791286536.5448487,0.586252880859375,-1.949977001953125,-0.36241435546874934,2.068198954044761,0.23343866921357673,-1.279610349972233,-0.3263636714698823,1.341047913422771
326,1791286536.5696342,0.648523388671875,-1.959557080078125,-0.32409404296874933,2.0893739455699616,0.24852239812449528,-1.3297646826655425,-0.3363241764587294,1.3939696715871488
327,1791286536.5896342,0.5958329589843749,-2.098468212890625,-0.4246848632812493,2.2223732784176162,0.2607346149970831,-1.370251755195722,-0.3442790919844314,1.436697777979857
328,1791286536.5996351,0.562302685546875,-2.151158642578125,-0.4965354492187493,2.278204395580575,0.26679398588505376,-1.3906479230695956,-0.3483512339713821,1.4582281231177785
329,1791286536.619635,0.605413037109375,-2.050567822265625,-0.4390549804687493,2.1826870172078268,0.27884550602761204,-1.4316206857327518,-0.35667659952315395,1.5015028473822851
330,1791286536.6452093,0.547932568359375,-2.040987744140625,-0.3672043945312493,2.1449242733868714,0.29415655415565284,-1.4840020518379617,-0.36727193802476754,1.5568168950369459
331,1791286536.6652093,0.562302685546875,-1.988297314453125,-0.4055247070312493,2.105697226300001,0.30599964299588595,-1.5248655230581476,-0.3754740869056348,1.59994732252741
332,1791286536.6899426,0.653313427734375,-1.930816845703125,-0.40073466796874935,2.0773686241543716,0.32070366611993173,-1.5750897820402068,-0.38559152016798337,1.6530092205960882
333,1791286536.7099426,0.662893505859375,-2.036197705078125,-0.4151047851562493,2.1812475505855753,0.3327845153908654,-1.6155610219369152,-0.39376931046979596,1.695829360269966
334,1791286536.7198017,0.6389433105468749,-2.079308056640625,-0.45342509765624933,2.2220181969749464,0.33880914934924256,-1.6355620716152233,-0.39783811702953303,1.7170119676783393
335,1791286536.7398016,0.586252880859375,-1.959557080078125,-0.41031474609374935,2.086124296695238,0.3510351958399136,-1.6761080992100352,-0.4061495535971381,1.759977706916482
336,1791286536.7650464,0.5766728027343749,-2.040987744140625,-0.41989482421874935,2.1620578522674756,0.36635436660859483,-1.7271844310683602,-0.41663878501310375,1.81410293479596
337,1791286536.7850463,0.648523388671875,-2.060147900390625,-0.4342649414062493,2.203038355651786,0.3785082065650971,-1.7677313233921645,-0.4249835525524184,1.8570819890567605
338,1791286536.810122,0.567092724609375,-2.036197705078125,-0.4773752929687493,2.166929261145205,0.3937469419200852,-1.818646739521241,-0.4355912140498187,1.9110866864692595
339,1791286536.830122,0.571882763671875,-2.064937939453125,-0.46300517578124933,2.1921205217729534,0.40578646195808615,-1.8593164024913484,-0.4441932181452065,1.9542332901493686
340,1791286536.855179,0.624573193359375,-2.088888134765625,-0.4342649414062493,2.2230904958553337,0.4208561462858018,-1.9104328223669031,-0.45503994539543074,2.008465786750868
341,1791286536.875179,0.6581034667968749,-2.155948681640625,-0.5156956054687494,2.312392018749804,0.4330041925590107,-1.9514800262089749,-0.4638238511241236,2.0520476330577404
342,1791286536.8847241,0.667683544921875,-2.155948681640625,-0.5061155273437493,2.31302160842605,0.43888135592665783,-1.9712183145337079,-0.4681186842369737,2.0730300505937893
343,1791286536.9047241,0.672473583984375,-2.131998486328125,-0.3863645507812493,2.2686815186276377,0.4513589299631714,-2.012804497822798,-0.4771065829183191,2.1172476287806252
344,1791286536.9295604,0.5958329589843749,-2.050567822265625,-0.3145139648437493,2.158417091946086,0.46689205959797503,-2.0644914980805114,-0.4878992462213451,2.1721323660002194
345,1791286536.9495604,0.682053662109375,-2.074518017578125,-0.40073466796874935,2.2202275733278127,0.47944102424307233,-2.106057905323391,-0.49635949419986386,2.216239234330252
346,1791286536.9751332,0.710793896484375,-2.079308056640625,-0.4151047851562493,2.2363054219738565,0.4957512152838472,-2.1592009727538617,-0.5071192103966444,2.272682996317337
347,1791286536.9951332,0.710793896484375,-2.088888134765625,-0.3863645507812493,2.2400801702047293,0.5087261008393807,-2.2007811135051467,-0.5154741367292462,2.316884403865017
348,1791286537.0047598,0.629363232421875,-2.098468212890625,-0.4677952148437493,2.2402007235664385,0.5150021316448552,-2.2208161399775106,-0.5195091055607632,2.338191872782022
349,1791286537.0247598,0.562302685546875,-2.1224184082031248,-0.5492258789062493,2.2632925740418663,0.5278726823408014,-2.2625279898156374,-0.528160122684402,2.382569115189497
350,1791286537.050036,0.591042919921875,-2.112838330078125,-0.5013254882812493,2.2504987863665975,0.543885141080582,-2.3153653140034005,-0.5394449260838344,2.438796508988789
351,1791286537.070036,0.533562451171875,-2.098468212890625,-0.35283427734374934,2.1937980210314714,0.5563415346508624,-2.3572190264930906,-0.5483159760979778,2.483273615951933
352,1791286537.0946214,0.547932568359375,-1.9835072753906249,-0.2714036132812493,2.0756182530269287,0.5713512035959997,-2.4084781075663413,-0.558736234829221,2.5375963375974666
353,1791286537.1146214,0.6006229980468749,-1.978717236328125,-0.3145139648437493,2.091647417995338,0.5834526844919897,-2.4498652597238557,-0.5668203465449795,2.5813837628489327
354,1791286537.1251438,0.6197831542968749,-2.017037548828125,-0.41031474609374935,2.149634811449315,0.5898275953808869,-2.4715269934766293,-0.5710075875413924,2.604302581649503
355,1791286537.1451437,0.605413037109375,-2.050567822265625,-0.5013254882812493,2.196060241526543,0.601964724222996,-2.512625195640815,-0.5791399730285794,2.647838743454264
356,1791286537.1701765,0.571882763671875,-2.088888134765625,-0.4677952148437493,2.2157021230256344,0.6170876559212463,-2.564120946080401,-0.5896114454896749,2.7024350238018773
357,1791286537.1901765,0.5766728027343749,-2.069727978515625,-0.4582151367187493,2.196881093273388,0.6290806139307387,-2.6053301166769054,-0.5981117359249397,2.7461291091895728
358,1791286537.2144763,0.624573193359375,-2.088888134765625,-0.40073466796874935,2.2167845153599757,0.6436555399839992,-2.6554677172051373,-0.6084557956675178,2.7992891430776043
359,1791286537.2344763,0.610203076171875,-2.055357861328125,-0.37199443359374934,2.1760568905517332,0.6557042019681755,-2.6967599365146886,-0.6168515080104923,2.84305609135737
360,1791286537.260153,0.6389433105468749,-2.108048291015625,-0.44384501953124933,2.247023487351477,0.6712579976831079,-2.7498382626383036,-0.6275845359763355,2.8993206307546964
361,1791286537.280153,0.6197831542968749,-2.093678173828125,-0.40073466796874935,2.219956695079091,0.6834439039875042,-2.79128281255791,-0.6359575007779303,2.9432630280650405
362,1791286537.2902417,0.571882763671875,-2.026617626953125,-0.3384641601562493,2.1327885242030846,0.6895705231411674,-2.812170594025329,-0.6401068875363343,2.965391674595012
363,1791286537.3102417,0.567092724609375,-2.069727978515625,-0.3480442382812493,2.1740521739728407,0.7016026746456202,-2.853512166026564,-0.6481285938281265,3.009127559421356
364,1791286537.3350825,0.6197831542968749,-2.098468212890625,-0.4342649414062493,2.230759072198773,0.7165166782373823,-2.904923576146399,-0.6580548916049754,3.063496919177291
365,1791286537.3550825,0.7155839355468749,-2.021827587890625,-0.4151047851562493,2.184527213524243,0.728726221726299,-2.946287744800121,-0.6661220710284705,3.107309446273758
366,1791286537.3651054,0.706003857421875,-2.021827587890625,-0.4294749023437493,2.1841879345865283,0.7349957846721241,-2.966947433304238,-0.6701933536006538,3.12924192204548
367,1791286537.3851054,0.6964237792968749,-2.088888134765625,-0.5156956054687494,2.261504295250074,0.7477333419992329,-3.008154768292411,-0.6785164832183792,3.173087593927521
368,1791286537.4100127,0.562302685546875,-2.112838330078125,-0.4773752929687493,2.2378912595471534,0.7635682196834622,-3.059624385775756,-0.6891821510408257,3.2278955753644674
369,1791286537.4300127,0.552722607421875,-2.060147900390625,-0.36241435546874934,2.1635747773740026,0.7760485159088415,-3.10101335481456,-0.6977214596489583,3.271903171097403
370,1791286537.454596,0.543142529296875,-2.079308056640625,-0.41031474609374935,2.18789487690876,0.7911083430785657,-3.1518883810761142,-0.7080679885871894,3.325900337309137
371,1791286537.474596,0.562302685546875,-2.165528759765625,-0.5204856445312493,2.297086072768799,0.8031807500591317,-3.193436961670878,-0.7166190669758861,3.3699676307918254
372,1791286537.4846838,0.586252880859375,-2.146368603515625,-0.5731760742187494,2.297633877390031,0.8092255132178107,-3.2145123314290798,-0.7211126033386426,3.3923353087284993
373,1791286537.5046837,0.6772636230468749,-2.1224184082031248,-0.5109055664062493,2.2856881704132253,0.8213075071602535,-3.2564320192150236,-0.7303112957462071,3.4368954167651258
374,1791286537.530061,0.710793896484375,-2.108048291015625,-0.4390549804687493,2.2675680444934287,0.8369802460221164,-3.309695704475931,-0.7420404645366084,3.493600669719906
375,1791286537.550061,0.653313427734375,-2.079308056640625,-0.39115458984374935,2.2143491916191724,0.8495254173301032,-3.351657547330231,-0.7511430315110939,3.5382930352153226
376,1791286537.5747547,0.6581034667968749,-2.079308056640625,-0.35283427734374934,2.2093243751629963,0.8651201620124471,-3.403397727591026,-0.7620739231025607,3.593369679168166
377,1791286537.5947547,0.682053662109375,-2.203849072265625,-0.5109055664062493,2.3628737649539713,0.8778663370046468,-3.4454421191073394,-0.7708947211726838,3.638131302316718
378,1791286537.620107,0.691633740234375,-2.280489697265625,-0.5731760742187494,2.451024541293308,0.8942119275210886,-3.4992703428701017,-0.7824601694638046,3.695504271491043
379,1791286537.640107,0.653313427734375,-2.2421693847656248,-0.3767844726562493,2.3656095459042152,0.9071899075486176,-3.542148924372458,-0.7916403383044759,3.7411905800188605
380,1791286537.6497314,0.6006229980468749,-2.285279736328125,-0.2809836914062493,2.3795384623685,0.913403567982201,-3.562956091588781,-0.7958702030886167,3.763292649895372
381,1791286537.6697314,0.543142529296875,-2.448141064453125,-0.2905637695312493,2.5244456387010787,0.9260945726251029,-3.6068084832785043,-0.8041988490591793,3.809652790127148
382,1791286537.6949115,0.409021435546875,-2.773863720703125,-0.26182353515624934,2.8160557592724484,0.9414740877733186,-3.6635991497200577,-0.8141549815606169,3.869260978763012
383,1791286537.7149115,0.31801069335937493,-2.8552943847656254,-0.3863645507812493,2.898812582914842,0.9529478936785534,-3.710384281572968,-0.8218490026178238,3.9179710295143906
384,1791286537.7398126,0.44255170898437496,-2.9463051269531255,-0.5061155273437493,3.0220388553514175,0.9665110379277138,-3.770731972690688,-0.8316583683873551,3.980479724608157
385,1791286537.7598126,0.46650190429687494,-3.0277357910156253,-0.34325419921874933,3.082633856329832,0.9771341579519501,-3.8208923156085097,-0.8396292629904094,4.032243364354692
386,1791286537.7703881,0.38507124023437495,-2.9989955566406254,0.0207887695312507,3.023687546977114,0.9825842695987174,-3.8482176044809266,-0.8434676341638715,4.060257162813922
387,1791286537.790388,0.26053022460937497,-2.7882338378906253,0.33214130859375074,2.820007408069643,0.9923136298137734,-3.900823363192301,-0.849108353933016,4.113647316853976
388,1791286537.8144975,0.27490034179687495,-2.5295717285156254,0.4087819335937507,2.5770925472047397,1.0032509750950804,-3.964341465557721,-0.8535483723133835,4.177446660155986
389,1791286537.8344975,0.33238081054687496,-2.347550244140625,0.34172138671875074,2.395462931903871,1.0118740320313708,-4.016444997839958,-0.8555533622068505,4.22938423803708
390,1791286537.8595777,0.04976850585937494,-2.146368603515625,0.31298115234375073,2.169638745979503,1.0217842606622682,-4.080435787736998,-0.8564589948631292,4.292728887673196
391,1791286537.8795776,-0.14662309570312507,-1.997877392578125,0.34172138671875074,2.0321874702175786,1.0283563774662732,-4.130026693943113,-0.8560908022478957,4.341374067441285
392,1791286537.889723,-0.3286445800781251,-2.050567822265625,0.3896217773437507,2.1129696597694956,1.0308285149412533,-4.154489840885655,-0.8553755604998754,4.365095716560931
393,1791286537.909723,-0.40049516601562507,-2.026617626953125,0.3608815429687507,2.0970958184914927,1.0338771950473225,-4.201596805687221,-0.85305132578359,4.410217039604867
394,1791286537.934927,-0.3765449707031251,-1.720055126953125,0.24592060546875072,1.777878707593312,1.0356740098148927,-4.259138627245321,-0.8494146429951378,4.464794254658749
395,1791286537.954927,-0.5346162597656251,-1.356012158203125,0.23634052734375072,1.476631424311973,1.0355192154197648,-4.302564509047358,-0.8462383204018569,4.505605474842871
396,1791286537.9793105,-0.9513496582031251,-1.082979931640625,0.2698708007812507,1.4665408121200885,1.0326413179795866,-4.352027167390829,-0.8420209500660838,4.551427011131415
397,1791286537.9993105,-1.1429512207031252,-0.642296337890625,0.3081911132812507,1.3467976243222322,1.0274934259680961,-4.389099990877965,-0.8382135461204294,4.585034723885131
398,1791286538.0095806,-1.128581103515625,-0.393214306640625,0.1980202148437507,1.2114143814757106,1.0234968036894376,-4.406079165279284,-0.8361617749062706,4.600026720757727
399,1791286538.0295806,-1.0279902832031251,-0.17287250976562502,-0.05106181640624931,1.0436743917944011,1.013646396764714,-4.4350336844762195,-0.8325450693402653,4.624946928624758
400,1791286538.0543342,-0.9273994628906251,0.17201030273437498,-0.10854228515624931,0.9494412755318424,0.9996532794584887,-4.465496242918432,-0.8290365025683857,4.650512326318635
401,1791286538.0743341,-0.9178193847656251,0.751605029296875,-0.07022197265624931,1.1883743806392166,0.9872754152748551,-4.48503156067433,-0.8268950739633653,4.666259348685608
402,1791286538.0995681,-0.7597480957031251,1.158758349609375,-0.1277024414062493,1.3914905659957182,0.9708259541598944,-4.502366665296292,-0.8249730904418678,4.679144069377959
403,1791286538.119568,-0.5825166503906251,1.5275913574218751,-0.2091331054687493,1.648210441374318,0.9577306555904185,-4.510015700672008,-0.8241835145004724,4.683670365700389
404,1791286538.1296847,-0.21847368164062508,1.9299546386718751,-0.3193040039062493,1.9683522814301455,0.9514925212581289,-4.510681051398169,-0.8242449805337576,4.683050432505264
405,1791286538.1496847,-0.36217485351562506,2.284417529296875,-0.38157451171874934,2.3442126995371613,0.9401389343701847,-4.505477560293009,-0.8253995853588303,4.675946293290064
406,1791286538.175471,-0.5968867675781251,2.4185386230468753,-0.5540159179687494,2.5519671866703333,0.9258414709485571,-4.490679511427171,-0.8284743565549577,4.65937277572305
407,1791286538.195471,-0.17536333007812507,2.4329087402343754,-0.9467991210937493,2.616529344675653,0.9152573279795075,-4.473646561623071,-0.832752655612968,4.641625417908318
408,1791286538.219332,0.648523388671875,2.3466880371093755,-1.3204221679687493,2.769664606198736,0.9053708015765887,-4.447820185852666,-0.8411485891369507,4.616311475954905
409,1791286538.239332,0.562302685546875,2.485599169921875,-1.3395823242187495,2.8790394834126274,0.9001432741600531,-4.422171475641864,-0.8511203675262389,4.592413782970142
410,1791286538.2493293,0.25095014648437497,2.495179248046875,-1.1719309570312493,2.7680891647402683,0.8985319367516791,-4.407539032072725,-0.8572404010410044,4.579150692626771
411,1791286538.2693293,0.5191923339843749,2.1694565917968753,-1.0713401367187494,2.4746458881835203,0.8969471571842151,-4.375660405431861,-0.8710120907386226,4.550777982791276
412,1791286538.2944763,1.199377880859375,2.0688657714843752,-1.1431907226562494,2.6505844468497286,0.8984946903706329,-4.333596653359976,-0.8899071951297229,4.514342419287737
413,1791286538.3144763,1.458039990234375,2.164666552734375,-1.1671409179687493,2.858999793642265,0.9035269850725706,-4.29881019732208,-0.9061462592452117,4.485223647545205
414,1791286538.340043,1.328708935546875,2.2125669433593753,-1.1575608398437494,2.8285803881432336,0.9143386521934534,-4.252618162290024,-0.9282491174962664,4.447743566041833
415,1791286538.360043,1.386189404296875,2.088025927734375,-1.0905002929687493,2.7332332919896998,0.925599930233542,-4.215453097262962,-0.9463179217175738,4.418404424114672
416,1791286538.384787,1.702331982421875,1.9203745605468752,-0.9467991210937493,2.7353612571058856,0.9431742287453275,-4.168930681105761,-0.9691003071195015,4.382774926333019
417,1791286538.404787,1.965784130859375,1.6952427246093753,-1.0234397460937494,2.790265947604996,0.9607505320645572,-4.131544795119551,-0.9877079279274346,4.355257848834267
418,1791286538.4147613,1.908303662109375,1.532381396484375,-1.1431907226562494,2.7012405741582466,0.9710993079549052,-4.113282223907449,-0.9972165907895589,4.342414702486332
419,1791286538.4347613,1.846033154296875,1.3551499511718752,-1.0425999023437493,2.5162043544377712,0.9943691441824332,-4.07782441156176,-1.016701730847167,4.318692433588985
420,1791286538.4602664,2.234026318359375,1.3120395996093752,-1.0521799804687493,2.7963197623599294,1.027397527215142,-4.034287323258778,-1.041830029132136,4.291436786804128
421,1791286538.4802663,2.4591581542968752,1.2353989746093752,-1.1336106445312493,2.976363981052261,1.0564518247514119,-4.001447236187713,-1.0618575674379296,4.272611840027136
422,1791286538.5048125,2.4591581542968752,0.991106982421875,-1.0330198242187494,2.8455020357889653,1.0958160512941593,-3.9630891455742043,-1.0867392222164316,4.252986072296213
423,1791286538.5248125,2.4591581542968752,0.7420249511718751,-0.9372190429687494,2.73430784486855,1.1304560960044021,-3.933923694856305,-1.1069269253378744,4.240162006336946
424,1791286538.5344157,2.765720654296875,0.7420249511718751,-1.0473899414062493,3.0490715726471467,1.1483572409629534,-3.9209512573272685,-1.116595718741952,4.235489241436128
425,1791286538.5544157,2.780090771484375,0.449832568359375,-1.1671409179687493,3.048519634125113,1.1883650965992743,-3.896199272788275,-1.1370335014102682,4.229116404099156
426,1791286538.5942857,2.827991162109375,0.148060107421875,-1.0905002929687493,3.0345752087143003,1.2729270897568719,-3.85246973918984,-1.1784157824825834,4.224988783844801
427,1791286538.6142857,2.904631787109375,-0.019591259765625,-1.1384006835937495,3.119811813643913,1.3175819893236291,-3.8336314148380866,-1.199403918535618,4.227448625734212
428,1791286538.6388695,2.966902294921875,-0.067491650390625,-1.2389915039062493,3.215923552766298,1.3750638715309065,-3.8141094471823247,-1.2257160031049077,4.235635872704652
429,1791286538.6588695,2.8950517089843752,-0.057911572265625,-1.3683225585937493,3.2026527711027577,1.423606157903343,-3.8007978930973385,-1.2478220709154912,4.246148730044357
430,1791286538.6542451,2.631599560546875,-0.36926411132812503,-1.3347922851562495,2.973775828050611,1.423606157903343,-3.8007978930973385,-1.2478220709154912,4.246148730044357
431,1791286538.674245,2.736980419921875,-0.9536488769531251,-1.3826926757812494,3.2112843279922743,1.4737772957469213,-3.79370931133808,-1.2713163966016205,4.263859195219806
432,1791286538.6999004,3.086653271484375,-1.2697914550781249,-1.5790842773437495,3.6923306884282248,1.539686912775168,-3.7902584983159584,-1.3026323235576112,4.293430591473975
433,1791286538.7199004,3.182454052734375,-1.442232861328125,-1.6605149414062494,3.8685086654541125,1.5927643377608358,-3.792039914309703,-1.3282426300735877,4.322116776731681
434,1791286538.7450826,3.0914433105468753,-1.815855908203125,-1.6317747070312494,3.9391678202620586,1.6614195799654052,-3.8000999183368918,-1.361870015501827,4.3652908665012715
435,1791286538.7650826,2.9285819824218753,-2.199059033203125,-1.5551340820312494,3.9788057344350802,1.7167972603548218,-3.8115634172806288,-1.3893514858828526,4.405190809538072
436,1791286538.7743053,2.986062451171875,-2.270909619140625,-1.5455540039062494,4.057380514518529,1.7425946824225056,-3.8191486353016346,-1.4022680818011006,4.42593360761
437,1791286538.7943053,3.053122998046875,-2.337970166015625,-1.6030344726562493,4.16621939639599,1.7992049904995735,-3.8400435309697114,-1.4307996959014793,4.4755179239248575
438,1791286538.8198788,2.976482373046875,-2.6301625488281255,-1.6413547851562493,4.2978189679268874,1.8722981427558618,-3.8722825968652317,-1.4680327554630332,4.544798457188699
439,1791286538.8398788,2.976482373046875,-2.7882338378906253,-1.2868918945312493,4.276655936596638,1.9298162684614375,-3.9018411089849176,-1.4971758048399428,4.603269518546704
440,1791286538.8650072,3.235144482421875,-2.414610791015625,-0.9611692382812493,4.149741124317511,2.0029497272018166,-3.943213737745258,-1.5325360716913807,4.680748765131066
441,1791286538.8850071,3.445906201171875,-2.194268994140625,-0.9946995117187494,4.204582391217374,2.062447956179956,-3.978116696411946,-1.5593920004041455,4.74455555696704
442,1791286538.8948908,3.316575146484375,-2.409820751953125,-0.9803293945312493,4.2152049156125,2.0924533422434037,-3.9961907536611156,-1.5721370086761997,4.776977737352513
443,1791286538.9148908,3.393215771484375,-2.294859814453125,-1.0378098632812494,4.225795091123797,2.154127644954155,-4.034335364245305,-1.597085782624882,4.844255437011818
444,1791286538.9389663,3.551287060546875,-2.179898876953125,-1.1671409179687493,4.327333685139856,2.229772845170938,-4.0814452206321565,-1.6265950176660253,4.9270572740306875
445,1791286538.9589663,3.273464794921875,-1.796695751953125,-1.4593333007812495,4.009157152251382,2.293423879566551,-4.120674899924556,-1.6513715239798894,4.996677159117447
446,1791286538.9838629,2.861521435546875,-1.293741650390625,-1.7946360351562494,3.617014083844719,2.3722290444346035,-4.16795472393774,-1.683663692707066,5.082719808350056
447,1791286539.0038629,2.679499951171875,-1.030289501953125,-1.6269846679687494,3.2997417407988583,2.4343505409231216,-4.20372451456068,-1.7108459516255585,5.1501802124396265
448,1791286539.0294113,2.966902294921875,-0.9680189941406251,-0.8653684570312493,3.238584963692378,2.5126219797198015,-4.246392756537308,-1.7451364173553356,5.233605045370102
449,1791286539.0494113,3.326155224609375,-0.742887158203125,-0.3672043945312493,3.4278315266918264,2.5741434942078745,-4.277350627946133,-1.7698022041419168,5.296616180633584
