imu_index,t_imu,ax,ay,az,mag,vx,vy,vz,velocity
0,1790597515.5028567,0.04215234375000006,-0.01997446289062501,0.0065144531250006105,0.04709816717139803,0.0,0.0,0.0,0.0
1,1790597515.5228567,0.013412109375000055,-0.01039438476562501,0.06399492187500061,0.06620632853685705,0.00013709078722866277,-7.102064393929325e-05,0.00011406988144875763,0.00019196289657707287
2,1790597515.548749,0.04694238281250006,0.027925927734374995,0.03525468750000061,0.06501028945223622,0.0004051520605059348,-0.00011512848095636592,0.0004323296233001243,0.0006035823576301351
3,1790597515.568749,0.07089257812500006,0.05187612304687499,-0.041385937499999394,0.0971065682553843,0.0007579043312725681,-2.4385238220435814e-05,0.0006320913776897542,0.0009871945729968928
4,1790597515.5929337,0.08526269531250005,0.023135888671874993,-0.046175976562499395,0.09968559258032278,0.0014037237456770856,0.00020494603136424227,0.0006785922534432186,0.00157255546051095
5,1790597515.6129336,0.06610253906250006,-0.01997446289062501,-0.02701582031249939,0.07415105788480403,0.0020847326800969624,0.00037089038212206513,0.0006014911964188218,0.002201240941465577
6,1790597515.653715,0.07089257812500006,-0.03434458007812501,0.01130449218750061,0.07958077253689638,0.003684073402252676,0.0004923660668001993,0.00041980466350708415,0.003740462154924736
7,1790597515.6737149,0.08047265625000005,-0.04392465820312501,0.04004472656250061,0.10004401095346722,0.004577818600240771,0.00042560040102915063,0.0004210909802208891,0.004616803705128683
8,1790597515.6677902,0.08047265625000005,-0.0008143066406250082,0.01609453125000061,0.08207036880258846,0.004577818600240771,0.00042560040102915063,0.0004210909802208891,0.004616803705128683
9,1790597515.6877902,0.08047265625000005,0.032715966796874996,-0.0030656249999993905,0.08692284477641951,0.005670172322041554,0.00036817252633213293,0.0005131411702328796,0.005705236106541067
10,1790597515.7137349,0.09484277343750006,0.032715966796874996,-0.0030656249999993905,0.10037372272368807,0.007215795578630855,0.0004321705499473083,0.0006027099116495676,0.007253808410375269
11,1790597515.7337348,0.09005273437500005,0.013555810546874993,0.03525468750000061,0.09765320250109456,0.008505891099534965,0.0005435121460730987,0.0007096823853416107,0.008552732776027864
12,1790597515.7583299,0.09005273437500005,0.013555810546874993,-0.01264570312499939,0.0919411158052952,0.010186641674872791,0.0007099071599881625,0.0008632047179579967,0.010247768497246732
13,1790597515.7783298,0.10442285156250006,-0.015184423828125009,-0.03659589843749939,0.11168687674872022,0.011640083043092456,0.00082247582952549,0.0008954564258845025,0.01170341155180403
14,1790597515.7883646,0.07089257812500006,-0.03913461914062501,-0.007855664062499391,0.08135716014189442,0.012391889969273134,0.0008296029936953129,0.0008757564255264254,0.012450466957290043
15,1790597515.8083646,0.05652246093750006,-0.02476450195312501,0.03525468750000061,0.07107012127568274,0.013856650693816355,0.0007458285534670888,0.0008834810923276614,0.013904803757051321
16,1790597515.8334084,0.08526269531250005,0.018345849609374992,0.030464648437500613,0.09238177425370511,0.01568199463879222,0.000644606420377075,0.001015142191805795,0.01572803188443753
17,1790597515.8534083,0.09963281250000006,0.04229604492187499,0.00172441406250061,0.10825260434073808,0.017198403161315556,0.0006668583684265132,0.001152798884682756,0.017249890337367804
18,1790597515.8934042,0.12358300781250006,0.032715966796874996,-0.02701582031249939,0.13066349471293018,0.020445615405074755,0.0009296958651608359,0.001310925091948,0.020508682266070295
19,1790597515.9134042,0.12837304687500006,0.027925927734374995,-0.046175976562499395,0.1392541468513487,0.02220375418368565,0.0011323758764061982,0.001268347949724763,0.022268760214627478
20,1790597515.907896,0.12837304687500006,0.0039757324218749925,-0.022225781249999393,0.13034351140135106,0.02220375418368565,0.0011323758764061982,0.001268347949724763,0.022268760214627478
21,1790597515.927896,0.12358300781250006,-0.015184423828125009,0.00172441406250061,0.12452429542396751,0.024179294130181994,0.0013026737413646405,0.0011196217849758056,0.02424023053627351
22,1790597515.9531584,0.12358300781250006,-0.03434458007812501,-0.007855664062499391,0.12850689265012222,0.026768634544132433,0.0013916727902219576,0.0009483250313850943,0.02682155604877383
23,1790597515.9731584,0.10442285156250006,-0.03913461914062501,0.0065144531250006105,0.1117053644336006,0.02885310698775767,0.0013413448841827131,0.0008310412265715435,0.028896221525756185
24,1790597516.0127037,0.07089257812500006,-0.01039438476562501,0.0065144531250006105,0.07194608375292519,0.03287639892685223,0.0011098620025046092,0.0006725674606124223,0.0329020021738983
25,1790597516.0327036,0.07089257812500006,0.013555810546874993,-0.01743574218749939,0.0742530991839462,0.03481863475860061,0.0010150928047842427,0.0005880598332903647,0.03483839195804945
26,1790597516.0281315,0.09005273437500005,0.037506005859375,-0.022225781249999393,0.10005089103106785,0.03481863475860061,0.0010150928047842427,0.0005880598332903647,0.03483839195804945
27,1790597516.0481315,0.08526269531250005,0.018345849609374992,0.00172441406250061,0.08723113557498248,0.03669007811851783,0.0010955035165678144,0.00044568265693938465,0.03670913501198918
28,1790597516.0734076,0.061312500000000054,0.018345849609374992,0.01609453125000061,0.06599111144917214,0.038978319898891695,0.0012514407877380418,0.0003265151836802457,0.03899977100382417
29,1790597516.0934076,0.037362304687500056,0.008765771484374992,0.00172441406250061,0.03841554587841777,0.04066533298810526,0.0013969867917480062,0.0002730951998519729,0.040690237897043346
30,1790597516.1174848,0.061312500000000054,0.008765771484374992,-0.01264570312499939,0.06321372646420956,0.04256980723542841,0.0015775795071347033,0.00019871000958250124,0.04259949214287387
31,1790597516.1374848,0.05652246093750006,-0.015184423828125009,0.0065144531250006105,0.058887973449093835,0.04409123672122164,0.0016954612216661773,0.00013699257476228844,0.04412403552857011
32,1790597516.1477592,0.061312500000000054,-0.005604345703125008,0.01609453125000061,0.06363698046865038,0.044846389814318335,0.0017309163613247734,0.00012746491221430256,0.04487996210037998
33,1790597516.1677592,0.08047265625000005,0.018345849609374992,0.01609453125000061,0.08409192908940621,0.046308539581269334,0.0018086924818317143,0.00015998404084695408,0.04634412370017529
34,1790597516.1927938,0.09005273437500005,0.013555810546874993,0.0065144531250006105,0.09130001679909437,0.048184407854350665,0.0019513428325999877,0.0002370341867316583,0.048224486356315176
35,1790597516.2127938,0.07568261718750006,-0.0008143066406250082,0.00172441406250061,0.07570663936216952,0.04970683351692932,0.0020673228952076414,0.0003017139737512835,0.04975072013101654
36,1790597516.2378986,0.07568261718750006,0.0039757324218749925,0.0065144531250006105,0.07606643867145259,0.051616189804864265,0.002197020726241065,0.000386236899627942,0.05166437001441071
37,1790597516.2578986,0.09005273437500005,0.0039757324218749925,0.01609453125000061,0.09156601636448923,0.053157735626112645,0.0022967743213930646,0.00047738603561585055,0.05320947215116964
38,1790597516.28325,0.09484277343750006,0.008765771484374992,0.02088457031250061,0.09750977233165417,0.05517021373099327,0.0024284791569995643,0.0006459045792922996,0.055227413363881254
39,1790597516.30325,0.08526269531250005,0.008765771484374992,-0.022225781249999393,0.08854688765756437,0.056789880079967346,0.0025430938208585666,0.0007568963250839472,0.05685183108507312
40,1790597516.3134398,0.08526269531250005,0.008765771484374992,-0.01743574218749939,0.08746754293620833,0.05762162314382397,0.0026061276829026144,0.0007746524040415702,0.05768572996483228
41,1790597516.3334398,0.05652246093750006,-0.02955454101562501,0.049624804687500614,0.08081386468513967,0.059221929278206575,0.0026801063489503858,0.000852559093922228,0.05928867290202417
42,1790597516.3734374,0.07568261718750006,0.013555810546874993,0.059204882812500616,0.097040386915832,0.0623388787668717,0.0027578693002842844,0.0013114618634620155,0.06241363297555665
43,1790597516.3934374,0.10442285156250006,0.05187612304687499,0.00172441406250061,0.11661148174462661,0.06393381920830182,0.0028890683313990487,0.0015979010242859366,0.06401900688129057
44,1790597516.4035368,0.10921289062500006,0.032715966796874996,-0.046175976562499395,0.12300410876723974,0.06478022775856236,0.0030094570562996087,0.0016871778861816495,0.06487203796278135
45,1790597516.4235368,0.08526269531250005,0.0039757324218749925,-0.041385937499999394,0.09485952499879188,0.06649667063972425,0.0032671406643125732,0.0017061117459042084,0.06659874046540132
46,1790597516.432949,0.08047265625000005,-0.02476450195312501,-0.01264570312499939,0.0851413105868275,0.06730028284208121,0.0033555447015089206,0.0016755436137425358,0.06740471198120729
47,1790597516.452949,0.09963281250000006,-0.02476450195312501,0.01609453125000061,0.10391829396118735,0.06902188314092156,0.0034409220174161643,0.0016255062885480744,0.06912671384741995
48,1790597516.4779599,0.10921289062500006,0.018345849609374992,0.0065144531250006105,0.11093450218969687,0.07124363242660481,0.0035196345942229623,0.0016147287612238096,0.0713487935285969
49,1790597516.4979599,0.09963281250000006,0.032715966796874996,0.01130449218750061,0.10547427816169996,0.07306703491598991,0.003649728582597188,0.001634131613836434,0.0731763793602311
50,1790597516.5226352,0.09005273437500005,0.04229604492187499,0.01130449218750061,0.10013112367323582,0.07533028682203964,0.003924979875414025,0.0016963208446007952,0.07545154129718618
51,1790597516.5426352,0.09963281250000006,0.023135888671874993,-0.0030656249999993905,0.10232968644503013,0.0771740720112059,0.00421276081253559,0.0017515241221959508,0.07730881308883912
52,1790597516.5534554,0.09005273437500005,-0.0008143066406250082,-0.0030656249999993905,0.09010857961570531,0.0781758811831789,0.004363213057437349,0.0017719341478850666,0.07831759558091361
53,1790597516.5734553,0.07568261718750006,-0.01039438476562501,-0.0030656249999993905,0.0764545605941605,0.07999846761422934,0.004582781753380723,0.0017948043134235934,0.08014972259307891
54,1790597516.5981672,0.07089257812500006,-0.0008143066406250082,-0.007855664062499391,0.07133114457498245,0.08218430802548639,0.004792610706716616,0.0017985824158956425,0.08234357595903236
55,1790597516.6181672,0.07089257812500006,0.0039757324218749925,-0.01743574218749939,0.07311339950466351,0.0839006874492676,0.004941700155771191,0.0017632444070267658,0.08406458698957694
56,1790597516.6424344,0.061312500000000054,0.0039757324218749925,-0.01743574218749939,0.06386731723009274,0.08591150560769638,0.0051099365611178655,0.0016633308221432144,0.08607941052809195
57,1790597516.6624343,0.07568261718750006,0.008765771484374992,0.02088457031250061,0.07899913019270366,0.0875256435350431,0.005246904033699622,0.0015985112478126909,0.08769734041789219
58,1790597516.6732407,0.07568261718750006,0.018345849609374992,0.00172441406250061,0.07789353211980078,0.08838964486281295,0.005331782233539915,0.0015870656160472505,0.0885645301349797
59,1790597516.6932406,0.09005273437500005,0.027925927734374995,-0.022225781249999393,0.0968676300959855,0.08999745279535624,0.00553471611623212,0.0015383078797267169,0.09018060203432046
60,1790597516.7182987,0.09484277343750006,0.008765771484374992,-0.022225781249999393,0.0978058064493416,0.09205719953070775,0.00581979070325454,0.0014028423355295027,0.09225164451588157
61,1790597516.7382987,0.09005273437500005,-0.015184423828125009,0.00172441406250061,0.09134021731562389,0.09373192530683395,0.006003564336055182,0.0012801871614468111,0.09393271786566908
62,1790597516.7777133,0.09005273437500005,-0.01039438476562501,0.02088457031250061,0.09302528409098225,0.0970697080838806,0.006235794481780174,0.0011415589190270818,0.09727649519320895
63,1790597516.7977133,0.09005273437500005,-0.0008143066406250082,0.0065144531250006105,0.09029172809973854,0.09877948965627359,0.006319144960548556,0.0011228654793010483,0.09898777700641072
64,1790597516.7923727,0.07089257812500006,0.018345849609374992,0.01609453125000061,0.07497574119177675,0.09877948965627359,0.006319144960548556,0.0011228654793010483,0.09898777700641072
65,1790597516.8123727,0.08047265625000005,0.04708608398437499,0.00172441406250061,0.09325192390923223,0.10044705955509882,0.006499866184216149,0.001164914289164612,0.10066388160099624
66,1790597516.8382268,0.10921289062500006,0.037506005859375,-0.01264570312499939,0.1161639779007129,0.10264719795106594,0.006862471795188201,0.0011899405368772144,0.10288321886890191
67,1790597516.8582268,0.10921289062500006,0.013555810546874993,0.0065144531250006105,0.11024361014484614,0.10442150440400197,0.007177490342545217,0.0011971993054993534,0.10467473542259097
68,1790597516.8835385,0.10921289062500006,0.013555810546874993,0.01609453125000061,0.11122162296248081,0.1067448668758899,0.007567839223536231,0.001247928317501116,0.10702007344395896
69,1790597516.9035385,0.09484277343750006,0.018345849609374992,0.01130449218750061,0.09726002989318908,0.10861137909782821,0.007877859852528929,0.0013230977013793225,0.10890474247210558
70,1790597516.9130893,0.09484277343750006,0.023135888671874993,-0.03180585937499939,0.10267440629746342,0.1095048885063985,0.008033414080575365,0.001338924341927715,0.10980732701865645
71,1790597516.9330893,0.10921289062500006,0.008765771484374992,-0.022225781249999393,0.11179570466058761,0.11140137563255909,0.008358145595490779,0.0012860476198993669,0.11172188240941253
72,1790597516.9587555,0.09005273437500005,-0.015184423828125009,0.01609453125000061,0.09273130879893636,0.11385367424254146,0.008700012263735955,0.0012165663811809933,0.11419207234162854
73,1790597516.9787555,0.09005273437500005,0.008765771484374992,0.03525468750000061,0.09710420541281051,0.11574810756625555,0.008916819039995054,0.0012475693678900685,0.11609776266702637
74,1790597517.0028362,0.11879296875000006,0.027925927734374995,0.04004472656250061,0.1284336676643997,0.11806412027115362,0.009204973529644327,0.001415293843525609,0.11843087050995785
75,1790597517.0228362,0.12358300781250006,0.037506005859375,0.03525468750000061,0.13387439369136514,0.12006268998320081,0.009506546104170212,0.0016466491761705064,0.1204497214539838
76,1790597517.0483994,0.11400292968750006,0.027925927734374995,0.01609453125000061,0.11847176605974886,0.1226895235160212,0.009959635148450963,0.0019964515022667115,0.12310929831446317
77,1790597517.0683994,0.09005273437500005,0.008765771484374992,-0.01264570312499939,0.09135779947906043,0.12474249511858858,0.010315984465657213,0.0022342491588255155,0.12518826419920714
78,1790597517.0934792,0.07568261718750006,-0.0008143066406250082,-0.022225781249999393,0.07888286881083542,0.12724248063711893,0.010710769975843276,0.0024221226168073626,0.12771544992730466
79,1790597517.1134791,0.04694238281250006,0.032715966796874996,-0.03180585937499939,0.06546399375345019,0.1291210023162762,0.011026222910130794,0.0024684229398498087,0.12961444341829223
80,1790597517.122489,0.06610253906250006,0.027925927734374995,-0.05575605468749939,0.09087431289781675,0.12991671172431135,0.011187993693598578,0.002426983289151089,0.13042014198746923
81,1790597517.142489,-0.010538085937499947,0.07103627929687499,0.01609453125000061,0.07359509608477327,0.13150142237563978,0.011641669949392369,0.002289301710169161,0.13203557652521983
82,1790597517.1677568,0.018202148437500055,0.099776513671875,0.06399492187500061,0.11992506374416514,0.1332177421781988,0.012452570979319887,0.0022932241960019017,0.13381813117909386
83,1790597517.1877568,0.061312500000000054,0.128516748046875,0.10231523437500062,0.17534019610461618,0.1344917391530617,0.01334057774347084,0.0025453282070047006,0.1351757286299066
84,1790597517.1989264,0.10921289062500006,0.118936669921875,0.11189531250000062,0.196453424226319,0.13523937363609653,0.013969422792030046,0.0028444544998259187,0.13598869025043145
85,1790597517.2189264,0.16669335937500007,0.104566552734375,0.054414843750000615,0.20416124811239458,0.13679111509644706,0.015261765000412505,0.003549182831041434,0.1376856105009721
86,1790597517.243506,0.21938378906250006,0.07103627929687499,0.02567460937500061,0.232022812340343,0.13912383150169153,0.016935503051303875,0.0044330058110490815,0.14022090891102001
87,1790597517.263506,0.20501367187500005,-0.02476450195312501,0.10231523437500062,0.23046104529370648,0.14137380818590878,0.018162521294001775,0.00523627056823718,0.14263186653130844
88,1790597517.287728,0.20980371093750005,-0.04392465820312501,0.08794511718750062,0.23169228808601,0.14444361031942057,0.019300880230600694,0.006408823241269181,0.14586827466972538
89,1790597517.307728,0.21938378906250006,-0.04871469726562501,0.13105546875000063,0.2601497732506861,0.14724189076850497,0.01996086341459078,0.007560264310858998,0.1487809398471133
90,1790597517.317554,0.20501367187500005,-0.08703500976562502,0.20290605468750061,0.30129149607883,0.14872321919209994,0.020136434223866614,0.008287221185546954,0.15030884852559975
91,1790597517.337554,0.2529140625000001,0.123726708984375,0.1693757812500006,0.32857567895449324,0.15197297400971072,0.020495228859237623,0.010103360115985801,0.15368121915504845
92,1790597517.3638437,0.2960244140625001,0.363228662109375,0.21727617187500062,0.5165021292922884,0.15668632569183372,0.021856258255022507,0.012894928769984808,0.15872800594633768
93,1790597517.3838437,0.31039453125000005,0.492559716796875,0.35618730468750065,0.6825168391047003,0.16064379698818082,0.02402003622926091,0.015560264311815373,0.16317326213779149
94,1790597517.4084213,0.2624941406250001,0.540460107421875,0.4424080078125006,0.7461401657554347,0.16583359053071328,0.02818439743230567,0.01981640764355744,0.16937482108869098
95,1790597517.4284213,0.23375390625000006,0.573990380859375,0.45677812500000065,0.7699039560131773,0.17016766726279342,0.03273650017667478,0.024109098537850402,0.17495702917512626
96,1790597517.4385347,0.21459375000000006,0.799122216796875,0.5286287109375006,0.9818834497764273,0.17237063059878477,0.03573462037509517,0.02670163848317346,0.17804936080778547
97,1790597517.4585347,0.15232324218750007,0.966773583984375,0.7537605468750006,1.235317163657093,0.1766240187176722,0.04342307267533592,0.03298308222417622,0.18484991463767272
98,1790597517.4980273,0.13795312500000007,1.167955224609375,0.8304011718750006,1.4396932234476119,0.18462284721583908,0.06265060904872283,0.048218293072402885,0.2008374923042884
99,1790597517.5180273,0.08526269531250005,1.254175927734375,0.8830916015625007,1.5362544586332547,0.18840084555809813,0.07456048573454208,0.05734667714943152,0.21057726852644454
100,1790597517.5285566,0.11400292968750006,1.239805810546875,0.8878816406250006,1.52919878485502,0.19024883948768567,0.08185958113981881,0.06283011213446356,0.21643298025399693
101,1790597517.5485566,0.27207421875000004,1.139214990234375,0.7585505859375007,1.3954333254975873,0.1938116218899173,0.09721281852706806,0.07415300434512145,0.2291548492155131
102,1790597517.558101,0.44930566406250005,0.770381982421875,0.4232478515625006,0.9871690445162747,0.19577319935516335,0.10480759058536195,0.07959194389079477,0.23589543056697984
103,1790597517.578101,0.549896484375,0.152466943359375,0.3322371093750006,0.6603134173944912,0.2007658699074969,0.11971931048436682,0.09041275144449416,0.2506274395319277
104,1790597517.6030428,0.6744375000000001,0.061456201171874995,0.3130769531250006,0.7460964982137109,0.2083485569056397,0.1359263947110123,0.10309031383438794,0.26928185744730204
105,1790597517.6230428,0.6361171875000001,0.219527490234375,0.31786699218750064,0.7442290104019343,0.21548261587755504,0.14739433922236306,0.11267753695235964,0.28434851206553086
106,1790597517.6478379,0.7798183593750001,0.262637841796875,0.2508064453125006,0.8602320515839488,0.22563353703333458,0.16037580302879942,0.12383798674108899,0.3032601823375294
107,1790597517.6678379,0.8660390625000001,-0.005604345703125008,0.12626542968750062,0.8752131313004897,0.23506199451951837,0.16966170302675987,0.13205542065826062,0.31855591168061015
108,1790597517.6929321,0.8277187500000001,-0.31216684570312503,-0.02701582031249939,0.885040294678699,0.24830528662977752,0.178967117501694,0.14100617048577888,0.33699775166939266
109,1790597517.712932,0.8612490234375001,-0.47023813476562504,-0.0844962890624994,0.9848925863388531,0.2598103355590523,0.18409741601610266,0.1469025416176643,0.3506759555213943
110,1790597517.7234793,1.1007509765625,-0.42712778320312506,-0.2521476562499994,1.2073397600260174,0.2665195434267786,0.18568724710111892,0.14927932028439322,0.35748669377891673
111,1790597517.7434793,1.4168935546875001,-0.518138525390625,-0.5395499999999994,1.6022387710041692,0.2811099520878712,0.1868318492128311,0.15192268245440166,0.3701478711100096
112,1790597517.767748,1.42168359375,-0.556458837890625,-0.7024113281249994,1.6805393041767354,0.3013255833166663,0.18605647919503568,0.15238854516533587,0.38553390163407103
113,1790597517.787748,1.1678115234375002,-0.6043592285156251,-0.6640910156249994,1.4731091977172839,0.31937057495851773,0.18377211845015862,0.15066512358912382,0.39808257326228097
114,1790597517.8138359,1.2396621093750002,-0.8726014160156251,-0.7934220703124995,1.7110563866546074,0.34408803446491465,0.17834958239882562,0.1459025688696932,0.414116781363107
115,1790597517.8338358,1.4360537109375002,-1.2510145019531251,-0.9227531249999994,2.1163083127209172,0.3642086367834839,0.17163058789566618,0.14022480903059006,0.426342569862266
116,1790597517.843323,1.4408437500000002,-1.2031141113281252,-1.0329240234374995,2.142532687028424,0.37436836842199916,0.1671752582357391,0.13654397607988253,0.43213828764047196
117,1790597517.863323,1.3737832031250001,-1.021092626953125,-1.0425041015624994,2.0041769492190684,0.39679548076507254,0.15585546678366446,0.12683516939127226,0.4447749321583352
118,1790597517.8879037,1.2971425781250001,-1.2701746582031253,-0.8509025390624995,2.0049832072387055,0.4251486648351409,0.13980581591340774,0.11320196195158491,0.46164026856850854
119,1790597517.9079037,1.2923525390625001,-1.624637548828125,-0.7646818359374994,2.2123201758552704,0.44864191959791244,0.12436368941725633,0.10134988370313805,0.47646374278911413
120,1790597517.9334815,1.3737832031250001,-1.581527197265625,-0.8748527343749994,2.2702149395426554,0.47929496108573555,0.10142672609932993,0.08532082645486701,0.49728330347634514
121,1790597517.9534814,1.3354628906250001,-1.8306092285156252,-0.9946037109374994,2.4746369070176133,0.5037320227462974,0.08106373379550658,0.07186311334309292,0.5152490531153912
122,1790597517.9784205,1.3258828125000002,-1.8832996582031252,-1.0233439453124995,2.5203205481602278,0.5346109944683252,0.05253416803787957,0.05382470538426297,0.539875775644311
123,1790597517.9984205,1.392943359375,-2.1323816894531253,-1.0520841796874993,2.7557619623419205,0.5597382194220432,0.02706316050666554,0.038415487634403875,0.561707253494699
124,1790597518.0078547,1.3977333984375002,-2.204232275390625,-0.9802335937499994,2.7880381050655343,0.5717876926201761,0.013781992263854877,0.03079908631821307,0.5727824128416503
125,1790597518.0278547,1.5989150390625002,-2.199442236328125,-0.6305607421874995,2.791358504863241,0.5979951904916775,-0.01675549367765461,0.014658534604326406,0.5984094476663164
126,1790597518.0532706,1.8863173828125002,-2.079691259765625,-0.5922404296874995,2.8695047884961906,0.6329474414436401,-0.057898224833795656,-0.0051070069526434995,0.6356105329436961
127,1790597518.0732706,1.8911074218750001,-1.974310400390625,-0.9371232421874994,2.8900499665592827,0.661992157559257,-0.09149844512184714,-0.02062166889326101,0.6686036459350331
128,1790597518.0831203,1.7569863281250002,-2.146751806640625,-1.1670451171874994,3.0095744852194874,0.6768457211264167,-0.10860841503977564,-0.028670780559480077,0.6861034409493084
129,1790597518.1031203,1.7617763671875002,-2.4485242675781254,-1.1239347656249994,3.219061418221141,0.7077599826246943,-0.1450318310386479,-0.04599940245819366,0.723929810165213
130,1790597518.128345,1.9390078125,-2.5634852050781247,-0.8173722656249994,3.3165200307254916,0.7479029555373352,-0.19356153737261242,-0.06824921886853065,0.7755532576991054
131,1790597518.148345,1.9677480468750002,-2.539535009765625,-0.9131730468749995,3.3399334507359035,0.7808171329994336,-0.2339222844374945,-0.08584012778787735,0.8196118336630763
132,1790597518.188315,1.7953066406250002,-2.774246923828125,-1.2341056640624994,3.527405380490479,0.8480098870030367,-0.3184133829138023,-0.12215920611310747,0.9140189946120919
133,1790597518.208315,1.5031142578125,-3.119129736328125,-1.3346964843749995,3.7107596916923313,0.8815358969995636,-0.36318914473199093,-0.14145961510078525,0.9638582443774824
134,1790597518.2028499,1.507904296875,-2.980218603515625,-1.3394865234374995,3.5985694990850723,0.8815358969995636,-0.36318914473199093,-0.14145961510078525,0.9638582443774824
135,1790597518.2228498,1.6516054687500001,-2.769456884765625,-0.9946037109374994,3.3744523411646035,0.9143367443468012,-0.4119407993699685,-0.16231487269033096,1.0159001044122176
136,1790597518.2927577,1.737826171875,-2.601805517578125,-0.8221623046874994,3.2350243600632678,1.0295620770930602,-0.5849483185920803,-0.23380316644459576,1.2069906903747842
137,1790597518.3127577,1.7234560546875002,-2.3623035644531254,-0.5251798828124994,2.9709582313418506,1.0627741289103485,-0.6344658986217346,-0.253208475867757,1.2633884429763904
138,1790597518.2937584,1.74740625,-2.094061376953125,-0.2329874999999994,2.737298819665498,1.0627741289103485,-0.6344658986217346,-0.253208475867757,1.2633884429763904
139,1790597518.3137584,1.699505859375,-1.8832996582031252,-0.03180585937499939,2.5369567164870093,1.096365544799689,-0.6818902459378776,-0.26859266407746746,1.318762197867898
140,1790597518.3228836,1.7234560546875002,-1.701278173828125,-0.06054609374999939,2.4224603250933434,1.1117357097023262,-0.7027357451922878,-0.27462220738066645,1.3435814722542598
141,1790597518.3428836,1.7521962890625002,-1.6390076660156252,-0.1084464843749994,2.4017282537030873,1.1455832535043704,-0.7465805924868766,-0.28610852061556435,1.3969973719934268
142,1790597518.367755,1.7905166015625003,-1.4474061035156252,-0.0030656249999993905,2.3023777984991627,1.1879696400230317,-0.7986833041419878,-0.29845794607547776,1.4622735829889042
143,1790597518.387755,1.8384169921875002,-1.2510145019531251,-0.01264570312499939,2.223729802621777,1.2223848402472417,-0.8383440071636843,-0.3069225521612654,1.5136865015711551
144,1790597518.4131398,1.670765625,-1.217484228515625,-0.11323652343749939,2.0703980609066797,1.2661950221783802,-0.8858320246585851,-0.31629433514958144,1.577336462695183
145,1790597518.4331398,1.6084951171875002,-1.3180750488281252,-0.2281974609374994,2.0920450419476193,1.30045309433261,-0.9214375507604441,-0.3230826632205029,1.6262250206488398
146,1790597518.473087,1.6563955078125001,-1.2893348144531251,-0.33836835937499943,2.1261522731658786,1.3683968616061668,-0.9896991301462675,-0.336305076399836,1.7219510572249679
147,1790597518.493087,1.6324453125000002,-1.227064306640625,-0.3958488281249994,2.080206914146426,1.402244306840323,-1.0225231622420068,-0.343033338894012,1.769043409580518
148,1790597518.48761,1.5893349609375,-1.3707654785156251,-0.4485392578124994,2.1461992174416995,1.402244306840323,-1.0225231622420068,-0.343033338894012,1.769043409580518
149,1790597518.50761,1.5222744140625002,-1.5336268066406251,-0.4724894531249994,2.2119170095350347,1.4354742615644662,-1.053907339521429,-0.3503526440777678,1.8149528950150384
150,1790597518.5335908,1.5318544921875001,-1.538416845703125,-0.5203898437499994,2.2325120751871257,1.4781172881992053,-1.0945472011114985,-0.3603691620237609,1.8742279013161913
151,1790597518.5535908,1.6420253906250002,-1.5719471191406251,-0.5587101562499994,2.3408165599911057,1.5107807564131932,-1.1258046626150688,-0.3685419283715987,1.9198223316968956
152,1790597518.6227763,1.6755556640625002,-1.6342176269531252,-0.46769941406249943,2.386817290353544,1.6240386093980235,-1.2343501832120551,-0.39789896813885406,2.07832754118716
153,1790597518.6427763,1.7042958984375,-1.6102674316406251,-0.4389591796874994,2.3854288654800215,1.6569376495022277,-1.2658882782477847,-0.4064724493729077,2.124414121456153
154,1790597518.624089,1.699505859375,-1.6054773925781252,-0.4102189453124994,2.373638010991295,1.6569376495022277,-1.2658882782477847,-0.4064724493729077,2.124414121456153
155,1790597518.644089,1.7521962890625002,-1.6342176269531252,-0.46769941406249943,2.441229573301763,1.690224597364882,-1.2976341605467183,-0.41506636692453147,2.170943042345191
156,1790597518.6530354,1.74740625,-1.6533777832031251,-0.4245890624999994,2.4428185705294143,1.7052292341042512,-1.3119105956259953,-0.4189326823904154,2.191898890034473
157,1790597518.6730354,1.7234560546875002,-1.581527197265625,-0.3287882812499994,2.3621242096928765,1.7389473314089583,-1.343891028580557,-0.42740951948202627,2.238897008675812
158,1790597518.6982696,1.7042958984375,-1.5623670410156252,-0.2952580078124994,2.3308351660853694,1.7815957386165837,-1.3841386484884244,-0.4376815990480719,2.2981488977525824
159,1790597518.7182696,1.6420253906250002,-1.538416845703125,-0.33836835937499943,2.2754047818413463,1.815346920638189,-1.4159041440235047,-0.44555221075088736,2.3449489887497537
160,1790597518.728831,1.6372353515625002,-1.543206884765625,-0.3814787109374994,2.2820063743321457,1.8330941038719517,-1.4326034763289037,-0.44965523314192796,2.3695519708864157
161,1790597518.748831,1.6563955078125001,-1.5144666503906252,-0.3958488281249994,2.2790242666928244,1.8666008279189692,-1.4640696192909908,-0.4574255444331912,2.4159752957384826
162,1790597518.8029342,1.699505859375,-1.4905164550781251,-0.36710859374999943,2.290137154956821,1.9572630616462756,-1.5486158371254275,-0.4783883645470669,2.5412487345426573
163,1790597518.8229342,1.6803457031250002,-1.4330359863281252,-0.3431583984374994,2.2349298661345647,1.9908202124416863,-1.5795667997010787,-0.486040583712425,2.5873986631363524
164,1790597518.8331532,1.6899257812500001,-1.3707654785156251,-0.3814787109374994,2.209156660384711,2.0079775720211406,-1.595158099439953,-0.48991941992380666,2.610847435214719
165,1790597518.8531532,1.6420253906250002,-1.3899256347656253,-0.4533292968749994,2.1985559135580317,2.0415176275067908,-1.6252360460800188,-0.4976242705216359,2.6564668911000866
166,1790597518.8485358,1.5653847656250002,-1.4090857910156251,-0.4533292968749994,2.154404716458388,2.0415176275067908,-1.6252360460800188,-0.4976242705216359,2.6564668911000866
167,1790597518.8685358,1.5701748046875001,-1.3947156738281252,-0.46769941406249943,2.151609506860312,2.074543096514405,-1.6547417968783176,-0.5057285554320251,2.7014183025609015
168,1790597518.8936365,1.5797548828125,-1.4330359863281252,-0.5251798828124994,2.1965954423134697,2.115703952824285,-1.6915413670537773,-0.5162432014646358,2.7575392028961114
169,1790597518.9136364,1.6132851562500001,-1.5096766113281253,-0.5443400390624994,2.2755479657204156,2.1483705661946533,-1.7208787166207862,-0.5249687455614832,2.802233364804997
170,1790597518.9377162,1.6372353515625002,-1.5479969238281253,-0.4629093749999994,2.300243283231192,2.1876717232452236,-1.7564244514587808,-0.5357174789168158,2.8562086127567774
171,1790597518.9577162,1.670765625,-1.543206884765625,-0.3862687499999994,2.3069782855710255,2.220379757833065,-1.7861560178512255,-0.5445796922777091,2.9012077882051557
172,1790597518.967768,1.7138759765625002,-1.5479969238281253,-0.3862687499999994,2.3415526657425336,2.236904203607613,-1.801187703182073,-0.5489480195660403,2.923929117881827
173,1790597518.987768,1.7138759765625002,-1.543206884765625,-0.4197990234374994,2.3441607394343005,2.2699927955500665,-1.8312468422887573,-0.5575450535994976,2.969375149090296
174,1790597519.013537,1.699505859375,-1.4905164550781251,-0.3862687499999994,2.2932865098227873,2.3128278268566334,-1.8700303109582859,-0.5685182488302604,3.0281015372404783
175,1790597519.033537,1.6755556640625002,-1.504886572265625,-0.3862687499999994,2.2850325875102677,2.3461489796825186,-1.9001091327884136,-0.5769161464953164,3.073704929146301
176,1790597519.0586271,1.699505859375,-1.4857264160156252,-0.4150089843749994,2.2951983806217187,2.3880315770956946,-1.937810876016597,-0.5873789383763752,3.130945515601081
177,1790597519.078627,1.7138759765625002,-1.428245947265625,-0.3814787109374994,2.263356656785952,2.4215293772219493,-1.9677268070889837,-0.5956627779799889,3.176565355404539
178,1790597519.103069,1.6755556640625002,-1.4761463378906252,-0.3335783203124994,2.2578240166191734,2.4625396879698527,-2.0041271805696304,-0.6055787040533711,3.2322365379915494
179,1790597519.123069,1.6180751953125,-1.456986181640625,-0.37668867187499944,2.209721798484204,2.4960038113590266,-2.0338442319848697,-0.6135408744845993,3.2776500409531577
180,1790597519.133706,1.5797548828125,-1.4090857910156251,-0.4293791015624994,2.1599802473797496,2.513683259235518,-2.049565053459587,-0.6177834348384563,3.301662733909158
181,1790597519.153706,1.5414345703125,-1.4090857910156251,-0.4006388671874994,2.1265123566294872,2.546620097560243,-2.0789171147288976,-0.6258088641718004,3.346461866761141
182,1790597519.1783147,1.5558046875000002,-1.418665869140625,-0.3958488281249994,2.142390573317441,2.586784057129004,-2.114834495556294,-0.6356724302054197,3.401184520183358
183,1790597519.1983147,1.5605947265625002,-1.4138758300781251,-0.4006388671874994,2.1435979719516145,2.6192044937693364,-2.1438955482485533,-0.6436810541453911,3.445409351796557
184,1790597519.2380083,1.546224609375,-1.4378260253906252,-0.3910587890624994,2.1473428227533913,2.68314616289108,-2.20141051628483,-0.6595483367766062,3.532773075247171
185,1790597519.2580082,1.5414345703125,-1.4426160644531252,-0.3862687499999994,2.1462444388278024,2.7151626035919505,-2.230363702267487,-0.6675099713189193,3.5766184826098986
186,1790597519.253526,1.5701748046875001,-1.428245947265625,-0.33836835937499943,2.1493786427203188,2.7151626035919505,-2.230363702267487,-0.6675099713189193,3.5766184826098986
187,1790597519.273526,1.5749648437500001,-1.4138758300781251,-0.2952580078124994,2.136992375537399,2.746979485141438,-2.2592059033144447,-0.6751366023534537,3.620181906644488
188,1790597519.2984977,1.584544921875,-1.4042957519531252,-0.33836835937499943,2.1441367295533116,2.786664098423062,-2.2950942051632235,-0.6844174459377229,3.674422600670443
189,1790597519.3184977,1.5749648437500001,-1.423455908203125,-0.3958488281249994,2.1594993115013446,2.8184194265807037,-2.323767484205131,-0.6918368844388336,3.7177979583950735
190,1790597519.3435795,1.5893349609375,-1.4378260253906252,-0.3623185546874994,2.173615428823518,2.8582224832923746,-2.3597151171195705,-0.7011720814139354,3.772178877746257
191,1790597519.3635795,1.584544921875,-1.4330359863281252,-0.3431583984374994,2.163823568124135,2.8899610015736124,-2.3883859811243253,-0.7085575026426864,3.81553612484521
192,1790597519.3736968,1.5941250000000002,-1.3995057128906252,-0.3958488281249994,2.1579033923617694,2.9060200640395735,-2.4028633561988206,-0.7122938818954102,3.837455862332394
193,1790597519.3936968,1.5605947265625002,-1.4138758300781251,-0.4150089843749994,2.1463301751048838,2.937736018860084,-2.4314096109544527,-0.719788367607274,3.8807397370723433
194,1790597519.4184036,1.546224609375,-1.4042957519531252,-0.36710859374999943,2.120760670418887,2.976796071453813,-2.4666064781781794,-0.7291071643693517,3.9340894278534306
195,1790597519.4384036,1.5318544921875001,-1.3995057128906252,-0.3335783203124994,2.1015396549746637,3.0082891539363787,-2.495030010765896,-0.7365701586260318,3.977123833487222
196,1790597519.463486,1.5031142578125,-1.4138758300781251,-0.3527384765624994,2.0935189914987546,3.0475701187256865,-2.5306219880720238,-0.7458167999339201,4.030877568734502
197,1790597519.483486,1.4935341796875001,-1.385135595703125,-0.34794843749999943,2.0664735854922887,3.0786884206547764,-2.5589435615476996,-0.7531348957346238,4.07353982597856
198,1790597519.4928732,1.5270644531250002,-1.3563953613281252,-0.4102189453124994,2.0832699785010367,3.093229972777893,-2.5721728585547474,-0.7565882970400799,4.093479049658765
199,1790597519.5128732,1.5174843750000002,-1.380345556640625,-0.4389591796874994,2.097807866688125,3.124131024392571,-2.6002357514896293,-0.7641160497200331,4.1358546829327505
200,1790597519.5380297,1.49832421875,-1.4378260253906252,-0.3623185546874994,2.1079833677840627,3.16285898987905,-2.6355564042975965,-0.7736761635552966,4.189082161541648
201,1790597519.5580297,1.5318544921875001,-1.4138758300781251,-0.3048380859374994,2.106786488173913,3.19357541569236,-2.6637025584872367,-0.7811373270101517,4.231360393473315
202,1790597519.5830219,1.5558046875000002,-1.375555517578125,-0.3144181640624994,2.100366632157117,3.2319890637714135,-2.698827136059563,-0.7902231005841894,4.284142127353663
203,1790597519.6030219,1.5797548828125,-1.3659754394531252,-0.35752851562499943,2.1188065108556065,3.2628217779912547,-2.7268315465518285,-0.7974112612044009,4.3263704138341925
204,1790597519.6135795,1.5366445312500001,-1.4042957519531252,-0.36710859374999943,2.1137861041219916,3.2791240753268016,-2.7415907096716237,-0.8012103782693437,4.348667886950222
205,1790597519.6335795,1.5174843750000002,-1.4042957519531252,-0.37668867187499944,2.1015945714722633,3.3099553058046367,-2.7695688718909963,-0.8084434305852152,4.390887910551603
206,1790597519.65814,1.5174843750000002,-1.3899256347656253,-0.3862687499999994,2.0937659004230462,3.347728081702339,-2.8039200927570485,-0.8173988299955003,4.442678476196892
207,1790597519.67814,1.4791640625000002,-1.3947156738281252,-0.3623185546874994,2.065050331029291,3.378368195558011,-2.83187390181045,-0.8247203599650701,4.484756975874384
208,1790597519.7179694,1.4743740234375002,-1.4042957519531252,-0.3718986328124994,2.0698149465661615,3.4390572472178245,-2.8875540935696815,-0.8393071791349525,4.5683169695063786
209,1790597519.7379694,1.4791640625000002,-1.3899256347656253,-0.37668867187499944,2.064391907920849,3.469390789850644,-2.9155107848581325,-0.8466559904454375,4.610173744608949
210,1790597519.748032,1.4647939453125,-1.3611854003906252,-0.3862687499999994,2.036578145735466,3.4845851933873293,-2.929543150426469,-0.8503746248540613,4.631165516668621
211,1790597519.768032,1.4887441406250002,-1.3516053222656252,-0.35752851562499943,2.0423081801988285,3.5146850237236777,-2.9573187053103336,-0.857772605645498,4.67274208401895
212,1790597519.7784224,1.4935341796875001,-1.380345556640625,-0.3144181640624994,2.0578768144679516,3.530300732698094,-2.9717129706013554,-0.861563089337867,4.694293578360694
213,1790597519.7984223,1.49832421875,-1.380345556640625,-0.33836835937499943,2.0651446600314576,3.560338044666017,-2.9994050757744004,-0.8687440405105757,4.735731623392537
214,1790597519.8230371,1.507904296875,-1.3659754394531252,-0.36710859374999943,2.067470190674668,3.5973108227278177,-3.033444643482376,-0.877558640920985,4.786704579211223
215,1790597519.8430371,1.507904296875,-1.3659754394531252,-0.3623185546874994,2.066625027622109,3.6273694269031624,-3.0610516678108457,-0.8847405000798899,4.828106463689564
216,1790597519.8687477,1.5126943359375,-1.346815283203125,-0.35752851562499943,2.056692052916995,3.6660390893090637,-3.096448942881103,-0.893976199961726,4.881294101599446
217,1790597519.8887477,1.4887441406250002,-1.3659754394531252,-0.3527384765624994,2.0510174183273193,3.6961098438309867,-3.123923005034539,-0.9011482968156322,4.922620356263731
218,1790597519.8978188,1.4935341796875001,-1.3707654785156251,-0.36710859374999943,2.060196850446599,3.70973174319757,-3.1363767734815533,-0.9044030383302816,4.941347359522834
219,1790597519.9178188,1.49832421875,-1.385135595703125,-0.3527384765624994,2.070748781437353,3.73974804788957,-3.1638499723991025,-0.9115824520223095,4.982634310922151
220,1790597519.9428744,1.5031142578125,-1.337235205078125,-0.3623185546874994,2.044217503303011,3.7773516141595285,-3.1982210551876524,-0.9205712818612803,5.034327623409798
221,1790597519.9628744,1.4839541015625002,-1.308494970703125,-0.35752851562499943,2.0104988195431885,3.8073458229735895,-3.225510052345277,-0.9277498746748708,5.075481961691334
222,1790597519.9885652,1.4504238281250001,-1.423455908203125,-0.3144181640624994,2.056408224473827,3.8457492808038176,-3.2605697599810055,-0.9368826047664439,5.128240605277762
223,1790597520.0085652,1.4504238281250001,-1.375555517578125,-0.3144181640624994,2.0235466500737846,3.8755126922989955,-3.287967807610775,-0.9438691228664512,5.169257185820425
224,1790597520.0186965,1.4408437500000002,-1.337235205078125,-0.3096281249999994,1.9899995681922682,3.8905252516987416,-3.3018262651499324,-0.9473515827727164,5.1899632407871135
225,1790597520.0386965,1.4264736328125,-1.3516053222656252,-0.2808878906249994,1.9850848796426357,3.9200166511230123,-3.3291134163798493,-0.9540807735384242,5.230659308981772
226,1790597520.0635502,1.4121035156250001,-1.385135595703125,-0.3000480468749994,2.000666335938564,3.9564591177615904,-3.3630377463772256,-0.9622715877389588,5.281056546056527
227,1790597520.0835502,1.4168935546875001,-1.3659754394531252,-0.3718986328124994,2.002944043050615,3.9856293278169153,-3.390368717100791,-0.9688820397394189,5.321519856542827
228,1790597520.1087067,1.431263671875,-1.3324451660156251,-0.4197990234374994,2.000039259351324,4.022190446176572,-3.4246808950391663,-0.9774433444598056,5.3723226550337735
229,1790597520.1287067,1.42168359375,-1.342025244140625,-0.4102189453124994,1.9976224817872668,4.051176736759502,-3.451879706167185,-0.9844738353449789,5.412642163563842
230,1790597520.1530638,1.46000390625,-1.2941248535156251,-0.3910587890624994,1.9897983614565387,4.086446887455692,-3.4848509563404986,-0.9932153961209566,5.461658280686856
231,1790597520.1730638,1.4647939453125,-1.298914892578125,-0.3527384765624994,1.9892776661977167,4.115450823053801,-3.511752741459385,-1.000432248756948,5.501836736806591
232,1790597520.1988354,1.4743740234375002,-1.298914892578125,-0.3144181640624994,1.9899290040202333,4.1528997165699915,-3.5462393976837623,-1.00962635790764,5.553533587199546
233,1790597520.2188354,1.4935341796875001,-1.3228650878906252,-0.2665177734374994,2.012870614374597,4.1820543536850066,-3.572920833469657,-1.0165625609179363,5.593634001226507
234,1790597520.2433453,1.5031142578125,-1.346815283203125,-0.2521476562499994,2.0339228893104835,4.21793249178094,-3.605621660151993,-1.0247412426951608,5.642832327462779
235,1790597520.2633452,1.4791640625000002,-1.342025244140625,-0.3192082031249994,2.0225854633721907,4.247290853424907,-3.6323360936788878,-1.0312709801340194,5.683033074467882
236,1790597520.2583704,1.469583984375,-1.337235205078125,-0.35752851562499943,2.0188367245314445,4.247290853424907,-3.6323360936788878,-1.0312709801340194,5.683033074467882
237,1790597520.2783704,1.4887441406250002,-1.3995057128906252,-0.36710859374999943,2.075992311224651,4.276699407842531,-3.659158433179031,-1.037938508554594,5.72336567167313
238,1790597520.3033578,1.5031142578125,-1.3611854003906252,-0.3814787109374994,2.0634205032359123,4.3135372728557275,-3.69281659940356,-1.0464221076673241,5.773949901805611
239,1790597520.3233578,1.46000390625,-1.3516053222656252,-0.37668867187499944,2.0249302973092616,4.343044242249883,-3.719784799708333,-1.0533310948440842,5.814493842257163
240,1790597520.3635495,1.4887441406250002,-1.3276551269531252,-0.3335783203124994,2.0224494426691355,4.4023351055254665,-3.7739267364143227,-1.067273669175853,5.895943561303896
241,1790597520.3835495,1.5031142578125,-1.342025244140625,-0.2760978515624994,2.0338668224806056,4.431901324404793,-3.8008318316871015,-1.0740855153481268,5.936474682528978
242,1790597520.3930962,1.469583984375,-1.342025244140625,-0.2952580078124994,2.011935917026089,4.446025921598053,-3.813670037369927,-1.0772584317706493,5.955813242394015
243,1790597520.4130962,1.4552138671875001,-1.3324451660156251,-0.3527384765624994,2.004365723250335,4.4755648939759345,-3.8405428316028116,-1.0838804624556848,5.996269441782842
244,1790597520.4237752,1.46000390625,-1.342025244140625,-0.3718986328124994,2.0176599701792592,4.49130627140669,-3.854881321486227,-1.0874663057986742,6.017850529264405
245,1790597520.4437752,1.4504238281250001,-1.3180750488281252,-0.37668867187499944,1.9957318134095563,4.52073071550429,-3.881697008474603,-1.0942975142881226,6.058222917447144
246,1790597520.4688606,1.4552138671875001,-1.3180750488281252,-0.35752851562499943,1.9956943335799397,4.557567766858948,-3.9152457624988988,-1.1029618510124022,6.108772231395269
247,1790597520.4888606,1.4791640625000002,-1.337235205078125,-0.34794843749999943,2.0241522750649295,4.586933174944791,-3.9419641460995334,-1.1098917395878256,6.149056590579454
248,1790597520.513068,1.4743740234375002,-1.3180750488281252,-0.3527384765624994,2.008861624945377,4.622507004034725,-3.974273232647364,-1.118293435760212,6.197822112528868
249,1790597520.533068,1.4935341796875001,-1.3276551269531252,-0.3527384765624994,2.0292207654337084,4.6519411269040685,-4.000931373622794,-1.12525186963989,6.238124708175426
250,1790597520.558629,1.49832421875,-1.342025244140625,-0.3096281249999994,2.035160140184187,4.689652452061838,-4.035009375950447,-1.1340809583253482,6.289696368281522
251,1790597520.578629,1.4887441406250002,-1.337235205078125,-0.3239982421874994,2.0271980591166208,4.71921381992107,-4.061692608873297,-1.1409033820593846,6.330085817293832
252,1790597520.5885255,1.4743740234375002,-1.3516053222656252,-0.3623185546874994,2.032705203229156,4.733846742310495,-4.074911401408389,-1.14428232054601,6.350085821319735
253,1790597520.6085255,1.4743740234375002,-1.3707654785156251,-0.3910587890624994,2.0507812498120033,4.763405920497105,-4.101701857904847,-1.1512166397132606,6.390562873966552
254,1790597520.6624641,1.4839541015625002,-1.3516053222656252,-0.37668867187499944,2.0422661624381586,4.843134810456344,-4.174129206244034,-1.1702186735932028,6.499901627463272
255,1790597520.6824641,1.4935341796875001,-1.3276551269531252,-0.3335783203124994,2.025978029940661,4.872729409620955,-4.20097521736461,-1.177272995742942,6.540463009818355
256,1790597520.6634636,1.4791640625000002,-1.3276551269531252,-0.3192082031249994,2.013079317080853,4.872729409620955,-4.20097521736461,-1.177272995742942,6.540463009818355
257,1790597520.6834636,1.4791640625000002,-1.337235205078125,-0.3239982421874994,2.0201730565554104,4.902339182117146,-4.227754309430164,-1.18416685426762,6.58096399444431
258,1790597520.7078743,1.4887441406250002,-1.346815283203125,-0.3431583984374994,2.036670864360016,4.938491700785466,-4.260450431536502,-1.1925403678582958,6.630406525038875
259,1790597520.7278743,1.4839541015625002,-1.342025244140625,-0.3623185546874994,2.0333288633484035,4.968127883874968,-4.287253743607391,-1.1994300189684484,6.670942339955744
260,1790597520.7529082,1.4791640625000002,-1.3563953613281252,-0.36710859374999943,2.040221414363907,5.005222512376823,-4.320837374277294,-1.2081297546561358,6.721715965245835
261,1790597520.7729082,1.4743740234375002,-1.3563953613281252,-0.33836835937499943,2.0317677731093844,5.034842929619045,-4.347712432442687,-1.2150957607310375,6.7623002320880525
262,1790597520.7833867,1.4743740234375002,-1.3611854003906252,-0.3239982421874994,2.032628671490309,5.050351366863947,-4.361816589587776,-1.2187185231527469,6.783566003855442
263,1790597520.8033867,1.4743740234375002,-1.3659754394531252,-0.3239982421874994,2.035839513104368,5.079934886347828,-4.388789468637594,-1.225567972953057,6.824165026278764
264,1790597520.8431413,1.4504238281250001,-1.3516053222656252,-0.34794843749999943,2.0128671947071513,5.13863898149487,-4.442464857390205,-1.23914409512343,6.904823146161303
265,1790597520.8631413,1.4504238281250001,-1.3516053222656252,-0.37668867187499944,2.018033841115777,5.168093455361031,-4.469472486770312,-1.2460365084311733,6.945356812553669
266,1790597520.8731987,1.4743740234375002,-1.3516053222656252,-0.3718986328124994,2.0344346392184374,5.1828897351823855,-4.483055737321343,-1.249547281309197,6.965737804369035
267,1790597520.8931987,1.4935341796875001,-1.3324451660156251,-0.3527384765624994,2.0323579653153754,5.212351564314127,-4.510041411726176,-1.2565684524547456,7.006286223185396
268,1790597520.9030175,1.469583984375,-1.3516053222656252,-0.34794843749999943,2.0267170866864856,5.226828026432038,-4.523279068706192,-1.2600143731100089,7.026195341131272
269,1790597520.9230175,1.4552138671875001,-1.3276551269531252,-0.3287882812499994,1.9971022180316778,5.256279362629329,-4.550217266413728,-1.266995648336153,7.066698513625394
270,1790597520.9477434,1.46000390625,-1.3276551269531252,-0.3335783203124994,2.0013880278878173,5.292634475198523,-4.58344945767882,-1.2755602592663031,7.11667356242899
271,1790597520.9677434,1.4408437500000002,-1.3707654785156251,-0.3335783203124994,2.0165076753602356,5.321981232052163,-4.610345449915643,-1.2824494812353522,7.157055684692844
272,1790597520.9933114,1.42168359375,-1.385135595703125,-0.3192082031249994,2.010392682080806,5.359359817079673,-4.644856466061087,-1.2911873788509751,7.208647174507975
273,1790597521.0133114,1.4025234375000002,-1.346815283203125,-0.33836835937499943,1.973696163656519,5.388448874295877,-4.671900513381097,-1.2979835076503292,7.248916944203686
274,1790597521.023236,1.42168359375,-1.3516053222656252,-0.34794843749999943,1.9922573385668256,5.4028207764963305,-4.685316205454291,-1.3013609604861738,7.268851397401828
275,1790597521.043236,1.42168359375,-1.375555517578125,-0.3431583984374994,2.0077586780028445,5.431703527579611,-4.712386749992398,-1.3081828758904763,7.308989980140744
276,1790597521.082691,1.431263671875,-1.342025244140625,-0.33836835937499943,1.9909898545612785,5.488577390623793,-4.765821273333445,-1.3216388317464525,7.388116362362225
277,1790597521.102691,1.4647939453125,-1.337235205078125,-0.3814787109374994,2.019738919470294,5.517426764859075,-4.792863540770132,-1.3285163809892993,7.428222856146939
278,1790597521.1270866,1.4456337890625002,-1.3563953613281252,-0.3527384765624994,2.013477057519973,5.552663472551424,-4.825829937876647,-1.3369905316335522,7.477181949798409
279,1790597521.1470866,1.4168935546875001,-1.337235205078125,-0.2808878906249994,1.9684215366925542,5.5815117241796,-4.852842793792883,-1.3438461256271828,7.517265374974136
280,1790597521.1878653,1.4504238281250001,-1.3228650878906252,-0.2569376953124994,1.9798278463606755,5.640277845068823,-4.907794249610094,-1.3573723971137335,7.5987919033571645
281,1790597521.2078652,1.431263671875,-1.3324451660156251,-0.2808878906249994,1.9755565863744011,5.669099060174508,-4.934685624231009,-1.3638180283517816,7.638704469903324
282,1790597521.1888669,1.3977333984375002,-1.3324451660156251,-0.3335783203124994,1.9596793792170593,5.669099060174508,-4.934685624231009,-1.3638180283517816,7.638704469903324
283,1790597521.2088668,1.4025234375000002,-1.3276551269531252,-0.3910587890624994,1.9704484528565482,5.697729737161245,-4.961502520961776,-1.3703453952205267,7.678442415323808
284,1790597521.232798,1.4025234375000002,-1.3611854003906252,-0.3862687499999994,1.9922603329384354,5.731884042283785,-4.993603494589822,-1.3783794300775738,7.7259627483329325
285,1790597521.252798,1.4121035156250001,-1.3659754394531252,-0.35752851562499943,1.9969356222759558,5.760368074164905,-5.02049770823924,-1.3852022391417942,7.765695257452304
286,1790597521.2928207,1.4168935546875001,-1.346815283203125,-0.3000480468749994,1.9777582215270892,5.817310136371708,-5.074386732953809,-1.398781427148424,7.845195180442997
287,1790597521.3128207,1.4073134765625002,-1.3180750488281252,-0.2856779296874994,1.9492216228967478,5.8457331237374035,-5.101273938874215,-1.4054279041418967,7.884847439686997
288,1790597521.3077397,1.3977333984375002,-1.303704931640625,-0.3144181640624994,1.9370503307307643,5.8457331237374035,-5.101273938874215,-1.4054279041418967,7.884847439686997
289,1790597521.3277397,1.4121035156250001,-1.3563953613281252,-0.34794843749999943,1.9886962639457118,5.87405991481558,-5.128032858073041,-1.411988654514355,7.92433043460438
290,1790597521.3527455,1.4121035156250001,-1.342025244140625,-0.3144181640624994,1.973303543969762,5.909460782965566,-5.1615315686916965,-1.4202033068873259,7.973713834400045
291,1790597521.3727455,1.3881533203125,-1.3228650878906252,-0.3096281249999994,1.9423725845587672,5.937728131298448,-5.188302702489609,-1.426724034183913,8.013154295506355
292,1790597521.398181,1.3689931640625002,-1.308494970703125,-0.3192082031249994,1.9204674557376697,5.973545042626278,-5.222262237042926,-1.434972594689228,8.063151343999362
293,1790597521.418181,1.3642031250000002,-1.337235205078125,-0.3431583984374994,1.9408775969592442,6.001583350735578,-5.248927953565987,-1.4414791346695683,8.102352095116617
294,1790597521.4428477,1.3689931640625002,-1.3228650878906252,-0.3623185546874994,1.9378826226272234,6.036033451837365,-5.2818038845619055,-1.4496053356608598,8.1506139483998
295,1790597521.4628477,1.3689931640625002,-1.346815283203125,-0.3431583984374994,1.9508488861871283,6.063882926966967,-5.308466006126476,-1.4562640074745707,8.189700382164647
296,1790597521.4874265,1.4025234375000002,-1.308494970703125,-0.3000480468749994,1.9414581920622682,6.098083543550568,-5.3412120966609296,-1.4644053524448906,8.237697044800115
297,1790597521.5074265,1.4025234375000002,-1.303704931640625,-0.2808878906249994,1.9353595398841699,6.125946035928562,-5.367779292953112,-1.4709077333411875,8.276704593796254
298,1790597521.517487,1.3977333984375002,-1.308494970703125,-0.3192082031249994,1.941059406202012,6.139972214787603,-5.3811097405354005,-1.4741407778033988,8.29630591714358
299,1790597521.537487,1.4025234375000002,-1.3228650878906252,-0.34794843749999943,1.9591100399557397,6.167873570839702,-5.407582127879426,-1.4806046037973892,8.335274371513508
300,1790597521.5480318,1.3977333984375002,-1.346815283203125,-0.33836835937499943,1.9702952080343916,6.182592265985408,-5.421557158296967,-1.4840441690069452,8.355843239534067
301,1790597521.5680318,1.3689931640625002,-1.346815283203125,-0.3144181640624994,1.9459990935793887,6.210471405679855,-5.4481277393763525,-1.4905685152204402,8.394870186244434
302,1790597521.5936034,1.354623046875,-1.3324451660156251,-0.3096281249999994,1.9251709782131898,6.2459938090119,-5.482142941326176,-1.498855970475335,8.444696507961488
303,1790597521.6136034,1.3402529296875,-1.3659754394531252,-0.3048380859374994,1.9378062533089122,6.273651404908136,-5.508803867019061,-1.5052871673117454,8.48360250434115
304,1790597521.637759,1.3354628906250001,-1.380345556640625,-0.3431583984374994,1.9510439960165398,6.306892616626712,-5.541149795831989,-1.513063485072468,8.530568366021637
305,1790597521.657759,1.3402529296875,-1.3899256347656253,-0.3431583984374994,1.9611039931968786,6.334300333981973,-5.568069273399976,-1.5195656937299598,8.569471165248535
306,1790597521.6682527,1.3737832031250001,-1.3516053222656252,-0.3335783203124994,1.955860867277542,6.348659797892101,-5.582232628972136,-1.5229981946523157,8.589896731291171
307,1790597521.6882527,1.3785732421875,-1.346815283203125,-0.3048380859374994,1.9512308550714619,6.376050797181214,-5.60922502719978,-1.529516502597005,8.628838270921303
308,1790597521.713259,1.3689931640625002,-1.3659754394531252,-0.3048380859374994,1.9577940246811083,6.410314072986644,-5.642999461522116,-1.537587385710303,8.67754253263935
309,1790597521.733259,1.38336328125,-1.337235205078125,-0.3096281249999994,1.9487846308410064,6.437735744530825,-5.670015086214223,-1.5439958980155606,8.71650365269215
310,1790597521.7583737,1.3737832031250001,-1.308494970703125,-0.3000480468749994,1.9207988463077696,6.472198442773433,-5.703834513935463,-1.551984600082621,8.76537147209939
311,1790597521.7783737,1.3642031250000002,-1.2941248535156251,-0.3144181640624994,1.9064805492422516,6.499632934454639,-5.730630531545846,-1.558313785038389,8.804186301094129
312,1790597521.802645,1.3642031250000002,-1.3324451660156251,-0.3000480468749994,1.9304116444768133,6.532899048158309,-5.763052663722586,-1.565961063209432,8.85120217991634
313,1790597521.822645,1.3594130859375002,-1.342025244140625,-0.2952580078124994,1.9329286032614417,6.560284603469408,-5.789773361816627,-1.572210301242208,8.889918722409744
314,1790597521.8332539,1.3594130859375002,-1.308494970703125,-0.3335783203124994,1.9160995596147914,6.5747954638712445,-5.803930103059646,-1.5755282976676428,8.91043374082852
315,1790597521.8532538,1.3642031250000002,-1.3276551269531252,-0.3239982421874994,1.9309824347531683,6.602133448066981,-5.830569438859098,-1.5818315016031381,8.949072407065803
316,1790597521.8776789,1.3785732421875,-1.346815283203125,-0.33836835937499943,1.9567495337347083,6.635536475499377,-5.863122095888021,-1.5895880097456763,8.99629563040812
317,1790597521.8976789,1.3594130859375002,-1.342025244140625,-0.3287882812499994,1.9383336730336576,6.66289218118939,-5.88981221946869,-1.5959873252072314,9.034998380795622
318,1790597521.9225907,1.34504296875,-1.337235205078125,-0.2904679687499994,1.9187783150624513,6.696908178278799,-5.923076452309056,-1.6039196512314655,9.083169714136249
319,1790597521.9425907,1.354623046875,-1.298914892578125,-0.2904679687499994,1.8990932410379173,6.7241703489826525,-5.94973034178648,-1.6102041106934284,9.121760537319874
320,1790597522.0284357,1.3642031250000002,-1.2845447753906252,-0.3239982421874994,1.901599407652334,6.8411389019338875,-6.063608091707392,-1.6370885949001537,9.287011555550295
321,1790597522.0484357,1.3737832031250001,-1.3228650878906252,-0.3239982421874994,1.9344837013758598,6.868409295906114,-6.0900705458551645,-1.6433845543328125,9.325487563822161
322,1790597522.0284357,1.38336328125,-1.3324451660156251,-0.3239982421874994,1.947839559432389,6.868409295906114,-6.0900705458551645,-1.6433845543328125,9.325487563822161
323,1790597522.0484357,1.3594130859375002,-1.3324451660156251,-0.3144181640624994,1.9293192686927056,6.895741674593323,-6.116572518007867,-1.6497172034486782,9.364041833638227
324,1790597522.042456,1.3689931640625002,-1.3324451660156251,-0.3096281249999994,1.9353092723074723,6.895741674593323,-6.116572518007867,-1.6497172034486782,9.364041833638227
325,1790597522.062456,1.38336328125,-1.3276551269531252,-0.33836835937499943,1.947011877380776,6.923096563576709,-6.143108071455352,-1.6560601944942424,9.402636767097611
326,1790597522.0730984,1.3737832031250001,-1.3228650878906252,-0.3287882812499994,1.935291725770455,6.93767012156458,-6.157225929528765,-1.6594616969348526,9.42319006422481
327,1790597522.0930984,1.34504296875,-1.337235205078125,-0.2904679687499994,1.9187783150624513,6.965027622638646,-6.183767423579787,-1.6658240153599975,9.461794702021178
328,1790597522.1176395,1.38336328125,-1.3228650878906252,-0.2856779296874994,1.935272045005863,6.998583345505344,-6.216346328636336,-1.6735203556062515,9.509143016179937
329,1790597522.1376395,1.38336328125,-1.3228650878906252,-0.3287882812499994,1.9421039474132087,7.025977940568458,-6.242882774206151,-1.6797734144257759,9.547753142894202
330,1790597522.1632726,1.3642031250000002,-1.308494970703125,-0.35752851562499943,1.9238076551724586,7.061103969609637,-6.276850523984842,-1.6879049763914564,9.59724257166676
331,1790597522.1832726,1.3642031250000002,-1.3276551269531252,-0.3239982421874994,1.9309824347531683,7.088492313841828,-6.30333230815962,-1.6943201536318488,9.635841543606173
332,1790597522.1928697,1.3642031250000002,-1.3180750488281252,-0.2808878906249994,1.9176209238801063,7.101627201849187,-6.31603792390516,-1.6973721324777142,9.654352185743198
333,1790597522.2128696,1.392943359375,-1.2845447753906252,-0.3144181640624994,1.9207303986511732,7.129029710990563,-6.342448241741773,-1.7036712853481708,9.692894829094113
334,1790597522.2384384,1.392943359375,-1.298914892578125,-0.3431583984374994,1.9352593591057357,7.164149612301275,-6.376101771649178,-1.7117774015970244,9.742170976865607
335,1790597522.2584383,1.3689931640625002,-1.3180750488281252,-0.3287882812499994,1.9286176011538545,7.191642828169043,-6.402402615389947,-1.7181748679218503,9.78072649112864
336,1790597522.2825437,1.3594130859375002,-1.3132850097656252,-0.3144181640624994,1.9161368001751984,7.22474166740335,-6.434104447554512,-1.725891774751448,9.827171242067047
337,1790597522.3025436,1.3737832031250001,-1.298914892578125,-0.3431583984374994,1.9215144739938383,7.252184021042724,-6.460380084149097,-1.7323203955098903,9.865678783511921
338,1790597522.327499,1.3689931640625002,-1.3611854003906252,-0.33836835937499943,1.95996457215751,7.286422888970247,-6.493226791563902,-1.7404141677857463,9.913777996254613
339,1790597522.347499,1.34504296875,-1.3516053222656252,-0.2665177734374994,1.925359514095656,7.31381807632458,-6.519671745845823,-1.746835120405162,9.952360899054728
340,1790597522.358366,1.354623046875,-1.303704931640625,-0.2856779296874994,1.9016471879451065,7.328670944897783,-6.534049594982396,-1.750250714801748,9.973294314966475
341,1790597522.378366,1.3689931640625002,-1.3180750488281252,-0.34794843749999943,1.9319762505661946,7.355991459068835,-6.560474258016347,-1.7565443405636978,10.011787096036109
342,1790597522.402955,1.3737832031250001,-1.3563953613281252,-0.3335783203124994,1.959174101810084,7.389600555513607,-6.593021189209719,-1.764378264577773,10.059182642338781
343,1790597522.422955,1.38336328125,-1.303704931640625,-0.2856779296874994,1.92222589624773,7.416972379317753,-6.6195131014068656,-1.7707232384674474,10.09776677104934
344,1790597522.433284,1.3977333984375002,-1.2845447753906252,-0.2856779296874994,1.9197202433171172,7.431142599605908,-6.633147661380898,-1.7739511912567487,10.117679134184963
345,1790597522.453284,1.3737832031250001,-1.260594580078125,-0.2952580078124994,1.8877384023450219,7.45862190812703,-6.65940578856501,-1.7801353159932245,10.156161084209524
346,1790597522.4929235,1.3689931640625002,-1.260594580078125,-0.3144181640624994,1.8873525797965343,7.513069893552406,-6.711137705175716,-1.7923661255130963,10.23221211914225
347,1790597522.5129235,1.354623046875,-1.2701746582031253,-0.3096281249999994,1.8826090505618394,7.540506150912285,-6.737119865416962,-1.7985475605539025,10.270481508698424
348,1790597522.5220327,1.3498330078125,-1.260594580078125,-0.2952580078124994,1.8703810134515082,7.552975598771465,-6.748907706641917,-1.8013539200056303,10.287860398232835
349,1790597522.5420327,1.3498330078125,-1.2510145019531251,-0.2952580078124994,1.8639376932329503,7.580295968056797,-6.774673955147938,-1.8074770090851444,10.325893050979625
350,1790597522.5683548,1.3354628906250001,-1.2797547363281252,-0.3000480468749994,1.87383621157887,7.616160233621895,-6.808494578832082,-1.8155020855056903,10.375815291179045
351,1790597522.5883548,1.3258828125000002,-1.298914892578125,-0.3048380859374994,1.8809761798816569,7.643314964183512,-6.834205421833783,-1.8215923601954345,10.413684560051559
352,1790597522.6129973,1.3163027343750002,-1.2893348144531251,-0.3192082031249994,1.870008296566159,7.676637520690563,-6.865916103013815,-1.829124093642307,10.4602706708594
353,1790597522.6329973,1.3258828125000002,-1.308494970703125,-0.3048380859374994,1.8876044552491185,7.703588871421507,-6.891688943273374,-1.8352560439062908,10.498038994851388
354,1790597522.642401,1.3306728515625001,-1.3132850097656252,-0.3000480468749994,1.8935249101065652,7.716233800874152,-6.903838345220633,-1.8381333389151338,10.515796790463517
355,1790597522.662401,1.3210927734375002,-1.298914892578125,-0.3000480468749994,1.8768310644870332,7.743070901662859,-6.929720284712083,-1.8442350453468765,10.553547892297347
356,1790597522.6882226,1.3210927734375002,-1.2941248535156251,-0.3048380859374994,1.8742922694056183,7.7776394714491905,-6.963145461758684,-1.8521026349238388,10.60223347411982
357,1790597522.7082226,1.30672265625,-1.260594580078125,-0.2904679687499994,1.8387480622829084,7.804339779513984,-6.988983361060394,-1.8581753051350458,10.639850716993033
358,1790597522.7172809,1.2827724609375002,-1.265384619140625,-0.2713078124999994,1.8221721515874536,7.816377961986664,-7.000646386669349,-1.8608947864047165,10.656816770588
359,1790597522.7372808,1.3019326171875,-1.265384619140625,-0.2904679687499994,1.8386403712863777,7.842847591608971,-7.0263310395595395,-1.866841216938573,10.694142431814958
