imu_index,t_imu,ax,ay,az,mag,vx,vy,vz,velocity
0,1791341329.2200909,-0.04037318638392865,-0.02165293168048469,-0.04922009526466752,0.06724181293669977,0.0,0.0,0.0,0.0
1,1791341329.2400908,0.08416782924107136,-0.007282814492984689,-0.06359021245216753,0.10574014368159888,1.421613808862633e-05,-7.101103943135297e-05,-0.00023197086181283964,0.00024301264788785708
2,1791341329.2501895,0.08895786830357136,-0.007282814492984689,-0.020479860889667523,0.09157492245213701,0.00015144341419133858,-0.00011252066017247388,-0.0003952064479125116,0.00043793166491954365
3,1791341329.2701895,-0.0068429129464286495,0.04540761519451531,0.04658068598533248,0.0654097644248145,0.0005056219433895664,-0.00012521014889355181,-0.0006308434365534364,0.0008181042552545102
4,1791341329.2958121,0.017107282366071352,0.054987693319515314,0.08011095942283249,0.09866139744702726,0.0009110338261707657,5.390069222229672e-05,-0.0006439803559306815,0.0011169595408402199
5,1791341329.315812,0.03626743861607135,0.021457419882015313,0.07532092036033249,0.08630752583460587,0.0012600768771657894,0.0002874039933492466,-0.000419548789049454,0.0013588288995137854
6,1791341329.3404782,0.10332798549107136,-0.01686289261798469,0.032210568797832476,0.1095378951567385,0.0018842271515373,0.0005406872790196306,1.4653296150518005e-05,0.001960323802684672
7,1791341329.3604782,0.08895786830357136,-0.04560312699298469,0.013050412547832478,0.10081399105442883,0.002602823257503728,0.0006215524907007494,0.00038179902841973466,0.0027031068988482266
8,1791341329.370055,-0.0068429129464286495,-0.031233009805484692,0.0034703344228324776,0.032161616565530404,0.0029542820074569902,0.000599277477588543,0.0005430987733700581,0.003062984158033641
9,1791341329.390055,-0.054743303571428654,-0.0935035176179847,0.008260373485332477,0.10866448758894304,0.003485784925574667,0.0003726319993396616,0.0008470215423153497,0.003606521405376895
10,1791341329.4156651,-0.059533342633928656,-0.0982935566804847,0.0034703344228324776,0.11496906275635503,0.0038447925956729026,-0.0002424540789046309,0.0012003536315260488,0.004035103830737995
11,1791341329.4356651,-0.059533342633928656,-0.03602304886798469,-0.0013197046396675228,0.06959612457062476,0.0039045010114785125,-0.0008522211896385265,0.0014381204120064038,0.004247304960105302
12,1791341329.4756427,-0.04995326450892865,0.021457419882015313,-0.0013197046396675228,0.05438282011286338,0.0036776729695754923,-0.0019319168476323212,0.001834183686142367,0.0045411244171265144
13,1791341329.4956427,-0.0068429129464286495,0.03582753706951531,-0.010899782764667524,0.038068926099600414,0.0034960228240810205,-0.0023051173909033095,0.001984275727791235,0.004633906768186187
14,1791341329.4901645,0.03147739955357135,0.016667380819515312,-0.010899782764667524,0.037248268823595866,0.0034960228240810205,-0.0023051173909033095,0.001984275727791235,0.004633906768186187
15,1791341329.5101645,-0.11701381138392866,-0.0024927754304846887,0.04179064692283248,0.12427752875789456,0.003267885039046726,-0.002486561939131869,0.0021112590603870013,0.0046173019963644205
16,1791341329.5357533,-0.20802455357142866,0.04061757613201531,0.06574084223533248,0.22191408408941315,0.0023959805325067737,-0.0026107195971394512,0.0024557260848323027,0.004311284046634507
17,1791341329.5557532,-0.08348353794642865,0.04061757613201531,0.027420529735332478,0.09680482451747488,0.0013794657424557434,-0.0025713515965091758,0.0028243159852457153,0.004060977167135237
18,1791341329.5806172,0.045847516741071355,-0.0024927754304846887,-0.0013197046396675228,0.04593419576966169,0.0002351114732806023,-0.002458655663600107,0.003262484761073147,0.004091952088338226
19,1791341329.6006172,0.007527204241071351,0.011877341757015311,0.013050412547832478,0.019184455128263753,-0.00046724433868508813,-0.002367526372542485,0.0035796655294632455,0.004317117522090963
20,1791341329.6251678,-0.10264369419642866,0.054987693319515314,0.032210568797832476,0.12081761095622993,-0.0013752237838955657,-0.0021493230006952475,0.003993952524372444,0.004739460579438411
21,1791341329.6451678,-0.11222377232142866,0.031037498007015312,0.04658068598533248,0.12540837955835124,-0.0023262501594848214,-0.0018691915855572868,0.0043990100951785665,0.00531569438601433
22,1791341329.655382,0.06500767299107135,-0.031233009805484692,0.01784045161033248,0.0742952230152396,-0.0027752602122543793,-0.0017477365204322233,0.004624195533366741,0.005669200695105411
23,1791341329.675382,0.08895786830357136,-0.04560312699298469,0.04658068598533248,0.11028557399550488,-0.0032916291461596355,-0.0016608449455830941,0.005095618114615058,0.006289558994008215
24,1791341329.7009308,-0.054743303571428654,0.05019765425701531,0.06574084223533248,0.09918917338415174,-0.0037867574968203374,-0.0015576915040694161,0.005822730415399472,0.0071182950663760194
25,1791341329.7209308,-0.08827357700892866,0.06456777144451531,0.03700060786033248,0.11545677324997665,-0.004330735639419329,-0.001316906350186889,0.006460655070427753,0.007888572586516722
26,1791341329.7454414,-0.04995326450892865,-0.02165293168048469,-0.006109743702167523,0.05478601147706323,-0.005151500932109595,-0.0009871896641504294,0.007181969305555182,0.008893435128928992
27,1791341329.7654414,-0.030793108258928652,-0.0743433613679847,-0.015689821827167525,0.08198366547492934,-0.005841883638640987,-0.000902500324201715,0.007649556365944026,0.009667358681582071
28,1791341329.7752013,-0.07869349888392865,-0.0024927754304846887,0.013050412547832478,0.07980723002090934,-0.006208395210499364,-0.0009236149946756237,0.007841577706640209,0.010044280794433109
29,1791341329.7952013,-0.09306361607142866,0.0022972636320153115,0.022630490672832477,0.09580320017921329,-0.007104427433679379,-0.0009606861949710191,0.008229565417938402,0.010914282115363874
30,1791341329.8206427,-0.04995326450892865,-0.031233009805484692,0.027420529735332478,0.06498242060415067,-0.008346163334321772,-0.0010559822932009204,0.008744583984172013,0.012134302207501207
31,1791341329.8406427,-0.04037318638392865,-0.040813087930484694,0.04179064692283248,0.0710081720328144,-0.009311382511536355,-0.0012277283201427222,0.009192536761726457,0.013141989697907919
32,1791341329.8652484,-0.12180385044642865,0.03582753706951531,0.06095080317283248,0.1408360422741878,-0.010620042626348114,-0.0014165314323470275,0.009850583616289148,0.014554238704438727
33,1791341329.8852484,-0.11222377232142866,0.04540761519451531,0.07532092036033249,0.14258074075986765,-0.011875230106020245,-0.0014251218959098822,0.01050963211237879,0.015921822434215086
34,1791341329.8953931,-0.01642299107142865,0.031037498007015312,0.06574084223533248,0.07453119652922915,-0.012514286265738028,-0.0013706621635815215,0.010901108579176658,0.01665293498943992
35,1791341329.915393,-0.01642299107142865,0.03582753706951531,0.04179064692283248,0.05744375700133624,-0.013634452612928697,-0.0011791038901624064,0.011718421773301216,0.018016936279372647
36,1791341329.9401736,-0.10264369419642866,0.054987693319515314,0.01784045161033248,0.11780346382238363,-0.015035471299963372,-0.0008085763429741051,0.012690020450139939,0.019691516242773422
37,1791341329.9601736,-0.11222377232142866,-0.0024927754304846887,0.01784045161033248,0.11366033044584774,-0.01631890225715424,-0.00047564388036921165,0.01341008011480625,0.021127305949055795
38,1791341329.9849925,0.041057477678571354,-0.05997324418048469,-0.020479860889667523,0.07551113290713204,-0.01780514071442233,-0.00024074066998559744,0.014164688987310261,0.02275344822302311
39,1791341330.0049925,0.05542759486607135,-0.031233009805484692,-0.015689821827167525,0.06552777795038608,-0.01867842904933484,-0.00021665031531030495,0.01462731237907576,0.023725280115210922
40,1791341330.0301375,-0.09785365513392866,0.02624745894451531,0.04179064692283248,0.10959345370204694,-0.019691692851493508,-0.00020030792282796088,0.015170925178971074,0.024858798470711464
41,1791341330.0501375,-0.12659388950892866,0.04061757613201531,0.06574084223533248,0.14831607697633378,-0.02071340784461149,-8.896175589709744e-05,0.015699746179693937,0.025991060171490492
42,1791341330.0902665,0.041057477678571354,-0.03602304886798469,0.027420529735332478,0.061116789624765556,-0.022713360671338896,0.00011476512558830185,0.01688202587237697,0.028300401438424532
43,1791341330.1102664,0.08895786830357136,-0.04560312699298469,0.027420529735332478,0.10365825088057432,-0.02336558574195888,7.863160084657146e-05,0.01746514119213892,0.029171697531251616
44,1791341330.105927,0.050637555803571356,0.02624745894451531,0.03700060786033248,0.06798629377189139,-0.02336558574195888,7.863160084657146e-05,0.01746514119213892,0.029171697531251616
45,1791341330.125927,-0.030793108258928652,0.03582753706951531,0.032210568797832476,0.05717821850139695,-0.023629067716554885,0.0001209590812161541,0.018072395548749367,0.029748259665454732
46,1791341330.1357555,0.02668736049107135,-0.02165293168048469,-0.010899782764667524,0.0360537088890599,-0.023742154483828153,0.000149088589192241,0.01834176359664523,0.0300022068984368
47,1791341330.1557555,0.05542759486607135,-0.0743433613679847,0.01784045161033248,0.09443217336156524,-0.023814582718316133,5.374849614597786e-05,0.01881808708891583,0.030352226287941056
48,1791341330.180489,0.01231724330357135,-0.04560312699298469,0.022630490672832477,0.05237841905050991,-0.023765049841253893,-0.00026897340403244085,0.019393861432044284,0.030675263680931795
49,1791341330.200489,-0.0068429129464286495,-0.02165293168048469,0.03700060786033248,0.04341336073130293,-0.023722793166673847,-0.0005916722398711385,0.019879052119907578,0.030956383911145427
50,1791341330.2259984,0.050637555803571356,-0.03602304886798469,0.01784045161033248,0.0646537224076513,-0.023593192656841917,-0.0010518715618319896,0.020509993000035417,0.0312794658903721
51,1791341330.2459984,0.03626743861607135,-0.031233009805484692,0.013050412547832478,0.049609890878217315,-0.02337646672575553,-0.0014594422675941585,0.020976801808206106,0.031442254728526624
52,1791341330.2704773,-0.054743303571428654,-0.031233009805484692,0.01784045161033248,0.06550276254543554,-0.02318491505109473,-0.0019981429107331357,0.021519161683868887,0.03169553881218432
53,1791341330.2904773,-0.04037318638392865,-0.031233009805484692,0.0034703344228324776,0.05116188328538387,-0.023194561870105258,-0.0024659557847537808,0.021927783010577018,0.03201400171858325
54,1791341330.300053,-0.01642299107142865,-0.040813087930484694,-0.006109743702167523,0.044415670098061966,-0.023239277108198557,-0.0027080799793290627,0.022092181478166443,0.03217859816944058
55,1791341330.3200529,-0.04037318638392865,-0.031233009805484692,0.0034703344228324776,0.05116188328538387,-0.02340385617706425,-0.00324600251136017,0.022380086032947968,0.03254451208887019
56,1791341330.345161,-0.09785365513392866,0.021457419882015313,0.013050412547832478,0.10102510558634212,-0.02383977370692703,-0.003838425562382815,0.02271841794972576,0.033154107367472055
57,1791341330.365161,-0.02600306919642865,0.031037498007015312,-0.010899782764667524,0.041931982477420256,-0.02432070604836001,-0.004160796155302271,0.022950718864453108,0.033697840639006486
58,1791341330.390501,0.08895786830357136,-0.01686289261798469,-0.020479860889667523,0.09282932824609559,-0.02471900229325852,-0.004481035673213912,0.02314125916390104,0.03415591648264718
59,1791341330.410501,0.03147739955357135,-0.01686289261798469,0.027420529735332478,0.045022986141160265,-0.024805555888129487,-0.004746464451571431,0.02327949856062766,0.03434791960138797
60,1791341330.4209073,-0.04995326450892865,0.03582753706951531,0.07532092036033249,0.09722233329587412,-0.024858255468572055,-0.004849053332137518,0.023420823720966134,0.034496103648488714
61,1791341330.4409072,0.007527204241071351,0.007087302694515312,0.06095080317283248,0.06182142889471136,-0.025007986175929784,-0.004952273527629019,0.023856104299407675,0.0349147260910374
62,1791341330.466023,0.06979771205357135,-0.05997324418048469,0.04179064692283248,0.10106912879645372,-0.02502215627923662,-0.005162072945016105,0.024514263242045725,0.03540768849067279
63,1791341330.486023,0.021897321428571353,-0.04560312699298469,0.05137072504783248,0.07209777575781698,-0.024894205121996547,-0.0054624434530794646,0.025099490608602396,0.03577071659815399
64,1791341330.5100536,0.02668736049107135,-0.03602304886798469,0.032210568797832476,0.055203224561664044,-0.024675963711398973,-0.0059163283578107,0.025847824988872368,0.03622176394074547
65,1791341330.5300536,0.021897321428571353,-0.0935035176179847,0.01784045161033248,0.09767641581437947,-0.02444869663654276,-0.006431708989296824,0.026452294268247075,0.036590019401506683
66,1791341330.5406003,-0.01163295200892865,-0.0887134785554847,0.04658068598533248,0.10087203357085962,-0.024338708561133522,-0.006806854257942852,0.02677419546360152,0.03681797851642332
67,1791341330.5606003,0.002737165178571351,-0.007282814492984689,0.08490099848533249,0.08525673582750186,-0.02417476470854068,-0.0075555375149976775,0.027490283728672255,0.037379420746404615
68,1791341330.5860212,0.03626743861607135,0.011877341757015311,0.06574084223533248,0.0760148451869391,-0.023923276576526323,-0.008355647234849455,0.02855114682527562,0.038174703507803
69,1791341330.6060212,0.03147739955357135,-0.040813087930484694,0.013050412547832478,0.05316811165299434,-0.023653479160272183,-0.00893411644926386,0.02937877553000038,0.038761036683202715
70,1791341330.6302924,-0.07390345982142865,-0.031233009805484692,0.06574084223533248,0.10372598812688118,-0.02345240528748431,-0.009661972939305664,0.030375925788950986,0.03957355054053344
71,1791341330.6502924,-0.20802455357142866,-0.05039316605548469,0.1902818578603325,0.2863928621744397,-0.023734461446282915,-0.010294214780754351,0.03145837996605822,0.04072990532994503
72,1791341330.6608503,-0.17928431919642865,-0.0024927754304846887,0.21902209223533248,0.28305433740929714,-0.024167710410737637,-0.010619785788016499,0.03226819274627098,0.04169045861814341
73,1791341330.6808503,-0.03558314732142865,-0.031233009805484692,0.01784045161033248,0.050595879164894574,-0.025187615219712738,-0.011194598659160762,0.03392742140484994,0.04371275469217489
74,1791341330.7055354,-0.07390345982142865,-0.21804453324298467,-0.058800173389667525,0.2376186024733407,-0.026460319337507074,-0.012259155042167645,0.03559231852684379,0.046013568867314156
75,1791341330.7255354,-0.18886439732142865,-0.31863535355548467,0.03700060786033248,0.37224628150332045,-0.02773094726279201,-0.013797304968321914,0.036706188320093314,0.04802827627003479
76,1791341330.750251,-0.12659388950892866,-0.15577402543048469,0.08490099848533249,0.21794434932712192,-0.029650393004266206,-0.01629240388038572,0.03810218159972391,0.0509545333819022
77,1791341330.770251,-0.06911342075892865,-0.040813087930484694,0.06574084223533248,0.10375081403648388,-0.03126419129785682,-0.01830346897220977,0.03928833947079913,0.05344193346332433
78,1791341330.7806993,-0.02600306919642865,-0.21325449418048467,0.08011095942283249,0.22928454966581446,-0.03205533271803661,-0.019395573247537098,0.039929344323089866,0.05475477290005387
79,1791341330.8006992,-0.059533342633928656,-0.32821543168048467,0.09927111567283248,0.3480292270561548,-0.03347087988957818,-0.02198470774885437,0.04124137711074498,0.05748459238244442
80,1791341330.8257542,-0.07869349888392865,-0.23241465043048468,0.12801135004783248,0.2767600806517948,-0.03523794973068486,-0.02579520149426232,0.04306556734296413,0.061333095567753994
81,1791341330.8457541,-0.06911342075892865,-0.01207285355548469,0.24776232661033248,0.2575045421139945,-0.03665863178500888,-0.028747384750702706,0.04486695587691684,0.06467852150455358
82,1791341330.8706837,-0.054743303571428654,0.06935781050701531,0.3770933812978325,0.3873070531024101,-0.038395429285278365,-0.03176813340812233,0.04794383902828177,0.06915225947868128
83,1791341330.8906837,0.03147739955357135,0.03582753706951531,0.3914634984853325,0.3943578447825003,-0.039614688065191625,-0.03367026968954613,0.051194866732107054,0.07296523111172476
84,1791341330.9146526,0.07937779017857136,0.09809804488201532,0.3579332250478325,0.37952635425810616,-0.04065744240133043,-0.03536718520856175,0.055853794042544536,0.07761128604230956
85,1791341330.9346526,0.09374790736607136,0.20826894331951534,0.3244029516103325,0.39673908037958744,-0.04113732833904329,-0.036111173673706205,0.06018164475874309,0.08135187160007061
86,1791341330.9453683,0.08416782924107136,0.25616933394451535,0.29087267817283247,0.3966281205867367,-0.04121289016957748,-0.03607674051005952,0.06264711299045969,0.08321474801980265
87,1791341330.9653683,0.06500767299107135,0.37592031050701535,0.29087267817283247,0.47973846240096396,-0.041109002371783894,-0.03507398037487559,0.06743107801507675,0.08641229344031935
88,1791341330.9912002,0.07458775111607135,0.4813011698820154,0.3196129125478325,0.5825517681834448,-0.040724496756652726,-0.03231231483768021,0.07386594615243483,0.09032578993425072
89,1791341331.0112002,0.11769810267857135,0.45256093550701537,0.2956627172353325,0.5532455929188236,-0.04018302532112434,-0.029094072472656107,0.07902364183309475,0.09330528680395088
90,1791341331.035909,0.18954868861607135,0.31843984175701534,0.24776232661033248,0.4457788786625836,-0.03904503756652437,-0.02428573804967239,0.0854469070183296,0.09703342697332538
91,1791341331.055909,0.21828892299107136,0.27532949019451536,0.1615416234853325,0.38671963770883233,-0.037650329335052156,-0.020086879738884022,0.09048016375736972,0.100038442961907
92,1791341331.0655632,0.21349888392857136,0.35676015425701535,0.11843127192283248,0.43230261076414384,-0.03676542502633273,-0.017906378982060853,0.0927480667784564,0.1013633995915542
93,1791341331.0855632,0.25181919642857137,0.3423900370695153,0.05616076411033248,0.4287165457500467,-0.03450924294540446,-0.013018066037572898,0.09700344767792336,0.1037787394095109
94,1791341331.1106346,0.2901395089285714,0.35676015425701535,-0.054010134327167524,0.46300738322065726,-0.031086128432082975,-0.006494748970481766,0.10154174794494178,0.10639199086773224
95,1791341331.1306345,0.25660923549107134,0.29927968550701534,-0.10191052495216753,0.40718839005123475,-0.027944917853769253,-0.0010874684030953794,0.10438512192929246,0.10806643651742616
96,1791341331.1555166,0.12727818080357137,0.2513792948820153,-0.15460095463966753,0.3213918797660301,-0.023906727428960484,0.005658288589993998,0.10691326917958141,0.10969956687606337
97,1791341331.1755166,0.25660923549107134,0.15557851363201533,-0.29351208745216756,0.4197645996553165,-0.02057191622184859,0.010877574460974516,0.1079683861365895,0.11044771508787538
98,1791341331.185927,0.6446023995535713,-0.1893042988679847,-0.26477185307716755,0.7221166839659907,-0.018392825336328137,0.013160455532985095,0.10799931743253545,0.11034195113184245
99,1791341331.205927,0.6493924386160714,-0.44796640824298467,-0.22645154057716754,0.8207708221395428,-0.012893390094142422,0.015932484090557617,0.10731299370085494,0.10925274447104445
100,1791341331.2301874,0.6302322823660714,-0.22762461136798467,-0.22166150151466754,0.7057899933340728,-0.004894743049051626,0.017561383976981298,0.10578998455948857,0.10734934349962297
101,1791341331.2501874,0.6254422433035713,-0.0935035176179847,-0.14981091557716752,0.6498955438696358,0.002593628868987263,0.01822110514719658,0.10416556398531633,0.10577901636843798
102,1791341331.2758348,0.8553641183035714,-0.10787363480548469,-0.19771130620216754,0.884519223401934,0.013604483883185711,0.01855285146945968,0.10172644203733257,0.10429553820250641
103,1791341331.2958348,0.9559549386160714,-0.3377955098054847,-0.21687146245216754,1.0368167062385454,0.023619834898720764,0.018104241311080148,0.09948783420237273,0.10384358096854833
104,1791341331.305881,0.9655350167410715,-0.29947519730548466,-0.18813122807716753,1.0282687495650946,0.02934382860960397,0.017432536872051773,0.09822686862129644,0.10398784226250052
105,1791341331.325881,1.0421756417410715,-0.3569556660554847,-0.17376111088966753,1.1152310699694212,0.04204138019067207,0.015311251299926103,0.09555025853181079,0.10550717497024553
106,1791341331.349667,1.1379764229910714,-0.5102369160554847,-0.19292126713966753,1.2619630204978831,0.05876674087747253,0.011619792309294764,0.09219030480034664,0.1099436296738104
107,1791341331.369667,1.2050369698660715,-0.5964576191804847,-0.33662243901466754,1.3860701485388967,0.07423492986398322,0.007321453775977357,0.08899461962285454,0.11612265420287658
108,1791341331.3960574,1.1523465401785713,-0.8359595723054847,-0.44200329838966756,1.490670275741097,0.09624979380863607,-0.0003346627128069787,0.08386925960804915,0.12766435490981282
109,1791341331.4160573,0.9751150948660714,-0.9030201191804847,-0.6336048608896676,1.4723280557074974,0.1136224108694811,-0.00787500953014612,0.07895421949862949,0.13858512475562026
110,1791341331.4258964,1.1858768136160713,-0.9221802754304848,-0.7581458765146676,1.6827077724731185,0.12248161002408407,-0.012374952603685839,0.07587193084574453,0.1446078633280249
111,1791341331.4458964,1.2385672433035715,-1.2143726582429848,-0.7629359155771676,1.8949461682460302,0.1414252505234186,-0.02335480780716448,0.0682647133565636,0.15876592714740495
112,1791341331.4700685,1.3583182198660715,-1.3149634785554847,-0.8970570093271676,2.0925746376982293,0.16559422169398236,-0.03922001149243072,0.05744030384062663,0.17960802895529387
113,1791341331.4900684,1.2577273995535714,-1.3580738301179847,-0.8683167749521675,2.044557840048174,0.18651609244949574,-0.05438740951505404,0.04717954209285192,0.199930368499831
114,1791341331.5160096,1.1810867745535714,-1.4682447285554847,-0.8683167749521675,2.074772896878032,0.21432735905116415,-0.07660829711049379,0.0324882920098084,0.22991419517230968
115,1791341331.5360096,1.2529373604910714,-1.6406861348054849,-0.9593275171396676,2.276403370977704,0.23620392849923777,-0.09583368675520902,0.02011922215887461,0.25569742755031133
116,1791341331.5460353,1.2433572823660715,-1.8083375019929848,-0.9210072046396676,2.3799739754302243,0.2474024509876003,-0.10661894249406738,0.013434950494661153,0.26973333043585696
117,1791341331.5660353,1.1762967354910714,-1.9089283223054847,-0.8731068140146676,2.4062412302813336,0.27002052261358783,-0.13048268087436077,-0.0005902954180236376,0.2998952501947237
118,1791341331.5908253,1.2481473214285714,-1.9616187519929849,-0.9593275171396676,2.5151797449290165,0.2983580833195935,-0.1628213210615529,-0.01877394715064383,0.34041267538971864
119,1791341331.6108253,1.2816775948660715,-2.2825513691804846,-1.0694984155771676,2.8278198441646625,0.3215855370494747,-0.19136406396513886,-0.034286774863476255,0.37578324277060504
120,1791341331.635932,1.2625174386160714,-2.541213478555485,-0.9976478296396676,3.0078260286104466,0.35116074943908737,-0.2309033031650896,-0.05473193276334931,0.42382283070073345
121,1791341331.655932,1.1619266183035715,-2.771135353555485,-0.7389857202646676,3.0944085878892182,0.3748230929502255,-0.265644244877201,-0.07118050757558952,0.46489340767951337
122,1791341331.6805885,1.1858768136160713,-2.6418042988679846,-0.45158337651466757,2.9307612179319484,0.4039606024989433,-0.31205923120330115,-0.0906186780980179,0.5184369556375555
123,1791341331.7005885,1.3391580636160714,-2.5364234394929848,-0.6671351343271675,2.9448017711233296,0.42783764091041915,-0.35182838726538734,-0.10569882371652384,0.5639153326525295
124,1791341331.7258024,1.3056277901785713,-2.6226441426179847,-0.8347865015146676,3.0462755503082946,0.45842555020951276,-0.40420082178581046,-0.1246988241526358,0.6237644476581437
125,1791341331.7458024,1.0900760323660714,-2.933996681680485,-0.8012562280771676,3.2308843723481506,0.4826423615162404,-0.4478467952223789,-0.13996323937547583,0.6731271124367265
126,1791341331.7858741,1.0469656808035714,-3.0010572285554846,-0.7677259546396675,3.2698447619532343,0.5303074225719462,-0.5400151580744548,-0.17067468809336486,0.7758686632032812
127,1791341331.805874,1.1619266183035715,-2.799875587930485,-0.8491566187021675,3.1480857258494646,0.5538421296156598,-0.587817951327716,-0.18612900001409446,0.8288033862663503
128,1791341331.8009076,1.0709158761160713,-2.943576759805485,-0.7820960718271676,3.228494884640813,0.5538421296156598,-0.587817951327716,-0.18612900001409446,0.8288033862663503
129,1791341331.8209076,1.0134354073660714,-2.9914771504304847,-0.6815052515146676,3.23116639532739,0.576819350863672,-0.6385809365880885,-0.20156998546506394,0.8838193453103944
130,1791341331.8304498,1.1283963448660714,-2.771135353555485,-0.7294056421396675,3.0796918757592247,0.5876704869627842,-0.6632917243912513,-0.2088417426815748,0.9104544944033572
131,1791341331.8504498,0.9607449776785714,-2.5124732441804847,-0.7294056421396675,2.7870388059089866,0.6101360711895176,-0.7152407105158329,-0.22398497918330665,0.9664391187475391
132,1791341331.8755338,0.7595633370535714,-2.507683205117985,-0.6431849390146676,2.697980427282983,0.6373224157141869,-0.78006648764353,-0.2427110133425164,1.0361429547673582
133,1791341331.8955338,0.7547732979910714,-2.5651636738679846,-0.7102454858896675,2.766621776701482,0.6580186941137937,-0.8316095865489265,-0.2574321967382676,1.0912536103769779
134,1791341331.9203932,0.8649441964285713,-2.440622658242985,-0.8156263452646676,2.7147769260022674,0.682904758972237,-0.8953993215277858,-0.27583044288547154,1.1593883249549064
135,1791341331.9403932,0.8457840401785713,-2.4789429707429846,-0.8443665796396675,2.751992699050859,0.7024890478595615,-0.9464009233796504,-0.29090196963098053,1.2139973336344987
136,1791341331.9500272,0.7835135323660714,-2.569953712930485,-0.9353773218271676,2.844905319372599,0.7116850107597134,-0.9709314201541953,-0.2983589046296913,1.2402505445088605
137,1791341331.9700272,0.7260330636160713,-2.627434181680485,-0.9928577905771676,2.9010861725975174,0.7301763296392296,-1.0220134890317156,-0.31440960392388334,1.2948059480739849
138,1791341331.9950643,0.7499832589285714,-2.5795337910554847,-0.9545374780771676,2.850896572119747,0.7526241239131126,-1.0861462085982518,-0.33514553970234984,1.3632605000991984
139,1791341332.0150642,0.8074637276785714,-2.464572853555485,-0.8635267358896676,2.733458513604233,0.770202189072033,-1.1372580339474294,-0.3519521902622208,1.417899006297592
140,1791341332.0398953,0.8841043526785713,-2.6849146504304846,-0.7725159937021676,2.930390442764768,0.7919029455270085,-1.200787453247711,-0.37273545027467075,1.4859113361512986
141,1791341332.0598953,0.8745242745535714,-2.646594337930485,-0.6288148218271675,2.857387333999135,0.8093977852750571,-1.2522785932243896,-0.38906620201376013,1.5410058271809473
142,1791341332.069938,0.7930936104910714,-2.373562111367985,-0.46116345463966757,2.5446937543481734,0.81812087368354,-1.2780369029640894,-0.39685736344481065,1.5685011495740533
143,1791341332.089938,0.8362039620535714,-2.287341408242985,-0.3509925562021675,2.46056163477496,0.8353310502053106,-1.3286312935778533,-0.4112642854079197,1.6223986532796288
144,1791341332.1147702,0.9367947823660714,-2.2969214863679848,-0.39410290776466755,2.511722492775779,0.8567962472501736,-1.3905649920406562,-0.42785662103055566,1.6884407287644703
145,1791341332.1347702,0.9942752511160714,-2.301711525430485,-0.3988929468271675,2.538813660808906,0.8743877733182425,-1.4398623118148652,-0.4404051106069703,1.7411818160554113
146,1791341332.1603544,0.8793143136160714,-2.2490210957429846,-0.3797327905771675,2.444480833114999,0.8971106495231864,-1.5021968086008466,-0.45554350507049096,1.808016220687854
147,1791341332.1803544,0.7787234933035714,-2.3400318379304847,-0.41326306401466756,2.5005890589279223,0.9146964058627743,-1.5504998735321323,-0.466792028305381,1.8597349731644257
148,1791341332.1898646,0.7116629464285714,-2.363982033242985,-0.41805310307716753,2.503925637835014,0.9228673932913455,-1.5733785917810583,-0.47193149138940516,1.8841241337131525
149,1791341332.2098646,0.7068729073660713,-2.330451759805485,-0.44200329838966756,2.4750841657883047,0.9396011448966037,-1.6213168121340158,-0.4824085599007088,1.9350029807379863
150,1791341332.2650454,0.7212430245535714,-2.301711525430485,-0.5809144312021676,2.4810338617490997,0.9847552425315427,-1.7529113238742386,-0.511212636928753,2.074555219129041
151,1791341332.2850454,0.7116629464285714,-2.1963306660554847,-0.7725159937021676,2.4345663894214864,1.0008155810497283,-1.8001997474882458,-0.522116681490857,2.1248427676465087
152,1791341332.2806218,0.6014920479910714,-2.2394410176179846,-0.6958753687021676,2.420977340652478,1.0008155810497283,-1.8001997474882458,-0.522116681490857,2.1248427676465087
153,1791341332.3006217,0.6014920479910714,-2.2394410176179846,-0.5617542749521676,2.385886967275148,1.0158979210733823,-1.8467395536982025,-0.5337534935550025,2.1742558168524755
154,1791341332.3400304,0.5967020089285714,-2.134060158242985,-0.5138538843271675,2.2747113796914067,1.044700333631859,-1.9376142539016312,-0.5564227712678068,2.2705404828803735
155,1791341332.3600304,0.6446023995535713,-2.0765796894929847,-0.4803236108896676,2.2267479047936907,1.0589869751016188,-1.983131426317891,-0.5676930319000066,2.318736519303634
156,1791341332.3545098,0.5535916573660714,-2.062209572305485,-0.3509925562021675,2.1638779581397416,1.0589869751016188,-1.983131426317891,-0.5676930319000066,2.318736519303634
157,1791341332.3745098,0.4865311104910714,-2.1101099629304847,-0.28393200932716756,2.18400869115824,1.0723969521930452,-2.027553007999237,-0.577848108249014,2.3653572371899028
158,1791341332.399823,0.6062820870535713,-2.167590431680485,-0.34620251713966754,2.2772532646740604,1.0888982219535217,-2.083463316389062,-0.5899693363788934,2.4237538130717406
159,1791341332.419823,0.6589725167410714,-2.114900001992985,-0.44679333745216754,2.259794477965117,1.101878145995888,-2.1274357014799175,-0.599299292443592,2.4696715883854017
160,1791341332.460193,0.5056912667410713,-2.210700783242985,-0.36536267338966755,2.2970440773733056,1.1276744501869793,-2.215977104174618,-0.617765946217088,2.5619990156391794
161,1791341332.480193,0.3667801339285714,-2.363982033242985,-0.25519177495216755,2.4058390557440736,1.1398460960682975,-2.260124305824881,-0.6264731681849299,2.6076578822687235
162,1791341332.4751136,0.4865311104910714,-2.4166724629304848,-0.35578259526466754,2.4907026256973013,1.1398460960682975,-2.260124305824881,-0.6264731681849299,2.6076578822687235
163,1791341332.4951136,0.6062820870535713,-2.2825513691804846,-0.46595349370216754,2.4072248296166676,1.1513672992496493,-2.3051648167127263,-0.6347757305937646,2.653746732102085
164,1791341332.520648,0.5200613839285714,-2.215490822305485,-0.40368298588966756,2.3112384948054006,1.1660272920389916,-2.3626574575122765,-0.6454511993784019,2.712632883030281
165,1791341332.540648,0.5871219308035713,-2.3065015644929847,-0.37494275151466755,2.4094073328419356,1.17744822128172,-2.4077172070649993,-0.6537265236651167,2.758775966029073
166,1791341332.5655074,0.7595633370535714,-2.344821876992985,-0.48511364995216755,2.5120631662421977,1.192025575084919,-2.4639962293873015,-0.6640731631381784,2.8165928985374715
167,1791341332.5855074,0.6350223214285714,-2.421462501992985,-0.41326306401466756,2.537226903008371,1.204086095034579,-2.5096317499215868,-0.6724962195872397,2.8636211358748622
168,1791341332.5950587,0.5727518136160714,-2.268181251992985,-0.38452282963966755,2.3707696299740006,1.209847007540469,-2.5315159899472794,-0.6764868826305867,2.886163108936262
169,1791341332.6150587,0.7787234933035714,-2.225070900430485,-0.46116345463966757,2.402087118083072,1.2221278547847845,-2.5772068154183185,-0.6848582451760422,2.93336364586205
170,1791341332.6401448,0.7835135323660714,-2.105319923867985,-0.5473841577646675,2.3121191261282346,1.238160529933586,-2.6340681505262875,-0.6956810265860576,2.9925455067975535
171,1791341332.6601448,0.6110721261160714,-2.225070900430485,-0.5186439233896676,2.365024561083367,1.2511171688685068,-2.6790965950063947,-0.7046142736014027,3.0396272814565997
172,1791341332.6853428,0.5152713448660714,-2.3256617207429846,-0.45637341557716754,2.4253832053131066,1.2671212503629523,-2.735918440845578,-0.7160236596770816,3.0989572212758327
173,1791341332.7053428,0.4290506417410714,-2.2729712910554847,-0.36536267338966755,2.341788382037819,1.279334990178422,-2.7811516134803584,-0.724953679525241,3.1459593372636605
174,1791341332.7155774,0.5871219308035713,-2.1196900410554846,-0.3988929468271675,2.2353777342562884,1.2854276173788084,-2.8041985001027014,-0.7294246147504413,3.1698444214349433
175,1791341332.7355773,0.6925027901785714,-2.167590431680485,-0.47553357182716754,2.324680746221425,1.2974670984408354,-2.848911019764682,-0.7381626176043323,3.216302056726265
176,1791341332.759921,0.6446023995535713,-2.287341408242985,-0.40847302495216753,2.411284550501412,1.3123645190421058,-2.9033047400475507,-0.7488170393840475,3.272950656960029
177,1791341332.779921,0.3907303292410714,-2.3831421894929847,-0.24082165776466755,2.426938803591631,1.3243208492126328,-2.948295286897751,-0.7572312948772348,3.3195888366398956
178,1791341332.8054817,0.4003104073660714,-2.584323830117985,-0.3893128687021675,2.6439634246521626,1.3388257985396201,-3.0066926075661513,-0.7675799272071345,3.3796203780719964
179,1791341332.8254817,0.5344315011160714,-2.852566017617985,-0.5186439233896676,2.9481759502314535,1.3498749345907102,-3.0536871177943814,-0.7758245814453003,3.4276918084323746
180,1791341332.8351982,0.4865311104910714,-3.0250074238679847,-0.6575550562021676,3.1336498030043387,1.3551817131106205,-3.0773768124843124,-0.7800863699946292,3.4518546125549583
181,1791341332.8551981,0.3667801339285714,-3.125598244180485,-0.6096546655771675,3.205553128857608,1.3657464056418662,-3.128050144818918,-0.7894435977204133,3.5033101699688367
182,1791341332.8806343,0.3092996651785714,-3.1016480488679847,-0.5713343530771675,3.1689603728876543,1.3784570049597336,-3.1947097343008455,-0.8018121032414108,3.5706045216270526
183,1791341332.9006343,0.39552036830357135,-3.005847267617985,-0.46116345463966757,3.0666310325640236,1.3880092252773213,-3.2484221826021966,-0.8116272050706438,3.6245765278012483
184,1791341332.924673,0.3188797433035714,-3.029797462930485,-0.31746228276466754,3.063027792568574,1.399056246190458,-3.3141792054478802,-0.8230585917630009,3.690334352237284
185,1791341332.944673,0.36199009486607137,-2.986687111367985,-0.20250134526466754,3.015351310349556,1.4078898884268127,-3.369706607292903,-0.8319226944012842,3.745553620845362
186,1791341332.9554138,0.39552036830357135,-2.7950855488679847,-0.18334118901466753,2.828878501954962,1.4125325101523318,-3.39971144659937,-0.8362798211526484,3.775268195988615
187,1791341332.9754138,0.35241001674107136,-2.526843361367985,-0.15460095463966753,2.555979586765981,1.4210025360952,-3.455184633296215,-0.8436829968029064,3.8300587537072617
188,1791341333.0001018,0.13206821986607137,-2.421462501992985,0.027420529735332478,2.4252163921406447,1.4307866966526614,-3.5225516732154603,-0.8516862012707069,3.8962661930656384
189,1791341333.0201018,-0.08348353794642865,-2.330451759805485,0.2765025609853325,2.3482820469696524,1.4375968765123424,-3.576067999157929,-0.8567412663638126,3.9482847809460386
190,1791341333.0602777,-0.12180385044642865,-2.095739845742985,0.3052427953603325,2.1213521261539294,1.4486065381923623,-3.6807829209100595,-0.8636197674396723,4.048760664211877
191,1791341333.0802777,0.002737165178571351,-1.8658179707429847,0.22860217036033248,1.8797720990359812,1.4530865521128216,-3.731034186376282,-0.8657295606625552,4.096530763956818
192,1791341333.0903316,-0.04037318638392865,-1.6502662129304848,0.2573424047353325,1.670698560780394,1.4549724382340228,-3.7551573200367114,-0.8662646323549273,4.11929189394427
193,1791341333.1103315,-0.24634486607142866,-1.4251343769929847,0.3291929906728325,1.4832605336336084,1.457731185741751,-3.8005599588804015,-0.8662895769620236,4.161693626647941
194,1791341333.1207175,-0.16970424107142865,-1.3197535176179847,0.2621324437978325,1.3561940476178538,1.4586248295465618,-3.8227390391674554,-0.8658399751263485,4.182176349398893
195,1791341333.1407175,-0.10743373325892866,-1.1473121113679847,0.2525523656728325,1.1796820696020422,1.4596718559501305,-3.8627427693743592,-0.8643320319170951,4.218826079705671
196,1791341333.1649318,-0.3660958426339287,-0.9509205098054847,0.2860826391103325,1.0583568672063794,1.4598893956334642,-3.907721440041061,-0.8618019975458862,4.2596087359537735
197,1791341333.1849318,-0.35172572544642866,-0.7928492207429847,0.20465197504783247,0.8911808479004434,1.4589653912512917,-3.941915031257571,-0.8592896483818113,4.290180978273475
198,1791341333.210058,-0.09785365513392866,-0.5246070332429847,-0.015689821827167525,0.533885800204542,1.457131461777424,-3.980911883445615,-0.8562507050143129,4.324818700303822
199,1791341333.230058,0.18954868861607135,-0.22283457230548467,-0.19292126713966753,0.35043197240750684,1.456028197866776,-4.008417669560534,-0.8545075225627078,4.349438289336283
200,1791341333.2406216,-0.07869349888392865,-0.1701441426179847,-0.15460095463966753,0.24298796515321602,1.4556207105308114,-4.021077846140179,-0.8540002456803109,4.360873205823301
201,1791341333.2606215,-0.36130580357142866,-0.23241465043048468,-0.07317029057716752,0.43578933540446735,1.454304944263225,-4.042055661605607,-0.8535255433112263,4.379694360969853
202,1791341333.285124,-0.24634486607142866,-0.22283457230548467,-0.19771130620216754,0.38656280247132635,1.4518180878873794,-4.064737682110746,-0.8535290042874681,4.399815899085774
203,1791341333.305124,0.03626743861607135,0.054987693319515314,-0.46595349370216754,0.4705864764457511,1.4497775770534524,-4.080726366068324,-0.8545269017828003,4.414113605643005
204,1791341333.330259,0.08416782924107136,0.32801991988201534,-0.5809144312021676,0.672415695606145,1.447824857187473,-4.0970841031251926,-0.8575663760932929,4.429188983840819
205,1791341333.350259,0.10811802455357136,0.5675218730070154,-0.6144447046396676,0.8433936676514034,1.446792571435662,-4.106804281635172,-0.861415149358788,4.438590565930048
206,1791341333.3605034,0.36199009486607137,0.7160130839445153,-0.7150355249521676,1.0747033856392678,1.446704325644479,-4.1100501369570726,-0.8641123283190503,4.442089108751902
207,1791341333.3805034,0.6781326729910714,0.5962621073820153,-0.6958753687021676,1.140015329565368,1.4481180691333129,-4.11346804951135,-0.8707045170016962,4.446998054016694
208,1791341333.4052336,0.8697342354910714,0.5339915995695154,-0.6815052515146676,1.2272058004418487,1.4524748926593338,-4.114964038849997,-0.8801878542420366,4.451667441935619
209,1791341333.4252336,0.8505740792410714,0.7782835917570153,-0.7389857202646676,1.3694164845765828,1.4580503107674034,-4.114023997658649,-0.8888376036068601,4.45433905844916
210,1791341333.450439,1.0134354073660714,1.0129955058195155,-0.8252064233896675,1.6535346567028277,1.467546591784445,-4.109630758453324,-0.9010604230574362,4.455857701485117
211,1791341333.470439,1.6600906808035714,1.0465257792570153,-0.9928577905771676,2.1992916740282866,1.4779617265041802,-4.103578421039797,-0.9120313037749134,4.455954198788411
212,1791341333.4804919,1.7367313058035714,1.0513158183195155,-0.9449573999521675,2.239295662955513,1.484972685732765,-4.09941085558321,-0.9181796593648016,4.455711741923743
213,1791341333.5004919,1.3918484933035715,1.1758568339445155,-0.8108363062021675,1.9943262114561442,1.5015214296935753,-4.089022540523466,-0.9312105207423954,4.454416345008552
214,1791341333.5251937,1.3583182198660715,0.9938353495695154,-0.8491566187021675,1.8851535883210664,1.523989841998222,-4.074096933626612,-0.9479660612493065,4.4519041450125645
215,1791341333.5451937,1.8804324776785715,0.7830736308195154,-1.0838685327646675,2.307379815008934,1.5443108901384224,-4.061159660171476,-0.9623968825174136,4.450182206413964
216,1791341333.5697737,2.2875857979910714,0.6297923808195154,-1.2323597437021676,2.6736487734940866,1.5732230371680347,-4.045040104874459,-0.9817420226007031,4.449853657555392
217,1791341333.5897737,1.9427029854910713,0.6393724589445153,-1.0455482202646675,2.2969682435748413,1.5995646398065164,-4.031987776912144,-0.9985383378904,4.451135954149818
218,1791341333.6005807,1.7223611886160715,0.5818919901945153,-0.9066370874521675,2.031530743219814,1.614633961807953,-4.025002980082748,-1.0078351779994996,4.452350341820816
219,1791341333.6205807,2.1247244698660714,0.42382070113201536,-1.0647083765146677,2.414059234272471,1.6441093450641868,-4.012506994843996,-1.0254165650658327,4.455871076917598
220,1791341333.645691,2.4264969308035713,0.054987693319515314,-1.1461390405771676,2.6841284808948513,1.6841362450361566,-3.9982697243988548,-1.0483428015631613,4.463350569972997
221,1791341333.665691,2.3498563058035713,-0.11266367386798469,-1.0120179468271675,2.560995526359723,1.7183995342129337,-3.9887174088314468,-1.067101413880971,4.472300186056952
222,1791341333.6897917,2.2253152901785715,0.07414784956951531,-0.9689075952646675,2.428231449524506,1.7617647686334696,-3.979002743030515,-1.0898962019816685,4.485995057970591
223,1791341333.7097917,2.3450662667410715,-0.05997324418048469,-1.0072279077646675,2.55292785710925,1.7992088990828543,-3.9721290407744037,-1.1089391774664363,4.499411948068576
224,1791341333.7353456,2.9773514229910716,-0.4240162129304847,-1.2131995874521675,3.2428790424264946,1.8500755121457426,-3.9655914885906243,-1.1338762289496536,4.520439199635454
225,1791341333.7553456,3.1402127511160716,-0.7784791035554847,-1.2994202905771677,3.4864679732514636,1.893091309988034,-3.963046065934446,-1.1542347473166172,4.541121742541566
226,1791341333.7651443,2.8144900948660716,-0.6683082051179847,-1.0982386499521677,3.0942072463518033,1.9153813045342085,-3.9630492846533514,-1.1644750671630744,4.553070102293073
227,1791341333.7851443,2.6851590401785717,-0.5629273457429848,-0.8587366968271676,2.8747860758873145,1.9623019231986167,-3.9649017204086174,-1.185176569137677,4.579925544189682
228,1791341333.8107214,3.4659354073660715,-1.0323511738679847,-1.0838685327646675,3.775344777704131,2.0251053985219376,-3.9699755581316625,-1.211406110147143,4.618361459542479
229,1791341333.8307214,3.9688895089285716,-1.5257251973054848,-1.2563099390146675,4.433760928900337,2.0780004101871024,-3.977185032034994,-1.2323500289894587,4.653468929490266
230,1791341333.8548646,3.4276150948660717,-1.5017750019929847,-1.2179896265146677,3.9353998685600065,2.1456684928697602,-3.9900646051730146,-1.2583206450205164,4.7019017089294115
231,1791341333.8748646,2.8815506417410717,-1.3245435566804848,-1.1700892358896675,3.380363671915647,2.2027794127535896,-4.003372982935963,-1.2801894701989849,4.745325854075882
232,1791341333.8856127,3.1210525948660717,-1.5927857441804847,-1.5053919702646676,3.813678107932309,2.233706258950255,-4.011803897825511,-1.292335812991979,4.770130608214323
233,1791341333.9056127,3.4946756417410714,-2.1292701191804846,-1.7065736108896676,4.433840611794502,2.2925457932852575,-4.030721870541155,-1.3163652182450365,4.820301069411954
234,1791341333.930389,3.4659354073660715,-2.268181251992985,-1.7927943140146676,4.513476032094289,2.3674375786600246,-4.0588137303924965,-1.3481705338244436,4.8883835135090195
235,1791341333.950389,3.3605545479910717,-2.4454126973054846,-1.8790150171396676,4.561147614888466,2.42906363800869,-4.085159095011879,-1.3755011777131938,4.947815525961399
236,1791341333.975179,3.3892947823660715,-2.5555835957429847,-1.7496839624521676,4.591265686612662,2.506541184663925,-4.122214114013488,-1.411042816564078,5.026573359890963
237,1791341333.995179,3.6671170479910717,-2.4885230488679846,-1.7161536890146676,4.752439151923212,2.570256669883422,-4.155191056895007,-1.440614545079698,5.093839645677478
238,1791341334.0059373,3.6958572823660716,-2.4597828144929847,-1.7353138452646677,4.766676692168308,2.6053304930127825,-4.1742618737923465,-1.4569206186156831,5.131746959639195
239,1791341334.0259373,3.4898856026785716,-2.498103126992985,-1.7065736108896676,4.618681006765926,2.671531318450458,-4.211833620803128,-1.4878496356382374,5.2048360755222705
240,1791341334.0505342,3.5234158761160717,-2.4597828144929847,-1.6874134546396675,4.61653063430113,2.753673634804789,-4.260256174709352,-1.5264430422708724,5.2974078116061
241,1791341334.0705342,3.4371951729910717,-2.4454126973054846,-1.8215345483896677,4.594816865594662,2.8208865886576824,-4.30108084672233,-1.5583800034363045,5.374499588912496
242,1791341334.0956917,3.3366043526785716,-2.569953712930485,-1.9460755640146676,4.639482815333383,2.905531054242015,-4.354193326427114,-1.5996355298063325,5.473567763286202
243,1791341334.1156917,3.2264334542410715,-2.450202736367985,-1.8359046655771676,4.447910995629201,2.9725735468813395,-4.39761396552374,-1.6331866474947263,5.5536024981036585
244,1791341334.125257,3.3222342354910714,-2.1723804707429846,-1.4718616968271676,4.233539190762429,3.0045262151419836,-4.418581915200411,-1.6491991097084375,5.592039129179502
245,1791341334.145257,3.4228250558035715,-1.7077466816804847,-1.2994202905771677,4.039879104996965,3.0714315387036084,-4.461667300094099,-1.6818141093450953,5.671742720898438
246,1791341334.1700604,3.4324051339285715,-1.5017750019929847,-1.2084095483896675,3.936621241200322,3.154711961187313,-4.513056093766254,-1.7208602676773554,5.7689897663637435
247,1791341334.1900604,3.2791238839285715,-1.4778248066804847,-1.3185804468271676,3.8308320245275627,3.2218587515428494,-4.552746816046716,-1.751412566288103,5.845966418246743
248,1791341334.214905,3.3892947823660715,-1.6598462910554848,-1.3042103296396677,3.992915403016114,3.3051845333143426,-4.600502764106634,-1.788559865207848,5.940354945055509
249,1791341334.234905,3.2743338448660717,-1.5209351582429846,-1.2946302515146675,3.8354365294385953,3.3721957484458325,-4.637951005412481,-1.8178762131590263,6.015560457747241
250,1791341334.2452278,3.2312234933035717,-1.3149634785554847,-1.5197620874521676,3.805208406390989,3.4066315680759045,-4.6565758737756875,-1.8329168084072391,6.0537939786040695
251,1791341334.2652278,3.1018924386160713,-1.3149634785554847,-1.5772425562021677,3.720021469262435,3.472841413542523,-4.691192882106338,-1.8623317191472115,6.126679163534108
252,1791341334.2899833,3.1018924386160713,-1.8610279316804847,-1.7784241968271677,4.030875126706216,3.5540197000135634,-4.733510480585968,-1.899509741072013,6.216535591012825
253,1791341334.3099833,3.0683621651785713,-2.354401955117985,-1.7161536890146676,4.23122185985105,3.619021504617341,-4.768893793091093,-1.9302823469412125,6.290123575859093
254,1791341334.3357494,3.0587820870535714,-2.421462501992985,-1.7688441187021675,4.283507677231964,3.7020429561589823,-4.81686987258187,-1.9707148696971413,6.386789061514294
255,1791341334.3557494,3.3078641183035713,-2.507683205117985,-2.1424671655771674,4.671253112171009,3.766368821657075,-4.855917248751967,-2.0032584067361903,6.463629837145425
