imu_index,t_imu,ax,ay,az,mag,vx,vy,vz,velocity
0,1790566069.7067277,0.019687060546875065,-0.06265371093750007,0.006658154296875479,0.06601059661794567,0.0,0.0,0.0,0.0
1,1790566069.7267277,0.12027788085937507,-0.014753320312500061,0.03060834960937548,0.12498519972410736,0.0002350481901470051,-0.00019599384140584178,6.438884118185001e-05,0.0003127413634765034
2,1790566069.751339,0.09153764648437507,-0.014753320312500061,-0.007711962890624521,0.09303910766859289,0.0008718816603217567,-0.0004554637941668137,0.0001740013088051922,0.00099895012531566
3,1790566069.771339,-0.018633251953124937,-0.03391347656250006,-0.02208208007812452,0.044552668062424486,0.0014211250050186904,-0.0007076904011953486,0.00020502408995257075,0.0016007675850335946
4,1790566069.796402,-0.018633251953124937,-0.019543359375000062,-0.02208208007812452,0.03488207612206792,0.001936117214894808,-0.0010768414728739863,0.0001550523384710221,0.0022208508853992824
5,1790566069.816402,0.07237749023437506,-0.00996328125000006,-0.04603227539062452,0.08635240844083016,0.002366047064811637,-0.001371492516000303,1.8985611586766265e-05,0.002734873102686106
6,1790566069.8267324,0.08674760742187507,-0.06265371093750007,-0.03645219726562452,0.11304599759899318,0.002678092615541419,-0.0015571197097063226,-0.00010466123519066938,0.003099638014659941
7,1790566069.8467324,-0.018633251953124937,-0.06744375000000007,-0.026872119140624522,0.07495310720389824,0.0032937726738970687,-0.002057737670406964,-0.00040312343172873715,0.0039045782421065246
8,1790566069.8708253,-0.05216352539062494,-0.019543359375000062,-0.02208208007812452,0.0599215698844371,0.0037962705820019722,-0.0027275282759448424,-0.0007971924212923122,0.0047420034357239915
9,1790566069.8908253,0.09632768554687507,0.03314707031249994,-0.03645219726562452,0.10819664485838487,0.004217079796191948,-0.0031797276642875462,-0.001163049235051527,0.005408060054182072
10,1790566069.9166648,0.16338823242187508,-0.00517324218750006,-0.007711962890624521,0.16365192116288024,0.005182526193631477,-0.0036221128172602168,-0.0016504155500374953,0.006534688247838811
11,1790566069.9366648,0.0053169433593750655,-0.02433339843750006,0.05455854492187548,0.05997515310690951,0.006070755852833465,-0.003957420197220707,-0.0019007865424447053,0.0074918783173528024
12,1790566069.9462109,-0.09527387695312493,0.009196874999999941,0.04018842773437548,0.10381138599983113,0.0063667120300528535,-0.004104293839833422,-0.0019345294543694504,0.007818097863747759
13,1790566069.9662108,0.010106982421875067,-0.00038320312500005993,-0.007711962890624521,0.012718974405881597,0.006766012757911366,-0.004352631975628223,-0.0019459055706454057,0.008277130072999302
14,1790566069.9914086,0.19212846679687506,-0.06744375000000007,-0.07477250976562452,0.21691688589049687,0.007575816752958398,-0.004746760032895811,-0.0021139700114653744,0.009186598907848164
15,1790566070.0114086,0.07237749023437506,-0.11534414062500006,-0.01250200195312452,0.13674454988036186,0.008518920037853038,-0.005286845193226106,-0.002358268500546666,0.010299716550912583
16,1790566070.0355442,-0.03300336914062493,-0.04349355468750006,-0.02208208007812452,0.058894226665808395,0.009557594820461864,-0.006128367964176406,-0.0026714640233956935,0.011663671492491574
17,1790566070.0555441,0.05800737304687507,0.01398691406249994,-0.04124223632812452,0.07253558540561977,0.010326694870407271,-0.00676535727963012,-0.0029870507283179942,0.012701699024976351
18,1790566070.06603,0.1729683105468751,-0.03391347656250006,-0.03166215820312452,0.17908280935945567,0.010851093681656425,-0.007064903055859847,-0.003185027192994152,0.013334297412945836
19,1790566070.08603,0.07716752929687506,-0.09618398437500006,0.044978466796875484,0.131260233518884,0.012076465585416089,-0.0077456801845335954,-0.0034860171578393754,0.014764447100435764
20,1790566070.1111252,0.010106982421875067,-0.057863671875000064,0.08329877929687549,0.1019266513179126,0.013547646613023273,-0.008761701243275069,-0.003565601448388446,0.016523306300995532
21,1790566070.1311252,0.053217333984375066,0.04751718749999994,0.06892866210937548,0.09920246067766227,0.014639239093834137,-0.009465493004910439,-0.0033911724208500744,0.017759586973248684
22,1790566070.1567647,0.07716752929687506,0.06667734374999994,0.01144819335937548,0.10262434837081001,0.016079452470515537,-0.010012809587781923,-0.0030465384989922135,0.019185581680485675
23,1790566070.1767647,0.03405717773437507,-0.019543359375000062,-0.03645219726562452,0.053577951961447906,0.01720120548148415,-0.010305000337936033,-0.0028555391036969536,0.020254100956444462
24,1790566070.2008028,-0.023423291015624934,-0.04349355468750006,-0.03645219726562452,0.06139301708540816,0.018366381282671627,-0.010717154486309275,-0.002791846555629002,0.02144704569151815
25,1790566070.2208028,-0.004263134765624935,-0.019543359375000062,-0.04124223632812452,0.045837094923600434,0.019148876426666617,-0.011103189572995255,-0.002863344046156377,0.022319476387771243
26,1790566070.2313807,-0.023423291015624934,0.00440683593749994,-0.04124223632812452,0.04763394611332942,0.019478691580849857,-0.011288744708890366,-0.002960925137760698,0.022707317333313385
27,1790566070.2513807,-0.018633251953124937,-0.00996328125000006,-0.026872119140624522,0.034184438546261894,0.019945659408889274,-0.011595288768018965,-0.0032199211127724634,0.023294805061249983
28,1790566070.2764487,0.019687060546875065,0.00440683593749994,0.0018681152343754794,0.02026056293604083,0.020445144893105636,-0.011932325327946932,-0.0035428637008542165,0.023936086159497293
29,1790566070.2964487,0.029267138671875068,0.009196874999999941,-0.026872119140624522,0.040783068826564635,0.020857303982338368,-0.012140482324738522,-0.0037993743374683062,0.02443058914240852
30,1790566070.3206947,0.053217333984375066,-0.014753320312500061,-0.06040239257812453,0.0818424958429887,0.021432009135322897,-0.012365082856068733,-0.004222401199154662,0.025100895631443746
31,1790566070.3406947,0.05800737304687507,-0.07223378906250007,-0.04603227539062452,0.1034482768718908,0.022001798581073182,-0.012653041286894262,-0.004678656880126745,0.025808301470881846
32,1790566070.351039,0.08674760742187507,-0.03391347656250006,-0.01250200195312452,0.09397644033911332,0.022364599930552762,-0.01286198813267195,-0.004924653433180772,0.026265153344604972
33,1790566070.371039,0.08674760742187507,-0.03870351562500006,0.03539838867187548,0.10137137384745035,0.023221077803271116,-0.013314301117948929,-0.005294584747797937,0.0272859248744953
34,1790566070.4113526,0.019687060546875065,-0.05307363281250006,0.05455854492187548,0.07861949934262309,0.025010319427886143,-0.014366755554440917,-0.005656413527151239,0.029392426865369546
35,1790566070.4313526,0.019687060546875065,-0.04828359375000006,-0.007711962890624521,0.05271015224809865,0.025823889888483192,-0.014962603133817398,-0.005738724114979567,0.030392198603925887
36,1790566070.441069,0.048427294921875065,-0.00996328125000006,-0.06040239257812453,0.07805715147171809,0.02620948359846252,-0.015251099293982833,-0.005822349933347635,0.030877707475124392
37,1790566070.4610689,0.05800737304687507,0.00440683593749994,-0.026872119140624522,0.06408109173451469,0.027043785826341045,-0.01576419852490313,-0.0060995766961845785,0.03189170962532741
38,1790566070.4711092,-0.037793408203124934,-0.00517324218750006,0.006658154296875479,0.03872254068342576,0.027415014513140795,-0.01598372147145522,-0.006233094350317894,0.0323405911821776
39,1790566070.4911091,-0.047373486328124936,-0.00517324218750006,-0.01729204101562452,0.050695407327465185,0.027915820433415294,-0.016370932544593722,-0.00647511428193073,0.03300344781707493
40,1790566070.5156865,0.03405717773437507,0.01398691406249994,-0.002921923828124521,0.03693322026414612,0.028414386058243892,-0.016759143577485508,-0.006765174158677767,0.03367512152784218
41,1790566070.5356865,0.09153764648437507,-0.00517324218750006,0.03539838867187548,0.09827995258034121,0.028947632115040235,-0.01701444566169986,-0.006917091689057287,0.03428269131321915
42,1790566070.5606332,0.019687060546875065,-0.02433339843750006,0.03539838867187548,0.0472518841217958,0.02972110003657585,-0.017340332923864086,-0.006945699128184954,0.03510375577732193
43,1790566070.5806332,-0.03300336914062493,-0.04349355468750006,0.0018681152343754794,0.054629676262227825,0.030228207234992574,-0.017664149943287945,-0.006909294036305922,0.03568620251498819
44,1790566070.5916471,0.048427294921875065,-0.04828359375000006,-0.050822314453124524,0.08520220634019744,0.03047832239140917,-0.017891539412731527,-0.006932691562291211,0.03601524025534
45,1790566070.6116471,0.10111772460937507,-0.11534414062500006,0.006658154296875479,0.15353630197884216,0.03108869014425287,-0.018487954329419205,-0.00703505160494444,0.0368483793572565
46,1790566070.6359687,0.03405717773437507,-0.08181386718750007,0.08329877929687549,0.12162272341858771,0.03196618201898142,-0.01946408803441512,-0.006976765869937132,0.03807049747358225
47,1790566070.6559687,-0.042583447265624935,-0.00038320312500005993,0.05455854492187548,0.06921077697621646,0.03256673116443547,-0.02026966951983653,-0.0067292402306821765,0.038945271282432144
48,1790566070.681104,0.010106982421875067,-0.02433339843750006,-0.01729204101562452,0.03151634584910285,0.0331470451327874,-0.021176826634700833,-0.006394568079406199,0.03985065982230884
49,1790566070.701104,0.09153764648437507,-0.14887441406250007,-0.01250200195312452,0.17521139215013123,0.03369200123514699,-0.02205018436583045,-0.006212907079710064,0.04074262868516674
50,1790566070.7115822,0.07237749023437506,-0.10097402343750006,0.06892866210937548,0.142075384785586,0.0340635004554152,-0.02263546184774967,-0.006087664658238179,0.04134907323421125
51,1790566070.7315822,-0.013843212890624935,0.12415781249999995,0.10245893554687549,0.1615692743726947,0.034754024171657974,-0.023550243612074848,-0.005627389511557187,0.042357097197837375
52,1790566070.7568154,-0.009053173828124934,0.15289804687499994,0.044978466796875484,0.15963344001163904,0.03545122082326593,-0.024006942375094688,-0.0048547589962122635,0.04308933771795971
53,1790566070.7768154,0.03884721679687507,-0.00517324218750006,-0.055612353515624526,0.06803383387066128,0.03596562236485785,-0.02409303932028913,-0.004350178508887453,0.04350775320376527
54,1790566070.8012588,0.03405717773437507,-0.07702382812500007,-0.10351274414062453,0.1334445564786468,0.036633658104193875,-0.024333168815672955,-0.004117714340092625,0.044171071778864646
55,1790566070.8212588,-0.08090375976562494,-0.03870351562500006,-0.050822314453124524,0.10308388871361444,0.03702799642634209,-0.02467376587335381,-0.004187541611138982,0.04469231193916133
56,1790566070.8456635,-0.08090375976562494,-0.014753320312500061,-0.04124223632812452,0.0920000046837067,0.03714083992439349,-0.02512487943289376,-0.004428477722537033,0.04505899434902954
57,1790566070.8656635,0.07237749023437506,-0.05307363281250006,-0.08435258789062453,0.12316927651159064,0.037206655579390666,-0.02554085854054873,-0.004784702172832917,0.04538242004647213
58,1790566070.876097,0.07716752929687506,-0.07223378906250007,-0.055612353515624526,0.11943735480852136,0.037352859774185176,-0.02582336660815551,-0.005052183366159762,0.04569033763340388
59,1790566070.896097,-0.06653364257812494,-0.05307363281250006,0.03539838867187548,0.09217690608387182,0.03760703211785223,-0.026471639277519998,-0.005518331579952585,0.04631941854318349
60,1790566070.9216838,-0.13359418945312493,-0.00038320312500005993,0.049768505859375485,0.14256387507270957,0.03749938180674785,-0.027279182508454992,-0.005861804272371345,0.04674096900520398
61,1790566070.9416838,-0.05695356445312494,0.05709726562499994,0.006658154296875479,0.08092056144398072,0.0371420372242712,-0.02773064590027124,-0.006005368760351309,0.04673953471273737
62,1790566070.9662366,0.048427294921875065,-0.019543359375000062,-0.01250200195312452,0.05369772659942503,0.03675344880664543,-0.02813259203592901,-0.00616593894135989,0.04669344211847421
63,1790566070.9862366,-0.018633251953124937,-0.05307363281250006,0.0018681152343754794,0.05628053333785691,0.03652908738435351,-0.02851981853611241,-0.0062930659974476215,0.0467691880848358
64,1790566070.9957366,-0.023423291015624934,-0.03391347656250006,-0.03166215820312452,0.051973711784300936,0.03640853574799921,-0.028738140313754885,-0.006365622054850226,0.04681862159602305
65,1790566071.0157366,0.010106982421875067,0.06667734374999994,-0.03645219726562452,0.07666017185425396,0.03617283813540466,-0.029079674164907705,-0.006597630157195911,0.046878890686518244
66,1790566071.0415468,0.06758745117187506,0.06667734374999994,-0.026872119140624522,0.09867138649362424,0.036064691272234814,-0.029196171296471257,-0.006974709464198523,0.046922541992569865
67,1790566071.0615468,-0.023423291015624934,-0.00038320312500005993,-0.026872119140624522,0.035649799350705814,0.03605970623255296,-0.029173461323414297,-0.007303690025103135,0.046954628601976606
68,1790566071.0857239,-0.10485395507812494,-0.03391347656250006,-0.02208208007812452,0.11239258894009599,0.0358219813319528,-0.029212315724348705,-0.007730494015432604,0.04686506453904064
69,1790566071.1057239,-0.042583447265624935,-0.03870351562500006,0.08808881835937549,0.10521859162101502,0.035433670415385164,-0.0293485613781159,-0.007931589002166499,0.046688255034542325
70,1790566071.1312187,0.04363725585937507,-0.057863671875000064,0.19346967773437548,0.2065984773042564,0.03501493864435311,-0.029680834902181603,-0.007611110468912469,0.046528774874569426
71,1790566071.1512187,0.09632768554687507,-0.00038320312500005993,0.15993940429687548,0.18670774727978495,0.03494567482369658,-0.02998976566284868,-0.0068673017391738065,0.04655905998377736
72,1790566071.1611397,0.18254838867187506,0.07625742187499994,0.05934858398437548,0.20654627331101896,0.035123976268642096,-0.030063568565854324,-0.00639050980569614,0.04667280235223353
73,1790566071.1811397,0.18254838867187506,0.05230722656249994,0.0018681152343754794,0.1899037914626445,0.03597714445749205,-0.029997184715045092,-0.005481691118784312,0.04716179546694066
74,1790566071.206215,0.16338823242187508,-0.10097402343750006,0.1359892089843755,0.23533918684166824,0.037536945324929925,-0.030017964365876445,-0.004253905893668303,0.04825138510291692
75,1790566071.226215,0.18733842773437506,-0.16803457031250008,0.2269999511718755,0.3389104323536354,0.03912051760114805,-0.03043556464631187,-0.002877033250646894,0.049648925598112306
76,1790566071.236398,0.16817827148437509,0.00440683593749994,0.03539838867187548,0.17191974035292565,0.040077378710928625,-0.030741262295358673,-0.002080745508412085,0.05055245784056412
77,1790566071.256398,0.12027788085937507,-0.06265371093750007,-0.02208208007812452,0.1374040551761066,0.042107476855590804,-0.031338973889517924,-0.000731423015746101,0.05249481756535558
78,1790566071.281467,0.09153764648437507,-0.2782054687500001,0.08329877929687549,0.3044932022207643,0.044668661549039965,-0.03261667067828263,0.0008212883963748814,0.05531555879992756
79,1790566071.301467,0.019687060546875065,-0.22551503906250006,0.05934858398437548,0.2340232202523667,0.046572308899806465,-0.03423869238584251,0.0020881959552576366,0.05784140882532943
80,1790566071.326345,0.053217333984375066,-0.13450429687500007,0.044978466796875484,0.1514811968187481,0.04872109654660035,-0.03662542638477759,0.0036223777711366593,0.06105971443829998
81,1790566071.346345,-0.047373486328124936,-0.08660390625000007,0.1359892089843755,0.1680403188072315,0.05019820053503418,-0.03858802327243957,0.0049421866001161975,0.06350842531050672
82,1790566071.356897,-0.17670454101562494,0.01398691406249994,0.2701103027343755,0.3230784799762906,0.050683295588788355,-0.039525654318044515,0.005855470316587284,0.06453960283142808
83,1790566071.376897,-0.15754438476562493,0.10499765624999995,0.2365800292968755,0.303009655376331,0.05096343109750783,-0.04085774046086188,0.008086843352396442,0.06581810769236515
84,1790566071.4014819,-0.26771528320312493,0.18163828124999995,0.1455692871093755,0.35475957411395576,0.05047201338770666,-0.04172105973680469,0.011122930776542594,0.06642131096290274
85,1790566071.4214818,-0.24376508789062495,0.25827890624999994,0.15035932617187547,0.38566480064283903,0.049364985908222254,-0.04165815635126492,0.013666230205256643,0.06602325099787562
86,1790566071.4460566,-0.21981489257812495,0.459460546875,0.2461601074218755,0.5657007862993969,0.047354347853440976,-0.04026958785611159,0.017053351372067947,0.06445844211385342
87,1790566071.4660566,-0.12880415039062493,0.7229126953125,0.2317899902343755,0.7700129049403562,0.04544052852234926,-0.03753546505816631,0.0201133714677754,0.06227600245137755
88,1790566071.4915147,-0.06174360351562494,0.79476328125,0.2413700683593755,0.8328988268080169,0.04300600934135268,-0.03167944002020143,0.024327653558946248,0.058693598348935505
89,1790566071.5115147,-0.009053173828124934,0.766023046875,0.20304975585937549,0.7925291613906537,0.04127413165536206,-0.025427824014498994,0.027808425678050624,0.055887715257542575
90,1790566071.5217402,0.029267138671875068,0.622321875,0.1407792480468755,0.6387173695698264,0.040536984897903125,-0.021646218885033788,0.029584806864799525,0.05465406420257425
91,1790566071.5417402,-0.023423291015624934,0.48820078124999994,0.10724897460937549,0.5003908431714907,0.039320241813496505,-0.013693505837900397,0.03291008826193643,0.05307228493114742
92,1790566071.5665529,-0.09527387695312493,0.421140234375,0.11682905273437548,0.44730888231950033,0.03781624694946205,-0.003614806039447284,0.03683373132586965,0.05291369500830455
93,1790566071.5865529,0.024477099609375066,0.401980078125,0.2269999511718755,0.4622943753137196,0.036679616261406096,0.004525117117596069,0.04003768936170813,0.0544874985977206
94,1790566071.6117883,0.16338823242187508,0.5073609375,-0.02208208007812452,0.533477697430174,0.03581613733473686,0.01497630448600466,0.0438617930813941,0.058574245893167814
95,1790566071.6317883,0.22565874023437507,0.49778085937499994,-0.26637407226562454,0.6079990110021979,0.03581801963497251,0.02352451891363664,0.046005238982889385,0.06287142065010214
96,1790566071.6417801,0.2543989746093751,0.3109693359375,-0.17057329101562452,0.43648140141776043,0.036178570047430886,0.027760635430074208,0.04658802048119464,0.0651919125545076
97,1790566071.66178,0.33103959960937507,0.25348886718749997,0.03060834960937548,0.41806780952776923,0.037670160035909596,0.03581456236689784,0.04736960557625296,0.07032498394676838
98,1790566071.686643,0.4651606933593751,0.31575937499999995,0.07850874023437548,0.5676636995970007,0.04073095693592099,0.04538637530792668,0.048398953436651036,0.07785494595894947
99,1790566071.7066429,0.5513813964843751,0.421140234375,-0.02208208007812452,0.69416724185103,0.04434859678859491,0.05303647669632125,0.04918741273421758,0.08484731857261647
100,1790566071.7309413,0.5753315917968751,0.5121509765625,-0.11309282226562453,0.778521065714636,0.050137778151210385,0.06263742912136806,0.04975530188572621,0.09440780894933505
101,1790566071.7509413,0.565751513671875,0.49299082031249997,-0.11788286132812453,0.7596124624631401,0.055899703660687056,0.07086228379105286,0.049806152697116364,0.1030868225328767
102,1790566071.7614627,0.5082710449218751,0.38760996093749994,-0.19452348632812452,0.668146932685613,0.05932372629006425,0.07523500062355261,0.049582369478215475,0.10787966065407646
103,1790566071.7814627,0.5944917480468751,0.3013892578125,-0.2903242675781245,0.7270103875223334,0.06651023753886512,0.08333372089024424,0.04849352053876978,0.11713130354065679
104,1790566071.806564,0.7477729980468751,0.38281992187499997,-0.27595415039062454,0.8842320070604798,0.07670384709200063,0.09326162567187876,0.04626584439268995,0.12931256450570938
105,1790566071.826564,0.7142427246093751,0.5840015625,-0.2903242675781245,0.9672066351119804,0.08580050888097654,0.10143554778022458,0.04390772992270254,0.13992421671988645
106,1790566071.8514762,0.5561714355468751,0.6989624999999999,-0.35738481445312453,0.9620806347319417,0.09780539882085514,0.11248692061030145,0.04020085292272581,0.1543868903845447
107,1790566071.8714762,0.5322212402343751,0.6366919921874999,-0.37175493164062456,0.9093062579084285,0.10763010092956239,0.12203183678088039,0.036577578350044194,0.1667750792300122
108,1790566071.8814979,0.6711323730468751,0.5169410156249999,-0.35259477539062456,0.9175890972650566,0.11271913098803449,0.12696432850505956,0.03448990526153506,0.1732486558920098
109,1790566071.9014978,0.6711323730468751,0.49778085937499994,-0.2711641113281245,0.8784841611457858,0.12336514785432509,0.13685349248145004,0.030012906949285854,0.18667783128437154
110,1790566071.9264765,0.584911669921875,0.622321875,-0.30469438476562455,0.9067771753975806,0.13701995623695645,0.14945015889536134,0.024181344312204263,0.20419244798417885
111,1790566071.9464765,0.4939009277343751,0.6271119140625,-0.5250361816406246,0.955442552541897,0.14793137540359955,0.1598973583889241,0.01896789948662076,0.21865643887041444
112,1790566071.9712305,0.44121049804687507,0.5313111328125,-0.6495771972656246,0.948107988915154,0.16114679674791796,0.1730389883303823,0.011302372549459061,0.23672457669148705
113,1790566071.9912305,0.4268403808593751,0.5025708984374999,-0.6304170410156246,0.9122476989783793,0.17152463810325683,0.1836148995085751,0.004118038506747316,0.251300797927783
114,1790566072.0011826,0.3837300292968751,0.45467050781249996,-0.46755571289062453,0.756691714448703,0.17651909811406163,0.18880261176986357,0.0002597963287083666,0.25846757186203445
115,1790566072.0211825,0.4795308105468751,0.34928964843749993,-0.4292354003906245,0.7322541128036326,0.18634545480550355,0.1988701283094343,-0.007675984330370002,0.27264056410578547
116,1790566072.0462615,0.5322212402343751,0.3205494140625,-0.6495771972656246,0.8988670149804656,0.19872199637830074,0.21086059928925602,-0.018163574299549554,0.2903145528707385
117,1790566072.0662615,0.5130610839843751,0.22953867187499996,-0.7022676269531245,0.8994995817963084,0.2086794437134289,0.2198135553213017,-0.02730042587847825,0.3043196059814145
118,1790566072.091434,0.5561714355468751,0.11936777343749995,-0.48671586914062454,0.7486438861882275,0.22135087227722058,0.230050418774122,-0.03932003770578351,0.32166048747276926
119,1790566072.111434,0.6136519042968751,0.10978769531249995,-0.48192583007812456,0.7879559019296073,0.23166313147545595,0.23730751767611644,-0.048890326646527725,0.33522071605170656
120,1790566072.1213489,0.6280220214843751,0.11936777343749995,-0.8172285644531245,1.037556191906184,0.2369318661071609,0.24053593639974682,-0.053889151303765696,0.3419039141410417
121,1790566072.1413488,0.4891108886718751,-0.10097402343750006,-0.8124385253906246,0.9536674327906143,0.24764130389062552,0.2460989538991435,-0.06490460364030191,0.3551105716204554
122,1790566072.1652515,0.4699507324218751,-0.24946523437500007,-0.48671586914062454,0.7210956464567957,0.26023994286403557,0.25112198980575834,-0.07842379572617661,0.37005050109678406
123,1790566072.1852515,0.6136519042968751,-0.15845449218750007,-0.3909150878906245,0.7446415860547371,0.27082571646829906,0.25408258131516287,-0.0893553254927501,0.3819540561667845
124,1790566072.2112164,0.6136519042968751,-0.04828359375000006,-0.45318559570312456,0.7643802386413401,0.28489726850233743,0.2569470348701793,-0.10306218429829846,0.3972531260556756
125,1790566072.2312164,0.6759224121093751,-0.06744375000000007,-0.3909150878906245,0.7837310588118561,0.29604466042491195,0.25864888057745805,-0.11330259171775339,0.4091199844544795
126,1790566072.270424,0.6759224121093751,-0.12013417968750006,-0.30469438476562455,0.7510938665896872,0.31859494663853877,0.26093311364966126,-0.13241185378315085,0.4325756914631368
127,1790566072.2904239,0.584911669921875,-0.15845449218750007,-0.36696489257812454,0.7084438722228245,0.33026378712913196,0.26150565293161293,-0.14170493733072734,0.44445434508841414
128,1790566072.2862992,0.5944917480468751,-0.2542552734375001,-0.35738481445312453,0.7387760744422504,0.33026378712913196,0.26150565293161293,-0.14170493733072734,0.44445434508841414
129,1790566072.3062992,0.7525630371093751,-0.4314867187500001,-0.36217485351562456,0.940054539800746,0.34221884255817514,0.2603644961061598,-0.15042207366216898,0.45555483454716905
130,1790566072.3305624,0.8148335449218751,-0.46980703125000006,-0.49629594726562454,1.0634763842296506,0.3573989590345344,0.2575476363079508,-0.1609732402821652,0.4690172544520308
131,1790566072.3505623,0.7477729980468751,-0.5895580078125001,-0.5585664550781245,1.103965391632545,0.3703788228973825,0.2539849560230654,-0.16994821260330625,0.48017832656623277
132,1790566072.3760338,0.7621431152343751,-0.6949388671875001,-0.5106660644531246,1.1509048555858328,0.3873144950429654,0.2476743708818818,-0.18170657530586104,0.4943403600471114
133,1790566072.3960338,0.8244136230468752,-0.7763695312500001,-0.48671586914062454,1.2325988026085104,0.4009974207301815,0.24125564192935878,-0.19105033444379513,0.5054734874215374
134,1790566072.4055912,0.7334028808593751,-0.7093089843750001,-0.39570512695312454,1.0943407003602275,0.40767199719914177,0.2375834444687634,-0.1954782383464877,0.5107387708535795
135,1790566072.4255912,0.7908833496093751,-0.6805687500000001,-0.16578325195312452,1.056482078785088,0.42183055232162686,0.22896685988630533,-0.20419642178584205,0.521596603198588
136,1790566072.4508905,1.0112251464843751,-0.47938710937500006,-0.10351274414062453,1.1238786347808143,0.440473546152204,0.21750116463428587,-0.214081377291855,0.5358680225394552
137,1790566072.4708905,0.9345845214843751,-0.2638353515625001,-0.16099321289062452,0.9843658543088196,0.45591950008792276,0.20868190733496944,-0.22112037545152977,0.5480008662850887
138,1790566072.495721,0.7573530761718751,-0.2877855468750001,-0.18015336914062452,0.8299755655378434,0.4753705096159216,0.1983476594051471,-0.22918394981350088,0.5637767273097734
139,1790566072.515721,0.8052534667968752,-0.47938710937500006,-0.17057329101562452,0.9525441690710228,0.49103133729333087,0.19012167214469247,-0.2352306769496596,0.5767074611979335
140,1790566072.5257797,0.8675239746093751,-0.5368675781250001,-0.23284379882812453,1.0464420087212492,0.49898816644608474,0.18583846228565545,-0.2381199455586462,0.583289150242635
141,1790566072.5457797,0.7717231933593751,-0.4123265625000001,-0.24242387695312453,0.9079312845303006,0.514894772053809,0.1771756731460095,-0.24371596304733883,0.5965780050313432
142,1790566072.5864582,0.742982958984375,-0.26862539062500007,-0.24242387695312453,0.8264094711138027,0.5470159136268594,0.16012160669724937,-0.25486978642525143,0.6243588284991168
143,1790566072.6064582,0.8148335449218751,-0.23988515625000006,-0.2615840332031245,0.8887771377268037,0.5627764072082796,0.1522317635387316,-0.26028710050176435,0.6384678292819359
144,1790566072.61656,0.8531538574218751,-0.23988515625000006,-0.2615840332031245,0.9240360377440512,0.5708065330260086,0.1484809525623574,-0.2630092683552727,0.6457867811125997
145,1790566072.63656,0.7908833496093751,-0.22551503906250006,-0.21847368164062453,0.8509314044635531,0.5867862250071418,0.1414707346880518,-0.2683104023096206,0.6605471327762006
146,1790566072.6455493,0.723822802734375,-0.18719472656250008,-0.15141313476562454,0.7628153464571936,0.5939124343858571,0.13851425258415284,-0.2705850626851419,0.6671839731553836
147,1790566072.6655493,0.6663423339843751,-0.08660390625000007,-0.15141313476562454,0.6887948025479407,0.6094742560611113,0.13251246816307663,-0.2753409761794184,0.6817852126464393
148,1790566072.6909199,0.7813032714843751,-0.08181386718750007,-0.21847368164062453,0.815388901363006,0.6290083852218649,0.1257205710197319,-0.281172865461249,0.7003680396253351
149,1790566072.7109199,0.8004634277343751,-0.17761464843750008,-0.26637407226562454,0.8621158906175052,0.6444701955550588,0.12078040691683453,-0.28580788913930255,0.7152732968229947
150,1790566072.7362723,0.6998726074218751,-0.21114492187500006,-0.35259477539062456,0.8116199358602886,0.663982800456712,0.11471827087618586,-0.2919789702383808,0.7343603747729209
151,1790566072.7562723,0.7381929199218751,-0.17761464843750008,-0.4004951660156245,0.858412563027967,0.6792239812768045,0.11007019553305661,-0.2972465932087161,0.7495439959471266
152,1790566072.7656784,0.8052534667968752,-0.23988515625000006,-0.35738481445312453,0.9130728008100818,0.686405618129481,0.10791755661772964,-0.2998870254730257,0.7567899970752223
153,1790566072.7856784,0.7765132324218751,-0.28299550781250005,-0.37175493164062456,0.9062345098082776,0.7017579113244268,0.10324269019088776,-0.30575288769875586,0.7724040701086456
154,1790566072.8111396,0.7621431152343751,-0.20635488281250006,-0.4292354003906245,0.8987143565717743,0.7213088593801884,0.09724954984859273,-0.31362991130139556,0.7925324389758589
155,1790566072.8311396,0.8244136230468752,-0.18240468750000008,-0.38612504882812454,0.9284513154817378,0.7367425090237271,0.09266489890282702,-0.32011229796631907,0.8086087999771738
156,1790566072.8713996,0.8339937011718751,-0.23509511718750006,-0.2615840332031245,0.9051195579295481,0.7681579010578212,0.08355966645422316,-0.33315977861990603,0.8414536332475863
157,1790566072.8913996,0.8148335449218751,-0.2638353515625001,-0.23763383789062453,0.8888378027371951,0.783896418757616,0.07896654941318416,-0.3394179573698349,0.8578658759108859
158,1790566072.8864253,0.8579438964843751,-0.19198476562500008,-0.3190645019531245,0.9352689646050881,0.783896418757616,0.07896654941318416,-0.3394179573698349,0.8578658759108859
159,1790566072.9064252,0.9154243652343751,-0.16803457031250008,-0.3190645019531245,0.9838900048742545,0.8000603368552769,0.07452682376697248,-0.3456064738160589,0.8746968759595193
160,1790566072.9313998,0.9154243652343751,-0.22551503906250006,-0.22326372070312453,0.9688681490741258,0.8206464081383367,0.0690772510168544,-0.3531909259002007,0.8960892946222715
161,1790566072.9513998,0.8435737792968752,-0.21114492187500006,-0.24721391601562454,0.9040539914311496,0.8372976635695816,0.06471278464728482,-0.35905931263910296,0.9133338447187596
162,1790566072.992046,0.8675239746093751,-0.23030507812500006,-0.38133500976562457,0.9752203162389302,0.8712784444269605,0.05582755117643226,-0.37111288959388444,0.9486662321470833
163,1790566073.012046,0.9010542480468751,-0.3069457031250001,-0.4004951660156245,1.032720097892988,0.888143488835695,0.05130550060786104,-0.3773269422740928,0.9663367593752088
164,1790566073.0215733,0.8579438964843751,-0.2782054687500001,-0.38612504882812454,0.9811006909026825,0.8962291330030204,0.049056378020002026,-0.3804051255710426,0.974854474590186
165,1790566073.0415733,0.8196235839843751,-0.23988515625000006,-0.4292354003906245,0.9558089435451934,0.9131731969047052,0.044265994255208926,-0.3871207579573857,0.9928279040367785
166,1790566073.0513024,0.7573530761718751,-0.2973656250000001,-0.44360551757812455,0.926712389117788,0.9213300811415422,0.0418931982066409,-0.3905344988346289,1.0015594606673517
167,1790566073.0713024,0.742982958984375,-0.33089589843750006,-0.37654497070312454,0.8962711017910567,0.9378333125411944,0.0368047604573251,-0.3977296389020415,1.019350174456972
168,1790566073.0964115,0.7813032714843751,-0.23030507812500006,-0.28553422851562454,0.8631367369637108,0.9583150045938449,0.03031786472911676,-0.4066546437457952,1.0414676280285688
169,1790566073.1164114,0.8052534667968752,-0.14887441406250007,-0.2520039550781245,0.8567979518683831,0.9745618852083429,0.025357169196642042,-0.4135035891248957,1.0589613176833594
170,1790566073.1410506,0.8100435058593751,-0.15366445312500007,-0.31427446289062455,0.8823557579368672,0.9945599971985104,0.01960343530121219,-0.4217220037720752,1.0804551500032957
171,1790566073.1610506,0.8196235839843751,-0.18719472656250008,-0.3909150878906245,0.9271673479025972,1.0108023684220344,0.015122307809274383,-0.428450154420218,1.0979615872259745
172,1790566073.1710527,0.8818940917968751,-0.22551503906250006,-0.4004951660156245,0.994480065155395,1.018983268287597,0.012907821520455238,-0.4319039165087108,1.1068127691719318
173,1790566073.1910527,0.9010542480468751,-0.2542552734375001,-0.37654497070312454,1.0091236876398821,1.0355622344235171,0.008424347675753383,-0.4389396115569345,1.1247791310260615
174,1790566073.2160401,0.8914741699218751,-0.24467519531250007,-0.38612504882812454,1.0018406560784143,1.0565278711986321,0.0027280164439165006,-0.4478405837018939,1.1475276785784667
175,1790566073.23604,0.8100435058593751,-0.26862539062500007,-0.34301469726562456,0.9197766926888338,1.0733439198647783,-0.001917379294493816,-0.4549899852978787,1.1657987533770184
176,1790566073.2616508,0.8483638183593751,-0.24946523437500007,-0.30469438476562455,0.9353035547728743,1.0948329060081292,-0.00796883347944756,-0.4640159089064387,1.189131346026795
177,1790566073.2816508,0.9489546386718751,-0.23030507812500006,-0.30469438476562455,1.02293401711681,1.1117929436057459,-0.012705351599792681,-0.47092126213411484,1.207481598427401
178,1790566073.2912047,0.8579438964843751,-0.2638353515625001,-0.2615840332031245,0.9349347724176876,1.1199741441182682,-0.014982647639924745,-0.4741308852898828,1.2162921769087878
179,1790566073.3112047,0.8339937011718751,-0.2638353515625001,-0.23284379882812453,0.9051910411516361,1.137069468693948,-0.01982631572873164,-0.4805836483319935,1.234617634118111
180,1790566073.335964,0.9202144042968751,-0.24467519531250007,-0.2807441894531245,0.9927123455404161,1.1583158533226379,-0.025867444003999263,-0.48832740900423494,1.257309985287097
181,1790566073.355964,0.9393745605468751,-0.2638353515625001,-0.35738481445312453,1.0391138356014884,1.1756932193171388,-0.03077810961999455,-0.49460154695573755,1.275865403650043
182,1790566073.3807461,0.7956733886718751,-0.24946523437500007,-0.37175493164062456,0.9129790653686884,1.1972206907587775,-0.036904290277117856,-0.5025649686253875,1.2989499053894338
183,1790566073.400746,0.7190327636718751,-0.2734154296875001,-0.36696489257812454,0.8523070718993768,1.2142600787770643,-0.041891024055711705,-0.5091357642646123,1.3173464325155435
184,1790566073.410986,0.8387837402343751,-0.20156484375000008,-0.38133500976562457,0.9431876477088101,1.2228718956526627,-0.04442599779580866,-0.5125700177682544,1.3266941492191178
185,1790566073.430986,0.8100435058593751,-0.18240468750000008,-0.32385454101562455,0.8912484026035397,1.2396423061546264,-0.049210465969532685,-0.5193292824005888,1.344930340474186
186,1790566073.4565399,0.6902925292968751,-0.15366445312500007,-0.31427446289062455,0.7738765910547192,1.2607311649349766,-0.055050698656075994,-0.5278931415723904,1.3678979562014095
187,1790566073.4765399,0.6950825683593751,-0.15845449218750007,-0.34301469726562456,0.7911426454639466,1.2768387738078484,-0.059404142628729346,-0.534576256773284,1.3855027537923987
188,1790566073.5016212,0.8339937011718751,-0.19198476562500008,-0.3190645019531245,0.9133486739646828,1.296885198784055,-0.06470395423131114,-0.5429456328968169,1.4074401517649162
189,1790566073.5216212,0.8292036621093751,-0.14887441406250007,-0.34780473632812453,0.9114331785876174,1.3129673102447992,-0.06880741541108114,-0.549618636706879,1.4250257064356924
190,1790566073.53167,0.6615522949218751,-0.16324453125000007,-0.33822465820312453,0.7607207998444976,1.3209591443053494,-0.07079514333559896,-0.5529855609721519,1.4337845179410726
191,1790566073.55167,0.6423921386718751,-0.22072500000000006,-0.23763383789062453,0.7196228361878556,1.3364350966533731,-0.07473379906134212,-0.5595452797891506,1.4507704258163558
192,1790566073.576174,0.7525630371093751,-0.16803457031250008,-0.24242387695312453,0.8083044462084672,1.3551156860051405,-0.07955004960346058,-0.5672589418398428,1.4712067971384424
193,1790566073.596174,0.8004634277343751,-0.17282460937500008,-0.2999043457031245,0.8720967041088423,1.3704051652051776,-0.08340268462668048,-0.5734239032460089,1.4878781191474846
194,1790566073.6213892,0.7142427246093751,-0.21114492187500006,-0.2999043457031245,0.8029118658125826,1.3896545724604181,-0.0882574797819362,-0.5811648723067319,1.5088677285636758
195,1790566073.6413891,0.7621431152343751,-0.21114492187500006,-0.3190645019531245,0.8527874662184906,1.404847046332678,-0.09216400343320895,-0.587312264660944,1.5254589877606193
196,1790566073.665965,0.7860933105468751,-0.18719472656250008,-0.32385454101562455,0.8705551804887477,1.4235689668872435,-0.09697850274091938,-0.5949181116586676,1.5459239932990883
197,1790566073.685965,0.7190327636718751,-0.23030507812500006,-0.33822465820312453,0.8273115880128824,1.438777215778496,-0.10093509775615972,-0.6011724414843396,1.5625863416152748
198,1790566073.6955204,0.7381929199218751,-0.20156484375000008,-0.3190645019531245,0.8290713658457524,1.4459976425729426,-0.10285137999754754,-0.6041833859911425,1.5705174792410397
199,1790566073.7155204,0.7190327636718751,-0.19198476562500008,-0.2520039550781245,0.7857303983178442,1.4610293998123758,-0.10685097737240894,-0.6103967840387959,1.587012373123302
200,1790566073.7411125,0.6998726074218751,-0.16803457031250008,-0.2520039550781245,0.7626029614515131,1.4801023695575495,-0.11189222218762444,-0.6181222745627525,1.6078862024616631
201,1790566073.7611125,0.8339937011718751,-0.16324453125000007,-0.3094844238281245,0.9044196366563595,1.4950727140545654,-0.11573787368496728,-0.6240962958899343,1.6242333152164865
202,1790566073.785709,0.8771040527343751,-0.18719472656250008,-0.3286445800781245,0.9551757141963992,1.513878487350234,-0.12040439358752351,-0.631518418741705,1.6447312259658218
203,1790566073.805709,0.723822802734375,-0.17761464843750008,-0.27595415039062454,0.7947434216246362,1.529277596798034,-0.12417689996258939,-0.6375551600854689,1.6615012647314769
204,1790566073.8157592,0.6807124511718751,-0.16803457031250008,-0.22326372070312453,0.73583404853454,1.536913841638138,-0.12604882166086878,-0.6405099784165095,1.6698040287746674
205,1790566073.8357592,0.742982958984375,-0.12013417968750006,-0.2807441894531245,0.8032889880871379,1.5519660200337027,-0.12964741256324452,-0.6462640373602523,1.6861388391555332
206,1790566073.861568,0.7573530761718751,-0.12971425781250007,-0.26637407226562454,0.8132432705176367,1.5713805277703816,-0.1340782406722754,-0.6536345591587036,1.7071765797960936
207,1790566073.881568,0.723822802734375,-0.12971425781250007,-0.19931352539062452,0.7618865531309322,1.586390414981211,-0.137385921455577,-0.6591879725943021,1.7233798836505674
208,1790566073.9067912,0.723822802734375,-0.13450429687500007,-0.23763383789062453,0.7736153414628693,1.6052194295502276,-0.1414315539847895,-0.6659677653577417,1.7436299395123078
209,1790566073.9267912,0.7669331542968751,-0.18240468750000008,-0.31427446289062455,0.8486615174537595,1.620145951249785,-0.1446335947098995,-0.6713650755835063,1.7596939633876756
210,1790566073.9357288,0.742982958984375,-0.18240468750000008,-0.2999043457031245,0.8217285220404422,1.6268278910030973,-0.14609442321001503,-0.6738269306216437,1.766905571859922
211,1790566073.9557288,0.7477729980468751,-0.16803457031250008,-0.2615840332031245,0.8098310193212729,1.6417735759425052,-0.149398687528859,-0.6793517962590582,1.7830477575148669
212,1790566073.9818227,0.7190327636718751,-0.19677480468750008,-0.2711641113281245,0.7932581006619408,1.6612188638838021,-0.15377704707529838,-0.6865214541829083,1.8040529928425062
213,1790566074.0018227,0.6567622558593751,-0.23030507812500006,-0.23763383789062453,0.735422960371979,1.6759509873763818,-0.15727012876847982,-0.6919556190384174,1.8199857648370668
214,1790566074.0266647,0.6280220214843751,-0.14887441406250007,-0.21368364257812453,0.6798793641060371,1.6938987202684002,-0.16166454803072958,-0.6985338127310255,1.8393960389610085
215,1790566074.0466647,0.6423921386718751,-0.10097402343750006,-0.24242387695312453,0.6939976580317587,1.7080863973060807,-0.16504652524437366,-0.7037195867047857,1.854729293689314
216,1790566074.0567179,0.6519722167968751,-0.10097402343750006,-0.31427446289062455,0.7307749057742602,1.7151241524084764,-0.1666437736928328,-0.7063550017119176,1.8623529187371886
217,1790566074.0767179,0.6759224121093751,-0.12971425781250007,-0.2807441894531245,0.7433129864218003,1.7290169020913515,-0.16969076783577336,-0.7117040402416859,1.8774496119210784
218,1790566074.1017795,0.723822802734375,-0.04349355468750006,-0.2615840332031245,0.770867917015888,1.746445328179631,-0.17326174515574175,-0.7184207758425043,1.8963700397910261
219,1790566074.1217794,0.7381929199218751,-0.019543359375000062,-0.3190645019531245,0.8044332702748188,1.7604605347649893,-0.17577859345526314,-0.7238478959768229,1.9115635445603727
220,1790566074.146364,0.7046626464843752,-0.057863671875000064,-0.35738481445312453,0.792225697307854,1.7777646282699275,-0.17855103245780585,-0.7307656519297044,1.9303745705846076
221,1790566074.166364,0.723822802734375,-0.08181386718750007,-0.34780473632812453,0.8072057316661572,1.791872980250962,-0.18067766533371532,-0.7366070016000394,1.9457756990234274
222,1790566074.175917,0.7717231933593751,-0.03391347656250006,-0.37654497070312454,0.8593561112968032,1.7986725016232483,-0.1816239957743369,-0.739497571461235,1.9532195734565367
223,1790566074.195917,0.7621431152343751,-0.05307363281250006,-0.41486528320312455,0.8693630667369547,1.8130734025247561,-0.1834385207893723,-0.7458286058424928,1.9690467650985453
224,1790566074.2212124,0.6998726074218751,-0.15845449218750007,-0.5058760253906246,0.8779749687655727,1.8313289103186752,-0.18579054649753712,-0.7543816407675008,1.9893153005152064
225,1790566074.2412124,0.6423921386718751,-0.3644261718750001,-0.5681465332031246,0.9318071569620088,1.845611024687701,-0.18815555917117777,-0.7617407894583443,2.005475404790701
226,1790566074.2663336,0.6280220214843751,-0.6853587890625001,-0.6447871582031246,1.1313172890918792,1.8632529359640553,-0.19265846122426392,-0.7718830804960191,2.02598920925458
227,1790566074.2863336,0.5370112792968751,-0.8530101562500001,-0.6304170410156246,1.1888789199748693,1.8769390883897135,-0.1980132086470089,-0.7806593588814821,2.0424344804505083
228,1790566074.2967024,0.4699507324218751,-1.0110814453125,-0.42444536132812455,1.1930185433227904,1.8837533155293016,-0.20182254715713221,-0.7853471754197247,2.050860570650372
229,1790566074.3167024,0.44121049804687507,-0.8721703125000001,-0.04603227539062452,0.9785022881786009,1.8962921765396574,-0.2108929416381494,-0.7937387006156206,2.0664996918686627
230,1790566074.3408694,0.5992817871093751,-0.6422484375,0.4042313964843755,0.9669667717847942,1.9110567770743196,-0.22295408223271762,-0.801708398590696,2.08436630282606
231,1790566074.3608694,0.6328120605468751,-0.2638353515625001,0.6389433105468755,0.9371812795827128,1.9232908695616653,-0.23279744869749863,-0.8057498115326095,2.0982076112349244
232,1790566074.3864481,0.6471821777343751,-0.00038320312500005993,0.7491142089843755,0.9899580880643029,1.939046067055482,-0.2440050247698723,-0.8074803640193939,2.1145833255166777
233,1790566074.4064481,0.4651606933593751,0.01877695312499994,0.9023954589843756,1.0154036680113259,1.9511857026904298,-0.25142614477794306,-0.8061532510808619,2.1260817992000423
234,1790566074.430806,-0.17670454101562494,0.22474863281249996,0.8640751464843756,0.9101441103136501,1.9642797038839854,-0.25866366143718017,-0.8015523643112455,2.137238367045565
235,1790566074.450806,-0.531167431640625,0.19121835937499995,0.7491142089843755,0.9380167373240476,1.9723565649273642,-0.26309097592381653,-0.7959214956135793,2.1431048289816284
236,1790566074.4612088,-0.531167431640625,0.01398691406249994,0.5383524902343755,0.7564111831155348,1.9750986888442734,-0.26488829480075243,-0.7924274452217077,2.144556339977437
237,1790566074.4812088,0.010106982421875067,-0.04828359375000006,0.10245893554687549,0.1137158299995648,1.9787981553607157,-0.26787683801370005,-0.7857564078896316,2.145882865522442
238,1790566074.506251,0.3597798339843751,0.26785898437499994,-0.24242387695312453,0.509862040722012,1.9834302034114786,-0.2706451399016998,-0.7789193106404152,2.148012908724212
239,1790566074.526251,-0.06174360351562494,0.42593027343749995,-0.2711641113281245,0.5086834434872141,1.9870217271301267,-0.2714837211227517,-0.7750483225458233,2.150036896707343
240,1790566074.5513268,-0.684448681640625,0.5696314453125,-0.18494340820312452,0.9094800962781895,1.9894459300116942,-0.27050508293601616,-0.7717807343547716,2.15097968615594
241,1790566074.5713267,-0.45452680664062495,0.5169410156249999,-0.08914262695312453,0.6940958431876929,1.98938095003906,-0.2682117607503061,-0.7699766106498854,2.1499856031915603
242,1790566074.5807276,0.2543989746093751,0.6606421874999999,-0.20410356445312453,0.7367667223820287,1.9892138853845278,-0.26646522459597366,-0.7694625549244848,2.1494297432473823
243,1790566074.6007276,0.4364204589843751,0.775603125,-0.21368364257812453,0.9152506343266602,1.9899480027739676,-0.2611525162504935,-0.7691596442980768,2.149348796474135
244,1790566074.626704,-0.05216352539062494,0.7516529296875,-0.14662309570312454,0.7675946145476451,1.9915070889955175,-0.25231184389915934,-0.7695271922282426,2.1498683335660065
245,1790566074.646704,-0.19107465820312494,0.9719947265625,-0.24242387695312453,1.0198296963658853,1.992162559005053,-0.24394069348818984,-0.7703512998563101,2.149804607082087
246,1790566074.6714242,0.3454097167968751,0.9815748046875,-0.3190645019531245,1.0883929097810205,1.9931373412217526,-0.23152394015043595,-0.7722581224172791,2.150019163513377
247,1790566074.6914241,0.5226411621093751,1.1971265625,-0.3286445800781245,1.3469495354276757,1.9951097703922902,-0.2197169362674559,-0.7745409998754217,2.151430289013695
248,1790566074.7162957,-0.06174360351562494,1.302507421875,-0.06040239257812453,1.3053682643774192,1.9980544578572785,-0.20257367975548565,-0.7776798168195611,2.1536117592968163
249,1790566074.7362957,-0.30603559570312494,1.5515894531249999,-0.055612353515624526,1.5824602209059315,1.999515513487062,-0.1865749479296646,-0.7799992521533303,2.1543610034602234
250,1790566074.7459922,0.16817827148437509,1.5994898437499998,-0.18973344726562452,1.6194599322830339,2.000017361048636,-0.1776902762438976,-0.781133518015017,2.15448667940512
251,1790566074.7659922,0.5226411621093751,1.4462085937499998,-0.3094844238281245,1.5685833384170624,2.0019334339825665,-0.15754502692838965,-0.7838709517338406,2.1556928302935963
252,1790566074.8059645,0.2591890136718751,1.149226171875,-0.26637407226562454,1.2078306525776032,2.007532372394891,-0.11554086860065851,-0.7902477508344047,2.160561831151631
253,1790566074.8259645,-0.23418500976562495,1.082165625,-0.20889360351562453,1.1267482399898876,2.009951073583213,-0.09432966529663055,-0.7936726664123639,2.1630343745219114
254,1790566074.8209994,-0.15275434570312493,1.3743580078125,-0.37175493164062456,1.4319202327534375,2.009951073583213,-0.09432966529663055,-0.7936726664123639,2.1630343745219114
255,1790566074.8409994,0.6855024902343752,1.609069921875,-0.6591572753906245,1.869092825758191,2.0120043594387407,-0.0713973686379035,-0.798433860929548,2.165815263804321
256,1790566074.8663857,0.4891108886718751,1.1444361328125,-0.6304170410156246,1.3951305204557447,2.016456125546913,-0.04141264379452399,-0.8060261271479718,2.1719779996507516
257,1790566074.8863857,-0.09048383789062493,0.775603125,-0.6208369628906245,0.9975901297228422,2.0200351952133153,-0.01845328644687028,-0.8129871750879433,2.1775745361614285
258,1790566074.9267485,0.22565874023437507,0.34449960937499996,-0.5968867675781245,0.7251728491977307,2.026584013660114,0.02432249215263888,-0.8286146193502918,2.1895745101385065
259,1790566074.9467485,1.102235888671875,-0.4219066406250001,-0.5346162597656245,1.2956634257728885,2.031334079374005,0.042222647024531615,-0.8368938256849838,2.1973830274710053
260,1790566074.9416344,1.3273677246093751,-0.7859496093750001,-0.6304170410156246,1.6664475720568832,2.031334079374005,0.042222647024531615,-0.8368938256849838,2.1973830274710053
261,1790566074.9616344,0.9968550292968751,-0.8338500000000001,-0.8794990722656245,1.5692496264299598,2.0413500743110173,0.05118579657247793,-0.84662584031366,2.210544146844203
262,1790566074.986191,1.1597163574218752,-1.0350316406250002,-0.8842891113281246,1.7883511286042868,2.055775208675859,0.057098251262146224,-0.860031188756072,2.22915355337775
263,1790566075.006191,1.8351118652343752,-1.4038646484375004,-0.8699189941406246,2.468852074431186,2.070253628963515,0.057532964046454076,-0.8719427067635095,2.2471190920969564
264,1790566075.0318804,1.8255317871093752,-1.3272240234375003,-0.9034492675781246,2.431113015312909,2.0931141239989848,0.05274558830589805,-0.8883644427221148,2.274445034786013
265,1790566075.0518804,1.2890474121093751,-1.2601634765625003,-0.7453779785156246,1.9507033473042494,2.1129139632058376,0.04569645600803299,-0.901704795370354,2.2977304280519473
266,1790566075.0768447,1.9069624511718752,-1.1499925781250002,-0.6783174316406245,2.327896745560156,2.1399052674943912,0.033704836045204495,-0.9185243318077617,2.328952021392019
267,1790566075.0968447,2.941610888671875,-1.4852953125000004,-0.8555488769531245,3.4045764298284107,2.1655584130847125,0.021585963854734998,-0.9322787437816203,2.3578067881878177
268,1790566075.1059175,2.5584077636718754,-1.5188255859375002,-0.8555488769531245,3.095843233526315,2.1791926350912645,0.014868825244537358,-0.9387466873241599,2.372835216731715
269,1790566075.1259174,1.7153608886718752,-1.1739427734375,-0.6687373535156246,2.1835325190338652,2.2111501967391867,-0.0017564590927961268,-0.9531523246961141,2.40783878857408
270,1790566075.1513846,1.9261226074218751,-0.8865404296875001,-0.8076484863281246,2.2689641490689647,2.2526949979055093,-0.02368652113075494,-0.9715642927941497,2.4533921374098306
271,1790566075.1713846,2.510507373046875,-1.0781419921875002,-1.2148018066406245,2.990113853159789,2.287082161849899,-0.04127242346536138,-0.9868884284923133,2.4912641365946606
272,1790566075.1959898,2.443446826171875,-1.3272240234375003,-1.2148018066406245,3.0344191256542596,2.3321836891598418,-0.0641012956136853,-1.0073968423388908,2.541267033201535
273,1790566075.2159898,2.2422651855468754,-1.130832421875,-1.2962324707031245,2.8260845257678278,2.3703732620045956,-0.08356102994728298,-1.0253328198574605,2.583981276717966
274,1790566075.226103,2.314115771484375,-0.9296507812500001,-1.5309443847656246,2.9262899870239893,2.3902436227377795,-0.09348794026669792,-1.0351863312950866,2.6064564664528955
275,1790566075.246103,2.443446826171875,-1.2074730468750001,-1.4111934082031246,3.0691839936072514,2.4307813063888033,-0.11338039458630084,-1.0561629245860045,2.652740657628609
276,1790566075.2718792,2.385966357421875,-1.3368041015625003,-1.2962324707031245,3.0265655920215013,2.4845261002525407,-0.1400909510118128,-1.0843765424511915,2.714473780166221
277,1790566075.2918792,2.146464404296875,-1.1212523437500002,-1.2004316894531246,2.702878557819735,2.5267707122861203,-0.1613942806799995,-1.1067290884761596,2.7632349921029866
278,1790566075.315694,2.3620161621093754,-1.1260423828125001,-1.0232002441406245,2.8096317441197503,2.5775806410127116,-0.18697005981352172,-1.1333245515661776,2.8219327248134127
279,1790566075.335694,2.433866748046875,-1.217053125,-1.2195918457031245,2.9820009936997156,2.6210444979517913,-0.20874165345248377,-1.1556735790071835,2.872112246996051
280,1790566075.346141,2.1991548339843754,-1.4182347656250003,-1.3489229003906247,2.9440218792431723,2.643972503935716,-0.22047303817177932,-1.1676090252016018,2.8987082981667935
281,1790566075.366141,2.093773974609375,-1.5523558593750002,-1.2291719238281247,2.881763659499989,2.6877216245296456,-0.2440188851201742,-1.1908981892541857,2.9498527496179308
282,1790566075.391701,2.271005419921875,-1.5619359375000004,-1.0806807128906246,2.9605709404407667,2.743613407774872,-0.2755667397051453,-1.2206251060415945,3.0155061281404856
283,1790566075.411701,2.419496630859375,-1.4805052734375004,-1.0088301269531246,3.010581013104343,2.7878229821910816,-0.3011129898437598,-1.243530849643469,3.067408513175321
284,1790566075.436279,2.2278950683593752,-1.3272240234375003,-0.8220186035156246,2.720432801694508,2.8425697802765173,-0.33297348434497126,-1.270832410486312,3.131467597239443
285,1790566075.456279,2.0889839355468753,-0.9727611328125001,-0.6543672363281245,2.3954779448918493,2.886911928888322,-0.35846047595384006,-1.2919307167916,3.183055038004904
286,1790566075.4663339,2.309325732421875,-0.7715794921875001,-0.7741182128906245,2.554912769297442,2.909177501492692,-0.3706672741452621,-1.302023905525558,3.208734051596294
287,1790566075.4863338,2.5871479980468752,-0.9248607421875001,-0.6399971191406245,2.821045633935379,2.954167246934565,-0.39385031568332574,-1.3212099200170762,3.260033411911039
288,1790566075.5117366,2.4913472167968753,-0.9440208984375001,-0.40528520507812454,2.694854821466919,3.0124146412183825,-0.4224397860495296,-1.3439149938971386,3.3255382803819886
289,1790566075.5317366,2.247055224609375,-0.5847679687500001,-0.6352070800781245,2.4072180612278706,3.058502404407713,-0.44386553649397054,-1.3606703599989425,3.3768146826313243
290,1790566075.5564985,2.084193896484375,-0.4745970703125001,-0.9273994628906246,2.330059299902419,3.115048107000755,-0.4683810122121399,-1.3812053971926657,3.4395688437308545
291,1790566075.5764985,1.9883931152343752,-0.6901488281250001,-0.9178193847656245,2.296171816028871,3.15997772795962,-0.48695892322640827,-1.398071296275354,3.489583296552715
292,1790566075.5867767,1.7488911621093752,-0.8051097656250001,-0.7070576660156246,2.0510369510763296,3.1824850572270154,-0.4962268640866777,-1.4066913061377884,3.5147165847160666
293,1790566075.6067767,1.935702685546875,-0.6374583984375001,-0.8028584472656246,2.190406305441449,3.2252386267797455,-0.5137197078658644,-1.423213506499002,3.5625284311852266
294,1790566075.631205,2.031503466796875,-0.4745970703125001,-0.8124385253906246,2.2388177845228547,3.2768940932222543,-0.5339183214553923,-1.4433263943066406,3.620261696712387
295,1790566075.651205,1.9500728027343752,-0.49854726562500007,-0.8890791503906246,2.200407927563837,3.3188140889530824,-0.5494344855681361,-1.4598754598232897,3.6671026123029695
