imu_index,t_imu,ax,ay,az,mag,vx,vy,vz,velocity
0,1791618071.1970124,0.024189697265624987,-0.0008143066406250082,-0.006370751953124652,0.02502780512861231,0.0,0.0,0.0,0.0
1,1791618071.2170124,0.009819580078124987,-0.005604345703125008,-0.011160791015624652,0.01588697893764868,8.185570196554175e-05,-1.0666209310322336e-05,-3.44199903678658e-05,8.943634441460125e-05
2,1791618071.2262704,0.0002395019531249864,0.0039757324218749925,0.01278940429687535,0.013395248103145845,0.00012104774487305611,-1.5993839316396827e-05,-4.683227985667871e-05,0.00013077316953987724
3,1791618071.2462704,-0.009340576171875014,-0.01997446289062501,0.02715952148437535,0.03498378393272805,0.00017936220859288236,-4.977472831316851e-05,-9.700911419675285e-06,0.00018639322179826918
4,1791618071.256945,0.014609619140624986,0.027925927734374995,0.01757944335937535,0.03608788217788814,0.00021003580066359864,-5.8734129180163417e-05,4.296169401029744e-05,0.00022228459830403343
5,1791618071.2769449,0.03855981445312499,-0.0008143066406250082,-0.006370751953124652,0.039091033069140475,0.000338640098410657,-3.2335320615872265e-05,0.00014364425455736673,0.0003692646220236272
6,1791618071.315799,0.0002395019531249864,-0.02955454101562501,-0.015950830078124652,0.033585074601837905,0.0006640681059418441,-7.723954015164853e-05,0.000244855134031327,0.0007119736178774643
7,1791618071.335799,-0.023710693359375014,0.008765771484374992,0.01278940429687535,0.02833027694124302,0.0007712470387710588,-0.0001280697693574313,0.00028439615992891095,0.0008319285043912748
8,1791618071.3464983,-0.018920654296875016,0.027925927734374995,0.007999365234375349,0.03466754163479612,0.0007857740602264959,-0.00012174018009580029,0.00031905808819025815,0.0008567727871578399
9,1791618071.3664982,-0.023710693359375014,0.037506005859375,-0.0015807128906246515,0.04440040662368273,0.000744908962271079,-1.353534201829121e-05,0.00038376010460949004,0.000838059893709999
10,1791618071.3761215,-0.018920654296875016,-0.01039438476562501,-0.0015807128906246515,0.021645624197982816,0.0006974265048513731,5.028709647343402e-05,0.00040794084519489256,0.0008095358268287167
11,1791618071.3961215,-0.014130615234375015,-0.01997446289062501,-0.0015807128906246515,0.024518403453599784,0.000563969698137148,0.00011747914787161327,0.00044591510388136414,0.0007284939604904587
12,1791618071.4371288,-0.04766088867187502,0.018345849609374992,0.007999365234375349,0.051692556050514676,0.00014133708280922232,0.00022957332422511695,0.0005318379232682198,0.0005962647556237451
13,1791618071.4571288,-0.014130615234375015,0.032715966796874996,0.0032093261718753488,0.03578139942531123,-0.00012655671985375673,0.0003526357529718559,0.0005842711201780296,0.0006940758744462017
14,1791618071.4676557,0.05292993164062499,0.023135888671874993,0.0032093261718753488,0.05785453121922354,-0.00021577793594848178,0.000451789080560181,0.0006127970271431316,0.0007913240091334654
15,1791618071.4876556,0.014609619140624986,0.037506005859375,0.02236948242187535,0.04604926916662389,-0.00025855289757618005,0.000702875488188093,0.0006972319621439357,0.0010232379790526597
16,1791618071.4957724,-0.004550537109375014,0.04229604492187499,0.04152963867187535,0.05945059875420592,-0.0002671850838942568,0.000838070341332847,0.0007652575789805626,0.001165919777799711
17,1791618071.5157723,0.014609619140624986,-0.01997446289062501,0.03194956054687535,0.04041280191154192,-0.00027017606765436985,0.0011547101296716159,0.001017951814931302,0.0015628744314951698
18,1791618071.5572674,0.03855981445312499,-0.02955454101562501,-0.006370751953124652,0.048999149643151246,-0.00010998053395104074,0.001558977177457251,0.001543193523669263,0.0021963496554910124
19,1791618071.5772674,0.028979736328124988,-0.02955454101562501,-0.03990102539062465,0.05749250246349676,5.695867301951923e-05,0.001635936466284925,0.0016889704591752264,0.0023520530657533062
20,1791618071.587003,-0.004550537109375014,-0.02955454101562501,-0.015950830078124652,0.03389110890498076,0.00014386933385890794,0.0016246197427465924,0.0017085062379698912,0.002362007887143699
21,1791618071.607003,-0.004550537109375014,0.013555810546874993,0.02715952148437535,0.030693761496871197,0.0002819785118857974,0.0015808607483907727,0.001759432047137721,0.002382065010754995
22,1791618071.6160028,-0.004550537109375014,0.04708608398437499,0.036739599609375354,0.05989661820524284,0.0003286611875571792,0.001605055724148921,0.0018220418737104774,0.002450318069839934
23,1791618071.6360028,-0.028500732421875015,0.037506005859375,0.0032093261718753488,0.047215378835547564,0.0003672643531023583,0.0017776462062732677,0.0020002304040560837,0.0027010795636278097
24,1791618071.67627,-0.062031005859375016,0.013555810546874993,-0.015950830078124652,0.06546781398282511,0.0001599185544605035,0.0022272192977731272,0.002266695046390258,0.003181821204556267
25,1791618071.69627,-0.03808081054687502,-0.0008143066406250082,-0.006370751953124652,0.038618618665874044,-7.778609605928446e-05,0.002436131912570607,0.0023457085164617334,0.0033827707306860414
26,1791618071.70661,-0.009340576171875014,-0.01039438476562501,0.0032093261718753488,0.014338388066862351,-0.00021902045315136376,0.0025192461104280345,0.002377979256395384,0.003471218268512102
27,1791618071.72661,-0.023710693359375014,-0.015184423828125009,0.007999365234375349,0.029270352760555753,-0.0005008011305736594,0.0026175262304054363,0.002447848695570234,0.0036185920709095195
28,1791618071.7355275,-0.06682104492187502,-0.03434458007812501,-0.011160791015624652,0.07595502275220796,-0.0006681444219744158,0.0026216482326322623,0.0024722145920827356,0.003664873996958995
29,1791618071.7555275,-0.07161108398437502,0.013555810546874993,0.01757944335937535,0.0749729563097619,-0.0011948068129705573,0.002598323075001202,0.0025282924171932297,0.0038172121593174966
30,1791618071.7958915,-0.023710693359375014,0.056666162109374994,0.04152963867187535,0.07414824202909197,-0.002386849621086595,0.002770892522035657,0.0028034334438163115,0.004608051166845061
31,1791618071.8158915,0.019399658203124986,0.018345849609374992,0.02236948242187535,0.03483260943585004,-0.0028953648953569163,0.0029560909356711788,0.003015162270407901,0.00511984521388233
32,1791618071.8258915,0.019399658203124986,-0.015184423828125009,-0.015950830078124652,0.02934863617906991,-0.003082384427368549,0.003037171328540985,0.003109961006376162,0.005328917422720658
33,1791618071.8458915,-0.018920654296875016,-0.03434458007812501,0.007999365234375349,0.0400191352220101,-0.0033995991266141706,0.0031007145614120896,0.0032591916716312426,0.005638619987679543
34,1791618071.8575408,-0.014130615234375015,-0.03434458007812501,0.04631967773437535,0.05936949564432125,-0.0035855286991001043,0.003072160824622145,0.0033805342788103022,0.0058070819001134295
35,1791618071.8775408,-0.023710693359375014,0.023135888671874993,0.07026987304687535,0.07768733089921215,-0.003913618556527421,0.0030136791936186224,0.0037324943075830288,0.0061911377180761595
36,1791618071.9156666,-0.03808081054687502,0.085406396484375,0.04152963867187535,0.10231867659704054,-0.0046219262389660095,0.003229287942775808,0.0046224744012810974,0.007290937687725683
37,1791618071.9356666,-0.033290771484375016,0.037506005859375,-0.0015807128906246515,0.05017444164902022,-0.005044812524252286,0.003509794673657668,0.005079233095094367,0.007972916711617548
38,1791618071.9463296,0.014609619140624986,0.0039757324218749925,-0.035110986328124656,0.03823648494119485,-0.005251395671387902,0.0036700886061085593,0.005256883328297389,0.008287432002827564
39,1791618071.9663296,-0.023710693359375014,-0.0008143066406250082,-0.03032094726562465,0.03849960932233037,-0.005594401057339389,0.003930386019189629,0.005441961805898791,0.008738432682527376
40,1791618071.9758427,-0.052450927734375014,0.027925927734374995,-0.03032094726562465,0.06671069706656464,-0.005787421372252467,0.004054970308103612,0.0054735235563147045,0.008938483677958946
41,1791618071.9958427,-0.028500732421875015,0.0039757324218749925,-0.0015807128906246515,0.028820077205244484,-0.006253776112321482,0.004325454917581938,0.005482071969992279,0.009374027362412144
42,1791618072.0359666,0.014609619140624986,-0.01997446289062501,0.02236948242187535,0.03335886513395895,-0.007090838883685423,0.004738559045125266,0.005559208865154741,0.010180311444397891
43,1791618072.0559666,0.014609619140624986,-0.0008143066406250082,0.036739599609375354,0.03954620394167177,-0.007401662520304773,0.004882402689020811,0.005680554288402001,0.010530487220718917
44,1791618072.0661297,-0.009340576171875014,0.032715966796874996,0.02236948242187535,0.04071823412796062,-0.007531900609661777,0.004968849601652158,0.005778021843279907,0.010714687563297494
45,1791618072.0861297,-0.004550537109375014,0.07582631835937499,0.01278940429687535,0.07703185578830372,-0.007770589313791392,0.005276264484738961,0.005993796199076046,0.011142110126568716
46,1791618072.0967314,0.009819580078124987,0.027925927734374995,-0.006370751953124652,0.030279829477467095,-0.007873946936638846,0.0054972747254957745,0.0060961224448103654,0.011374611141955563
47,1791618072.1167314,-0.004550537109375014,-0.02476450195312501,-0.006370751953124652,0.025972570635544975,-0.00803177794507845,0.005856408100288978,0.006241090953174189,0.01173704345574181
48,1791618072.1571615,-0.033290771484375016,-0.01039438476562501,-0.006370751953124652,0.03545285857485931,-0.008417720246102,0.0063668889249423365,0.006451551888245455,0.012370036802326515
49,1791618072.1771615,-0.033290771484375016,-0.0008143066406250082,-0.006370751953124652,0.033904646315484316,-0.008679872991351548,0.006564722229339719,0.006520933995918181,0.012686936323380147
50,1791618072.186146,-0.03808081054687502,0.013555810546874993,0.007999365234375349,0.04120555758198993,-0.008828067751414356,0.006648849536273149,0.006548524594471573,0.012846211688430207
51,1791618072.206146,-0.052450927734375014,0.07103627929687499,0.04631967773437535,0.09971341605800418,-0.009244269268078996,0.0069349175144435594,0.006682208133967536,0.013349213489136645
52,1791618072.2467115,-0.033290771484375016,0.05187612304687499,0.02715952148437535,0.0673576069620918,-0.010222676807627526,0.0078020588649275885,0.007136237218032756,0.01470717937869246
53,1791618072.2667115,-0.023710693359375014,0.013555810546874993,0.03194956054687535,0.04203250406891709,-0.010718205081389697,0.008263603949480022,0.00741517300346724,0.015432169681283935
54,1791618072.2795062,-0.04766088867187502,-0.015184423828125009,0.02715952148437535,0.0569189480159748,-0.011056150322970037,0.008513018574632599,0.007623573146275831,0.015900591584364653
55,1791618072.2995062,-0.033290771484375016,0.08061635742187499,0.02236948242187535,0.09004258044846875,-0.011626595555501959,0.00894255622505792,0.007974761693976871,0.01669562398130902
56,1791618072.3071878,-0.014130615234375015,0.037506005859375,-0.0015807128906246515,0.04011076433662178,-0.011840148484564092,0.009150839534725981,0.008101390587186308,0.017016448212625934
57,1791618072.3271878,0.04334985351562499,-0.005604345703125008,-0.015950830078124652,0.04653007060780679,-0.012268928559850081,0.009659638801311467,0.008355332679400817,0.01771007662213719
58,1791618072.3663144,0.028979736328124988,-0.0008143066406250082,0.01757944335937535,0.03390464631548454,-0.012769688888861128,0.010486877215286225,0.008782387970542037,0.018712826791052017
59,1791618072.3863144,0.005029541015624987,0.05187612304687499,-0.020740869140624653,0.05609467067298715,-0.012936248486787573,0.01092289356302548,0.008963195477970908,0.01915711361028627
60,1791618072.3959954,-0.023710693359375014,0.023135888671874993,0.0032093261718753488,0.03328312032693432,-0.013018342051911644,0.011156753408250878,0.009024858140134363,0.01937520169811499
61,1791618072.4159954,-0.014130615234375015,0.018345849609374992,0.007999365234375349,0.02449968018045723,-0.013219261716694918,0.011629637991305956,0.009149951889358993,0.019842353180025973
62,1791618072.4265275,0.009819580078124987,-0.005604345703125008,-0.006370751953124652,0.012977647094873802,-0.013312601987510614,0.011851373538183926,0.009207232362868642,0.020061245081083413
63,1791618072.4465275,0.04334985351562499,0.018345849609374992,0.0032093261718753488,0.0471813498343724,-0.013383508935567669,0.012228390289061359,0.009294946942487328,0.02037272390117935
64,1791618072.4862907,0.019399658203124986,0.0039757324218749925,-0.006370751953124652,0.020802395706664752,-0.013316203129531232,0.012932093607366166,0.009433751021854387,0.020822006848499424
65,1791618072.5062907,-0.028500732421875015,0.032715966796874996,0.0032093261718753488,0.04350776949597657,-0.013301079446669294,0.013287985696163596,0.009488351857452464,0.021059869403177178
66,1791618072.5168467,-0.028500732421875015,0.032715966796874996,0.01278940429687535,0.04523488802137658,-0.013339422498832841,0.013499451829277406,0.009525513587307875,0.02123466037862004
67,1791618072.5368466,-0.004550537109375014,0.032715966796874996,0.01278940429687535,0.03542048466222562,-0.013450749293347466,0.013938157305994112,0.009623729229221577,0.021628940101551395
68,1791618072.5459023,-0.023710693359375014,0.04708608398437499,0.02715952148437535,0.05930375950836652,-0.013512789177366558,0.014161198488162488,0.00968866104755186,0.021840447954825447
69,1791618072.5659022,-0.004550537109375014,0.061456201171874995,0.01757944335937535,0.06408282827159906,-0.013671647626162329,0.014742723985265705,0.00987766506389634,0.022401565267503004
70,1791618072.6064398,0.019399658203124986,-0.005604345703125008,-0.025530908203124654,0.03255123197107274,-0.013900190744152986,0.015914412370713234,0.010179115536781802,0.023454172697839917
71,1791618072.6264398,0.019399658203124986,-0.02476450195312501,-0.015950830078124652,0.03527118194171572,-0.013937834442962453,0.01636022236213936,0.0102433102825016,0.02380851759857548
72,1791618072.6354766,-0.009340576171875014,-0.03434458007812501,0.01757944335937535,0.039696767787703154,-0.013945474385439666,0.016491380023606825,0.010269068947063736,0.023914339797651132
73,1791618072.6554766,0.0002395019531249864,0.023135888671874993,-0.006370751953124652,0.02399819131249657,-0.013973498238779783,0.016721300713619932,0.010334339151874811,0.024117610086624684
74,1791618072.666035,0.024189697265624987,0.008765771484374992,-0.0015807128906246515,0.025777487402022986,-0.013966728477554825,0.016849735465577335,0.010357331331021133,0.02421275287789944
75,1791618072.686035,0.033769775390624986,-0.05350473632812501,0.01278940429687535,0.06455016190331651,-0.013868889386220782,0.016989419358754664,0.010411163967065032,0.0242771249966706
76,1791618072.7261837,0.028979736328124988,-0.005604345703125008,0.05110971679687535,0.05902064858559744,-0.013512995793394218,0.017049778564301402,0.010695429991110792,0.024242281804705466
77,1791618072.7461836,0.028979736328124988,0.061456201171874995,0.05589975585937535,0.0879856379488345,-0.013275362372690594,0.017159113872711372,0.010976309428255976,0.024313572417227095
78,1791618072.7865832,0.009819580078124987,0.08061635742187499,0.03194956054687535,0.08727081789476172,-0.012749789307632788,0.017777315764128526,0.011724754999516286,0.024820555250945578
79,1791618072.8065832,0.019399658203124986,0.061456201171874995,-0.006370751953124652,0.06475953892149237,-0.01248480126431047,0.018250561498564997,0.012078066340752461,0.02519589141415419
80,1791618072.7865832,0.033769775390624986,-0.0008143066406250082,-0.015950830078124652,0.03735625523817173,-0.01248480126431047,0.018250561498564997,0.012078066340752461,0.02519589141415419
81,1791618072.8065832,0.028979736328124988,-0.01997446289062501,-0.015950830078124652,0.03864237655214556,-0.012131432262014396,0.018638616758927803,0.01225702135024866,0.025392996195693008
82,1791618072.8763506,0.009819580078124987,-0.04392465820312501,-0.015950830078124652,0.04775174061071776,-0.010880630806247425,0.0194548913489762,0.012620717150076701,0.02561568709842798
83,1791618072.8963506,0.033769775390624986,-0.0008143066406250082,0.01278940429687535,0.03611965790960873,-0.010510468649999929,0.019586681589624937,0.012704595432379406,0.025603023103462207
84,1791618072.8763506,0.08167016601562499,0.018345849609374992,0.036739599609375354,0.09141326158915218,-0.010510468649999929,0.019586681589624937,0.012704595432379406,0.025603023103462207
85,1791618072.8963506,0.04334985351562499,0.05187612304687499,0.07505991210937535,0.10101649542558785,-0.009908310856731278,0.01980958559299263,0.012996046018747183,0.02568056692367041
86,1791618072.9067845,0.03855981445312499,0.090196435546875,0.02715952148437535,0.10178357373997657,-0.009577191112650759,0.02001960846799972,0.013205278505917682,0.025824149419469644
87,1791618072.9267845,-0.023710693359375014,0.008765771484374992,-0.011160791015624652,0.027633294870374036,-0.009015423719552027,0.02051024211886925,0.01357017928092503,0.02619346602368893
88,1791618072.9668326,-0.009340576171875014,-0.005604345703125008,0.01278940429687535,0.016799521310194188,-0.008158542408074596,0.021354819254292313,0.014196149204434811,0.026909492225651907
89,1791618072.9868326,-0.04766088867187502,0.018345849609374992,0.02236948242187535,0.05575414110812989,-0.007880307910749295,0.021732445118705063,0.014514604774113862,0.02729601024608678
90,1791618072.995838,-0.062031005859375016,0.04708608398437499,-0.0015807128906246515,0.07789379722514508,-0.007847906043655276,0.021921164945091703,0.014650526683868612,0.027509362659551104
91,1791618073.015838,-0.014130615234375015,-0.0008143066406250082,-0.03032094726562465,0.03346187719318371,-0.007900980974177454,0.0223468328677243,0.0148592640442376,0.02797506331554389
92,1791618073.0268312,-0.023710693359375014,-0.03434458007812501,-0.020740869140624653,0.046603978510783475,-0.007956978184995253,0.022516722295822612,0.014914688784192557,0.028156069084888338
93,1791618073.0468311,-0.018920654296875016,0.018345849609374992,-0.015950830078124652,0.030805686765479935,-0.00810751940524174,0.02275544175929241,0.014945360276888794,0.02840608727672514
94,1791618073.085874,-0.018920654296875016,0.027925927734374995,-0.011160791015624652,0.03553043561429887,-0.008468124231169554,0.023287049397586298,0.014916865486772547,0.02892245967393872
95,1791618073.105874,0.04813989257812499,0.07582631835937499,0.02236948242187535,0.09256064799467045,-0.008581309069618692,0.023674148890514893,0.014921271377392225,0.029270267005211483
96,1791618073.117581,0.06251000976562499,0.027925927734374995,0.01278940429687535,0.0696486010124611,-0.008540471172493222,0.023957842382878302,0.014954333418125219,0.029505083417463582
97,1791618073.1375809,0.07209008789062499,-0.06787485351562501,-0.03032094726562465,0.1035535434204469,-0.008279268773390112,0.024309882422608304,0.01497604692253938,0.02972875134022911
98,1791618073.147399,0.04813989257812499,-0.096615087890625,0.0032093261718753488,0.10799177857607538,-0.00808174515339634,0.024335654583873052,0.014965143488797777,0.029689968143976397
99,1791618073.167399,-0.009340576171875014,-0.01039438476562501,0.02715952148437535,0.030543889816765365,-0.007681534422031991,0.024219764981387948,0.014991817439849831,0.02950182328230433
100,1791618073.2060032,0.110410400390625,0.037506005859375,0.03194956054687535,0.12090463766572418,-0.0067322862124699935,0.024108123732070268,0.01520672060260416,0.02928770491201195
101,1791618073.2260032,0.115200439453125,0.037506005859375,-0.0015807128906246515,0.12116245449378771,-0.005975854119047927,0.024171478688475932,0.015346909767997716,0.029248912011674073
102,1791618073.2390153,0.024189697265624987,0.056666162109374994,0.02236948242187535,0.06554837241176276,-0.005421501097527877,0.02429841893120927,0.015444724896347501,0.02929753170202059
103,1791618073.2590153,0.024189697265624987,0.037506005859375,0.0032093261718753488,0.04474529811950682,-0.004624687632613743,0.024605520404104065,0.015610885400518752,0.02950456088546585
104,1791618073.2662184,0.04334985351562499,-0.015184423828125009,-0.03032094726562465,0.0550375905168737,-0.004344270356965519,0.02471159288025047,0.01564710588672883,0.029569704601909014
105,1791618073.2862184,0.04813989257812499,0.013555810546874993,-0.020740869140624653,0.05414233934477431,-0.003545225295179157,0.02495949076677309,0.01565599691549913,0.029675832610869195
106,1791618073.3264189,0.005029541015624987,0.061456201171874995,-0.006370751953124652,0.061989897771766535,-0.0020197317564750504,0.025609193551433148,0.015589444933846874,0.030048975091811748
107,1791618073.3464189,-0.04766088867187502,0.04229604492187499,-0.011160791015624652,0.06469218639929075,-0.0014385776966526782,0.026039568218899283,0.015535004128830797,0.030355641520132728
108,1791618073.355961,-0.014130615234375015,0.018345849609374992,0.0032093261718753488,0.02337828606355136,-0.0012471156995096308,0.02625750392764546,0.015507235330113505,0.030520258151952133
109,1791618073.375961,0.06251000976562499,0.0039757324218749925,-0.020740869140624653,0.06598099288353726,-0.0008334469610444028,0.026679250307796092,0.015431466451108022,0.030831918325893774
110,1791618073.3859396,0.03855981445312499,-0.01997446289062501,-0.011160791015624652,0.044837503437667334,-0.0005823753515659786,0.02684613461768783,0.01537545889295943,0.030942831821444746
111,1791618073.4059396,0.019399658203124986,0.027925927734374995,0.04152963867187535,0.05367415641107118,-6.769665896757258e-05,0.027142375201343383,0.015325594528010479,0.031170289733095526
112,1791618073.4467044,0.03855981445312499,-0.005604345703125008,0.036739599609375354,0.05355432905822624,0.0010011902853057468,0.02772385892244532,0.015478501504706033,0.03176788857274321
113,1791618073.4667044,0.12478051757812499,-0.02476450195312501,-0.03032094726562465,0.13077774262899586,0.0016919541622565323,0.02792079950604332,0.015551895654002394,0.032004612360983606
114,1791618073.4762518,0.143940673828125,-0.05829477539062501,-0.04948110351562465,0.1629895028063527,0.0021646646062610944,0.027941236222966834,0.01552453355887843,0.0320376278264477
115,1791618073.4962518,0.04813989257812499,-0.04392465820312501,0.05110971679687535,0.08281924901103349,0.003294481274489491,0.02782429631283322,0.01547825623162517,0.03200970927928196
116,1791618073.5063925,0.05292993164062499,-0.05350473632812501,0.06547983398437535,0.09975942627964923,0.003858276384496548,0.027699797884651354,0.015546983807445292,0.03199802814266319
117,1791618073.5263925,0.096040283203125,-0.02955454101562501,0.03194956054687535,0.10544183852493832,0.0050268879394381825,0.027366497642821886,0.01580834392640863,0.03200153954555727
118,1791618073.5654387,0.100830322265625,0.0039757324218749925,-0.006370751953124652,0.10110957826501098,0.00754269232771943,0.02673848947586745,0.01631696970378999,0.032219288125533006
119,1791618073.5854387,0.07688012695312499,0.032715966796874996,-0.006370751953124652,0.0837942413548275,0.008904589378366894,0.026520104597631017,0.016519303101963364,0.032488383075203214
120,1791618073.595916,0.07688012695312499,-0.03913461914062501,-0.025530908203124654,0.08996610255694512,0.009631847357982141,0.026417817135296978,0.01658433104855076,0.032645268907597974
121,1791618073.615916,0.153520751953125,-0.06787485351562501,-0.020740869140624653,0.1691324944318182,0.01115746310261124,0.02609133623093144,0.01662043475099883,0.03288594928710218
122,1791618073.6571183,0.04813989257812499,-0.005604345703125008,0.007999365234375349,0.049120747066249734,0.014452134665751282,0.025292572177106627,0.016644282482340372,0.03355011986689617
123,1791618073.6771183,0.096040283203125,-0.0008143066406250082,0.0032093261718753488,0.09609734058504898,0.01602777917523744,0.024953375864710862,0.016670935026446683,0.034021768722271285
124,1791618073.6861084,0.09125024414062499,0.027925927734374995,0.02715952148437535,0.09921745865929768,0.01675607876230364,0.02484205670935339,0.016701594670824542,0.034305061165777966
125,1791618073.7061083,0.07688012695312499,0.0039757324218749925,0.0032093261718753488,0.07704972513316609,0.01838547243116581,0.024679407102174703,0.016805124605817925,0.03506438284711562
126,1791618073.7171118,0.07688012695312499,-0.005604345703125008,-0.015950830078124652,0.07871716198688795,0.019274349178424584,0.024602000151042858,0.016843025191548882,0.035502766727212955
127,1791618073.7371118,0.110410400390625,-0.06787485351562501,-0.011160791015624652,0.13008464748109258,0.02092856576403991,0.024372190636187663,0.016860912774736832,0.036280834071775424
128,1791618073.7756424,0.07688012695312499,-0.05350473632812501,-0.015950830078124652,0.09501441843242531,0.024178661774205617,0.02364510368312131,0.016811857611473104,0.03776687926908225
129,1791618073.7956424,0.04334985351562499,-0.015184423828125009,-0.0015807128906246515,0.04595949499353601,0.02579297325065567,0.023221273837203567,0.01676391681702378,0.038542624907750206
130,1791618073.8066478,0.08167016601562499,-0.01039438476562501,0.01757944335937535,0.0841848922343023,0.02665122734534328,0.02300192301760996,0.016754698902594768,0.03898841259705041
131,1791618073.8266478,0.115200439453125,-0.04392465820312501,0.0032093261718753488,0.12333213945655837,0.028272273386542066,0.02258161451733041,0.01677164316505768,0.03988155928632566
132,1791618073.8366468,0.09125024414062499,-0.04871469726562501,0.0032093261718753488,0.10348926784880953,0.02911597534964163,0.02233352761606059,0.01678365731540222,0.040351178783514303
133,1791618073.8566468,0.06730004882812499,0.008765771484374992,0.01278940429687535,0.06906304499696797,0.030788230697604335,0.021851816327504894,0.01682808139178205,0.041335231336335314
134,1791618073.8961906,0.08646020507812499,0.008765771484374992,-0.006370751953124652,0.08713663002616037,0.03405467034476106,0.021094239525666872,0.016921777578480107,0.043486021545688765
135,1791618073.9161906,0.12478051757812499,-0.01997446289062501,0.01757944335937535,0.12758602417059323,0.03577577975223425,0.020751742794578112,0.016978870768673368,0.04470820169132292
136,1791618073.9278789,0.06730004882812499,-0.03913461914062501,0.01757944335937535,0.07981135142556645,0.036799122628446326,0.02052979137128785,0.01703805272395444,0.0454526456941319
137,1791618073.9478788,0.06730004882812499,0.008765771484374992,0.007999365234375349,0.06833831404225028,0.038489426617893625,0.020161420247317773,0.017162498267984414,0.04671691529373211
138,1791618073.956963,0.096040283203125,-0.005604345703125008,-0.0015807128906246515,0.09621664794482904,0.03925330556442455,0.020021353486650673,0.017214917329429556,0.04730782146570054
139,1791618073.976963,0.105620361328125,-0.01039438476562501,0.0032093261718753488,0.10617911158140769,0.04098529959984789,0.019735238090792542,0.017315455926516957,0.04867339539967098
140,1791618074.0186338,0.08646020507812499,-0.01039438476562501,-0.015950830078124652,0.08853157220443164,0.04465299079926638,0.019163553327361558,0.01745368970456915,0.05163102408197402
141,1791618074.0386338,0.07209008789062499,-0.03434458007812501,0.0032093261718753488,0.0799176496607493,0.04638708419111538,0.01886322091471348,0.01749097120134466,0.053042593795903106
142,1791618074.0456846,0.05771997070312499,-0.015184423828125009,-0.006370751953124652,0.06002289750928373,0.04697536228398208,0.01874703286632836,0.017500471090662547,0.053520112027140576
143,1791618074.0656846,0.08646020507812499,0.008765771484374992,-0.025530908203124654,0.09057611763342525,0.04861002248387994,0.018457265309100024,0.017475523713457165,0.054854342194883936
144,1791618074.0757883,0.139150634765625,-0.05350473632812501,-0.011160791015624652,0.14949989706121203,0.0494829211324971,0.01829893467973116,0.01743700696479309,0.05556491434446956
145,1791618074.0957882,0.09125024414062499,-0.02955454101562501,0.03194956054687535,0.1010982312877252,0.051297217662164295,0.01790794669665919,0.017403383737431312,0.05705240450920659
146,1791618074.135707,0.05292993164062499,0.008765771484374992,0.03194956054687535,0.06244350112170177,0.05480691382009136,0.017182378611727434,0.01753764798078323,0.06005498342300612
147,1791618074.155707,0.06251000976562499,-0.015184423828125009,0.01757944335937535,0.06668661692360879,0.05647473235855453,0.016863756168749713,0.01766911993571928,0.06153031339423068
148,1791618074.16614,0.08167016601562499,-0.04871469726562501,0.0032093261718753488,0.09514955344707994,0.057327081452198246,0.01667247496929378,0.017743683085308874,0.062283256007217354
149,1791618074.18614,0.096040283203125,-0.06308481445312501,0.01278940429687535,0.11561573714071367,0.058982475314656585,0.016193099844897366,0.017889175301441487,0.06372732121936864
150,1791618074.1961606,0.100830322265625,-0.02476450195312501,0.01278940429687535,0.1046116786379277,0.059835415811615514,0.015922925660470117,0.017970359701469717,0.06447286541435857
151,1791618074.2161605,0.06251000976562499,-0.015184423828125009,-0.006370751953124652,0.06464251332009688,0.06152745792421916,0.015404646029970298,0.01811771874681407,0.06596349695486055
152,1791618074.256448,0.05771997070312499,-0.05350473632812501,-0.03032094726562465,0.08434282228261382,0.06478788888629737,0.014309688637251038,0.018259163626686628,0.06881594867168804
153,1791618074.276448,0.096040283203125,-0.03434458007812501,-0.035110986328124656,0.1078706055392893,0.06639432255246291,0.013715879159597317,0.01822070085826924,0.07020203236436745
154,1791618074.2867694,0.07688012695312499,-0.01997446289062501,-0.006370751953124652,0.07968763748879629,0.06723285743755847,0.013413350723953742,0.01817171766345209,0.07092521709309792
155,1791618074.3067694,0.03855981445312499,-0.02476450195312501,0.04631967773437535,0.0651586708969892,0.06878713882102358,0.012847958279346162,0.0181509624789255,0.07229244730981203
156,1791618074.3161457,0.05771997070312499,0.0039757324218749925,0.04152963867187535,0.07121876406170273,0.0694742144668069,0.012608034464785636,0.018204469224826658,0.07291797932336555
157,1791618074.3361456,0.12478051757812499,0.018345849609374992,0.01278940429687535,0.12676875256633038,0.07099368984671756,0.012206515108797698,0.01838295986235424,0.07434403958929163
158,1791618074.378922,0.09125024414062499,-0.005604345703125008,0.036739599609375354,0.09852823923089772,0.07444916618864249,0.011517431969656685,0.018866355443679445,0.07766124485924128
159,1791618074.398922,0.019399658203124986,-0.005604345703125008,0.01757944335937535,0.026772976263084693,0.0759884008043697,0.011226766615867818,0.019139942835798666,0.07916195271221105
160,1791618074.4079092,0.04813989257812499,-0.005604345703125008,-0.011160791015624652,0.04973350183013456,0.07662184479886182,0.011108190181613702,0.019248767568627465,0.07977978467257738
161,1791618074.4279091,0.096040283203125,-0.04871469726562501,-0.035110986328124656,0.11326799675262074,0.07803632471126762,0.010802414908838204,0.019385210633543908,0.08113042914721917
162,1791618074.4359043,0.07688012695312499,-0.05350473632812501,-0.006370751953124652,0.0938823583551193,0.07862064456477556,0.01063722020861028,0.01940669918408509,0.08167604409353339
163,1791618074.4559042,0.03855981445312499,-0.05350473632812501,-0.0015807128906246515,0.06597055974784657,0.08003623936114924,0.010125453864584017,0.01944046294672675,0.0829834683935424
164,1791618074.496815,0.100830322265625,-0.04392465820312501,-0.006370751953124652,0.110166764347962,0.08292523568054593,0.008936698982807556,0.01947477073520069,0.08564885286197375
165,1791618074.516815,0.115200439453125,-0.02476450195312501,0.02236948242187535,0.11993671477492637,0.08444977100929665,0.00833969179771528,0.01951302501851873,0.08707509648675021
166,1791618074.527898,0.09125024414062499,0.037506005859375,0.036739599609375354,0.10527633024903722,0.08533948684848383,0.008069072706011244,0.019580177565695266,0.08792793244129875
167,1791618074.547898,0.05292993164062499,0.008765771484374992,-0.011160791015624652,0.05479944953457073,0.08692045805147817,0.007723388016593023,0.019721548469409454,0.08946371456833713
168,1791618074.556522,0.07209008789062499,0.0039757324218749925,-0.04948110351562465,0.08752809163629895,0.08758076674657347,0.007604930967521676,0.01973414036915041,0.09009806865326143
169,1791618074.5765219,0.06730004882812499,-0.01039438476562501,-0.015950830078124652,0.069941180910141,0.08909150381930198,0.007361791212070973,0.019660814698503663,0.09153163200360694
170,1791618074.616708,0.05292993164062499,-0.01997446289062501,0.05110971679687535,0.07624145842195697,0.09203408104081806,0.006854998920550691,0.019641548346220925,0.09435599347505993
171,1791618074.636708,0.05771997070312499,0.023135888671874993,-0.0015807128906246515,0.06220420416539053,0.09344485634999992,0.006645352337551797,0.019707691522001712,0.09573136889801954
172,1791618074.6458058,0.08167016601562499,0.0039757324218749925,-0.03990102539062465,0.09098304398366416,0.09408545410768669,0.0065827901540823144,0.019704961788979205,0.09635191394034387
173,1791618074.6658058,0.07688012695312499,-0.06308481445312501,0.08943002929687535,0.13374594526546893,0.09552028673604279,0.0063772242433035265,0.019774154502618886,0.0977538303775287
174,1791618074.6766114,0.03855981445312499,-0.06787485351562501,0.16128061523437537,0.17917949626228336,0.09627277234481221,0.0061766880144453595,0.020009111525663554,0.09852391950095303
175,1791618074.6966114,0.134360595703125,-0.005604345703125008,0.02715952148437535,0.1371926309089486,0.09771600507159477,0.005750974532770653,0.02066141896371013,0.1000419191580333
176,1791618074.7365828,0.187051025390625,-0.02476450195312501,-0.09259145507812466,0.2101774112747489,0.10113129009781892,0.004936737962629464,0.02157339323246779,0.10352449233936653
177,1791618074.7565827,0.17747094726562498,-0.11577524414062501,-0.07343129882812466,0.22425877892908655,0.1031306076065298,0.004379630310187402,0.021712225827323454,0.10548234040503
178,1791618074.766731,0.110410400390625,-0.125355322265625,-0.025530908203124654,0.16898591837313903,0.10421203113500897,0.003955818669406854,0.021696782422016014,0.10652016852266809
179,1791618074.786731,0.07209008789062499,-0.005604345703125008,-0.03032094726562465,0.07840758449233698,0.1062973368746222,0.003049427896934713,0.02158713457485957,0.1085100327909296
180,1791618074.7960465,0.033769775390624986,0.027925927734374995,0.02236948242187535,0.049200090585093295,0.10719688787156818,0.0027061751111223226,0.02153816864981113,0.10937270620163574
181,1791618074.8160465,0.033769775390624986,-0.0008143066406250082,0.11338022460937536,0.11830526682151828,0.10893980169495941,0.0021204351608165974,0.021652434338588645,0.11109097421210781
182,1791618074.857336,0.07209008789062499,-0.015184423828125009,0.08943002929687535,0.11586750035756424,0.11232609945942937,0.0010430302776145103,0.022480994800881195,0.11455843774758316
183,1791618074.877336,0.143940673828125,-0.01997446289062501,-0.06385122070312466,0.15872893603606986,0.11404437172733808,0.0005466965218414461,0.02286050276444923,0.11631431634331887
184,1791618074.8873487,0.119990478515625,-0.04871469726562501,-0.11175161132812465,0.1710533814296648,0.11497375852601138,0.00028390620671546457,0.02289012903964175,0.1172305581313304
185,1791618074.9073486,0.096040283203125,-0.05829477539062501,-0.07822133789062466,0.13689629117320581,0.11687576797143429,-0.00032278758341435263,0.02265547099393176,0.11905175217817432
186,1791618074.918337,0.019399658203124986,0.018345849609374992,-0.035110986328124656,0.04411007024729881,0.11785916467539845,-0.0006390433353387602,0.022452482006106618,0.11998043599938146
187,1791618074.938337,0.009819580078124987,0.056666162109374994,-0.006370751953124652,0.05786246245680283,0.11942438110026544,-0.0010157965202307782,0.022076220444425185,0.12145194174183799
188,1791618074.9768682,0.07688012695312499,-0.015184423828125009,-0.035110986328124656,0.08587142719353454,0.12223808281901533,-0.0015128817537739562,0.0213401899461751,0.12409609747855968
189,1791618074.9968681,0.096040283203125,-0.03434458007812501,-0.054271142578124654,0.11553632803241727,0.12373887407489513,-0.0018064901989964994,0.020881378736493546,0.12550141171356882
190,1791618075.005859,0.105620361328125,-0.01039438476562501,-0.04948110351562465,0.11709860616960178,0.12444831946506457,-0.001948848106536524,0.020636102464970902,0.12616271617068925
191,1791618075.0258589,0.129570556640625,-0.06787485351562501,0.01757944335937535,0.1473246812884876,0.1261425442645187,-0.002335426079442762,0.020124474933763726,0.1277591099681674
192,1791618075.0664492,0.129570556640625,-0.125355322265625,0.09901010742187535,0.2056829777598803,0.12985412840702204,-0.0035905525261876363,0.019596802247316344,0.13137359472173663
193,1791618075.0864491,0.05292993164062499,-0.03434458007812501,0.12296030273437536,0.13820406612235842,0.1316823609003154,-0.004355772975841284,0.019708758189203125,0.1332203140660555
194,1791618075.0964506,0.04334985351562499,0.06624624023437499,0.02236948242187535,0.08226887557782261,0.1325316909603452,-0.004657108544919229,0.01986535909818115,0.13409314024552968
195,1791618075.1164505,0.115200439453125,-0.02476450195312501,-0.011160791015624652,0.1183595583942163,0.13421317075839903,-0.005107083193803335,0.020148355586632246,0.13581315745028896
196,1791618075.1264992,0.07209008789062499,-0.06787485351562501,0.04152963867187535,0.10737172532870147,0.13507242640514758,-0.005369069938725757,0.020292101467365584,0.1366936599442081
197,1791618075.1464992,0.019399658203124986,-0.06787485351562501,0.01757944335937535,0.07274874093062446,0.1366633252421352,-0.006015916054479129,0.02062395021259734,0.1383416171460485
198,1791618075.1857271,0.04334985351562499,-0.02955454101562501,-0.035110986328124656,0.06313051603942552,0.1395002710296405,-0.007380978175165869,0.021125625617562382,0.1412837446909546
199,1791618075.205727,0.05292993164062499,-0.02955454101562501,-0.03032094726562465,0.06778206548350593,0.14087412053051118,-0.008061210391847892,0.02124488583323489,0.14269494077329375
200,1791618075.2167854,0.019399658203124986,-0.03434458007812501,-0.03990102539062465,0.05610694026913327,0.1415797899648877,-0.008433901906345825,0.021242695355448815,0.14341276001050948
201,1791618075.2367854,-0.004550537109375014,-0.0008143066406250082,-0.03990102539062465,0.04016792639049268,0.14268689002876828,-0.00905957926437889,0.021119624969506697,0.14452564866272694
202,1791618075.2457318,0.04334985351562499,-0.03913461914062501,-0.011160791015624652,0.05945831709023024,0.14313386873341563,-0.009324281273027918,0.02103856922903632,0.14497195589167633
203,1791618075.2657318,0.115200439453125,-0.05350473632812501,0.036739599609375354,0.132225928770391,0.144221042823455,-0.00996622689668408,0.020922915297662856,0.14607122665396563
204,1791618075.3075716,0.129570556640625,-0.04871469726562501,0.05589975585937535,0.14928641459617373,0.14692233856239892,-0.011428494615125294,0.02100796124899337,0.1488560327754684
205,1791618075.3275716,0.096040283203125,-0.02955454101562501,0.036739599609375354,0.10699067749966783,0.14835832050187306,-0.01214003372721357,0.021181475249836754,0.15035367163722282
206,1791618075.3362255,0.148730712890625,-0.05350473632812501,0.007999365234375349,0.158264246153857,0.14904532700530676,-0.012455639721666249,0.021274329421244704,0.15107034637981873
207,1791618075.3562255,0.17268090820312498,-0.05350473632812501,-0.0015807128906246515,0.1807870336076148,0.15087702365082842,-0.013236141263674745,0.021466363381963838,0.15297018159801964
208,1791618075.3661702,0.129570556640625,0.008765771484374992,0.01757944335937535,0.13105115309184875,0.1518766232527231,-0.013599388201427386,0.021559459045965963,0.1540008517004286
209,1791618075.3861701,0.04813989257812499,0.013555810546874993,0.007999365234375349,0.050647794632827925,0.1538519597488815,-0.014186860350189047,0.02175697012077963,0.15602903022836395
210,1791618075.4267852,0.05771997070312499,-0.01039438476562501,-0.04469106445312465,0.07373553752824215,0.157584135293335,-0.015191290947980666,0.021986134678007398,0.1598340549910869
211,1791618075.4467852,0.06730004882812499,-0.06787485351562501,-0.08301137695312466,0.12659850321267357,0.15933381695922866,-0.015729112506890793,0.021890501078241514,0.1615978472768369
212,1791618075.4563117,0.07209008789062499,-0.06308481445312501,-0.04948110351562465,0.10781954457234183,0.1601418139473722,-0.016040432647545854,0.021757117170629125,0.16240710637608108
213,1791618075.4763117,0.06251000976562499,-0.07745493164062502,0.01278940429687535,0.10035106685342891,0.16178558115974484,-0.01680679155937707,0.0214640566469626,0.1640662922158624
214,1791618075.4853811,0.06251000976562499,-0.05350473632812501,0.04631967773437535,0.0944233587406056,0.16250421364378437,-0.017191265733650013,0.021391302457132964,0.16480517859072943
215,1791618075.505381,0.06730004882812499,-0.005604345703125008,0.02715952148437535,0.07278973052765335,0.1640459507298056,-0.018000597003360465,0.021365148930216248,0.16640782743649266
216,1791618075.5484574,0.096040283203125,0.027925927734374995,0.036739599609375354,0.10655229522173232,0.1673961828940811,-0.01941016017362291,0.021523708747538287,0.16988674581533192
217,1791618075.5684574,0.134360595703125,0.018345849609374992,0.036739599609375354,0.140496042844792,0.16906394765222837,-0.01989703442621714,0.02169650281975362,0.1716078337644324
218,1791618075.5769544,0.139150634765625,0.0039757324218749925,0.02236948242187535,0.14099325993744988,0.16984051745115947,-0.02005863085005373,0.021796571443802905,0.17240429393249213
219,1791618075.5969543,0.134360595703125,-0.02476450195312501,-0.03990102539062465,0.1423311001218926,0.1718044704296389,-0.020413120632163106,0.021970481879321487,0.1744023326322257
220,1791618075.6059537,0.110410400390625,-0.09182504882812502,-0.03990102539062465,0.1490449191818659,0.172720837160297,-0.020627395518300003,0.021983135382886286,0.17533178626958812
221,1791618075.6259537,0.08646020507812499,-0.10619516601562501,-0.025530908203124654,0.13930042218498107,0.17474718153621985,-0.02132919596035027,0.021908890348046963,0.17740211817069812
222,1791618075.6664138,0.100830322265625,-0.10619516601562501,-0.011160791015624652,0.14686296479838065,0.17879992942538595,-0.0231804815438067,0.02166988056726249,0.1815938688693128
223,1791618075.6864138,0.139150634765625,-0.05829477539062501,-0.03032094726562465,0.15388482653141788,0.18086272952387178,-0.0242050644550797,0.021507234109620115,0.18373832805145957
224,1791618075.6966717,0.16310083007812498,0.0039757324218749925,-0.03032094726562465,0.16594290302254128,0.18199457170744476,-0.02469353559074326,0.02138967150322582,0.18490352316265762
225,1791618075.7166717,0.134360595703125,0.013555810546874993,0.02236948242187535,0.13688288213324545,0.1843165067419084,-0.025476756168500696,0.02118291390989749,0.18727080820064648
226,1791618075.7319348,0.129570556640625,-0.005604345703125008,0.05589975585937535,0.1412257786102074,0.186124833328902,-0.02597571461351508,0.021138391301934494,0.18911378299380519
227,1791618075.7519348,0.105620361328125,-0.005604345703125008,0.036739599609375354,0.11196815438909866,0.188491729330127,-0.026548266394012723,0.021227761025074544,0.19153213911123895
228,1791618075.7864647,0.09125024414062499,-0.005604345703125008,-0.020740869140624653,0.09374539668267619,0.1924750486254658,-0.02741752705221959,0.021400345787439316,0.1955922798396107
229,1791618075.8064647,0.100830322265625,-0.04392465820312501,-0.025530908203124654,0.11290684992562465,0.19472426134377763,-0.027919780216550637,0.021415906174478933,0.19787797532948023
230,1791618075.816443,0.105620361328125,-0.08703500976562502,0.02236948242187535,0.13867641254304466,0.19583260471142255,-0.02823078125026023,0.021420139068194254,0.19901308609174703
231,1791618075.836443,0.05771997070312499,-0.03913461914062501,0.04152963867187535,0.08116541333269921,0.19796589553534097,-0.028949886841783425,0.02152319922403557,0.2012258428932505
232,1791618075.8465886,0.05771997070312499,0.037506005859375,-0.025530908203124654,0.07341745546645877,0.1989735927546086,-0.029261198054091102,0.02157981168119845,0.20226813045419084
233,1791618075.8665886,0.110410400390625,-0.015184423828125009,-0.09259145507812466,0.1448937569217343,0.2009142764759434,-0.029749345982804324,0.021497487629741567,0.2042393499124185
234,1791618075.9056768,0.115200439453125,-0.11577524414062501,0.007999365234375349,0.16352075785712153,0.20479964648497048,-0.030944206601697583,0.021112734868503347,0.20819747043661493
235,1791618075.9256768,0.04813989257812499,-0.05350473632812501,0.03194956054687535,0.07874630458703473,0.20673445428449425,-0.0317177866261608,0.02100532426115791,0.21020555707232552
236,1791618075.9366765,0.06730004882812499,0.08061635742187499,-0.07822133789062466,0.13094606278021031,0.20773418662158588,-0.032057058661667116,0.020916938112827268,0.21123130828876974
237,1791618075.9566765,0.06730004882812499,0.023135888671874993,-0.04469106445312465,0.08403485680870018,0.20948117099560473,-0.032425774724691374,0.02059596906148235,0.2129741435239681
238,1791618075.9672234,0.07209008789062499,-0.06308481445312501,0.07505991210937535,0.12169907556152756,0.21037450765472152,-0.03262265009155416,0.020476118745734472,0.213871321613843
239,1791618075.9872234,0.07209008789062499,-0.06308481445312501,0.11338022460937536,0.1484309601098627,0.2120306961771977,-0.03312923654175727,0.0205655987854853,0.21558642417516086
240,1791618076.0272741,0.096040283203125,-0.06787485351562501,0.09901010742187535,0.1537326676708477,0.2153548221909036,-0.034384904285804735,0.02135588730391471,0.2191257515814998
241,1791618076.047274,0.134360595703125,-0.04392465820312501,0.09901010742187535,0.17258373807416288,0.21711138540586988,-0.035085585521145865,0.02198836408671718,0.22102452384164942
242,1791618076.057846,0.153520751953125,-0.07266489257812501,0.07984995117187535,0.1876827711746453,0.21812888452350782,-0.035492851091473536,0.0224143588940678,0.22213139405924456
243,1791618076.077846,0.191841064453125,-0.03434458007812501,-0.07822133789062466,0.21000267115598809,0.22028309204510307,-0.036308258875394406,0.023101812644459582,0.22444737479189578
244,1791618076.0858305,0.16310083007812498,-0.05829477539062501,-0.17881215820312465,0.24894567586378377,0.2212266448905367,-0.036640432387175736,0.02318117198973011,0.22543539302838025
245,1791618076.1058304,0.148730712890625,-0.13493540039062502,-0.13570180664062464,0.2423703108077829,0.22370335717720496,-0.0376375245638917,0.022878369432054815,0.22799823476404213
246,1791618076.1475809,0.09125024414062499,-0.11577524414062501,-0.0015807128906246515,0.1474212090059893,0.22884947123570087,-0.040191805760091626,0.021911207756444992,0.23338286732419522
247,1791618076.1675808,0.07209008789062499,-0.02476450195312501,0.07505991210937535,0.10697780954446356,0.231189881555619,-0.04144267004279537,0.021627616556764123,0.23586862875741568
248,1791618076.1760988,0.100830322265625,0.05187612304687499,0.04152963867187535,0.12075842380049862,0.2321476140256097,-0.04187818085567626,0.02159943548948411,0.23688147319498962
249,1791618076.1960988,0.12478051757812499,0.114146630859375,0.007999365234375349,0.16930333944658066,0.23439744973146656,-0.042498329122639227,0.021617485818203056,0.2391978012272098
250,1791618076.2064118,0.100830322265625,0.056666162109374994,-0.03032094726562465,0.1195707642339069,0.2355580674635159,-0.042638022953922064,0.021608132113400236,0.24035913862800318
251,1791618076.2264118,0.06251000976562499,-0.06308481445312501,-0.03032094726562465,0.09384324684583613,0.23771623757185686,-0.04287792194279853,0.021501750730903473,0.24250742479344034
252,1791618076.2661319,0.04813989257812499,-0.08224497070312502,0.007999365234375349,0.09563301891890813,0.24168907991061245,-0.0437158344749572,0.021255671792913912,0.24652888089481187
253,1791618076.2861319,0.05292993164062499,-0.01039438476562501,0.04152963867187535,0.06807592662868142,0.2435410408965806,-0.044213415694464596,0.02122464468911931,0.24843017182005256
254,1791618076.2959833,0.105620361328125,0.023135888671874993,0.007999365234375349,0.10842010844799045,0.24443357971754798,-0.04441233243781347,0.021248248994903813,0.24934257207996224
255,1791618076.3159833,0.148730712890625,-0.01997446289062501,-0.03032094726562465,0.1530985433235969,0.2463552992081343,-0.044750847332770516,0.021255498991053053,0.25128742113820374
256,1791618076.3573637,0.119990478515625,-0.08224497070312502,-0.015950830078124652,0.1463433603568941,0.25056895191427,-0.04566342407369942,0.021124643465892382,0.2555703396779668
257,1791618076.3773637,0.07209008789062499,-0.08703500976562502,0.04152963867187535,0.12040259376440776,0.25258813401335006,-0.046292250467391924,0.021109253304560236,0.25766128632908347
258,1791618076.3858795,0.07209008789062499,0.018345849609374992,0.01757944335937535,0.07643682227037782,0.2534110092034133,-0.04656370832191402,0.02114143548457498,0.25851939736222723
259,1791618076.4058795,0.110410400390625,0.04229604492187499,0.0032093261718753488,0.11827811168990177,0.2553274482901589,-0.04701465123198659,0.021236863225287866,0.26048702009980973
260,1791618076.4169774,0.105620361328125,-0.04871469726562501,-0.011160791015624652,0.11684753190743749,0.25641117061662755,-0.04723268618070142,0.021275254473584904,0.261591764996052
261,1791618076.4369774,0.09125024414062499,-0.11577524414062501,-0.015950830078124652,0.14827320456416324,0.2583665424418908,-0.047813410883967095,0.021293395515385508,0.2636148728852586
262,1791618076.4770577,0.028979736328124988,-0.11098520507812501,0.0032093261718753488,0.11475121192544589,0.2620587657641854,-0.04948427307521349,0.021285995977685365,0.2675380040674456
263,1791618076.4970577,0.05292993164062499,-0.005604345703125008,-0.0015807128906246515,0.053249272365770005,0.26374767937162436,-0.05036785012974012,0.021285300395990796,0.2693563118131014
264,1791618076.50605,0.05292993164062499,0.008765771484374992,0.01278940429687535,0.05515419544754913,0.2644645416649206,-0.05070340237119913,0.021292594065367522,0.2701216455082502
265,1791618076.52605,0.06251000976562499,-0.01039438476562501,-0.0015807128906246515,0.06338803679557346,0.2659929126902314,-0.051340198896659736,0.021323195596582342,0.2717401779174949
266,1791618076.5360477,0.07209008789062499,-0.06787485351562501,-0.03032094726562465,0.1035535434204469,0.26674324141781597,-0.051669460771764764,0.02131227762871893,0.2725360585248341
267,1791618076.5560477,0.105620361328125,-0.05829477539062501,-0.03990102539062465,0.1270670429031477,0.26828566986406105,-0.05241859370792063,0.02118837979858172,0.2741785131245936
268,1791618076.5965865,0.105620361328125,0.0039757324218749925,-0.011160791015624652,0.10628278520752303,0.2715853782419492,-0.05387442705018646,0.020819667400724117,0.2776590177096456
269,1791618076.6165864,0.09125024414062499,-0.01997446289062501,0.03194956054687535,0.09872365796824525,0.2732644200854705,-0.05450893038311258,0.020696230589178157,0.2794154625942522
270,1791618076.6265893,0.07209008789062499,-0.06308481445312501,0.02715952148437535,0.09957064925932486,0.27410075721092103,-0.05484098367233171,0.02068809938782425,0.2802976204858502
271,1791618076.6465893,0.134360595703125,-0.06308481445312501,0.0032093261718753488,0.1484680547012094,0.2758317993976544,-0.05559456707086172,0.02071983352724074,0.2821404773302494
272,1791618076.6566916,0.148730712890625,-0.07266489257812501,0.01278940429687535,0.16602584266496861,0.27678950702274363,-0.05602096935550213,0.02074558024842716,0.2831627788132958
273,1791618076.6766915,0.08646020507812499,-0.03434458007812501,0.04631967773437535,0.10392511625353401,0.2787539121174048,-0.05689902812824822,0.020877570064540475,0.2852667450904448
274,1791618076.7218385,0.110410400390625,0.008765771484374992,0.04631967773437535,0.12005335401208413,0.2831897161832202,-0.058670411025159006,0.02144450388276255,0.2899974124515109
275,1791618076.7418385,0.143940673828125,-0.01039438476562501,0.01278940429687535,0.1448810880654182,0.2852415348941797,-0.05933986435591505,0.021746645128974323,0.292158979504193
276,1791618076.7466235,0.100830322265625,-0.015184423828125009,-0.0015807128906246515,0.10197950415855389,0.28574664689272,-0.05948518763267602,0.021812112738858323,0.29268652517712557
277,1791618076.7666235,0.028979736328124988,-0.06308481445312501,0.0032093261718753488,0.06949689710131195,0.28773588353597807,-0.06011888435945896,0.022047143774752385,0.2947749912721236
278,1791618076.7770953,0.05771997070312499,-0.03913461914062501,-0.03990102539062465,0.08034429202174012,0.2886892916782106,-0.06048119463780829,0.022122927830143066,0.2957852362276744
279,1791618076.7970953,0.12478051757812499,-0.02955454101562501,-0.03990102539062465,0.13429720879054893,0.2905108076453611,-0.06117240381842257,0.022126252919673208,0.2977048259869992
280,1791618076.836625,0.08167016601562499,-0.05350473632812501,0.01757944335937535,0.09920589526528861,0.2941830590495829,-0.06257989651564812,0.02206566155413566,0.3015738866339413
281,1791618076.856625,0.005029541015624987,-0.01039438476562501,0.04152963867187535,0.04310510881206816,0.2958923781429225,-0.06328104421649276,0.02212826747986359,0.30339157902266234
282,1791618076.867256,0.06730004882812499,-0.005604345703125008,0.02236948242187535,0.07114140149625064,0.2967223373280517,-0.06361058673463457,0.022207501178797905,0.3042755746404119
283,1791618076.887256,0.100830322265625,-0.03913461914062501,-0.0015807128906246515,0.10817010195388628,0.2983017358282205,-0.0642046726936551,0.022365388386392005,0.3059515912550595
284,1791618076.896366,0.05771997070312499,-0.005604345703125008,-0.006370751953124652,0.05834029644403587,0.29902156745164876,-0.06446525529557487,0.022421085426410022,0.306712197366298
285,1791618076.9163659,0.04334985351562499,0.037506005859375,0.04152963867187535,0.07078574124473191,0.30051643889051566,-0.06490367208214463,0.022577759105672376,0.3082732098308534
286,1791618076.9565525,0.08167016601562499,-0.01997446289062501,0.02715952148437535,0.08835516279227235,0.3034463907420141,-0.06559961896995407,0.02305237641642436,0.3113108320020407
287,1791618076.9765525,0.119990478515625,-0.07266489257812501,0.06547983398437535,0.1548079784972999,0.3049883264078006,-0.06603298130296424,0.023392110646050557,0.31293038316096095
288,1791618077.0170677,0.07209008789062499,-0.10140512695312501,0.07505991210937535,0.1453064724997637,0.308227044240497,-0.06730812251560685,0.024404147519451008,0.31643302067571955
289,1791618077.0370677,0.08646020507812499,-0.08224497070312502,0.09422006835937535,0.1520428345886602,0.3098238204602834,-0.06811864074822206,0.02508271323428448,0.3182139083151216
290,1791618077.0170677,0.153520751953125,-0.04392465820312501,0.09422006835937535,0.18540608986805063,0.3098238204602834,-0.06811864074822206,0.02508271323428448,0.3182139083151216
291,1791618077.0370677,0.096040283203125,-0.015184423828125009,0.13254038085937536,0.16438143229415195,0.31165780790322717,-0.06895376983321863,0.02615337825788186,0.3202642827346771
292,1791618077.0766208,0.08646020507812499,0.114146630859375,0.08463999023437535,0.16633925677834746,0.3152821466151047,-0.07006406098256243,0.028597440919548696,0.32423697852457184
293,1791618077.0966208,0.105620361328125,-0.02955454101562501,-0.035110986328124656,0.11516037939613476,0.3171280110181174,-0.07041437703908353,0.029722194543172743,0.32620816776189343
294,1791618077.1066105,0.024189697265624987,-0.09182504882812502,0.07505991210937535,0.1210411973336239,0.3180089567672925,-0.07065405000357554,0.030229655715433266,0.32716283934885254
295,1791618077.1266105,-0.10035131835937502,0.037506005859375,0.33372202148437535,0.3504960416261587,0.3193938591426451,-0.07114339067062227,0.031706397355920825,0.3287538819959943
296,1791618077.135816,-0.10035131835937502,0.291378076171875,0.21876108398437535,0.3779258951647883,0.3197971160937277,-0.07110777144750385,0.03266559862932822,0.32923176024786543
297,1791618077.155816,-0.004550537109375014,0.094986474609375,-0.14528188476562465,0.17363744926643412,0.32038445980900504,-0.0704624470012839,0.03454717844598502,0.329855523014388
298,1791618077.1962535,-0.033290771484375016,-0.19720590820312503,-0.2698229003906247,0.3358613453070377,0.3212790995299446,-0.06966340855102776,0.03652191590563094,0.33076744190917196
299,1791618077.2162535,-0.10993139648437501,-0.20199594726562503,-0.04469106445312465,0.23427455236686587,0.3214403746947158,-0.06992629350431401,0.036880328729481805,0.33101927384115476
300,1791618077.2262418,-0.057240966796875015,-0.13493540039062502,0.23313120117187536,0.2753801872289665,0.321383603887044,-0.07029029213965066,0.03717364108380078,0.3310740485268048
301,1791618077.2462418,0.05771997070312499,-0.096615087890625,0.3097718261718754,0.32958254583023866,0.32128769913885247,-0.0712571389781614,0.03848720905860514,0.3313376385719129
302,1791618077.256338,0.230161376953125,-0.08224497070312502,0.06547983398437535,0.25303379874146803,0.3214645333279432,-0.0718074308387478,0.03933498204232068,0.3317272887835482
303,1791618077.2763379,0.04334985351562499,-0.18762583007812503,0.05589975585937535,0.20051794088676791,0.3221725569700338,-0.07313882985191528,0.040944549525665244,0.3328977335948335
304,1791618077.3168788,-0.167411865234375,-0.08703500976562502,0.26187143554687536,0.32276690397489066,0.3230152563272752,-0.07626794431261283,0.04468402588895,0.3348915008170429
305,1791618077.3368788,-0.028500732421875015,-0.03913461914062501,0.36246225585937536,0.3656811412782075,0.32307475587836637,-0.07776932659932972,0.047188595922313246,0.3356369014734503
306,1791618077.3493993,0.04813989257812499,-0.03913461914062501,0.47263315429687536,0.4766875981324972,0.3231248589987294,-0.07864174613133224,0.04930552677451936,0.336192257061412
307,1791618077.3693993,0.028979736328124988,0.104566552734375,0.40557260742187534,0.4198370266655587,0.32330856666275093,-0.079728140210334,0.0534971316424467,0.3372639155214954
308,1791618077.3789136,-0.009340576171875014,0.185997216796875,0.29540170898437534,0.34920535604468594,0.3233968646111696,-0.07996009495493855,0.05569224450836629,0.3377584564802451
309,1791618077.3989136,-0.014130615234375015,0.372808740234375,0.3672522949218754,0.5235076687188334,0.3235194265502109,-0.07953633808800303,0.06060840048444795,0.338621066446123
310,1791618077.437915,0.08167016601562499,0.669791162109375,0.45347299804687535,0.8129747700971218,0.3239201413942654,-0.07578421477204302,0.07115795449516737,0.3401925332770141
311,1791618077.457915,0.033769775390624986,0.526089990234375,0.41036264648437537,0.6680633032762677,0.3242679649873163,-0.07235491681013337,0.0770520531695432,0.34106006216099066
312,1791618077.4654484,0.033769775390624986,0.377598779296875,0.23792124023437536,0.44757988383202246,0.32441748603356313,-0.07074638929926394,0.07930542286285013,0.34138117543103574
313,1791618077.4854484,0.08646020507812499,0.516509912109375,0.22355112304687536,0.5694145774257144,0.3249352462233776,-0.06577535768138182,0.08508267820716252,0.3422694465582114
314,1791618077.4964626,0.028979736328124988,0.535670068359375,0.29061166992187537,0.6101126043187161,0.32527297341499906,-0.06257922240485764,0.08821177268313662,0.3427827054431607
315,1791618077.5164626,0.06730004882812499,0.665001123046875,0.18523081054687535,0.6935893910677451,0.3259386604770706,-0.0558451187956869,0.09375515964525408,0.3437218608802742
316,1791618077.5862892,0.206211181640625,0.5308800292968751,-0.059061181640624655,0.5725774009831864,0.32934655267961765,-0.029597943757434915,0.11086664999115403,0.34876439628619993
317,1791618077.6062891,0.143940673828125,0.310538232421875,-0.20276235351562466,0.39782594608822625,0.33070146535054706,-0.02194568069576458,0.11463987826653252,0.35069555710782097
318,1791618077.5862892,0.234951416015625,0.372808740234375,-0.059061181640624655,0.4446085332735707,0.33070146535054706,-0.02194568069576458,0.11463987826653252,0.35069555710782097
319,1791618077.6062891,0.268481689453125,0.334488427734375,0.03194956054687535,0.4300996399428357,0.33291862564717256,-0.014484709334319966,0.11699154361367245,0.35317366745612816
320,1791618077.6162944,0.258901611328125,0.329698388671875,-0.12612172851562467,0.43776450546486656,0.33425715759215824,-0.010813732372023177,0.11792085951810101,0.3546126243083999
321,1791618077.6362944,0.311592041015625,0.190787255859375,-0.24587270507812467,0.4403893324378646,0.3373872086361205,-0.00379561545783312,0.11894187721350835,0.3577592841605234
322,1791618077.6758175,0.431343017578125,0.133306787109375,-0.16923208007812465,0.4821483124831981,0.34484709667502883,0.008953647651809907,0.11942644789708669,0.3650511804511595
323,1791618077.6958175,0.503193603515625,0.157256982421875,-0.14049184570312465,0.5455928150631609,0.34945760344541327,0.014873301871662237,0.11917028964007637,0.3695177798797739
324,1791618077.7080624,0.426552978515625,-0.11577524414062501,-0.2698229003906247,0.5178375693319108,0.35271081111282876,0.01799204732099488,0.11866016125685638,0.3725706160074539
325,1791618077.7280624,0.560674072265625,-0.42712778320312506,-0.4183141113281247,0.8196220191229454,0.35870816717994247,0.021507532896321083,0.11691973158062262,0.37789462394398354
326,1791618077.7372687,0.6468947753906251,-0.225946142578125,-0.17881215820312465,0.7081654451432102,0.3618885327906628,0.02243210025230385,0.11582645825177189,0.38063404697722125
327,1791618077.7572687,0.598994384765625,-0.02955454101562501,-0.03032094726562465,0.6004890537873931,0.36963010331956486,0.023756119459307255,0.11349396318407141,0.3873908183876128
328,1791618077.7958314,0.6181545410156251,-0.096615087890625,-0.20755239257812466,0.6591870049168561,0.3858381620926644,0.025561171514845864,0.10898321236657126,0.4017484304810583
329,1791618077.8158314,0.7570656738281251,-0.374437353515625,-0.17402211914062465,0.8623430084060588,0.3950461385551909,0.025650331280200937,0.10642233523936394,0.4099330488262085
330,1791618077.8278453,0.7139553222656251,-0.484608251953125,-0.03032094726562465,0.8634215192451257,0.4010731092035487,0.024921818135259486,0.10493065051702007,0.4153205718036294
331,1791618077.8478453,0.6756350097656251,-0.43191782226562503,-0.025530908203124654,0.802301376594452,0.4116858056893,0.02251616616307222,0.10273610192810624,0.4249080923965951
332,1791618077.8864088,0.819336181640625,-0.455868017578125,-0.15007192382812465,0.9495520050621364,0.4334033313520499,0.016005714120387423,0.0986314574189262,0.44477274523529403
333,1791618077.9064088,0.8576564941406251,-0.609149267578125,-0.18839223632812466,1.0687044150939333,0.4454925776289754,0.011538180299956069,0.09631430691006021,0.4559311483576311
334,1791618077.9164639,0.9342971191406251,-0.7480604003906252,-0.09259145507812466,1.2004493521263353,0.4520101700881595,0.008605509001219421,0.09511219604439762,0.4619887211660961
335,1791618077.9364638,0.958247314453125,-0.6283094238281252,-0.16923208007812465,1.1582962249163318,0.4658682031443572,0.0015827223721607163,0.092687066008664,0.47500166306693475
336,1791618077.9464464,0.9678273925781251,-0.44149790039062503,-0.28419301757812465,1.1010794381487936,0.4731896569514931,-0.0021977254934638485,0.09131870297422545,0.48192570688448566
337,1791618077.9664464,0.9821975097656251,-0.5660389160156251,-0.24587270507812467,1.1599850816869903,0.4885828633080622,-0.010146995653838161,0.08819333224951226,0.49658256080170243
338,1791618078.006927,1.054048095703125,-0.7336902832031251,-0.27461293945312465,1.3132901759463336,0.5212478976577742,-0.027769178090998173,0.0812361394352226,0.5282705825756703
339,1791618078.026927,1.0779982910156252,-0.7672205566406252,-0.23150258789062467,1.343242772608368,0.5381637664515876,-0.03742104304318206,0.07755526795570501,0.545009535303264
340,1791618078.0359068,1.025307861328125,-0.8247010253906251,-0.29377309570312465,1.3482175727754773,0.5460361129810668,-0.04217673268451475,0.07579672852584823,0.5528828605723228
341,1791618078.0559068,1.1115285644531252,-1.1312635253906251,-0.35125356445312467,1.6243866473273771,0.564144792553255,-0.05411384722202682,0.07150003395649936,0.5712266715428338
342,1791618078.0664432,1.130688720703125,-1.255804541015625,-0.35125356445312467,1.7259435375764063,0.5740257102970764,-0.06134561134266413,0.06902083538286528,0.5814057755389233
343,1791618078.0864432,0.7905959472656251,-0.9492420410156251,-0.24587270507812467,1.2595855633369157,0.5928499798537,-0.07632125219686799,0.0641250892712572,0.6011722375687996
344,1791618078.12671,1.0396779785156252,-0.9588221191406251,-0.15486196289062465,1.422762236887806,0.6305921180107004,-0.10771201049624315,0.05453658869369449,0.6420455871733012
345,1791618078.14671,1.4037209472656251,-1.030672705078125,-0.4087340332031247,1.7887935131489763,0.6501913446886001,-0.12394892988785608,0.049643082725754614,0.6637594124310636
346,1791618078.1557305,1.3175002441406252,-1.0929432128906251,-0.47100454101562467,1.7754371398536275,0.6595462094877098,-0.13161046656682074,0.04717185696255981,0.6742015288093305
347,1791618078.1757305,0.9103469238281251,-1.179163916015625,-0.29377309570312465,1.5183746883808462,0.6805179720377,-0.1494574059835769,0.04136746792724411,0.6979638198877899
348,1791618078.188598,0.7570656738281251,-1.3659754394531252,-0.19797231445312466,1.574239617392447,0.6935958918242042,-0.16167352049969666,0.03771867484479018,0.713187413530431
349,1791618078.208598,0.9965676269531251,-1.6821180175781252,-0.39436391601562465,1.9945402874865987,0.7135043867436983,-0.18238511963701645,0.03200952546839636,0.7371414053546455
350,1791618078.2456074,1.2264895019531252,-1.658167822265625,-0.5955455566406247,2.1467350873437416,0.7509891077117836,-0.22423415050426743,0.020281877437184452,0.784013360030611
351,1791618078.2656074,1.1977492675781252,-1.6437977050781252,-0.5955455566406247,2.1192802347114075,0.7718437451137766,-0.24841008483272817,0.013108248672716158,0.8109390626311754
352,1791618078.2768307,0.9774074707031251,-1.5336268066406251,-0.5380650878906247,1.8965364706853773,0.7836221630485232,-0.2626163904250892,0.008732274192188237,0.8265030644548855
353,1791618078.2968307,1.101948486328125,-1.4378260253906252,-0.6434459472656247,1.9224091221339972,0.8045819917289273,-0.2885918903636521,0.00033171035390985176,0.8547734030899141
354,1791618078.3060083,1.216909423828125,-1.5336268066406251,-0.6961363769531247,2.0778560063598834,0.8143535453295259,-0.3007690147322924,-0.0038670159883786573,0.8681293975130991
355,1791618078.3260083,1.054048095703125,-1.6102674316406251,-0.6626061035156247,2.035442319957517,0.8358599955976532,-0.32804074904569624,-0.013682500973075409,0.8980311108797114
356,1791618078.396621,0.8816066894531251,-1.586317236328125,-0.5093248535156247,1.8849521308428265,0.9106528722395075,-0.42681330301255693,-0.049345664690329125,1.0069226603718302
357,1791618078.416621,0.9007668457031252,-1.6390076660156252,-0.43268422851562466,1.9196204523764864,0.9313327978087025,-0.45543075535846433,-0.05934457541248786,1.0384217504614661
358,1791618078.396621,0.9342971191406251,-1.4521961425781251,-0.37041372070312467,1.7660665524940984,0.9313327978087025,-0.45543075535846433,-0.05934457541248786,1.0384217504614661
359,1791618078.416621,0.9199270019531252,-1.3947156738281252,-0.3273033691406247,1.7025348734152586,0.9513950818854553,-0.48431850942770666,-0.06863931195466007,1.0697795920448834
360,1791618078.4266596,0.9295070800781251,-1.4761463378906252,-0.35125356445312467,1.7794298214102997,0.9613469167808524,-0.4988046852724352,-0.07311571526933422,1.0855136647104588
361,1791618078.4466596,1.0779982910156252,-1.4713562988281252,-0.34167348632812466,1.8557236983973189,0.9812111984169861,-0.5277576829002651,-0.0817357112712365,1.1171321829829135
362,1791618078.4862692,1.212119384765625,-1.5096766113281253,-0.20276235351562466,1.9466559649098152,1.0214542910785775,-0.5853533540145323,-0.0978640905407063,1.1813487199113824
363,1791618078.5062692,1.1881691894531252,-1.6485877441406251,-0.11175161132812465,2.035209079070454,1.0423265612403594,-0.6148101001516167,-0.1052579631832328,1.2147079312859848
364,1791618078.5158904,0.8863967285156251,-1.696488134765625,-0.15965200195312465,1.9207446247357802,1.0523581884655775,-0.6292686927475072,-0.10847715115944201,1.2309362846331149
365,1791618078.5358903,0.9774074707031251,-1.6821180175781252,-0.21234243164062466,1.9570221503913274,1.072879176312973,-0.659884063905143,-0.11472325453884023,1.264783827337286
366,1791618078.545933,1.212119384765625,-1.6869080566406252,-0.35125356445312467,2.1067204990279733,1.08328696826835,-0.6754886765432465,-0.11781367801148297,1.2820591524905445
367,1791618078.565933,0.9678273925781251,-1.7731287597656251,-0.28419301757812465,2.039961061337377,1.1041749431140708,-0.7070938366277384,-0.123998240876855,1.3170267888461689
368,1791618078.6060708,0.718745361328125,-1.8737195800781252,-0.26503286132812465,2.0242683559208783,1.1448839810821958,-0.7719859389326702,-0.1362015717953655,1.3875418870102272
369,1791618078.6260707,0.594204345703125,-1.9168299316406252,-0.3560436035156247,2.038156725791781,1.1640953438010544,-0.8051562131378402,-0.14230179460218803,1.4225485221112022
370,1791618078.636068,0.8337062988281251,-1.859349462890625,-0.40394399414062465,2.0773582667078943,1.1733286827415896,-0.8220812715781236,-0.1454635500280691,1.4400268953079964
371,1791618078.656068,0.8097561035156251,-1.7204383300781252,-0.40394399414062465,1.9439093973704373,1.19149466789402,-0.8562310953963241,-0.1520517750956436,1.4750969373750344
372,1791618078.6686652,0.7474855957031251,-1.7204383300781252,-0.32251333007812466,1.9033280356953042,1.2026915637850673,-0.8777649873010952,-0.15626529981473833,1.4971162995765066
373,1791618078.6886652,0.7091652832031251,-1.7491785644531253,-0.19797231445312466,1.8978235130097825,1.2199869435653012,-0.9120297689460329,-0.1627322523533513,1.5318773540559814
374,1791618078.7262256,0.7331154785156251,-1.662957861328125,-0.23150258789062467,1.8320700318471075,1.2516588799165007,-0.976339473009879,-0.17426543148787096,1.596952459794183
375,1791618078.7462256,0.7091652832031251,-1.4761463378906252,-0.21234243164062466,1.6513669241096984,1.268157117104571,-1.0101548993505858,-0.18015115156966513,1.6312847181767027
376,1791618078.7562292,0.6852150878906251,-1.504886572265625,-0.21234243164062466,1.6671210574920445,1.27621753379233,-1.0267681673450497,-0.18297210443978987,1.6481695465076445
377,1791618078.7762291,0.7043752441406251,-1.6821180175781252,-0.020740869140624653,1.8237586718839298,1.2919997269486017,-1.059781128537637,-0.1881156345009242,1.681602458009459
378,1791618078.8165877,0.699585205078125,-1.5671570800781252,0.01278940429687535,1.7162646479099506,1.3233196065822117,-1.1262414719363114,-0.19696208983021832,1.748824948102141
379,1791618078.8365877,0.608574462890625,-1.298914892578125,-0.15007192382812465,1.4422428219149954,1.3384745266338633,-1.1585352620555966,-0.20089435199030783,1.7815938236690148
380,1791618078.8462336,0.484033447265625,-1.3228650878906252,-0.21234243164062466,1.424552465550767,1.3454777706214243,-1.1736709062213295,-0.20276858084991894,1.796922069742226
381,1791618078.8662336,0.527143798828125,-1.4521961425781251,-0.20755239257812466,1.5587919094050484,1.3593370385382917,-1.2045085237456434,-0.20670155975879784,1.8279396879888248
382,1791618078.8759773,0.589414306640625,-1.5527869628906252,-0.16444204101562465,1.6690110131000109,1.3658922164791594,-1.2194745763490553,-0.20860207969968697,1.8429038545336796
383,1791618078.8959773,0.6277346191406251,-1.5288367675781251,-0.11175161132812465,1.6564664308704804,1.3791548694234335,-1.2502085360033863,-0.21233223949528046,1.8735459741568072
384,1791618078.9066088,0.603784423828125,-1.4857264160156252,-0.011160791015624652,1.6037653123073183,1.3861294629702194,-1.2664991366935752,-0.21411568786201393,1.889767308201807
385,1791618078.9266088,0.642104736328125,-1.4474061035156252,0.02236948242187535,1.583598217558077,1.3991507469627713,-1.2969476815208165,-0.21695062845678983,1.9200947050904804
386,1791618078.966149,0.6947951660156251,-1.4761463378906252,-0.13091176757812467,1.636730345682212,1.4249971512856576,-1.3567852223635057,-0.222036528477752,1.9800967756083738
387,1791618078.986149,0.680425048828125,-1.5911072753906252,-0.20755239257812466,1.7428937444774537,1.438172403075179,-1.387112697841312,-0.22473086009512896,2.0107027271475846
388,1791618078.9976108,0.680425048828125,-1.6054773925781252,-0.14528188476562465,1.7497550489120652,1.4457602146784967,-1.404633825262616,-0.2263466411760804,2.028411098222152
389,1791618079.0176108,0.7474855957031251,-1.4713562988281252,-0.26503286132812465,1.6714863120793506,1.459156280240387,-1.4352363139958162,-0.22935863057640576,2.059525602802049
390,1791618079.0266147,0.560674072265625,-1.428245947265625,-0.33209340820312466,1.5698815028413988,1.4651658760927733,-1.4489048951720258,-0.230914447886116,2.0734893107905603
391,1791618079.0466146,0.431343017578125,-1.504886572265625,-0.30335317382812466,1.5946045096732864,1.4780004596629361,-1.4791118772032226,-0.23480511445947008,2.1041365796506213
392,1791618079.0871992,0.378652587890625,-1.504886572265625,-0.16444204101562465,1.5604815162490822,1.5026036338669553,-1.5403755328265292,-0.24293980854228467,2.165547093280438
393,1791618079.1071992,0.484033447265625,-1.538416845703125,-0.19318227539062466,1.6242949734392755,1.514203391727121,-1.570602485217131,-0.246883689434674,2.1955763785842253
394,1791618079.1172101,0.608574462890625,-1.385135595703125,-0.28419301757812465,1.5393924667240073,1.519959049435832,-1.585658096021408,-0.24892010088190894,2.2105538505232514
395,1791618079.1372101,0.661264892578125,-1.3611854003906252,-0.2985631347656247,1.542477519393402,1.5316377054633943,-1.6153440724970587,-0.2532523411396144,2.2403989112747866
396,1791618079.1461992,0.575044189453125,-1.423455908203125,-0.19797231445312466,1.5479326793217179,1.5369328809190845,-1.6285625673841753,-0.25524217226224805,2.2537806643141485
397,1791618079.1661992,0.503193603515625,-1.4521961425781251,-0.04948110351562465,1.537701472569676,1.5485643576223385,-1.6578745736328664,-0.2593764777154076,2.2833912999721915
398,1791618079.206717,0.565464111328125,-1.346815283203125,-0.025530908203124654,1.4609287783952016,1.571841333703785,-1.71685583114418,-0.266723735765444,2.342951274460086
399,1791618079.226717,0.546303955078125,-1.3947156738281252,-0.03990102539062465,1.498423142501165,1.5832752634181062,-1.7457147843370706,-0.269904559485873,2.3721570646219785
400,1791618079.235974,0.541513916015625,-1.3276551269531252,-0.09259145507812466,1.4368293687550309,1.58852892203774,-1.7589587425028315,-0.2712479658606425,2.385568161457782
401,1791618079.255974,0.579834228515625,-1.3611854003906252,-0.11175161132812465,1.48375262406822,1.5998589233319616,-1.7873136125900642,-0.27402155305744214,2.4143583693923034
402,1791618079.2977269,0.49361352539062503,-1.5575770019531252,-0.08301137695312466,1.6360291312093131,1.623325429094755,-1.8467692168387568,-0.27955316611757997,2.47464986648521
403,1791618079.3177269,0.579834228515625,-1.4330359863281252,-0.15965200195312465,1.5541198899690376,1.634490169706098,-1.8754629441950617,-0.28216940016173386,2.50370504259234
404,1791618079.326835,0.642104736328125,-1.4857264160156252,-0.25545278320312464,1.638577920059912,1.6396466774598923,-1.8885639120446616,-0.28346568671527733,2.5170354928621217
405,1791618079.346835,0.565464111328125,-1.5575770019531252,-0.20755239257812466,1.6699921478492932,1.6510825247900087,-1.9175814993470282,-0.28657968100985004,2.5466291885299386
406,1791618079.3557212,0.575044189453125,-1.495306494140625,-0.17881215820312465,1.6120146150591155,1.6561616183658774,-1.9305752341128966,-0.2880132447123761,2.559871807307565
407,1791618079.3757212,0.6564748535156251,-1.4857264160156252,-0.23629262695312467,1.6413946576303349,1.6677254415613498,-1.9599044087851014,-0.2913783765065791,2.589871579500012
408,1791618079.4160635,0.7091652832031251,-1.495306494140625,-0.24108266601562467,1.6724167429719476,1.6916841856878169,-2.019210401956381,-0.29859244798271184,2.6510683660493197
409,1791618079.4360635,0.6181545410156251,-1.495306494140625,-0.13570180664062464,1.6237215057770513,1.7037712152979148,-2.048687459197072,-0.3021975847920913,2.6816562120829848
410,1791618079.4474745,0.661264892578125,-1.4713562988281252,-0.16444204101562465,1.621481360087418,1.7107279670588051,-2.0655217603902862,-0.3042028227507269,2.6991683306701066
411,1791618079.4674745,0.699585205078125,-1.4138758300781251,-0.19797231445312466,1.5898607987283782,1.723133377374015,-2.094929269766454,-0.3077338381510752,2.7299482406609434
412,1791618079.4811382,0.7091652832031251,-1.456986181640625,-0.19318227539062466,1.631883428409455,1.73178099527953,-2.1149485355017688,-0.31018518510948195,2.751052084656675
413,1791618079.5011382,0.6564748535156251,-1.4426160644531252,-0.22192250976562466,1.6004218016064573,1.7445885176433933,-2.144205205821437,-0.3138577219465881,2.7820337399446515
414,1791618079.5365944,0.541513916015625,-1.418665869140625,-0.16923208007812465,1.5279036836236346,1.767073741597904,-2.1959005234303253,-0.3204319913003819,2.8367596616730015
415,1791618079.5565944,0.6133645019531251,-1.3947156738281252,-0.15486196289062465,1.5314796931818535,1.7795869267051578,-2.224906667012364,-0.3240702613924563,2.8674310525163373
416,1791618079.566209,0.7426955566406251,-1.3324451660156251,-0.28419301757812465,1.5516998683805754,1.7856779908421156,-2.2387258776655767,-0.3258735547938625,2.8821403532828564
417,1791618079.586209,0.6468947753906251,-1.385135595703125,-0.23150258789062467,1.5461781647376847,1.7985321255181548,-2.2672363104133986,-0.32983554217211636,2.912708323649621
418,1791618079.5962298,0.498403564453125,-1.538416845703125,-0.14049184570312465,1.6232284074990198,1.8048672190181896,-2.2815755881596727,-0.3318024537757425,2.928007122789187
419,1791618079.6162298,0.6277346191406251,-1.5192566894531252,-0.12133168945312466,1.6483061060923254,1.8173037909767578,-2.310488407556615,-0.3355320170352348,2.9586367611803466
420,1791618079.6559703,0.718745361328125,-1.337235205078125,-0.20276235351562466,1.5316348977919731,1.8423220968779583,-2.367835346156816,-0.34279713402618267,3.0196530943555304
421,1791618079.6759703,0.6181545410156251,-1.423455908203125,-0.14049184570312465,1.5582296743053292,1.8550296283969545,-2.396507914584048,-0.34641984379967283,3.050310117852399
422,1791618079.6869717,0.608574462890625,-1.5623670410156252,-0.12612172851562467,1.6814459069914507,1.861983308826534,-2.412377602274811,-0.34833365301873853,3.0672273916570245
423,1791618079.7069716,0.6947951660156251,-1.624637548828125,-0.21713247070312466,1.7802623395484671,1.8746836309162411,-2.4416809559188932,-0.35180587362082844,3.0983886101062947
424,1791618079.7157419,0.6756350097656251,-1.538416845703125,-0.30335317382812466,1.7074051088232534,1.8803189095654753,-2.454683895046256,-0.35344245015187237,3.11223292698961
425,1791618079.7357419,0.589414306640625,-1.5144666503906252,-0.28419301757812465,1.649783055816191,1.8931397612479979,-2.4844677794380208,-0.3574960665474009,3.143940479761136
426,1791618079.7763379,0.622944580078125,-1.5575770019531252,-0.20276235351562466,1.6897392221479597,1.9189512567570337,-2.5452083214302834,-0.36597253394451323,3.2084879960643655
427,1791618079.7963378,0.6373146972656251,-1.5288367675781251,-0.19797231445312466,1.6681441552034502,1.9316504653172737,-2.5752736460638137,-0.37012324072501873,3.240416498784692
428,1791618079.8061435,0.6133645019531251,-1.4138758300781251,-0.21713247070312466,1.5564084891084846,1.9378625378894712,-2.589967269829895,-0.37215829244022613,3.256031859361571
429,1791618079.8261435,0.622944580078125,-1.4474061035156252,-0.18839223632812466,1.5869896071026137,1.9504867923869966,-2.61973334066878,-0.37629472266591435,3.2877042479204146
430,1791618079.8357568,0.598994384765625,-1.538416845703125,-0.21234243164062466,1.6645149360696514,1.9565256285667727,-2.6340474688836477,-0.37827364958300413,3.3029213671445166
431,1791618079.8557568,0.575044189453125,-1.543206884765625,-0.25545278320312464,1.6665591599034368,1.968965679317465,-2.663982806881835,-0.38247484878853605,3.3346539927926435
432,1791618079.8965466,0.531933837890625,-1.615057470703125,-0.20276235351562466,1.7124476090001177,1.9939178871122254,-2.7255396926451247,-0.39115971079199086,3.3996001347330593
433,1791618079.9165466,0.546303955078125,-1.576737158203125,-0.14049184570312465,1.674600261585295,2.0059345745654724,-2.7559824449392547,-0.3952941817679434,3.4315405060103985
434,1791618079.9284093,0.6373146972656251,-1.5911072753906252,-0.14049184570312465,1.7197471744011747,2.01304607190756,-2.7741491452427067,-0.3976286409628334,3.450560317366912
435,1791618079.9484093,0.6947951660156251,-1.6533777832031251,-0.27461293945312465,1.8143347770528584,2.02523540382439,-2.805049754522773,-0.40159670669176645,3.4829818376037625
436,1791618079.955947,0.608574462890625,-1.576737158203125,-0.3464635253906247,1.7252535805982783,2.0298770586481876,-2.8167747661785416,-0.4032189774983691,3.4953120748255406
437,1791618079.975947,0.531933837890625,-1.495306494140625,-0.20755239257812466,1.6006164796655948,2.042056406469802,-2.8478269100899953,-0.4077087998094376,3.527936924390676
438,1791618080.0174627,0.522353759765625,-1.5719471191406251,-0.15007192382812465,1.6632476598622556,2.06682866581228,-2.9121665363672027,-0.41674428176606576,3.5952983834092316
439,1791618080.0374627,0.6852150878906251,-1.6294275878906253,-0.18839223632812466,1.7776517137956835,2.0787838115625066,-2.943314512451525,-0.42095184471044034,3.6278978637755532
440,1791618080.0464723,0.560674072265625,-1.5958973144531252,-0.23150258789062467,1.7072894018852436,2.084203408911313,-2.95742074910319,-0.4228466870233331,3.6426694411750042
441,1791618080.0664723,0.503193603515625,-1.5144666503906252,-0.17402211914062465,1.6053338393351815,2.0960253088719276,-2.988702988650671,-0.42703030312139706,3.6753261800260755
442,1791618080.0759308,0.555884033203125,-1.6821180175781252,-0.18360219726562466,1.7810777215696962,2.101528875436715,-3.003545713720883,-0.4289657636594023,3.6907617228828644
443,1791618080.0959308,0.579834228515625,-1.7300184082031251,-0.2698229003906247,1.8444445838395886,2.1131240966252265,-3.035340973116331,-0.4331245338566782,3.7237326881296866
444,1791618080.135843,0.6468947753906251,-1.6294275878906253,-0.31293325195312466,1.780852137260336,2.136464846764121,-3.0993305757324725,-0.441923367726751,3.790201620240271
445,1791618080.155843,0.541513916015625,-1.7060682128906253,-0.23629262695312467,1.8054750825826418,2.1481890833982558,-3.1315891791355432,-0.44649493061261314,3.82373179603029
446,1791618080.1661954,0.479243408203125,-1.821029150390625,-0.15965200195312465,1.889791039402555,2.1541400139387026,-3.1485207364686336,-0.4488137323228005,3.841215405824873
447,1791618080.1861954,0.570254150390625,-1.8066590332031252,-0.17881215820312465,1.9029399481364206,2.165486484090642,-3.1817661493627565,-0.453129211184306,3.8753443232877336
448,1791618080.1956975,0.6468947753906251,-1.8258191894531253,-0.2794029785156247,1.957078073916919,2.170936090329846,-3.1977807997633994,-0.45519853882906386,3.891782530073359
449,1791618080.2156975,0.6708449707031251,-1.662957861328125,-0.33209340820312466,1.8236633063815961,2.182662386149118,-3.2316651764818696,-0.45981793975398383,3.926717132989764
450,1791618080.256397,0.49361352539062503,-1.7635486816406252,-0.20276235351562466,1.842517526909349,2.206500171830878,-3.300735265083442,-0.46944088085292535,3.9979833715350948
451,1791618080.276397,0.464873291015625,-1.8258191894531253,-0.18360219726562466,1.892995683068435,2.217894832580399,-3.334969565610422,-0.4740398847404947,4.033087316716486
452,1791618080.2878513,0.488823486328125,-1.935990087890625,-0.2602428222656247,2.0136365977349313,2.2242611660484144,-3.3548668472941103,-0.47666002267902086,4.053353435747312
453,1791618080.3078513,0.603784423828125,-1.8737195800781252,-0.2889830566406247,1.9896964346982595,2.23534868097367,-3.390111990731472,-0.4813725428806909,4.089176269161242
454,1791618080.3169708,0.498403564453125,-1.854559423828125,-0.2698229003906247,1.9392269509122693,2.2403998313983715,-3.406322294356104,-0.48358122221055816,4.105639265209736
455,1791618080.3369708,0.488823486328125,-1.8306092285156252,-0.25066274414062467,1.911258841604837,2.2512966884406707,-3.4420682093930735,-0.4884792226942442,4.141833203848551
456,1791618080.377526,0.570254150390625,-1.8401893066406252,-0.27461293945312465,1.945995567011221,2.2732998394755,-3.5148451014712547,-0.4985191139037493,4.2155129645659
457,1791618080.397526,0.570254150390625,-1.859349462890625,-0.23629262695312467,1.9591335908359586,2.2842339022072697,-3.550901091616402,-0.5034940027298467,4.252073528670516
458,1791618080.4075882,0.503193603515625,-1.8401893066406252,-0.24108266601562467,1.922920003210416,2.289719890628497,-3.569112160625098,-0.5059817464330877,4.270526468760639
459,1791618080.4275882,0.488823486328125,-1.8928797363281251,-0.25545278320312464,1.9715978853290135,2.3004764197488625,-3.605479119161977,-0.5109295589915495,4.3072869013782755
460,1791618080.4365256,0.479243408203125,-1.9312000488281251,-0.25066274414062467,2.005502352080398,2.305211056571645,-3.6218559640912016,-0.5131481769871449,4.323789968477701
461,1791618080.4565256,0.498403564453125,-1.9551502441406252,-0.25066274414062467,2.0331872519575844,2.3156834020349795,-3.6588363085903235,-0.5181202557578634,4.360954178955078
462,1791618080.496802,0.469663330078125,-1.9647303222656252,-0.23150258789062467,2.033308223327225,2.336533759725636,-3.7339785012312645,-0.5280877276071247,4.436311768354897
463,1791618080.516802,0.421762939453125,-1.974310400390625,-0.25066274414062467,2.034359197754133,2.3466714515654177,-3.7716031985368708,-0.5330180620393309,4.47392063443976
464,1791618080.527539,0.49361352539062503,-1.9695203613281251,-0.2889830566406247,2.0508963828433626,2.352034613818623,-3.7919479698146565,-0.5357024355631689,4.494208865846216
465,1791618080.547539,0.5367238769531251,-2.074901220703125,-0.2889830566406247,2.162590761746723,2.3620717046821094,-3.8302268196311626,-0.5408195982733945,4.532384148079054
466,1791618080.556528,0.546303955078125,-2.050951025390625,-0.30335317382812466,2.14403154546673,2.366636402133604,-3.8476323299876296,-0.5431738859401415,4.549756067860917
467,1791618080.576528,0.5175637207031251,-1.9647303222656252,-0.32251333007812466,2.0571952489484637,2.3768648594432182,-3.886572771854064,-0.5485650628324351,4.588666265826462
468,1791618080.6190124,0.503193603515625,-2.0222107910156253,-0.3081432128906247,2.1065356691899706,2.3985856566996913,-3.969586676850092,-0.5603087586716924,4.671699631033171
469,1791618080.6390123,0.507983642578125,-1.9503602050781252,-0.2698229003906247,2.0334101180663327,2.408793945875732,-4.0087633419814965,-0.5658749186449572,4.710911401125442
470,1791618080.6465702,0.579834228515625,-1.9312000488281251,-0.2698229003906247,2.0343416032533157,2.412689566626387,-4.023547492567065,-0.567968716344637,4.725737385064548
471,1791618080.6665702,0.503193603515625,-2.027000830078125,-0.21234243164062466,2.0992916605444565,2.423076562217769,-4.062738913384619,-0.5734015619734466,4.765074695739019
472,1791618080.7065837,0.464873291015625,-1.9886805175781253,-0.20276235351562466,2.052332806758615,2.4436456385414553,-4.1414380900408485,-0.5838862736476825,4.843948455646287
473,1791618080.7265837,0.498403564453125,-1.8880896972656251,-0.2602428222656247,1.970029224280939,2.453829440874874,-4.180689030193488,-0.589035269812169,4.883277817323847
474,1791618080.736585,0.531933837890625,-1.940780126953125,-0.32251333007812466,2.0380372806078206,2.458930917252847,-4.200244660325031,-0.5916609728506971,4.902903136836939
475,1791618080.756585,0.455293212890625,-2.050951025390625,-0.2698229003906247,2.1181351269053477,2.4690832325378396,-4.239472859973834,-0.5970126394635428,4.942259223405168
476,1791618080.765878,0.479243408203125,-1.9120398925781252,-0.27461293945312465,1.9902218624141885,2.4737443071381167,-4.257728411794816,-0.5995057750516195,4.960551310088758
477,1791618080.785878,0.531933837890625,-1.9216199707031252,-0.2794029785156247,2.0133660730482004,2.4837876524097227,-4.296874078953576,-0.6048975322976299,4.999822894585958
478,1791618080.8269062,0.5175637207031251,-1.9982605957031252,-0.25545278320312464,2.079945609330709,2.504529690808338,-4.377194428225357,-0.6159449694479956,5.08054015238694
479,1791618080.8469062,0.488823486328125,-1.9934705566406252,-0.2794029785156247,2.071458250938809,2.514633695249058,-4.416462606721708,-0.6213247373815406,5.120016504576452
480,1791618080.856146,0.460083251953125,-1.9455701660156253,-0.30335317382812466,2.022113502672248,2.519259089911354,-4.4346128175484685,-0.6238412003198531,5.138252139286536
481,1791618080.876146,0.503193603515625,-1.9551502441406252,-0.2602428222656247,2.0355693567950377,2.5292140019624987,-4.473857423679061,-0.6293164892253943,5.177679302423276
482,1791618080.8861194,0.551093994140625,-2.017420751953125,-0.3081432128906247,2.113916583131779,2.5342221455236147,-4.4934633130942245,-0.6320624240538448,5.197402941555221
483,1791618080.9061193,0.555884033203125,-2.084481298828125,-0.36083364257812467,2.187297478888173,2.5444192503431045,-4.533035411421564,-0.6377464761180263,5.237289368606569
484,1791618080.9457207,0.507983642578125,-2.0557410644531253,-0.32251333007812466,2.14199289291162,2.564741361572358,-4.611934418650509,-0.6493426736545649,5.316905419651745
485,1791618080.9657207,0.570254150390625,-2.036580908203125,-0.28419301757812465,2.133920631826629,2.5750825549444882,-4.651942515275826,-0.6552307264837514,5.357326444705291
486,1791618080.975842,0.531933837890625,-2.1228016113281254,-0.25545278320312464,2.2032921761302013,2.5803675697224326,-4.672309692966199,-0.6581731627476026,5.3779147049783464
487,1791618080.995842,0.402602783203125,-2.0988514160156253,-0.24108266601562467,2.150671318311308,2.590646173873442,-4.712851223934748,-0.6638601311200403,5.418775187331457
488,1791618081.0068533,0.5175637207031251,-2.017420751953125,-0.31293325195312466,2.106130555207139,2.5962163108091385,-4.73522341702748,-0.6669790727824528,5.441281193359387
489,1791618081.0268533,0.474453369140625,-2.0126307128906253,-0.33209340820312466,2.094295685363336,2.6063038376975345,-4.775807986593529,-0.6727618161208183,5.482131891922851
490,1791618081.0665615,0.426552978515625,-2.103641455078125,-0.2794029785156247,2.1645601953762257,2.6260108186848004,-4.856557115448435,-0.6843418627498737,5.56330869362598
491,1791618081.0865614,0.450503173828125,-2.084481298828125,-0.2698229003906247,2.149609218525221,2.63576342183324,-4.897409887108649,-0.690123389994055,5.604296807953743
492,1791618081.0955281,0.412182861328125,-2.007840673828125,-0.2985631347656247,2.0713422769045913,2.640060144722279,-4.915730334995075,-0.6927088804742604,5.6226477648195
493,1791618081.115528,0.407392822265625,-1.979100439453125,-0.2602428222656247,2.0372858875518385,2.6494356864958593,-4.9564445740252765,-0.6984489335480537,5.663363239722207
494,1791618081.126817,0.412182861328125,-2.079691259765625,-0.32251333007812466,2.1445338176853856,2.654627771305873,-4.979414807980871,-0.70169628410901,5.686299157559331
495,1791618081.146817,0.359492431640625,-2.1084314941406253,-0.29377309570312465,2.158939741088193,2.663604070072879,-5.020287978301171,-0.7075109145975376,5.727010539667158
496,1791618081.1876335,0.416972900390625,-2.0557410644531253,-0.23629262695312467,2.110869946086553,2.68155224640777,-5.103938399979322,-0.7192202411103341,5.810179635451975
497,1791618081.2076335,0.436133056640625,-2.1323816894531253,-0.04469106445312465,2.176984383005908,2.6903072723363097,-5.145060758624286,-0.7245186199253156,5.8510110801586785
498,1791618081.2161536,0.584624267578125,-2.2425525878906254,-0.14528188476562465,2.3220539334255896,2.694129790861695,-5.162747024158567,-0.7265585876885982,5.868575597775892
499,1791618081.2361536,0.560674072265625,-2.3383533691406253,-0.30335317382812466,2.423690376750675,2.7034747073136725,-5.20490731654604,-0.7313018336077945,5.910553107684371
500,1791618081.2456589,0.258901611328125,-2.3910437988281252,-0.16444204101562465,2.4106351190331803,2.7078340864476145,-5.225310562571383,-0.7335514727826211,5.930795366413277
501,1791618081.2656589,0.153520751953125,-2.5539051269531248,0.04631967773437535,2.558934452326422,2.7162493795391467,-5.26921876577472,-0.7377520896653043,5.973855977444115
502,1791618081.305883,0.302011962890625,-2.802987158203125,0.05110971679687535,2.8196738176483707,2.7320097857093013,-5.360441632355303,-0.7446392229853263,6.062400476338359
503,1791618081.325883,0.498403564453125,-2.769456884765625,-0.30335317382812466,2.8302509955314736,2.7398712607714732,-5.407353998412665,-0.747928311148215,6.10784483663165
504,1791618081.3361914,0.287641845703125,-2.798197119140625,-0.4949547363281247,2.856155657519393,2.7439231875191346,-5.432211425342356,-0.7499865016502651,6.131925894960147
505,1791618081.3561914,0.119990478515625,-2.822147314453125,-0.22192250976562466,2.8334012740432777,2.7512167580969282,-5.481634870514299,-0.7544560243063506,6.17954030622698
506,1791618081.3656871,0.402602783203125,-2.841307470703125,-0.054271142578124654,2.8702025191670755,2.754532398567253,-5.505614047269238,-0.7564564853074347,6.202536673523882
507,1791618081.385687,0.484033447265625,-2.678446142578125,-0.03990102539062465,2.7221231068029796,2.761798262160321,-5.556823006894501,-0.7601791201146001,6.251694479537689
508,1791618081.4269843,0.03855981445312499,-2.453314306640625,-0.054271142578124654,2.454217452340963,2.7761694387146627,-5.662596068639093,-0.7670045161721876,6.352984095434896
509,1791618081.4469843,-0.19136206054687502,-2.3623035644531254,0.05110971679687535,2.3705927047883497,2.7818561277833513,-5.713360950219058,-0.7698189313541669,6.40108100638049
510,1791618081.4570193,-0.23447241210937503,-2.161121923828125,0.11817026367187536,2.1770138935953636,2.7839609461997066,-5.738416096270744,-0.7708918451107363,6.424494694585915
511,1791618081.4770193,-0.30153295898437504,-1.9934705566406252,0.13733041992187536,2.0208183069694505,2.7867226333271056,-5.787092967987148,-0.7723261776505581,6.4693705860700375
512,1791618081.4866314,-0.550614990234375,-1.658167822265625,0.11817026367187536,1.7511886264718048,2.78723650221534,-5.809610637381654,-0.7727279304396988,6.489789791028774
513,1791618081.5066314,-0.967348388671875,-1.3180750488281252,0.007999365234375349,1.6349766754463166,2.7858683906688926,-5.853899871738799,-0.773249218375938,6.528944842177073
514,1791618081.5462954,-1.120629638671875,-1.2893348144531251,-0.09738149414062465,1.7110459392523019,2.777350811979241,-5.936315776432779,-0.7743938595388422,6.599485463278021
515,1791618081.5662954,-1.082309326171875,-1.227064306640625,-0.13570180664062464,1.641796354751583,2.7703957766449783,-5.975413787742962,-0.7752340767961912,6.631866295985397
516,1791618081.575909,-1.000878662109375,-0.6905799316406251,-0.06385122070312466,1.217676359561892,2.7660521181862294,-5.992770894722601,-0.7757212487731074,6.645757351344913
517,1791618081.5959089,-0.948188232421875,-0.42712778320312506,-0.04948110351562465,1.0411279685477954,2.7554474454515523,-6.025140761939658,-0.7767527339329668,6.670693864621928
518,1791618081.6121087,-1.120629638671875,-0.33132700195312503,-0.006370751953124652,1.168601281778157,2.745632612293439,-6.048348711774402,-0.7775307638478511,6.6877181960398255
519,1791618081.6321087,-1.331391357421875,-0.11098520507812501,-0.059061181640624655,1.337314056435766,2.731654967986042,-6.073366437445383,-0.7784453707304495,6.704751743563852
520,1791618081.671675,-1.259540771484375,-0.03434458007812501,-0.15007192382812465,1.2689145312170051,2.7004620868236904,-6.115866717233285,-0.7806039411989393,6.730948202025425
521,1791618081.691675,-1.134999755859375,0.23389760742187501,0.05589975585937535,1.160197103626645,2.683467996132047,-6.133827990074378,-0.7816726472440357,6.7406126150027585
522,1791618081.6986709,-0.986508544921875,0.521299951171875,0.01757944335937535,1.1159129827744185,2.6773020566338763,-6.138772109157262,-0.781951848041897,6.742693675622468
523,1791618081.7186708,-0.5937253417968751,0.8518126464843749,-0.059061181640624655,1.0399917256302176,2.6599485570357477,-6.148726585883785,-0.782692524817903,6.744981285551239
524,1791618081.727665,-0.6607858886718749,0.7320616699218749,-0.0015807128906246515,0.9861819192673967,2.6524689464833084,-6.151463267230275,-0.7830165547640772,6.744568686371001
525,1791618081.747665,-0.723056396484375,0.626680810546875,-0.03032094726562465,0.9573185209990156,2.6362557812820846,-6.154597827060651,-0.783676864521131,6.741147408652965
526,1791618081.7857652,-0.35422338867187503,0.770381982421875,0.10859018554687536,0.8548417609824341,2.6069240747284663,-6.15568136787536,-0.7845224231508762,6.730820281855196
527,1791618081.8057652,-0.20094213867187502,1.000303857421875,0.24271127929687536,1.04875846378708,2.593003784957565,-6.153508807763729,-0.7843727520719843,6.7234351257540235
528,1791618081.8167794,-0.04287084960937502,1.072154443359375,-0.025530908203124654,1.0733149059969107,2.5862862229164456,-6.15077983281227,-0.7841232848228662,6.718319604214952
529,1791618081.8367794,0.05292993164062499,0.942823388671875,-0.10696157226562465,0.9503464093854057,2.575933040902029,-6.143545312452497,-0.7839369812904706,6.707692392172038
530,1791618081.8455737,0.273271728515625,0.7751720214843749,-0.11175161132812465,0.8294923285555581,2.572278605637816,-6.139708205930681,-0.7840116061016777,6.702783621563261
531,1791618081.8655736,0.479243408203125,0.660211083984375,-0.08780141601562466,0.8205254465135858,2.5663431099810556,-6.130137750306895,-0.7844551900982157,6.691791668989476
532,1791618081.9061203,0.6900051269531251,0.808702294921875,-0.06385122070312466,1.06498049532317,2.55967054286861,-6.109178646539537,-0.7856807648915884,6.670177755328906
533,1791618081.9261203,1.0348879394531252,0.8326524902343749,-0.2985631347656247,1.3614121940691284,2.559460274849325,-6.097929099749591,-0.786738232271269,6.659919913198804
534,1791618081.9371207,0.9103469238281251,0.626680810546875,-0.34167348632812466,1.1568064363974786,2.560966847291983,-6.091465749656992,-0.7877608306577728,6.65470309619381
535,1791618081.9571207,0.9151369628906251,0.396758935546875,-0.2698229003906247,1.0332945907920819,2.5660333239521567,-6.079942145762116,-0.7902583954583261,6.646407439138813
536,1791618081.9666588,1.1115285644531252,0.281797998046875,-0.20276235351562466,1.164482045074825,2.5695369372025576,-6.074785376015073,-0.7916089102314152,6.6432057098250885
537,1791618081.9866588,1.1977492675781252,0.334488427734375,-0.13570180664062464,1.250959950037442,2.579245376117202,-6.064669984178707,-0.7945236421799702,6.638071749024942
538,1791618082.027574,1.619272705078125,0.535670068359375,-0.3368834472656247,1.7385272424062663,2.604771815797997,-6.044410124690125,-0.8010422648435426,6.63033925812984
539,1791618082.047574,1.8827248535156251,0.41591909179687503,-0.4853746582031247,1.988273151202412,2.6206308538318925,-6.034564920684912,-0.8049840902824246,6.6280977089678155
540,1791618082.0566368,1.9258352050781251,0.094986474609375,-0.6386559082031247,2.0311930081998066,2.6293279541943737,-6.03042559712373,-0.8072663672059845,6.628052305223234
541,1791618082.0766368,2.0216359863281252,-0.10140512695312501,-0.6003355957031247,2.111326097138359,2.6515632197578163,-6.022670661223358,-0.8134059591744648,6.630609222111763
542,1791618082.1158633,2.1413869628906252,-0.43670786132812506,-0.6769762207031247,2.2879136094663206,2.7008798516940944,-6.011325304122172,-0.8273992906773264,6.641940489908049
543,1791618082.1358633,2.457529541015625,-0.6905799316406251,-0.8446275878906246,2.688819043590545,2.729151048439028,-6.008099386416756,-0.8357461204235624,6.651615988619628
544,1791618082.1458628,2.764092041015625,-0.9444520019531252,-0.8254674316406246,3.0353897403626044,2.7450817598348896,-6.007954651074538,-0.8405458642550631,6.658641776478344
545,1791618082.1658628,2.783252197265625,-1.1216834472656252,-0.8302574707031247,3.1135179487377256,2.7804862690729246,-6.010807789477813,-0.8511894028508765,6.677232778185575
546,1791618082.1764376,2.9892238769531247,-1.0881531738281252,-1.0074889160156246,3.336850406019609,2.8009763401428147,-6.013842722430323,-0.8574304677782624,6.689316837707902
547,1791618082.1964376,3.338896728515625,-1.418665869140625,-1.1799303222656248,3.814849902336752,2.8434081698987237,-6.022481878909986,-0.8707446745505178,6.716654992680809
548,1791618082.2364645,3.382007080078125,-1.9982605957031252,-1.1176598144531247,4.084137700773783,2.9357671376352,-6.047436010665719,-0.9002914772557145,6.782384221904165
549,1791618082.2564645,3.358056884765625,-2.2090223144531254,-1.1080797363281247,4.169432374932427,2.9851033651231473,-6.064345296656859,-0.9161790224214916,6.821034377473765
550,1791618082.2664988,3.362846923828125,-1.9312000488281251,-1.0649693847656247,4.021496344917164,3.0112012282778164,-6.0746722404880344,-0.9245897917166304,6.842794893132801
551,1791618082.2864988,3.362846923828125,-1.8401893066406252,-0.9979088378906247,3.9611687878850863,3.0655043279719374,-6.097825056733764,-0.9419334924690264,6.889704341376319
552,1791618082.2956836,3.463437744140625,-1.6821180175781252,-1.0074889160156246,3.9799442142438632,3.0914042401188655,-6.109289283017283,-0.9500851533267287,6.9125145582477145
553,1791618082.3156836,3.458647705078125,-1.734808447265625,-1.0170689941406248,4.00077912854341,3.1497248525709165,-6.135633515119618,-0.9682096907872135,6.964495335923219
554,1791618082.3556132,3.314946533203125,-1.9120398925781252,-0.8973180175781247,3.930642020519793,3.268980595727721,-6.191261259573362,-1.004700284186911,7.073003094908382
555,1791618082.3756132,3.247885986328125,-1.9695203613281251,-0.9260582519531247,3.9096493090663724,3.3295978020329775,-6.220767029294514,-1.0229711654102192,7.1295605728068026
556,1791618082.3855202,3.300576416015625,-1.9695203613281251,-1.0697594238281247,3.9896366196075674,3.3599862429601273,-6.236117188634782,-1.0321470307219331,7.158490946861328
557,1791618082.4055202,3.128135009765625,-1.974310400390625,-1.0649693847656247,3.8493233154542956,3.421774514058487,-6.268373119890967,-1.051094497674747,7.218437645243875
558,1791618082.4159942,2.802412353515625,-1.8353992675781252,-0.6913463378906247,3.4205504278519387,3.453937919139252,-6.2857243621999555,-1.0609085184141185,7.2502099825636535
559,1791618082.4359941,2.802412353515625,-1.701278173828125,-0.5524352050781247,3.3246123202097797,3.5145486147276226,-6.319191658829703,-1.078703034233557,7.310802652402225
560,1791618082.4764163,2.893423095703125,-1.543206884765625,-0.6482359863281247,3.3426927160460136,3.6359423329969327,-6.386522832090569,-1.1129130699813943,7.432787231922406
561,1791618082.4964163,2.816782470703125,-1.576737158203125,-0.6961363769531247,3.3022673133222105,3.695561044012615,-6.4195195800115235,-1.1293170185918255,7.4928472556602985
562,1791618082.5063367,2.8694729003906247,-1.619847509765625,-0.7200865722656247,3.3728779035902465,3.724927952266667,-6.4358098701494875,-1.137286887936128,7.52251011297177
563,1791618082.5263367,2.9556936035156247,-1.6294275878906253,-0.8973180175781247,3.492325667332956,3.783990181082418,-6.468599570085558,-1.1533705279164337,7.582323236535451
564,1791618082.5360813,2.725771728515625,-1.5911072753906252,-0.8877379394531247,3.2786479723996775,3.812602960904162,-6.4845330737276345,-1.161336136713242,7.6114264198111234
565,1791618082.5560813,2.577280517578125,-1.5671570800781252,-0.8254674316406246,3.1272596087670963,3.8704738533966547,-6.517067201981439,-1.1778023163795968,7.670720374348062
566,1791618082.5963352,2.740141845703125,-1.5288367675781251,-0.8542076660156247,3.251982461999437,3.985532395578121,-6.5820732416343,-1.2110435231470307,7.789401969945916
567,1791618082.6163352,2.9125832519531247,-1.543206884765625,-0.8973180175781247,3.416110114357586,4.042602902011688,-6.614134598772831,-1.2277092076829215,7.84835553556709
568,1791618082.626335,2.8694729003906247,-1.5527869628906252,-0.8206773925781247,3.364302819439431,4.071193723549356,-6.630082288496041,-1.236080419349298,7.87784896339066
569,1791618082.646335,2.677871337890625,-1.423455908203125,-0.6242857910156246,3.096280732388217,4.128120287433125,-6.661658367468956,-1.2524792611938123,7.936483705779701
570,1791618082.656349,2.7497219238281247,-1.1935340332031252,-0.5236949707031247,3.042983826630518,4.15642452697207,-6.677062579836998,-1.2603207686543563,7.9653900082404006
571,1791618082.676349,2.941323486328125,-1.136053564453125,-0.6194957519531247,3.213374634122211,4.213010704161314,-6.7067073339521155,-1.2753473904109764,8.022212501728747
572,1791618082.7161913,2.7928322753906247,-1.1647937988281252,-0.7296666503906247,3.1127271215036347,4.3259628790451075,-6.7637802023062195,-1.3048235391714267,8.13420198448266
573,1791618082.7361913,2.572490478515625,-1.260594580078125,-0.5763854003906247,2.922161201432829,4.3822054101438725,-6.791770193843709,-1.3193595300209289,8.189784868489227
574,1791618082.7462075,2.6395510253906247,-1.3707654785156251,-0.5859654785156246,3.031432525183913,4.410062603574164,-6.805661943924821,-1.3264205175414712,8.217364422476644
575,1791618082.7662075,2.6299709472656247,-1.150423681640625,-0.5955455566406247,2.9317053639094106,4.4652474542938725,-6.8330214738194455,-1.3401770317500685,8.271921890720801
576,1791618082.776406,2.845522705078125,-1.3899256347656253,-0.7200865722656247,3.2476787721157114,4.49335498520348,-6.846823304652321,-1.3471459835827042,8.29964039517774
577,1791618082.796406,3.008384033203125,-2.041370947265625,-0.5236949707031247,3.673122140347555,4.548988139330706,-6.874976447255244,-1.3606281649982577,8.35523208806747
578,1791618082.837943,2.926953369140625,-2.041370947265625,-0.4566344238281247,3.597605643548033,4.665689030399388,-6.937394804265265,-1.3874826115720569,8.47473945298914
579,1791618082.857943,2.883843017578125,-1.8114490722656251,-0.7775670410156247,3.493208953773005,4.7221677184949815,-6.968720165264851,-1.4003247068625313,8.533629824876089
580,1791618082.8659503,2.7161916503906247,-1.9599402832031252,-1.0410191894531247,3.5075324586072947,4.744751066207066,-6.981645395909522,-1.405787146903,8.557585676865608
581,1791618082.8859503,2.850312744140625,-2.180282080078125,-1.1847203613281247,3.7790838866934005,4.801046704377364,-7.015296813696469,-1.4207228621251593,8.618752362890913
582,1791618082.8969011,2.970063720703125,-2.333563330078125,-1.1320299316406246,3.9431317612593766,4.83202757005177,-7.034665774351832,-1.4295768582607062,8.653248117802473
583,1791618082.916901,2.893423095703125,-2.352723486328125,-1.1607701660156247,3.9057127892588523,4.888917363382112,-7.071763494633131,-1.4467609631818417,8.718054209202403
584,1791618082.9567757,2.725771728515625,-2.2281824707031253,-1.0937096191406248,3.6865742051021395,5.002131514265538,-7.148331512273812,-1.4826245809456915,8.849753597891844
585,1791618082.9767756,2.788042236328125,-2.204232275390625,-0.8350475097656247,3.6509072542299723,5.058669569574707,-7.187623880480702,-1.500807688670236,8.916529514321663
586,1791618082.9874177,2.888633056640625,-1.9695203613281251,-0.7057164550781246,3.566685731119447,5.088771892922579,-7.208726629362822,-1.510261450073267,8.952219202111895
587,1791618083.0074177,2.816782470703125,-1.7970789550781252,-0.9212682128906247,3.4659041213120383,5.145416507108875,-7.248086788515551,-1.5278036922604905,9.019105124543508
588,1791618083.0166569,2.419209228515625,-1.8928797363281251,-0.8398375488281247,3.1844770521952945,5.171287161459294,-7.266099113201722,-1.5359122786985537,9.049720092743287
589,1791618083.0366569,2.4144191894531253,-1.744388525390625,-0.40394399414062465,3.005907866238792,5.226139213971165,-7.304697418223788,-1.5526976269188337,9.114933097738666
590,1791618083.0772715,2.692241455078125,-1.7156482910156252,-0.36562368164062464,3.2132995172380774,5.336375943465376,-7.381862417577394,-1.5840153682790832,9.245426201586483
591,1791618083.0972714,2.538960205078125,-1.500096533203125,-0.5428551269531247,2.998549686224606,5.3903643325245545,-7.418984848325743,-1.5984866971324139,9.308733723657001
592,1791618083.1056318,2.246767822265625,-1.8114490722656251,-0.6386559082031247,2.9558746180551996,5.412548100871881,-7.43425150431501,-1.604369444129602,9.334761576329548
593,1791618083.1256318,1.7533937988281252,-1.9982605957031252,-0.6147057128906247,2.728607398576993,5.463656746092231,-7.4710092362031615,-1.6182114449980096,9.396070046954451
594,1791618083.1360009,2.007265869140625,-1.5479969238281253,-0.5524352050781247,2.594339106864775,5.489104177324485,-7.489965690771983,-1.6252190768636947,9.427151625292987
595,1791618083.1560009,2.3617287597656254,-1.854559423828125,-0.7584068847656247,3.0971493980874873,5.537378495693594,-7.526148455740646,-1.6386742870019533,9.486344111474057
596,1791618083.1959593,2.155757080078125,-1.6677479003906253,-0.6913463378906247,2.811873291327168,5.632898113187932,-7.598151314818986,-1.6658691660732596,9.603986913512287
597,1791618083.2159593,1.9497854003906252,-1.385135595703125,-0.4757945800781247,2.438574216318216,5.679694405010123,-7.633363620941283,-1.6791896987015775,9.661617191135168
598,1791618083.2279582,2.1413869628906252,-1.0737830566406252,-0.39436391601562465,2.427770803807806,5.707240047721758,-7.653533078206897,-1.686765619785564,9.69506760149803
599,1791618083.2479582,2.0982766113281253,-0.6905799316406251,-0.21713247070312466,2.219642288627844,5.752626097648316,-7.684755629630591,-1.6984163993393127,9.74847651543708
600,1791618083.256114,1.9162551269531252,-0.422337744140625,0.04631967773437535,1.9627909705940025,5.770813572943459,-7.69625883470123,-1.7025593090572935,9.76900187046982
601,1791618083.276114,1.8348244628906252,-0.11577524414062501,0.19481088867187535,1.8487660747435892,5.8143501311191015,-7.72104326550088,-1.7108330878835456,9.815708146108378
602,1791618083.3173294,1.7629738769531251,-0.005604345703125008,0.25229135742187536,1.780943353545998,5.901732606131073,-7.764832290773432,-1.7239438475631317,9.904294555780297
603,1791618083.3373294,1.6815432128906251,0.205157373046875,0.24271127929687536,1.7113111609616605,5.942941728628932,-7.782594471600087,-1.7286090946980053,9.943612145570238
604,1791618083.3463244,1.528261962890625,0.42549916992187503,0.23313120117187536,1.6034289281980516,5.960861002748962,-7.788959320841331,-1.7300715559590683,9.95956318241684
605,1791618083.3663244,1.216909423828125,0.6075206542968751,0.25229135742187536,1.3833296137323075,5.998844844602951,-7.7994388819045595,-1.732107365286522,9.990874950026342
606,1791618083.3758335,1.2456496582031251,0.5500401855468751,0.05110971679687535,1.3626442968908137,6.015951755593704,-7.8028485047578195,-1.7327137302458469,10.003920090885112
607,1791618083.3958335,1.5043117675781252,0.30574819335937503,-0.015950830078124652,1.5351515497815604,6.05065977937331,-7.8076604176185755,-1.7337450282044362,10.028754498211498
608,1791618083.4358199,1.7965041503906252,0.23868764648437502,-0.17402211914062465,1.8206269944459206,6.119542447489139,-7.8142051392160585,-1.736067363763951,10.075938249904985
609,1791618083.4558198,1.7438137207031252,0.291378076171875,-0.24587270507812467,1.7850044433806138,6.154138002693913,-7.816192493398433,-1.7376845334539548,10.098803255231015
610,1791618083.4660773,1.571372314453125,0.195577294921875,-0.2985631347656247,1.6113973359664602,6.171770117170605,-7.816684247167999,-1.7388083685281772,10.110131232659052
611,1791618083.4860773,1.7150734863281252,-0.26905649414062505,-0.4662145019531247,1.7975606867019411,6.205921927969702,-7.817609461752442,-1.7418180940240622,10.132246293157609
612,1791618083.527013,2.194077392578125,-0.422337744140625,-0.5811754394531247,2.308703026846837,6.277340069226834,-7.821341829349038,-1.7502700052082547,10.180463223614995
613,1791618083.547013,2.649131103515625,-0.6905799316406251,-0.7057164550781246,2.8271596984547442,6.31426372096239,-7.824561198621046,-1.75571028878165,10.206674429360504
614,1791618083.5569453,2.711401611328125,-1.0881531738281252,-0.8542076660156247,3.0439196382797027,6.3338431904281105,-7.827245181722959,-1.7591687739025976,10.22144859943109
615,1791618083.5769453,2.701821533203125,-1.179163916015625,-1.0314391113281247,3.123160863370752,6.375475028473536,-7.835240030959977,-1.7679167476105806,10.254910911750004
616,1791618083.5886152,2.687451416015625,-1.179163916015625,-1.0074889160156246,3.102878755312884,6.400840086737172,-7.84126934152702,-1.7740400337511684,10.276355226621204
617,1791618083.6086152,2.831152587890625,-1.1743738769531251,-0.9260582519531247,3.201899883631619,6.446068304293675,-7.853582788541722,-1.7858603934968376,10.316000026422982
618,1791618083.6459308,3.147295166015625,-1.5719471191406251,-1.0889195800781246,3.6826933702491917,6.534528110026241,-7.880796914199507,-1.8102457361897681,10.39634586039599
619,1791618083.6659307,3.027544189453125,-1.6869080566406252,-1.0170689941406248,3.611940191848787,6.584090261027668,-7.898083213700144,-1.8245140202404597,10.443122829208962
620,1791618083.6755803,2.850312744140625,-1.543206884765625,-0.8446275878906246,3.3495023497266603,6.608669821527129,-7.90751008607166,-1.8317128470075734,10.467015072368103
621,1791618083.6955802,2.754511962890625,-1.3276551269531252,-0.8973180175781247,3.1867199303520253,6.660379965111682,-7.928424118994331,-1.8470082590289163,10.518175212423168
622,1791618083.706512,2.859892822265625,-1.380345556640625,-1.0170689941406248,3.3344819911683703,6.689007581959861,-7.940360992327226,-1.8556840590294899,10.546834522591338
623,1791618083.726512,2.7928322753906247,-1.658167822265625,-0.9308482910156247,3.378744024951788,6.74200559953422,-7.963481844414417,-1.8720977084682981,10.60077508583788
624,1791618083.7667544,2.701821533203125,-1.6869080566406252,-0.7919371582031247,3.2821734950154564,6.849232245052465,-8.013121604190856,-1.9053697370268867,10.712260920319043
625,1791618083.7867544,2.6395510253906247,-1.7635486816406252,-0.8398375488281247,3.283696191272682,6.9025410408717525,-8.039267067673567,-1.9218728078256593,10.76886637003911
626,1791618083.7963471,2.615600830078125,-1.777918798828125,-0.8781578613281247,3.282304706596297,6.928055533632273,-8.052474331424644,-1.9298370225296595,10.796507179123797
627,1791618083.8163471,2.668291259765625,-1.902459814453125,-0.8637877441406246,3.3889911270875577,6.981197281413606,-8.081400358177405,-1.9465638491570816,10.855194979824722
628,1791618083.8258104,2.7497219238281247,-1.9455701660156253,-0.7152965332031247,3.4435248016652236,7.006415843227102,-8.095765280408486,-1.9544119817675958,10.88351986437145
629,1791618083.8458104,2.802412353515625,-1.935990087890625,-0.7105064941406247,3.479424104325849,7.06004690969387,-8.127392903111742,-1.970649147040846,10.944507107648198
630,1791618083.8858805,2.816782470703125,-1.8785096191406252,-0.8350475097656247,3.4871716648352757,7.168266601171654,-8.192717623282192,-2.0029454819863686,11.068715314982187
631,1791618083.9058805,2.7066115722656248,-1.9455701660156253,-0.9404283691406247,3.4634368756333296,7.2224645964253735,-8.226168177380922,-2.0193106246505,11.1315521437039
632,1791618083.916317,2.577280517578125,-2.027000830078125,-0.9883287597656247,3.4246023081235335,7.250640202548433,-8.244114766886506,-2.028079150897986,11.164690621719656
633,1791618083.936317,2.677871337890625,-2.0653211425781253,-1.0649693847656247,3.5455191601180798,7.304417930374576,-8.279486292517342,-2.045442073746464,11.22890234380068
634,1791618083.9458227,2.735351806640625,-2.290452978515625,-0.9979088378906247,3.704611504817131,7.330003103211311,-8.296881568734456,-2.0539272928333707,11.25992036308156
635,1791618083.9658227,2.692241455078125,-2.3814637207031253,-0.6147057128906247,3.6465595592183497,7.383900746621195,-8.33499897107639,-2.071521091336266,11.326314392407113
636,1791618084.0359623,2.845522705078125,-2.376673681640625,-0.4566344238281247,3.735517668428725,7.573697531847869,-8.473654632997592,-2.129602867085334,11.562825152822215
637,1791618084.0559623,2.898213134765625,-2.395833837890625,-0.4662145019531247,3.7890652033372443,7.6283148173254345,-8.514419830044213,-2.1450646159438382,11.631329855225118
638,1791618084.0369616,2.864682861328125,-2.170702001953125,-0.4374742675781247,3.620737329890614,7.6283148173254345,-8.514419830044213,-2.1450646159438382,11.631329855225118
639,1791618084.0569615,2.783252197265625,-1.8401893066406252,-0.5955455566406247,3.3893161534287155,7.683595385979144,-8.555711343778853,-2.158937459835015,11.70037801137147
640,1791618084.0660806,2.658711181640625,-1.744388525390625,-0.7679869628906247,3.271305618566589,7.708741793444144,-8.57416584569784,-2.1652465670314864,11.731552015124231
641,1791618084.0860806,2.5964406738281247,-1.8018689941406252,-0.7919371582031247,3.2581283748951995,7.7635032212531305,-8.613888677954678,-2.1793480829974485,11.799178720973261
642,1791618084.1264923,2.5964406738281247,-1.615057470703125,-0.7392467285156247,3.1458544994967705,7.873294929029951,-8.692468904605018,-2.208208259447193,11.934151516304153
643,1791618084.1464922,2.615600830078125,-1.466566259765625,-0.8829479003906247,3.1259848514336284,7.927299032825975,-8.730147659185905,-2.2227821519491386,11.999929524878738
644,1791618084.1564822,2.4479494628906253,-1.4330359863281252,-0.8254674316406246,2.9542249730982397,7.9540216502819705,-8.748317616605597,-2.2302498811662237,12.032187501306987
645,1791618084.1764822,2.376098876953125,-1.6437977050781252,-0.6434459472656247,2.9600573398720793,8.006731701350095,-8.783852752263995,-2.24516111393696,12.095642609567918
646,1791618084.1863065,2.577280517578125,-1.696488134765625,-0.5380650878906247,3.132085710272799,8.032389593545247,-8.801151004779653,-2.2522575944562995,12.126508395379684
647,1791618084.2063065,2.653921142578125,-1.538416845703125,-0.4997447753906247,3.1080168375825377,8.084634953153948,-8.83593635352021,-2.266094098576663,12.188940726446353
648,1791618084.2456374,2.591650634765625,-1.428245947265625,-0.4853746582031247,2.998687722552575,8.187440094024646,-8.902833534285199,-2.2921286742407916,12.310502592977764
649,1791618084.2656374,2.668291259765625,-1.4330359863281252,-0.7871471191406247,3.1293722968391653,8.239765369297164,-8.936040359011312,-2.305290355393404,12.37177894490593
650,1791618084.2769072,2.443159423828125,-1.8306092285156252,-0.8637877441406246,3.1727413044076407,8.269147844552176,-8.954703890900884,-2.312989799029848,12.406266547966533
651,1791618084.2969072,2.2084475097656253,-2.0126307128906253,-0.7679869628906247,3.0850813222718436,8.320447353089174,-8.988621819860358,-2.3270517133321396,12.467571377478471
652,1791618084.3065264,2.4671096191406248,-1.9838904785156253,-0.8446275878906246,3.276560249076322,8.344792658000019,-9.005371338049935,-2.333963884876858,12.497186277602323
653,1791618084.3265264,2.601230712890625,-2.017420751953125,-0.9356383300781247,3.4222517144137665,8.39542038581991,-9.04097456250447,-2.3488500958819376,12.559434751111134
654,1791618084.367069,2.687451416015625,-2.036580908203125,-0.7871471191406247,3.462608481516967,8.49873638280096,-9.114648117931344,-2.3797384295570314,12.687335630902364
655,1791618084.387069,2.6730812988281247,-1.979100439453125,-0.5811754394531247,3.3763837268609946,8.550098770838456,-9.15156381106405,-2.3947427482416503,12.7510823857948
656,1791618084.395842,2.610810791015625,-1.7587586425781252,-0.5284850097656246,3.191999585663171,8.572726280928723,-9.167787514070277,-2.4010673439114427,12.779087924451684
657,1791618084.415842,2.558120361328125,-1.6294275878906253,-0.5859654785156246,3.089072609899716,8.624325951609798,-9.204307142642117,-2.4149944540227466,12.842525698189728
658,1791618084.4263005,2.572490478515625,-1.5719471191406251,-0.6578160644531247,3.085684199992063,8.651285625711346,-9.223050694323584,-2.4221604545951734,12.875413327559905
659,1791618084.4463005,2.567700439453125,-1.6294275878906253,-0.6386559082031247,3.107410687377771,8.702818189384585,-9.258319932306485,-2.4357533177098847,12.937867932204341
660,1791618084.486254,2.505429931640625,-1.5096766113281253,-0.6290758300781247,2.991995824385522,8.805523411894065,-9.327614306499097,-2.4626330980928466,13.061630563755948
