imu_index,t_imu,ax,ay,az,mag,vx,vy,vz,velocity
0,1790597300.8689451,-0.006466552734375109,0.12061318359375003,-0.011208691406249608,0.12130536312928064,0.0,0.0,0.0,0.0
1,1790597300.888945,-0.04478686523437511,0.09666298828125004,-0.001628613281249608,0.1065469332369685,-8.512490050794487e-05,0.0004796956094207127,-3.354700658126799e-05,0.0004883436577191928
2,1790597300.914491,-0.07352709960937512,0.10145302734375004,0.0031614257812503923,0.12533533319518889,-0.000404227104804389,0.0013800786097572875,-6.703218635589228e-05,0.0014396214208519534
3,1790597300.934491,-0.07831713867187512,0.09187294921875004,-0.001628613281249608,0.12073469008168532,-0.0008443461469420492,0.0022692450548782014,-8.70163479798621e-05,0.0024228011432556344
4,1790597300.9600675,-0.06394702148437512,0.09187294921875004,-0.011208691406249608,0.11249664491848052,-0.0015956556866184514,0.0035882440050651414,-0.00013336434240675455,0.003929299957746839
5,1790597300.9800675,-0.06394702148437512,0.12540322265625004,-0.001628613281249608,0.14077585798181455,-0.0022868692072774226,0.0047908565057462335,-0.00018342638571464652,0.00531184733109123
6,1790597300.9900038,-0.054366943359375114,0.14935341796875004,0.0031614257812503923,0.15897233281977088,-0.0026669354236727267,0.005503468706151764,-0.0002034250232718421,0.006118994532905332
7,1790597301.0100038,-0.03520678710937511,0.17330361328125005,-0.006418652343749608,0.1769600501040047,-0.003451547821229429,0.007206655705914994,-0.00024252635067234187,0.007994240918098553
8,1790597301.0341077,-0.04957690429687511,0.15414345703125004,0.0031614257812503923,0.16195082401203365,-0.004408588409981099,0.009543383369667223,-0.00028847075600012045,0.010516417321793951
9,1790597301.0541077,-0.08789721679687511,0.12061318359375003,0.027111621093750392,0.15168553251904945,-0.005289780955649666,0.011603565161385294,-0.0002754648979470328,0.012755406223373263
10,1790597301.0796797,-0.06873706054687512,0.14935341796875004,0.0654319335937504,0.1769535670321169,-0.006547882647648059,0.01436036904908083,-8.384024319988702e-05,0.015782965360778976
11,1790597301.0996797,-0.02562670898437511,0.15414345703125004,0.046271777343750396,0.1629662877329673,-0.007525798294358239,0.016648302360671788,0.00021110481555591888,0.01827151270975849
12,1790597301.1098373,-0.03999682617187511,0.15414345703125004,0.017531542968750393,0.16021019458272048,-0.007997955556819316,0.017870856886186684,0.0003870385171284367,0.019582763281752756
13,1790597301.1298373,-0.04957690429687511,0.12540322265625004,-0.001628613281249608,0.13485729521777604,-0.008922530006664578,0.020336273764020585,0.0007053398496791981,0.02221875506477731
14,1790597301.1549852,-0.04957690429687511,0.13019326171875004,0.022321582031250394,0.14109007002977317,-0.0100977168962632,0.023453359161180864,0.0010845651801989465,0.025557782065166092
15,1790597301.1749852,-0.04957690429687511,0.13498330078125004,0.036691699218750394,0.1484070137191035,-0.011040873492718838,0.02595827252661722,0.001429441240417648,0.02824493055945011
16,1790597301.199885,-0.059156982421875115,0.14935341796875004,0.036691699218750394,0.16477946722747175,-0.01224201699450269,0.029140062812706383,0.001931444553800935,0.03166608152087298
17,1790597301.2198849,-0.06394702148437512,0.18767373046875005,0.03190166015625039,0.2008192385841184,-0.013246739038552667,0.031817931930440545,0.0023770711920262496,0.03454717578815415
18,1790597301.2299347,-0.06394702148437512,0.21162392578125006,0.017531542968750393,0.22176848856105844,-0.013772272070257968,0.033262662592592494,0.0026046658506429583,0.03609521415533319
19,1790597301.2499347,-0.06394702148437512,0.21641396484375006,0.0031614257812503923,0.22568611022631713,-0.014853089377857651,0.03634858327997867,0.003020697794161046,0.0393822089996463
20,1790597301.274552,-0.0831071777343751,0.18767373046875005,0.012741503906250392,0.20564673112117063,-0.016255393030072205,0.04032327302493042,0.003485329553621046,0.043615956622577313
21,1790597301.294552,-0.09747729492187511,0.16372353515625004,0.022321582031250394,0.19184752282404874,-0.017494653910664786,0.04359515743750578,0.0038587834275756075,0.047132694353238344
22,1790597301.3197298,-0.11663745117187511,0.14456337890625004,-0.006418652343749608,0.1858603363673204,-0.019225049014845695,0.047678397502413684,0.004288429199895505,0.0515870402622975
23,1790597301.3397298,-0.08789721679687511,0.16851357421875005,-0.015998730468749608,0.1907320235126413,-0.020700212751357742,0.05090501441289962,0.004544899797691889,0.05514050611392728
24,1790597301.3503287,-0.09268725585937511,0.18288369140625005,0.012741503906250392,0.20542569922702164,-0.021508255284492815,0.0526377873709713,0.004657838673763781,0.05705293301667591
25,1790597301.3703287,-0.0831071777343751,0.18288369140625005,0.022321582031250394,0.202117541538896,-0.02306799746609522,0.05596569972617743,0.004891580299513161,0.060730713899665445
26,1790597301.3944454,-0.06873706054687512,0.18288369140625005,0.007951464843750393,0.19553632365410442,-0.024941324828725908,0.06003827107157424,0.005185913401035556,0.06521930216798465
27,1790597301.4144454,-0.06873706054687512,0.18767373046875005,-0.011208691406249608,0.2001795378247296,-0.026468050759091873,0.06346487631927318,0.00538850398841081,0.06897379366425792
28,1790597301.439537,-0.08789721679687511,0.17330361328125005,-0.001628613281249608,0.19432631185249669,-0.028390911190535523,0.06779830839527978,0.0055803876079639735,0.07371428074223785
29,1790597301.459537,-0.06873706054687512,0.16851357421875005,0.022321582031250394,0.18335719569458078,-0.029928630380329647,0.07124700165337522,0.0057414311829988305,0.07749078779485696
30,1790597301.484983,-0.06394702148437512,0.16851357421875005,0.03190166015625039,0.18304032936330233,-0.03184482234845325,0.07561980060354966,0.006019074399800036,0.08227196491123501
31,1790597301.504983,-0.04478686523437511,0.15893349609375004,0.046271777343750396,0.17148410088592397,-0.03328809718086721,0.07903236082403035,0.006321822995041861,0.08598940002885953
32,1790597301.5141425,-0.04478686523437511,0.14935341796875004,0.046271777343750396,0.16264496344805712,-0.03391147215497388,0.08057259174244223,0.0065032519407804195,0.08765969866259582
33,1790597301.5341425,-0.059156982421875115,0.16372353515625004,0.0702219726562504,0.1877127325917373,-0.03522436024161632,0.08390084692413978,0.007014721178896632,0.09126507536969856
34,1790597301.5593963,-0.08789721679687511,0.15893349609375004,0.027111621093750392,0.18363228719250332,-0.03691199062307177,0.08808414087973013,0.007748027172403561,0.09581932399752248
35,1790597301.5793962,-0.09747729492187511,0.11582314453125003,-0.011208691406249608,0.1517974261884357,-0.03832610769326429,0.09131232713891543,0.008265518282404405,0.09937379136833195
36,1790597301.6044846,-0.10705737304687511,0.12061318359375003,-0.006418652343749608,0.16140018673541662,-0.04021877315205162,0.09519927839946543,0.0087841273328532,0.1037189144497516
37,1790597301.6244845,-0.1262175292968751,0.13977333984375004,0.027111621093750392,0.19026952260205798,-0.04185116620803826,0.09822367841526539,0.009166579241504732,0.1071608010859806
38,1790597301.6341257,-0.10226733398437511,0.15893349609375004,0.036691699218750394,0.19252206256014667,-0.04268525410081145,0.09967891800150433,0.009369424365233438,0.10883797004969036
39,1790597301.6541257,-0.09268725585937511,0.17330361328125005,0.017531542968750393,0.1973130121759421,-0.04444840761250355,0.10274325305432558,0.009808429810766215,0.11237456243663498
40,1790597301.6791997,-0.07352709960937512,0.19725380859375005,0.022321582031250394,0.21169211701450905,-0.04663987998260033,0.10670560206580917,0.01035120012012365,0.11691240849860647
41,1790597301.6991997,-0.06873706054687512,0.19246376953125005,0.022321582031250394,0.20558535721004245,-0.04833907753263858,0.10997662021348154,0.010786158922668475,0.12061452911897413
42,1790597301.7243006,-0.06394702148437512,0.15414345703125004,0.017531542968750393,0.16779982688052186,-0.05040155379748924,0.11411862642778313,0.011325195499864838,0.1252662667124525
43,1790597301.7443006,-0.06394702148437512,0.13498330078125004,0.007951464843750393,0.14957586315875282,-0.05199023695214577,0.11735755055501143,0.011728490395884692,0.12889273407596988
44,1790597301.754464,-0.06873706054687512,0.10624306640625004,-0.011208691406249608,0.12703545731435836,-0.05277759247239207,0.11894044890159992,0.011900207168900095,0.1306672092866406
45,1790597301.774464,-0.09268725585937511,0.11582314453125003,0.007951464843750393,0.14855690492538373,-0.0543367243385761,0.1219212339071089,0.012182548936183578,0.13403611971353424
46,1790597301.7990968,-0.10226733398437511,0.13977333984375004,0.046271777343750396,0.179265924006482,-0.056329153073814864,0.1255140261728236,0.0125783084919592,0.13814831919587153
47,1790597301.8190968,-0.10226733398437511,0.13977333984375004,0.012741503906250392,0.17365926423068007,-0.05801099442149549,0.12841284816572981,0.012939954824134481,0.14150115716366493
48,1790597301.8442113,-0.11663745117187511,0.18767373046875005,-0.02078876953124961,0.22194120181379573,-0.06021846633220424,0.1321237364465183,0.01331080708852769,0.14580851485883753
49,1790597301.8642113,-0.1262175292968751,0.22120400390625006,0.007951464843750393,0.2548044384211649,-0.06207698216410006,0.1352489459695454,0.01354258037097007,0.14942968441236565
50,1790597301.8742645,-0.11184741210937511,0.23557412109375003,0.0845920898437504,0.27415475882937057,-0.06305054875330135,0.13692862647775317,0.013711384356160036,0.15136982033463217
51,1790597301.8942645,-0.06873706054687512,0.24515419921875004,0.0941721679687504,0.27146595018002884,-0.06496773540332383,0.14049007370488423,0.014264979603418724,0.15544052591305157
52,1790597301.9197965,-0.059156982421875115,0.23078408203125003,0.0510618164062504,0.2436558026868525,-0.06729300075330463,0.14526601495588579,0.015143800720161011,0.16081012950619697
53,1790597301.9397964,-0.054366943359375114,0.22599404296875003,0.06064189453125039,0.24022179617999287,-0.06901151858349482,0.1491311478414455,0.0158965018464013,0.16509205833310023
54,1790597301.9637501,-0.054366943359375114,0.23557412109375003,0.11333232421875039,0.26701151056117084,-0.07095636831251792,0.15389519669313315,0.016975324995745153,0.17031353272136365
55,1790597301.98375,0.012693603515624891,0.23557412109375003,0.1660227539062504,0.28847850684915866,-0.07239914296833486,0.15798297574019124,0.018160000694385572,0.1747284812258589
56,1790597301.9944444,0.0653840332031249,0.27868447265625007,0.21392314453125041,0.3573558714555251,-0.07299227001010627,0.1602533700922726,0.0190031869200407,0.17711616306897898
57,1790597302.0144444,0.07496411132812489,0.35053505859375006,0.1516526367187504,0.38922097517257287,-0.07372460379102767,0.16480629793226767,0.020891908819741446,0.18174956642703657
58,1790597302.0394552,0.02706372070312489,0.33616494140625003,0.1420725585937504,0.36595617868037,-0.0743116610573467,0.17093400282843096,0.02345051981079605,0.1878578802484702
59,1790597302.0594552,0.06059399414062489,0.35053505859375006,0.1803928710937504,0.39885843023644907,-0.0745792004054115,0.17612908387551277,0.025673318333443357,0.19298349824321318
60,1790597302.0840907,0.06059399414062489,0.37448525390625004,0.0989622070312504,0.392051471033637,-0.0746354023312786,0.18290799190217558,0.028516770116501267,0.19959705148302048
61,1790597302.1040907,-0.0831071777343751,0.35532509765625003,0.0989622070312504,0.3780955519916793,-0.07470795471573877,0.18868055245889395,0.03077580577200638,0.20525296488703534
62,1790597302.1288495,-0.19327807617187512,0.32179482421875005,0.21871318359375042,0.43444652179571075,-0.07529752087978338,0.19601208474746956,0.03374277254727297,0.21267117509636232
63,1790597302.1488495,-0.19806811523437512,0.35532509765625003,0.3145139648437504,0.5142041786864991,-0.07628934956750404,0.20206176574094026,0.03657980150501844,0.21905958986067237
64,1790597302.158421,-0.1405876464843751,0.38406533203125004,0.1277024414062504,0.4284611757830653,-0.07693592650750382,0.2050535072593338,0.03805133268100473,0.22229255845781745
65,1790597302.178421,-0.1645378417968751,0.48944619140625006,0.007951464843750393,0.5164237615160814,-0.07854199621472646,0.2116773897115054,0.04086839214855882,0.2294480070980766
66,1790597302.2040522,-0.17411791992187511,0.7002079101562501,0.3911545898437504,0.8207375223779746,-0.08094254189229108,0.2211798796847646,0.04470430713540865,0.2397304931413799
67,1790597302.2240522,-0.01604663085937511,1.03072060546875,0.4821653320312504,1.1380359696919118,-0.08281995949430683,0.2300788325867334,0.04855847096867445,0.24930571593513118
68,1790597302.2490609,0.0653840332031249,1.24627236328125,0.1995530273437504,1.2638398972965663,-0.08472287031178502,0.24380810516943888,0.05393361113564828,0.2636838851926887
69,1790597302.2690609,0.0653840332031249,1.40434365234375,0.0031614257812503923,1.4058684719023544,-0.08582024748870003,0.25711668213929356,0.05789150597416305,0.2771741863473163
70,1790597302.279467,-0.01604663085937511,1.44266396484375,0.0654319335937504,1.4442361814310163,-0.08626707409951766,0.2652246187984941,0.059695484443351196,0.285218613266078
71,1790597302.299467,-0.02562670898437511,1.32770302734375,0.1324924804687504,1.3345434853956204,-0.08705953393199296,0.2826255434345922,0.0629394062519368,0.3023539798142249
72,1790597302.3246121,0.017483642578124892,1.24148232421875,0.1372825195312504,1.2491719374346502,-0.08792176549771216,0.3060664894308028,0.06691483759171464,0.3253990293326886
73,1790597302.3446121,0.041433837890624894,1.23669228515625,0.1037522460937504,1.2417282712642217,-0.08841632399002111,0.32563162404866935,0.06996408569902345,0.3445988598590869
74,1790597302.3845236,0.03664379882812489,1.16005166015625,0.027111621093750392,1.1609468817401418,-0.08902149952879997,0.3659931272909094,0.0755280676156555,0.3841617961227937
75,1790597302.4045236,0.0989143066406249,1.03551064453125,-0.05431904296874961,1.0416414418717994,-0.08907593218332839,0.3864781229845613,0.07785718955083629,0.40418016181494293
76,1790597302.3992562,0.1372346191406249,0.8295389648437501,-0.04473896484374961,0.8420034500285632,-0.08907593218332839,0.3864781229845613,0.07785718955083629,0.40418016181494293
77,1790597302.4192562,0.2713557128906249,0.58524697265625,-0.03515888671874961,0.6460526984983397,-0.08820128526944206,0.4057786452397818,0.07929383464644259,0.4227567715232384
78,1790597302.4448373,0.3479963378906249,0.46549599609375003,-0.06389912109374961,0.5846974185347086,-0.0860620912811465,0.42877808667268774,0.0806657022046149,0.44470696720260516
79,1790597302.4648373,0.40068676757812494,0.4367557617187501,0.0031614257812503923,0.5927187155132714,-0.08351746218700586,0.44541578635564316,0.08148627299059481,0.46044587294368444
80,1790597302.4884286,0.5922883300781249,0.32179482421875005,0.012741503906250392,0.6741807775088986,-0.07920922329786625,0.4634393875472635,0.08233713995445156,0.4773149605884074
81,1790597302.5084286,0.654558837890625,0.15893349609375004,-0.1453297851562496,0.6890775536141553,-0.07423441776690691,0.47714836843570246,0.08275139633113074,0.4899276557582725
82,1790597302.5196633,0.6593488769531249,0.15414345703125004,-0.22197041015624963,0.7125812303659321,-0.07075195086259561,0.4839579028631985,0.08263970481751105,0.4960346874029412
83,1790597302.5396633,0.5300178222656249,0.24036416015625003,-0.2363405273437496,0.6281326820600378,-0.06369837478025235,0.49485357515108247,0.08178323199662045,0.5055947397128124
84,1790597302.5794623,0.534807861328125,0.20204384765625005,-0.26987080078124964,0.632195708644418,-0.048589123926675304,0.5146037016477856,0.07882354224982843,0.5228680746865078
85,1790597302.5994623,0.6210285644531249,-0.013507910156249968,-0.19802021484374963,0.6519746521071684,-0.040401510770124216,0.5233226981843506,0.07685748595478152,0.5304771452708843
86,1790597302.6093295,0.6306086425781249,-0.16199912109374998,-0.15969990234374962,0.6703842436528292,-0.036041725031658915,0.5268491798554344,0.07576828142804863,0.5334884223000173
87,1790597302.6293294,0.7311994628906249,-0.20031943359374998,-0.26029072265624964,0.8015808070979319,-0.026487628398874086,0.5323814062879336,0.07326172770372891,0.5380509613089173
88,1790597302.638873,0.6689289550781249,-0.18594931640624998,-0.3177711914062496,0.7635585277512202,-0.021610255243795597,0.5343488282953534,0.07183129305894626,0.5395881837983846
89,1790597302.658873,0.5731281738281249,-0.09493857421874997,-0.26029072265624964,0.6365850271653921,-0.011059174479580805,0.5374320382721375,0.06841618771141159,0.5418821604763135
90,1790597302.6994607,0.6114484863281249,-0.15720908203124997,-0.38004169921874964,0.7368959492704096,0.010747140787762057,0.5419829493283814,0.06057598856605313,0.5454635357093611
91,1790597302.7194607,0.692879150390625,-0.35360068359374996,-0.6147536132812497,0.9914822063589209,0.021837120030461007,0.543122866663766,0.05579996034748727,0.5464182863695841
92,1790597302.729591,0.5874982910156249,-0.62663291015625,-0.45189228515624963,0.9705821363598797,0.0275844994105223,0.5428688933827178,0.0529333273566651,0.5461405287610082
93,1790597302.7495909,0.4485871582031249,-1.0050459960937501,-0.3129811523437496,1.1442487030760644,0.03878361578600583,0.5399951709921624,0.046975365683125506,0.5434203147926608
94,1790597302.7595026,0.4629572753906249,-1.20622763671875,-0.5812233398437496,1.4167339627468296,0.04417888002810614,0.5371407893504027,0.04380083260957815,0.5407314619677718
95,1790597302.7795026,0.3671564941406249,-1.22538779296875,-0.9740065429687497,1.6078146286473431,0.05467762912065607,0.5285977340640774,0.03602325306075649,0.5326376651580438
96,1790597302.8044767,0.1324445800781249,-1.3211885742187501,-0.9644264648437496,1.641096956772895,0.06675678944435309,0.5147602446892336,0.02413732791979363,0.519631782177096
97,1790597302.8244767,0.07496411132812489,-1.57027060546875,-0.5237428710937496,1.6570081434344053,0.07529023916627588,0.5010038208399046,0.01381427509275417,0.5068178004038892
98,1790597302.8645017,0.1851350097656249,-1.8433028320312501,-0.4231520507812496,1.900288915006274,0.09058696777280296,0.46735614454407515,-0.006588357758148124,0.47609995907511127
99,1790597302.8845017,0.2042951660156249,-2.11154501953125,-0.4854225585937496,2.176233890177313,0.09766815596661069,0.44713256021091646,-0.01661691391404841,0.45797676460571
100,1790597302.8942435,0.1851350097656249,-2.12591513671875,-0.49021259765624964,2.189542995986082,0.10088448407702605,0.4356634355325555,-0.02148183065284366,0.44770724501141845
101,1790597302.9142435,0.1516047363281249,-2.11154501953125,-0.5189528320312496,2.1796601587076827,0.10700227468508208,0.40929295513246505,-0.03148514281430019,0.4242187220372113
102,1790597302.9247987,0.2186652832031249,-2.17860556640625,-0.30819111328124965,2.211135111737891,0.11003983363338234,0.394066899885574,-0.036627425952680405,0.41077859596552563
103,1790597302.9447987,0.4054768066406249,-2.1307051757812503,-0.15011982421874961,2.1741324588092503,0.11586824341430418,0.3630803310672187,-0.04559689226448406,0.3838383165135765
104,1790597302.9699001,0.6114484863281249,-2.05885458984375,-0.25071064453124964,2.1623152639786145,0.1240005284462748,0.3221362094451312,-0.055920228273393754,0.3496783385066643
105,1790597302.9899,0.577918212890625,-2.0971749023437503,-0.41836201171874965,2.215210781090723,0.1312921813724366,0.28817269157389563,-0.06391533407120334,0.32305774559343087
106,1790597303.0144973,0.5300178222656249,-2.1738155273437503,-0.38962177734374964,2.271166653555059,0.1409586407997938,0.24478881749922196,-0.07376382132517274,0.2919452087726132
107,1790597303.0344973,0.673718994140625,-2.07801474609375,-0.21239033203124963,2.194801180332577,0.14944508063924206,0.20842692890478412,-0.08147348091556655,0.269097649399709
108,1790597303.044643,0.692879150390625,-1.8768331054687502,-0.2746608398437496,2.019411448856617,0.15414423675303932,0.18973866282193017,-0.08516842714951957,0.258872298395858
109,1790597303.064643,0.4773273925781249,-1.85288291015625,-0.2842409179687496,1.934375717874437,0.16377340865008308,0.15283020342250764,-0.09219799769270064,0.24223804663507217
110,1790597303.0898294,0.3527863769531249,-1.86725302734375,-0.059109082031249614,1.9012064536674307,0.1756488296237487,0.10629502017638899,-0.10037123811979948,0.2285290530855828
111,1790597303.1098294,0.5635480957031249,-1.4792598632812501,0.1564426757812504,1.5906824039043994,0.18503880076430837,0.06986572491472388,-0.10574187341836842,0.22428089776032986
112,1790597303.1346433,0.673718994140625,-1.14874716796875,0.1468625976562504,1.3398081808872568,0.19724398885996994,0.026556874344584543,-0.11084123516187219,0.2278074584568193
113,1790597303.1546433,0.4773273925781249,-1.03857626953125,0.0510618164062504,1.144154454797771,0.2073323249776321,-0.0063949792785858856,-0.11403791897229426,0.2367112918813455
114,1790597303.1646912,0.2569855957031249,-1.14395712890625,0.041481738281250395,1.173200853982452,0.21219378812212167,-0.022111372728826163,-0.11533328003798526,0.2425219206708731
115,1790597303.1846912,0.3623664550781249,-1.14874716796875,-0.03994892578124961,1.2052076254128108,0.22134788632449615,-0.05214086756632909,-0.11752259195475827,0.2559787422241467
116,1790597303.2097673,0.4964875488281249,-1.15832724609375,-0.03994892578124961,1.2608797769238613,0.23271900785573169,-0.08848336515951435,-0.12000608840266816,0.27638542613715555
117,1790597303.2297673,0.4246369628906249,-1.24933798828125,-0.02078876953124961,1.3196947117247375,0.24180956706751622,-0.11673268665965769,-0.12178084238221105,0.2948371761353754
118,1790597303.2539544,0.3767365722656249,-1.14395712890625,-0.04952900390624961,1.205413406216236,0.25260794451517127,-0.1501131524068167,-0.12373276334010636,0.3188330736944817
119,1790597303.2739544,0.4581672363281249,-1.0050459960937501,-0.03036884765624961,1.1049692021122572,0.261449978347143,-0.17679823716832,-0.12522452482900603,0.3395510115758712
120,1790597303.2843118,0.553968017578125,-0.9140352539062501,0.11812236328125039,1.0753110724762618,0.26612837516331156,-0.19003546872795654,-0.12581301468816453,0.3503808015668706
121,1790597303.3043118,0.5012775878906249,-1.00025595703125,0.2618235351562504,1.1490616881872187,0.27539008272361337,-0.21463370280640579,-0.12620900843403593,0.37126276119860135
122,1790597303.3293955,0.4485871582031249,-1.04815634765625,0.0989622070312504,1.144401890096893,0.287050599129873,-0.24471058184152353,-0.125952421919987,0.39767490229274777
123,1790597303.3493955,0.4437971191406249,-0.97151572265625,-0.1309596679687496,1.076080441677247,0.2962918343779367,-0.26812403437724863,-0.12582652216441548,0.41894112069569733
124,1790597303.3746026,0.4869074707031249,-0.92361533203125,-0.23155048828124963,1.0694670613034307,0.3079514960807016,-0.2967896726551639,-0.12637698138787057,0.44597015052334155
125,1790597303.3946025,0.49169750976562493,-1.0050459960937501,-0.21718037109374963,1.1397592767607614,0.31728284183859984,-0.3190151711358115,-0.12742131447004804,0.46762727948791005
126,1790597303.4191742,0.635398681640625,-0.9954659179687501,-0.29861103515624965,1.218134815521294,0.3291046294561712,-0.3459118717378709,-0.12946244649626396,0.4946972864201693
127,1790597303.4391742,0.7503596191406249,-0.9954659179687501,-0.26029072265624964,1.2734768204310367,0.3393622085086489,-0.36750683955393193,-0.1317129624011406,0.5172777688508094
128,1790597303.4497528,0.7503596191406249,-0.95714560546875,-0.15011982421874961,1.2254400147410205,0.3451646038883921,-0.3787649678435805,-0.13305039570338703,0.5294373545942966
129,1790597303.4697528,0.6880891113281249,-0.95235556640625,-0.006418652343749608,1.1749421045699264,0.35664679099582486,-0.39972115843506834,-0.13543447388380725,0.5525544631477302
130,1790597303.494397,0.7024592285156249,-0.93798544921875,-0.03515888671874961,1.17239149518758,0.37124313207675097,-0.42516412285727173,-0.13800835024328562,0.58106135581023
131,1790597303.514397,0.712039306640625,-0.89008505859375,-0.17407001953124962,1.1530619052907398,0.38343370548363387,-0.44545725620265514,-0.140097701100459,0.6042192809387512
132,1790597303.539566,0.635398681640625,-0.93798544921875,-0.1405397460937496,1.1416214818445036,0.3990173690162614,-0.47061542359140807,-0.1429265413459017,0.6333417197057853
133,1790597303.559566,0.5683381347656249,-0.94277548828125,-0.15011982421874961,1.111021970240142,0.41134864360204626,-0.49042913882389394,-0.14527321334851326,0.6563785137536056
134,1790597303.5696633,0.577918212890625,-0.90924521484375,-0.2746608398437496,1.111825030501933,0.4175084691141728,-0.5003344071253312,-0.14660193474667316,0.6679370988401413
135,1790597303.5896633,0.6306086425781249,-0.94756552734375,-0.38004169921874964,1.1999914090732229,0.4296920790062827,-0.5197963539824424,-0.1498210529707684,0.6908472192080184
136,1790597303.614967,0.678509033203125,-1.02899619140625,-0.40878193359374965,1.2985801243278952,0.44527893461155404,-0.5444771042229717,-0.15477995865217653,0.7201982242634335
137,1790597303.634967,0.6449787597656249,-1.0433663085937501,-0.33214130859374963,1.2707984511053358,0.45773594599961154,-0.5641670154007324,-0.15922290454514526,0.743746294685306
138,1790597303.6590106,0.616238525390625,-0.96672568359375,-0.22197041015624963,1.1677239958484835,0.47273948294782003,-0.5879119285069145,-0.16476215029462263,0.7721849652694615
139,1790597303.6790106,0.678509033203125,-0.8948750976562501,-0.30819111328124965,1.16454184589866,0.48528984366644723,-0.6074931526875788,-0.16947391199668918,0.7957861331887859
140,1790597303.689005,0.7695197753906249,-0.97151572265625,-0.3225612304687496,1.280644069008656,0.49170609402918647,-0.6172094018738629,-0.1719480579971377,0.8076437725358363
141,1790597303.7090049,0.7886799316406249,-0.99067587890625,-0.23155048828124963,1.2872724498887624,0.5049572619501674,-0.6366797669662878,-0.17698768108367016,0.8316655585725741
142,1790597303.7341495,0.812630126953125,-0.96193564453125,-0.12137958984374961,1.2650774333147516,0.5221378832936491,-0.6611690051522492,-0.18303882264736074,0.8621343475007356
143,1790597303.7541494,0.817420166015625,-1.06731650390625,-0.09263935546874962,1.3475616117645,0.5361985936018238,-0.6807697965694486,-0.18745096385966206,0.8866195979977538
144,1790597303.7799191,0.8796906738281249,-1.14395712890625,-0.21718037109374963,1.4593357762982548,0.5548781308924642,-0.7065106438009588,-0.19288199889954888,0.9188310483686571
145,1790597303.7999191,0.870110595703125,-1.17748740234375,-0.2746608398437496,1.4896333805258102,0.5698255077485312,-0.7269737502689789,-0.19720255181290494,0.9445002854962705
146,1790597303.8246481,0.798260009765625,-1.23017783203125,-0.26029072265624964,1.4893984698236515,0.5886292497014994,-0.7529455882097662,-0.20273554594262172,0.9769918904460537
147,1790597303.8446481,0.7695197753906249,-1.21580771484375,-0.12137958984374961,1.4439813326430007,0.6039075674083582,-0.774468927700477,-0.20711171293700903,1.0036940428149952
148,1790597303.8694923,0.7790998535156249,-1.29244833984375,-0.04952900390624961,1.509924638894564,0.6229251729020935,-0.8018686184121248,-0.21205086849143837,1.0373016066011111
149,1790597303.8894923,0.7311994628906249,-1.42177939453125,-0.08305927734374961,1.6009397692599345,0.6382036924032428,-0.8246885923328428,-0.21562943962630668,1.0648527046284917
150,1790597303.899057,0.6641389160156249,-1.46488974609375,-0.04952900390624961,1.6091723307977197,0.6454153155149408,-0.8360356008077114,-0.217179231796565,1.078277920595107
151,1790597303.919057,0.5491779785156249,-1.6038008789062501,-0.001628613281249608,1.6952216267049534,0.6600530741971193,-0.8608065631574287,-0.2200105356914821,1.1068254766435517
152,1790597303.929104,0.5012775878906249,-1.74750205078125,0.007951464843750393,1.8179950119291524,0.6670950493663123,-0.8739092601370826,-0.2212147557552587,1.1214585003495423
153,1790597303.949104,0.5108576660156249,-1.80498251953125,-0.17407001953124962,1.8839420963606925,0.680528361017057,-0.9014079093687379,-0.22350148878567905,1.1513505047163075
154,1790597303.9743173,0.5491779785156249,-1.89120322265625,-0.28903095703124965,1.9904233156779223,0.6969275314566444,-0.9378639279328473,-0.2268275898558285,1.190272022245203
155,1790597303.9943173,0.5922883300781249,-1.94389365234375,-0.29861103515624965,2.0539465786349327,0.7096968411121607,-0.9681969741560366,-0.22995166979997644,1.2222736017329678
156,1790597304.0200348,0.5491779785156249,-1.8816231445312501,-0.3177711914062496,1.98571917455866,0.7258553025866561,-1.0087295354011754,-0.23455515809329325,1.2646807178383035
157,1790597304.0400348,0.5395979003906249,-1.80498251953125,-0.29861103515624965,1.907431870404927,0.738169659229128,-1.0410525937842285,-0.23852276490042865,1.2982981391833934
158,1790597304.049845,0.6258186035156249,-1.75229208984375,-0.2746608398437496,1.8808548773307572,0.7441614102791733,-1.0571465058665384,-0.24059879001447218,1.3149991320038759
159,1790597304.069845,0.6401887207031249,-1.6373311523437502,-0.2459206054687496,1.775154034089699,0.7564434467540594,-1.0901198663642198,-0.24497717829946233,1.3492893792906964
160,1790597304.0948424,0.5443879394531249,-1.58943076171875,-0.26029072265624964,1.7001175357076868,0.7717126604786689,-1.1312001206918256,-0.25057780030784,1.3921003474618423
161,1790597304.1148424,0.4246369628906249,-1.61338095703125,-0.3225612304687496,1.6992234726973259,0.7835503016004198,-1.1639417041647644,-0.2552608817674959,1.4261379609255216
162,1790597304.1394362,0.3671564941406249,-1.61817099609375,-0.19802021484374963,1.671075482818008,0.7973839556546438,-1.2041251947917335,-0.26111605197411014,1.4676240152253655
163,1790597304.1594362,0.5060676269531249,-1.54153037109375,-0.19802021484374963,1.634512873470615,0.808256021992538,-1.236640761192602,-0.2657573791164828,1.5010613424790749
164,1790597304.170037,0.5874982910156249,-1.3642989257812501,-0.17886005859374962,1.4961472926802069,0.8140237155922377,-1.2536004604483204,-0.2681481004149949,1.518569105355105
165,1790597304.190037,0.5300178222656249,-1.30202841796875,-0.09263935546874962,1.4088218280886575,0.8249493513083739,-1.2847973731945779,-0.2723892298984409,1.550948617767997
166,1790597304.2145042,0.4150568847656249,-1.3642989257812501,-0.06868916015624961,1.4276911350856631,0.8380447158594531,-1.3221305638976262,-0.2770954480640183,1.5896949585093378
167,1790597304.2345042,0.3623664550781249,-1.54632041015625,-0.1405397460937496,1.5944176613622216,0.8483095906643298,-1.3524358223182302,-0.28067920083713555,1.6209542340501917
168,1790597304.2597964,0.534807861328125,-1.51279013671875,-0.29861103515624965,1.632091295427123,0.8610453473483892,-1.3908143454527837,-0.2853644706135535,1.6604808083191198
169,1790597304.2797964,0.7407795410156249,-1.48883994140625,-0.3848317382812496,1.7068960619505964,0.8715189948361983,-1.421112697712578,-0.2895388118867293,1.6920222757248196
170,1790597304.3042321,0.755149658203125,-1.6421211914062501,-0.5381129882812496,1.885836313603796,0.8851376572349632,-1.4583162204146973,-0.29556541592498065,1.7313329506686213
171,1790597304.324232,0.7216193847656249,-1.73792197265625,-0.6626540039062496,1.9950482822237396,0.8968273269068749,-1.4892688114705934,-0.30155927966954704,1.7644145902425488
172,1790597304.334658,0.6832990722656249,-1.75229208984375,-0.5620631835937496,1.9629926674951135,0.90310554211856,-1.5057129393813249,-0.30517279357841764,1.7821059199626892
173,1790597304.354658,0.7455695800781249,-1.69002158203125,-0.42794208984374965,1.8960963527018126,0.9154858987154445,-1.537689670688568,-0.31254987955269553,1.816670410750818
174,1790597304.3798623,0.9419611816406249,-1.53674033203125,-0.49021259765624964,1.8679320401744297,0.9319375915426975,-1.57804243924672,-0.322187748714885,1.8607876181918526
175,1790597304.3998623,0.9611213378906249,-1.39303916015625,-0.48063251953124964,1.759352138347651,0.9458886199101262,-1.609654410180299,-0.33014460572842325,1.8959662608232104
176,1790597304.4249456,0.9659113769531249,-1.31639853515625,-0.4039918945312496,1.681992670119567,0.9643862198846396,-1.6484512039450978,-0.3402911425213257,1.9399046921356462
177,1790597304.4449456,1.061712158203125,-1.37387900390625,-0.3177711914062496,1.7651500656710508,0.9799642346505821,-1.6787807951717535,-0.3482505103623071,1.9748198088431799
178,1790597304.4696832,0.937171142578125,-1.4026192382812501,-0.38962177734374964,1.7313103729425192,1.0000507302712192,-1.7158190681545766,-0.357931022761371,2.0179819510624566
179,1790597304.4896832,0.7024592285156249,-1.33076865234375,-0.5955934570312497,1.6183713232277699,1.0163138629287276,-1.7453723076243786,-0.3660614126436934,2.052612802754055
180,1790597304.4998503,0.654558837890625,-1.26370810546875,-0.7440846679687496,1.605947521307688,1.0243759854467127,-1.760120730893789,-0.37059612956237137,2.0699547430145957
181,1790597304.5198503,0.9228010253906249,-1.23496787109375,-0.8159352539062497,1.744264232753419,1.0402223327148756,-1.7885289115126763,-0.3805184518839492,2.1037329823482005
182,1790597304.5450692,1.114402587890625,-1.13437705078125,-0.7105543945312497,1.7417209790388815,1.061059770549345,-1.8234584294339238,-0.39404050268628693,2.146186477990466
183,1790597304.5650692,0.9850715332031249,-1.23017783203125,-0.5812233398437496,1.6797392639119277,1.0782553967587385,-1.8505510807671877,-0.40509331776293256,2.179741865282247
184,1790597304.5740428,0.951541259765625,-1.35471884765625,-0.5668532226562496,1.7498618520521003,1.086116814355967,-1.862623316920054,-0.41008129993458653,2.1948079705789882
185,1790597304.5940428,1.200623291015625,-1.37866904296875,-0.5476930664062496,1.9084528581966702,1.1042380769959699,-1.8895935755576676,-0.42120257288788676,2.2287479038428604
186,1790597304.6196108,1.349114501953125,-1.34034873046875,-0.39920185546874964,1.9431949928041474,1.1288187698995946,-1.9241145652075375,-0.4351031747363077,2.2728315925266083
187,1790597304.6396108,1.2102033691406249,-1.21101767578125,-0.3656715820312496,1.7506775007519737,1.1490012678882242,-1.950894367387814,-0.4454928933811851,2.3075217581568728
188,1790597304.6648984,1.0090217285156249,-0.92361533203125,-0.40878193359374965,1.4276879208750421,1.1749008279589057,-1.9837237816740314,-0.4581277930022786,2.3506239750838036
189,1790597304.6848984,1.004231689453125,-0.54999228515625,-0.2411305664062496,1.1700926244911853,1.1953320693037404,-2.0080042525564363,-0.46759665983423215,2.383179907283297
190,1790597304.6946385,1.037761962890625,-0.27217001953125,-0.07347919921874961,1.0753723094222172,1.2052813827522866,-2.0186558775274377,-0.4717461720881188,2.397961470575607
191,1790597304.7146385,0.932381103515625,0.04397255859375004,0.012741503906250392,0.9335043942178786,1.2256017058290338,-2.0375890695437233,-0.47907966189891493,2.425569228057668
192,1790597304.7393157,0.7886799316406249,0.36490517578125004,-0.015998730468749608,0.8691534854450147,1.2500986935149758,-2.0566891730114936,-0.4867769463498967,2.4555384121223356
193,1790597304.7593157,0.6689289550781249,0.5373465820312501,-0.02557880859374961,0.8584064140089207,1.269160888910004,-2.068493709283063,-0.4921419119472201,2.476214701672192
194,1790597304.7850924,0.6641389160156249,0.6187772460937501,-0.001628613281249608,0.9077270693501404,1.2926208179806051,-2.0791905956579035,-0.49807187116136264,2.4983950250093154
195,1790597304.8050923,0.6018684082031249,0.78642861328125,0.2426633789062504,1.019608287550975,1.309991923243524,-2.084137509860125,-0.5016211964316025,2.51223641874699
196,1790597304.8150892,0.553968017578125,0.98282021484375,0.3719944335937504,1.1879377078911535,1.3182389625563289,-2.0849127726775354,-0.5026683420941064,2.5173976035221677
197,1790597304.8350892,0.4964875488281249,1.04988076171875,0.1899729492187504,1.176791919331269,1.3338389579931578,-2.0831820795270306,-0.503606091367983,2.524359926315139
198,1790597304.8593159,0.4629572753906249,0.8774393554687501,0.017531542968750393,0.9922381852969536,1.3516445589987798,-2.077898158072286,-0.5041945945087631,2.529588100526064
199,1790597304.8793159,0.4629572753906249,0.6906278320312501,0.007951464843750393,0.831480286601226,1.3655277171877858,-2.071838302927016,-0.5045693259086469,2.5321473307316635
