imu_index,t_imu,ax,ay,az,mag,vx,vy,vz,velocity
0,1791273847.3347409,0.04517006835937476,0.04905000000000001,0.03242856445312491,0.07414748389582121,0.0,0.0,0.0,0.0
1,1791273847.3547409,0.030799951171874763,0.02030976562500001,-0.03463198242187509,0.05060136142833873,0.0001715467028552365,0.00016657823957595975,3.8041256445605166e-05,0.00024212335358797787
2,1791273847.3649206,-0.02668051757812524,-0.061120898437499994,-0.03463198242187509,0.07514644669252768,0.0002489098035950261,0.00020748811150977857,1.617650213711081e-06,0.00032405250120284937
3,1791273847.3849206,-0.031470556640625244,-0.061120898437499994,0.06116879882812492,0.09202055265620614,0.00029087804108865586,9.244422444693985e-05,-1.940382631150426e-05,0.00030583079945730937
4,1791273847.4099886,0.05475014648437476,0.034679882812500014,0.042008642578124915,0.07723340509912714,0.00037935873878008295,-7.983455969669006e-05,0.00015218429475254247,0.0004164692896002157
5,1791273847.4299886,0.08349038085937477,0.02509980468750001,-0.029841943359375088,0.09214762869905145,0.0006467228323745124,-0.00010699658513644507,0.00028679742172252803,0.000715507828225563
6,1791273847.4552412,0.030799951171874763,-0.03717070312499999,-0.025051904296875087,0.05438654311405113,0.0011501269597131724,-0.00015900944076201025,0.0003273031867827917,0.0012063181179890665
7,1791273847.4752412,-0.01231040039062524,-0.0994412109375,0.07553891601562492,0.12548397596230967,0.001516751851427764,-0.00039894206064146006,0.00043030202736009957,0.0016262997206261261
8,1791273847.485314,0.0068497558593747605,-0.04196074218749999,0.037218603515624914,0.056505287256257426,0.0016695752251274375,-0.0006084774819704163,0.0005595778716880738,0.0018630227247426012
9,1791273847.5053139,0.0068497558593747605,0.039469921875000015,-0.029841943359375088,0.0499533329380112,0.0019480486422344884,-0.0009658523450377477,0.0007888252139837133,0.0023130087512032898
10,1791273847.530058,-0.00752036132812524,0.039469921875000015,-0.025051904296875087,0.04735006310686349,0.002239653025272065,-0.0011951790082999,0.000928034721755284,0.0027029145344006815
11,1791273847.550058,-0.01710043945312524,0.015519726562500011,0.013268408203124913,0.026633392542248974,0.0024030638820231273,-0.0012702497480775695,0.0010060011102653028,0.002898325150398108
12,1791273847.5753262,-0.02668051757812524,0.00593964843750001,-0.005891748046875088,0.027961440178317042,0.002495581200651415,-0.0013102003801770184,0.0011037092466894233,0.0030269992841902844
13,1791273847.5953262,-0.02668051757812524,0.00593964843750001,-0.029841943359375088,0.04046814828061567,0.0024777834012731977,-0.0013192593843155548,0.0011158447091256733,0.0030207557533857964
14,1791273847.605394,0.030799951171874763,0.029889843750000013,0.008478369140624914,0.04374839991215662,0.0024732786115766233,-0.0012960814833191513,0.0011049060467045418,0.003002957154860758
15,1791273847.6253939,0.07391030273437477,0.02509980468750001,0.027638525390624915,0.08280471684273663,0.002622737205419084,-0.0011744596608435792,0.001140610677293781,0.003091779206346226
16,1791273847.6505675,0.06912026367187477,0.029889843750000013,0.018058447265624913,0.07744108164995026,0.0030526854840265674,-0.0009405168728949694,0.0012650874277259014,0.003435681424750669
17,1791273847.6705675,0.026009912109374762,0.0011496093750000096,0.008478369140624914,0.027381013000566445,0.003485728243916943,-0.0007359742359771743,0.0013889527945469625,0.003823761149959853
18,1791273847.6951928,0.04517006835937476,-0.008430468749999991,0.013268408203124913,0.04782738269213639,0.004070402671120575,-0.0005353517603455024,0.0015587514235174966,0.004391410412690706
19,1791273847.7151928,0.07870034179687477,-0.02759062499999999,0.027638525390624915,0.08785712533769675,0.004659835891725146,-0.0004508843811188826,0.0017373316075891187,0.0049935646964543315
20,1791273847.7406461,0.04996010742187476,0.01072968750000001,-0.0011017089843750872,0.051111175785137,0.0055430783602770034,-0.00039169783827282126,0.001981172624111271,0.005899507595656331
21,1791273847.760646,0.026009912109374762,0.0011496093750000096,-0.03463198242187509,0.04332679697510022,0.00624694069909589,-0.00033434890327325897,0.0020904307297620298,0.006595904632654576
22,1791273847.7707129,0.04517006835937476,-0.02759062499999999,0.003688330078124913,0.05305828344609741,0.006601820497582526,-0.0003297760238528292,0.0021138127644913596,0.006939811993961766
23,1791273847.7907128,0.040380029296874766,-0.01322050781249999,0.046798681640624916,0.06320953406043586,0.007329440450030593,-0.00038327032192492683,0.0022290290720670884,0.007670473522171454
24,1791273847.8149724,0.030799951171874763,0.06342011718750001,0.018058447265624913,0.07277950105566444,0.008209149999770508,-0.00034708812670825853,0.002465826281368361,0.008578514622958971
25,1791273847.8349724,-0.02668051757812524,0.02509980468750001,-0.05379213867187509,0.0650802919206847,0.008831788948459408,-0.0001889535599679376,0.002578162338093337,0.009202343208092014
26,1791273847.8605375,-0.05542075195312524,-0.01801054687499999,-0.06816225585937509,0.0896768234809046,0.009350878665589231,-3.5443779623936067e-06,0.0024663840326362516,0.00967067704856439
27,1791273847.8805375,-0.05063071289062524,-0.032380664062499995,0.03242856445312491,0.06829046994590006,0.009536979241636614,4.4159897277306304e-05,0.0023384546428893696,0.009819587224969594
28,1791273847.8902664,0.026009912109374762,0.01072968750000001,0.06116879882812492,0.06732951560690656,0.009595962909143024,4.808658583731248e-05,0.002353853539834883,0.009880558838465532
29,1791273847.9102664,0.02121987304687476,0.04425996093750001,0.037218603515624914,0.06159912013955878,0.009769873694450077,0.00013743234989990998,0.002528342042889384,0.010092662341629621
30,1791273847.9352374,-0.01710043945312524,-0.0036404296874999907,0.022848486328124914,0.02877031604425201,0.009962154776949486,0.000308325526410499,0.002826016443393956,0.010359824388881637
31,1791273847.9552374,0.0068497558593747605,-0.01801054687499999,0.046798681640624916,0.05061042933398387,0.010077681581429994,0.0003921912600269964,0.003133140505686004,0.010560778828737266
32,1791273847.9805562,0.04996010742187476,-0.061120898437499994,0.03242856445312491,0.0853427697693421,0.010309871579380769,0.0003321713474415869,0.003614067929672906,0.010930017236385068
33,1791273848.0005562,0.030799951171874763,-0.022800585937499993,-0.029841943359375088,0.04857000406369494,0.010586912174586877,0.00016598973691288966,0.003940859635053713,0.011297815569762676
34,1791273848.0098207,-0.0027303222656252396,-0.061120898437499994,-0.025051904296875087,0.06611215315190655,0.010715497991421609,4.224573715758953e-05,0.0040313885269733256,0.011448832925756262
35,1791273848.0298207,0.02121987304687476,-0.07549101562499999,0.037218603515624914,0.08680092683763671,0.010979182863905012,-0.00038973794265330917,0.004215755976520099,0.011767198072462876
36,1791273848.0557597,0.05475014648437476,-0.05633085937499999,0.042008642578124915,0.08908125677853432,0.011417665090052032,-0.0011224096699641185,0.004573134725695565,0.012350564391767061
37,1791273848.0757596,0.030799951171874763,0.029889843750000013,0.03242856445312491,0.05379267184366065,0.011833364117053024,-0.0016422520945790172,0.004919010554491073,0.012919836032400019
38,1791273848.1008282,0.0068497558593747605,0.05384003906250001,0.022848486328124914,0.05888736952073065,0.01234704202600902,-0.00203867523762004,0.005391439766257117,0.01362619779210975
39,1791273848.1208282,0.035589990234374765,0.07300019531250002,0.046798681640624916,0.09373255850475118,0.012759047462132574,-0.0021172457205123523,0.005816283877416731,0.014181155796502531
40,1791273848.1449542,0.026009912109374762,0.0011496093750000096,0.07553891601562492,0.07989971816263261,0.013292962811992628,-0.0020636379532908778,0.006473265531875172,0.014928651264245028
41,1791273848.1649542,-0.00752036132812524,-0.022800585937499993,0.06595883789062491,0.07019252702019368,0.013696910839901074,-0.0020583406502371147,0.0071484421188903885,0.01558660827491806
42,1791273848.1755006,-0.021890478515625242,-0.01801054687499999,0.07553891601562492,0.08068271612430544,0.013854706705393493,-0.002088247200042461,0.0075629951031773906,0.015922078042505814
43,1791273848.1955006,0.01163979492187476,-0.02759062499999999,0.09948911132812492,0.1038980783584276,0.01409368435979132,-0.0022048557358778803,0.00849376144211034,0.016602328483828418
44,1791273848.220185,0.05475014648437476,-0.05154082031249999,0.12343930664062491,0.14453822028260943,0.014467303081120339,-0.0024736870878960464,0.009882932949115344,0.017694472298617085
45,1791273848.240185,-0.031470556640625244,0.06342011718750001,0.26714047851562495,0.2763630627650955,0.014759530882453804,-0.0026410103232728703,0.011425514209843656,0.018851022846442068
46,1791273848.2502506,-0.08895102539062524,0.33645234375000005,0.37731137695312494,0.5132994639693041,0.01479363373712037,-0.0024107185620053134,0.012571917126257449,0.01956313531524915
47,1791273848.2702506,-0.021890478515625242,0.5232638671875001,0.38689145507812495,0.6511292235540727,0.014684968855619408,-0.0007321996115162328,0.01565441057409086,0.021476615119329773
48,1791273848.2958202,0.040380029296874766,0.52805390625,0.501852392578125,0.7296076333264947,0.014602339278311399,0.0031080068374892845,0.020708561199640357,0.025529052584458475
49,1791273848.3158202,0.06912026367187477,0.7196554687500001,0.47790219726562494,0.8666441684469838,0.01471165333900266,0.007532727939654062,0.025538440524022623,0.030420168943956803
50,1791273848.340656,-0.04584067382812524,0.6382248046875001,0.44437192382812496,0.7790370179793276,0.01487039949274189,0.014732431103218875,0.032354399878241805,0.038535444706996734
51,1791273848.360656,-0.16080161132812526,0.7436056640625001,0.5353826660156249,0.9302908904754207,0.014669097218205428,0.021733331523472583,0.038489516556292805,0.04657212682542496
52,1791273848.385214,-0.20391196289062524,0.8346164062500001,0.5928631347656249,1.0438636552518228,0.013787244700244387,0.031947159593732705,0.046970918745100954,0.058454908521789
53,1791273848.405214,-0.13206137695312525,0.7627658203125001,0.525802587890625,0.9357992655223848,0.012672834914078888,0.04141361242276953,0.05452004955283584,0.06962847005289247
54,1791273848.415798,-0.01710043945312524,0.6430148437500001,0.544962744140625,0.8430568823119869,0.012053153144749834,0.0467876628182532,0.05876572721688734,0.07607742495678307
55,1791273848.435798,0.02121987304687476,0.7436056640625001,0.602443212890625,0.9572551861420945,0.011063990084196056,0.05749947240271663,0.06730630601600435,0.08921177070708765
56,1791273848.4755254,0.035589990234374765,0.8489865234375001,0.32941098632812493,0.911348650241522,0.009563137482416354,0.08033070868959138,0.08450288908030168,0.11698382204389357
57,1791273848.4955254,0.0020597167968747607,0.4609933593750001,0.08990903320312492,0.46968367447959264,0.008977374184461291,0.09206551216721802,0.0924905496630485,0.1308096080371501
58,1791273848.5054712,0.02121987304687476,0.23107148437500002,0.23361020507812494,0.3292689505860444,0.008747137305706778,0.09754205088435157,0.09610825863772265,0.13721429036418076
59,1791273848.5254712,0.22719155273437477,0.2741818359375,0.32941098632812493,0.48508069298373696,0.008726221554995042,0.10766070748891045,0.10313636102588863,0.14934551833015292
60,1791273848.53568,0.4762735839843748,0.35561250000000005,0.2910906738281249,0.6618387699034283,0.009255764203876542,0.11253316356628856,0.10666078371390285,0.15532515847633566
61,1791273848.55568,0.5098038574218748,0.40830292968750004,0.22882016601562494,0.6920765303122459,0.01161668451945029,0.1217927520273553,0.11330959206758966,0.16675576589774901
62,1791273848.5803525,0.5433341308593748,0.44662324218750005,0.08032895507812492,0.7079103327701397,0.016041071159818406,0.133084183349098,0.12085347813711234,0.18048345907447635
63,1791273848.6003525,0.5768644042968748,0.3220822265625001,-0.06816225585937509,0.6641954491985659,0.020769881942609467,0.1420173229453079,0.12606965695756395,0.1910336787528829
64,1791273848.6259174,0.6439249511718748,0.02030976562500001,-0.2597638183593751,0.6946431246691254,0.028248483232543968,0.1523797569898504,0.13110833065738872,0.20299497903394645
65,1791273848.6459174,0.6295548339843748,-0.1090212890625,-0.2453937011718751,0.6844289583563619,0.03513177182293989,0.1591374325635714,0.13370117895260958,0.21079603669818386
66,1791273848.6554806,0.5289640136718747,0.039469921875000015,-0.2022833496093751,0.5676965351504856,0.03876032972443164,0.16183411494029473,0.1344339155437655,0.21392784196378803
67,1791273848.6754806,0.45232338867187477,0.3795626953125001,-0.1879132324218751,0.6196577043269416,0.04668254555284382,0.1672564059600643,0.13515116642679637,0.22004500262558743
68,1791273848.7302527,0.5193839355468748,0.1688009765625,-0.2885040527343751,0.6176471732605703,0.06911570964960169,0.18213114202291444,0.13486371650404577,0.2369323874952994
69,1791273848.7502527,0.5433341308593748,-0.113811328125,-0.4753155761718751,0.7308145408500643,0.07767251182185467,0.18683039469355706,0.13362877045704705,0.24247734691704426
70,1791273848.7749858,0.26551186523437476,-0.3964236328125,-0.3986749511718751,0.6217635916684038,0.08816744173943462,0.19082356824655167,0.13070941415969584,0.24753198365300969
71,1791273848.7949858,0.08828041992187477,-0.42037382812499996,-0.4226251464843751,0.6025940610020888,0.09591169689203342,0.19234303432333996,0.12747087980948626,0.24988741795621347
72,1791273848.7749858,0.05954018554687476,-0.487434375,-0.4609454589843751,0.6735042834198703,0.09591169689203342,0.19234303432333996,0.12747087980948626,0.24988741795621347
73,1791273848.7949858,0.2511417480468748,-0.487434375,-0.3364044433593751,0.6432980623751415,0.10216141478797505,0.1908210924782316,0.12280846358095397,0.24886052867656816
74,1791273848.850055,0.16492104492187476,-0.746096484375,-0.43699526367187513,0.8802407486173934,0.1185069455440857,0.18216435588684163,0.10870205325159714,0.24298947524320852
75,1791273848.870055,-0.04584067382812524,-1.167619921875,-0.7196075683593751,1.3723238326927396,0.12373146666532826,0.17662143068615904,0.10261247124690803,0.2388177649928423
76,1791273848.8654597,-0.17517172851562524,-1.474182421875,-0.8920489746093752,1.7319498608614599,0.12373146666532826,0.17662143068615904,0.10261247124690803,0.2388177649928423
77,1791273848.8854597,-0.27576254882812523,-1.6418337890625,-0.6429669433593751,1.7846763472675957,0.12654799186022542,0.1645743525937346,0.09385536643480896,0.22783314417378966
78,1791273848.8958535,-0.24702231445312525,-1.57956328125,-0.6717071777343752,1.7341368792373122,0.12738463059518954,0.15674147796570004,0.08896216814048874,0.22070116081933397
79,1791273848.9158535,-0.2566023925781252,-1.7136843750000001,-0.7483478027343752,1.887480690988209,0.12799758364338548,0.13899031992293714,0.0788288715686124,0.20473319575390472
80,1791273848.9401338,-0.3476131347656253,-1.9388162109375,-0.5806964355468751,2.0535460894541604,0.12752980805560496,0.11402136044241296,0.06595195907067866,0.18334225777244745
81,1791273848.9601338,-0.28534262695312523,-1.88612578125,-0.5615362792968751,1.9885205230067433,0.12625285983312226,0.09080180743399102,0.05522277507143187,0.16502820285003275
82,1791273848.9858625,-0.18954184570312524,-1.80948515625,-0.5854864746093751,1.911271057153367,0.12394019200925152,0.05828065629539062,0.04127736903336085,0.14304414454226305
83,1791273849.0058625,-0.28534262695312523,-1.972346484375,-0.5280060058593751,2.061640466086777,0.12169979376364289,0.031119887744131106,0.03039284384954005,0.12924013375334711
84,1791273849.0155048,-0.41946372070312526,-1.9867166015625,-0.3076642089843751,2.053691781499877,0.1202719768906071,0.017126278897966966,0.025328019068179008,0.12409740691885435
85,1791273849.0355048,-0.33324301757812524,-2.0346169921875,-0.1927032714843751,2.0707128638474877,0.11662560289122544,-0.013577171638987105,0.015647920610141454,0.11845137508225735
86,1791273849.060633,-0.27097250976562526,-2.0058767578125,-0.2741339355468751,2.0425760899412015,0.11159276068066737,-0.053981563229152194,0.004430288690568933,0.12404265743234236
87,1791273849.080633,-0.23265219726562525,-2.1208376953125,-0.43699526367187513,2.177853171180879,0.10743244506333154,-0.08750649663674986,-0.0042254920982341074,0.13862529346910507
88,1791273849.135528,-0.3476131347656253,-2.15436796875,-0.5327960449218752,2.2463320907029707,0.09533720273223033,-0.18332333795265127,-0.02841259620513123,0.20857589526602593
89,1791273849.155528,-0.4769441894531253,-2.1735281250000003,-0.2406036621093751,2.2382114270639306,0.09035470229914072,-0.2194878223124691,-0.03706297901848522,0.2402343455560862
90,1791273849.1799822,-0.30929282226562527,-2.087307421875,-0.11127260742187509,2.1130300320823547,0.08373437995542987,-0.2648882282494922,-0.04669869190181569,0.28170549813061174
91,1791273849.1999822,-0.36198325195312525,-2.2166384765625002,-0.1352228027343751,2.250067380513575,0.07812515900753413,-0.30290554103164047,-0.05376697806287757,0.31740541140257406
92,1791273849.1955042,-0.5679549316406253,-2.26932890625,-0.1639630371093751,2.345060844979264,0.07812515900753413,-0.30290554103164047,-0.05376697806287757,0.31740541140257406
93,1791273849.2155042,-0.5966951660156252,-2.278908984375,0.11385922851562492,2.358481546277113,0.07113985333890253,-0.3429150028048159,-0.05933043203747165,0.355206528723024
94,1791273849.2708821,-0.3955135253906253,-2.240588671875,0.08511899414062492,2.276820982963968,0.05057849153119627,-0.4558509359398746,-0.07159796006197763,0.4642031101660861
95,1791273849.290882,-0.31408286132812524,-2.4130300781250003,-0.0873224121093751,2.4349512121134187,0.04320214974553565,-0.49750054755524326,-0.07536716369048078,0.5050281476543167
96,1791273849.3004305,-0.40988364257812526,-2.26932890625,-0.0873224121093751,2.3077009097479535,0.039690312184514694,-0.5177554998171132,-0.07702180721314775,0.5249556526589196
97,1791273849.3204305,-0.6972859863281253,-2.4417703125,-0.07774233398437509,2.5405695968088087,0.03177709597264994,-0.5608839883096957,-0.08021532565627708,0.5674813923299938
98,1791273849.3004305,-0.7403963378906253,-2.5327810546875003,-0.03463198242187509,2.639008522599396,0.03177709597264994,-0.5608839883096957,-0.08021532565627708,0.5674813923299938
99,1791273849.3204305,-0.46257407226562525,-2.374709765625,0.018058447265624913,2.41941053788,0.02242230014995525,-0.6057480974002675,-0.0826907801272419,0.6117771507388212
100,1791273849.3450766,-0.3859334472656253,-2.1735281250000003,0.08032895507812492,2.2089866176390225,0.01105511923129015,-0.6611485663377741,-0.08510184985173025,0.6666948081992978
101,1791273849.3650765,-0.43383383789062524,-2.048987109375,0.07553891601562492,2.0957733897338815,0.001984783438672807,-0.7056956497471046,-0.08653112030497687,0.7109837721203776
102,1791273849.5401537,-0.43862387695312527,-1.8046951171875,0.008478369140624914,1.857252609145315,-0.07696172216315462,-1.0877629495985819,-0.0960628055483394,1.094705167525733
103,1791273849.5601537,-0.44820395507812527,-1.723264453125,0.018058447265624913,1.7806889869568816,-0.08595766277832427,-1.1301535918235464,-0.09694852632774725,1.1375565382252861
104,1791273849.5401537,-0.43862387695312527,-1.8430154296875,0.14259946289062492,1.899850358927325,-0.08595766277832427,-1.1301535918235464,-0.09694852632774725,1.1375565382252861
105,1791273849.5601537,-0.35240317382812525,-1.7951150390625001,0.013268408203124913,1.829426700102724,-0.094774473724898,-1.1707850238440431,-0.09714981936709989,1.1786254113713943
106,1791273849.5411546,-0.3667732910156253,-1.684944140625,-0.2070733886718751,1.7367897950889182,-0.094774473724898,-1.1707850238440431,-0.09714981936709989,1.1786254113713943
107,1791273849.5611546,-0.34282309570312525,-1.7520046875,-0.2932940917968751,1.809162658318041,-0.103125962316994,-1.2097337230270215,-0.09829290520739732,1.2180936499082222
108,1791273849.5421553,-0.31408286132812524,-1.627463671875,-0.1352228027343751,1.6630006775200843,-0.103125962316994,-1.2097337230270215,-0.09829290520739732,1.2180936499082222
109,1791273849.5621552,-0.37156333007812525,-1.4119119140625,-0.07774233398437509,1.4620528143072387,-0.11102593542752805,-1.246742035266758,-0.09998459064692003,1.2556629241980062
110,1791273849.5431573,-0.40030356445312526,-1.5220828125,-0.1879132324218751,1.585020635430664,-0.11102593542752805,-1.246742035266758,-0.09998459064692003,1.2556629241980062
111,1791273849.5631573,-0.33324301757812524,-1.665783984375,-0.1495929199218751,1.7053636659245375,-0.11881811417557653,-1.282003176203821,-0.10205180264683252,1.2915356977166346
112,1791273849.5851092,-0.36198325195312525,-1.69452421875,0.022848486328124914,1.7329068803465304,-0.12723249969510603,-1.3204327022065128,-0.10418909423965456,1.330633682646557
113,1791273849.6051092,-0.40509360351562523,-1.6753640625000001,0.16654965820312492,1.7316709728390542,-0.1348993756747645,-1.3552480930078208,-0.10556015696244975,1.3660300808901367
114,1791273849.6451685,-0.39072348632812526,-1.7663748046875,0.08511899414062492,1.8110742769325394,-0.1503434012240938,-1.4248626299176232,-0.10713829709097708,1.4367725175305064
115,1791273849.6651685,-0.3380330566406253,-1.9148660156250001,-0.010681787109375087,1.9445030999597859,-0.15799051871324468,-1.459926818606714,-0.10769635697840739,1.472394588755617
116,1791273849.7053568,-0.31887290039062527,-1.9052859375,0.03242856445312491,1.932057463439241,-0.17303182858580168,-1.5313310346483677,-0.10858397853567732,1.5448965116717763
117,1791273849.7253568,-0.29971274414062526,-1.819065234375,-0.0921124511718751,1.8458902349741624,-0.18032230285007628,-1.5671221215015,-0.10904897543437474,1.5812272308709472
118,1791273849.7053568,-0.41467368164062524,-2.03940703125,-0.2214435058593751,2.092886171688422,-0.18032230285007628,-1.5671221215015,-0.10904897543437474,1.5812272308709472
119,1791273849.7253568,-0.40509360351562523,-1.9196560546875001,-0.0969024902343751,1.9643243847494427,-0.18773016208528637,-1.6038393181653308,-0.1102622376963779,1.6185490209787943
120,1791273849.750364,-0.22307211914062525,-1.866965625,-0.06816225585937509,1.881480243955107,-0.19678145412171777,-1.6499646611197587,-0.11186128993610767,1.6654186476128061
121,1791273849.770364,-0.16080161132812526,-1.9100759765625,-0.2501837402343751,1.9330906078931145,-0.20351035299830258,-1.6869863307459354,-0.11342584780970955,1.7029987571494232
122,1791273849.8255124,-0.32845297851562527,-1.866965625,-0.3699347167968751,1.931396825802251,-0.22130521701257289,-1.7893803285115322,-0.11965775938830772,1.8069797836508439
123,1791273849.8455124,-0.39072348632812526,-1.8717556640625002,-0.1831231933593751,1.9208509084946157,-0.22786940912652998,-1.8265522848511109,-0.12240838880475503,1.8447768240522384
124,1791273849.8255124,-0.23265219726562525,-1.92444609375,-0.05858217773437509,1.9393431063610842,-0.22786940912652998,-1.8265522848511109,-0.12240838880475503,1.8447768240522384
125,1791273849.8455124,-0.12727133789062525,-1.9579763671875001,-0.1927032714843751,1.9715486295686473,-0.23394672595532148,-1.8640728040692902,-0.1250808204267462,1.8828551991840978
126,1791273849.9306276,-0.31408286132812524,-2.0968875000000002,-0.4657354980468751,2.1708281335880284,-0.25874825317359545,-2.025684290039716,-0.13895130824704166,2.0468646676069375
127,1791273849.9506276,-0.3571932128906253,-2.2118484375,-0.3076642089843751,2.261529961618086,-0.26470875380080333,-2.0644259094176185,-0.14288174717865376,2.086226318856696
128,1791273849.9306276,-0.27576254882812523,-2.1591580078125,-0.0969024902343751,2.1788525371512986,-0.26470875380080333,-2.0644259094176185,-0.14288174717865376,2.086226318856696
129,1791273849.9506276,-0.13206137695312525,-2.144787890625,-0.2022833496093751,2.1583497994031413,-0.27043396863579455,-2.10444567001188,-0.14668608968809754,2.1268152054966696
130,1791273849.9760177,-0.060210791015625244,-2.15436796875,-0.3795147949218751,2.18836883630144,-0.27697808318928985,-2.1558170016788054,-0.1518991840339302,2.178838489976892
131,1791273849.9960177,-0.10811118164062525,-2.0058767578125,-0.4322052246093751,2.054758124769862,-0.2816121804061386,-2.1964530583399355,-0.15660719229197417,2.21996334886897
132,1791273850.0647354,-0.13685141601562525,-2.0346169921875,-0.0873224121093751,2.0410830014039583,-0.29640858353644434,-2.3359549110259983,-0.173034514269264,2.3610345905701937
133,1791273850.0847354,-0.031470556640625244,-1.9962966796875001,0.06116879882812492,1.9974815271277688,-0.3003215285079686,-2.376512451323482,-0.1771376777233143,2.401953831498457
134,1791273850.0657337,0.04517006835937476,-1.8909158203125,-0.0921124511718751,1.8936968284930342,-0.3003215285079686,-2.376512451323482,-0.1771376777233143,2.401953831498457
135,1791273850.0857337,-0.16080161132812526,-1.84780546875,-0.1256427246093751,1.859039618403921,-0.3033046115381521,-2.4163795419846275,-0.18046829889014904,2.4420181377718
136,1791273850.0667343,-0.19912192382812524,-1.7855349609375,-0.07774233398437509,1.7982848794816775,-0.3033046115381521,-2.4163795419846275,-0.18046829889014904,2.4420181377718
137,1791273850.0867343,-0.12248129882812525,-1.7567947265625001,-0.1304327636718751,1.7658828063264895,-0.3064011954710676,-2.4551295090811585,-0.18344625073427873,2.4809665708863657
138,1791273850.1103482,-0.20391196289062524,-1.80948515625,-0.1448028808593751,1.82668675300506,-0.3100869624079805,-2.500334744897971,-0.18692235691232445,2.5264140057229474
139,1791273850.1303482,-0.34282309570312525,-1.7951150390625001,-0.07774233398437509,1.8292100887840013,-0.3135604971171103,-2.538285493775984,-0.18975866973572905,2.5646094802144423
140,1791273850.1559324,-0.30929282226562527,-1.7759548828125,-0.1543829589843751,1.8092849122554933,-0.3185886679139897,-2.586402725794415,-0.19328808482001228,2.613108892306897
141,1791273850.1759324,-0.29492270507812524,-1.7567947265625001,-0.23102358398437509,1.7962959137083718,-0.32283606617049415,-2.6236743710274055,-0.1962113895643327,2.650733717332101
142,1791273850.1860306,-0.32366293945312524,-1.7280544921875,-0.1543829589843751,1.76486943550213,-0.32512743809384975,-2.642309726457542,-0.19775789201311417,2.669572386242237
143,1791273850.2060306,-0.29013266601562526,-1.6322537109375,0.06116879882812492,1.658966775649425,-0.32990557180895325,-2.6787221261526626,-0.20050119367143207,2.706398094167616
144,1791273850.245638,-0.24702231445312525,-1.6226736328125,0.03242856445312491,1.6416885679857751,-0.3395443020255851,-2.7496844422531654,-0.2048409889778006,2.7781315116049754
145,1791273850.2656379,-0.26618247070312523,-1.73284453125,-0.1927032714843751,1.763728388395853,-0.3444511820252887,-2.7851757018843784,-0.20694409973283204,2.814014244381146
146,1791273850.2747345,-0.19912192382812524,-1.8717556640625002,-0.2214435058593751,1.8952984020428962,-0.3466656676961946,-2.80135609156816,-0.2080397269673585,2.830380462927544
147,1791273850.2947345,-0.12727133789062525,-1.9962966796875001,-0.0969024902343751,2.0026953136694132,-0.35129374045889683,-2.837396460500108,-0.21056477966414958,2.8668037066704017
148,1791273850.3350458,-0.10811118164062525,-1.895705859375,0.003688330078124913,1.8987897031117493,-0.3599343532561549,-2.910908912400699,-0.2151726034249518,2.9409594836060595
149,1791273850.3550458,-0.10332114257812525,-1.9962966796875001,-0.12085268554687509,2.0026185516565254,-0.3638953964372716,-2.9477483756999545,-0.2172915483048384,2.9780624511508607
150,1791273850.36526,-0.11290122070312525,-2.3411794921875,-0.11606264648437509,2.3467719612660565,-0.3657805209327869,-2.967063112239086,-0.21839287129138463,2.997491342395278
151,1791273850.3852599,-0.09853110351562525,-2.7052224609375,0.08032895507812492,2.708207835921146,-0.36923520606528676,-3.006779497028602,-0.22027947621336086,3.0373640922336724
152,1791273850.4846594,-0.15122153320312526,-2.7914431640625,0.18091977539062493,2.8013844533414116,-0.38569137148900906,-3.215538256695766,-0.22630181076595124,3.2464837322665065
153,1791273850.5046594,-0.10811118164062525,-2.84413359375,-0.06816225585937509,2.8470036915706416,-0.3888948145066609,-3.2596949437694414,-0.2271626548903969,3.29066151023819
154,1791273850.4856586,-0.18954184570312524,-2.8968240234375,-0.1927032714843751,2.9094071706926745,-0.3888948145066609,-3.2596949437694414,-0.2271626548903969,3.29066151023819
155,1791273850.5056586,-0.17996176757812524,-2.9638845703125,-0.07295229492187509,2.9702390511978534,-0.3921430642261937,-3.30770891866827,-0.2285157009700627,3.3387024274481494
156,1791273850.4866602,-0.10811118164062525,-2.8776638671875,-0.02026186523437509,2.8797652514215506,-0.3921430642261937,-3.30770891866827,-0.2285157009700627,3.3387024274481494
157,1791273850.5066602,-0.2566023925781252,-2.6381619140625,-0.0873224121093751,2.65204982538853,-0.3954042871481333,-3.3581207134689675,-0.22977350096559324,3.3891171620748723
158,1791273850.515263,-0.4961043457031253,-2.6094216796875003,0.06595883789062491,2.65698166959137,-0.397082318496535,-3.3799381805120876,-0.23024716414327479,3.4109632405439325
159,1791273850.535263,-0.4673641113281253,-2.355549609375,0.08990903320312492,2.403149352211752,-0.4018434535409969,-3.4304988147880486,-0.23094936158752793,3.461666923179301
160,1791273850.6496398,-0.6733357910156252,-2.3315994140625,-0.06816225585937509,2.427835045517522,-0.43477263527658944,-3.716482541645961,-0.23417620647071197,3.749147666126474
161,1791273850.6696398,-0.8840975097656253,-2.4082400390625,-0.1591729980468751,2.5703277098114867,-0.4420030940579304,-3.7660984616152513,-0.23499681956516794,3.7992220075883023
162,1791273850.6506412,-1.2098201660156254,-2.2453787109375,0.018058447265624913,2.550630607741362,-0.4420030940579304,-3.7660984616152513,-0.23499681956516794,3.7992220075883023
163,1791273850.6706412,-1.1810799316406253,-2.029826953125,0.018058447265624913,2.3485044969244986,-0.4534831897442775,-3.8142921244211796,-0.23571545811644115,3.84838059331417
164,1791273850.6516418,-1.0661189941406253,-1.8430154296875,-0.2453937011718751,2.143253053726613,-0.4534831897442775,-3.8142921244211796,-0.23571545811644115,3.84838059331417
165,1791273850.6716418,-1.0277986816406253,-1.493342578125,-0.2597638183593751,1.8313709146297676,-0.46778360829388566,-3.8590544473664457,-0.2372822621987049,3.8945379191736373
166,1791273850.6798022,-1.1331795410156253,-1.0766091796875,0.15217954101562492,1.570459108244306,-0.47406578837729696,-3.8761515852168875,-0.23789149828277745,3.9122732328205814
167,1791273850.6998022,-1.2433504394531254,-1.033498828125,0.17612973632812493,1.626364604583807,-0.49071787695671676,-3.9149342079043445,-0.2386682206086454,3.9527808447361488
168,1791273850.9804919,-1.0948592285156253,-0.822737109375,0.14738950195312492,1.3774384729252163,-0.49071787695671676,-3.9149342079043445,-0.2386682206086454,3.9527808447361488
169,1791273851.0004919,-0.8409871582031253,-0.5784451171875,-0.02026186523437509,1.0209156170043658,-0.5086339922497249,-3.9474231226947194,-0.23862622458043412,3.9872045749766007
170,1791273851.0103166,-0.8361971191406253,-0.3676833984375,0.09469907226562492,0.918359743147314,-0.517350753125542,-3.9616861077055012,-0.23855383950146977,4.002438825527158
171,1791273851.0303166,-0.8936775878906252,-0.228772265625,0.19528989257812493,0.9429392996160343,-0.5350283639249483,-3.9872603439913954,-0.23799360699019997,4.030029945042442
172,1791273851.0249865,-0.6014852050781253,0.10653046875000001,0.13301938476562492,0.6251618585801557,-0.5350283639249483,-3.9872603439913954,-0.23799360699019997,4.030029945042442
173,1791273851.0449865,-0.6062752441406253,0.07779023437500002,0.027638525390624915,0.6118699864412868,-0.5515184074166471,-4.005617107059317,-0.23692925843598553,4.050342755321909
174,1791273851.040012,-0.9607381347656253,0.3316623046875001,0.013268408203124913,1.0164613610953452,-0.5515184074166471,-4.005617107059317,-0.23692925843598553,4.050342755321909
175,1791273851.0600119,-1.1283895019531254,0.585534375,0.09469907226562492,1.2747867612713246,-0.568564092458676,-4.016982023178982,-0.2359461592487193,4.063875033984274
176,1791273851.041013,-0.7499764160156253,0.6861251953125,0.046798681640624916,1.0175571359022348,-0.568564092458676,-4.016982023178982,-0.2359461592487193,4.063875033984274
177,1791273851.061013,-0.3955135253906253,0.5567941406250001,-0.0873224121093751,0.6885316749851474,-0.5849927474364545,-4.021707433443651,-0.23511624615947452,4.070826309728443
178,1791273851.041013,-0.6302254394531253,0.7579757812500001,-0.04900209960937509,0.9869714257573823,-0.5849927474364545,-4.021707433443651,-0.23511624615947452,4.070826309728443
179,1791273851.061013,-0.9703182128906253,1.246559765625,0.05158872070312492,1.5805347448398903,-0.6005710797797631,-4.020438411855356,-0.2346865676112344,4.071816355191746
180,1791273851.0420136,-0.7260262207031253,1.3854708984375002,0.09469907226562492,1.567039118163183,-0.6005710797797631,-4.020438411855356,-0.2346865676112344,4.071816355191746
181,1791273851.0620136,-0.3859334472656253,1.4716916015625001,0.08990903320312492,1.5241077488417434,-0.6156571998992736,-4.011879968198715,-0.23391269620785307,4.065578657026471
182,1791273851.0430784,-0.40988364257812526,1.438161328125,0.022848486328124914,1.4956051148263914,-0.6156571998992736,-4.011879968198715,-0.23391269620785307,4.065578657026471
183,1791273851.0630784,-0.6637557128906253,1.3758908203125002,0.11385922851562492,1.5318652420279402,-0.6291820450048587,-3.9977653595125098,-0.23300474704190982,4.0536760018061075
184,1791273851.0440786,-0.6302254394531253,1.4573214843750002,0.11385922851562492,1.59183351430764,-0.6291820450048587,-3.9977653595125098,-0.23300474704190982,4.0536760018061075
185,1791273851.0640786,-0.17996176757812524,1.5004318359375002,-0.1591729980468751,1.5195453186370755,-0.6418188496410504,-3.979518586743882,-0.23212638360316679,4.037620868278654
186,1791273851.0698783,-0.02668051757812524,1.6585031250000002,-0.1974933105468751,1.670433498635539,-0.645023587455408,-3.9736468487533085,-0.23206501908302693,4.032341612520317
187,1791273851.0898783,-0.32845297851562527,1.7686740234375002,-0.029841943359375088,1.79916083268335,-0.6549498472034853,-3.9512951563737984,-0.23222615316396283,4.0119349074166495
188,1791273851.1148074,-0.3380330566406253,1.5195919921875,-0.07774233398437509,1.5586757329847403,-0.666712690007229,-3.921465862308377,-0.23259802039501465,3.9845328658900954
189,1791273851.1348073,0.09307045898437477,1.1842892578125002,-0.2789239746093751,1.2202465898815436,-0.675101625105698,-3.897068411385509,-0.23338660854396404,3.9619911302635176
190,1791273851.160501,0.2990421386718748,1.33278046875,-0.3555645996093751,1.41143762280814,-0.6835065755911737,-3.8655763951806437,-0.23547040690892862,3.932595633723865
191,1791273851.180501,0.2703019042968748,1.33278046875,-0.4130450683593751,1.4212575860286507,-0.6882136228645892,-3.8407416384549626,-0.23800204740962494,3.9091660617872566
192,1791273851.205501,0.3182022949218748,1.1890792968750001,-0.3555645996093751,1.2812448865246906,-0.6921114348575307,-3.8096260785128306,-0.24213307689288344,3.879548623650851
193,1791273851.225501,0.5289640136718747,1.0214279296875002,-0.3172442871093751,1.1932149349589485,-0.6934911861231428,-3.7851518409660834,-0.24595137591433477,3.8560078531706297
194,1791273851.2354834,0.9552774902343748,0.8441964843750001,-0.4896856933593751,1.3656554711421354,-0.692965329752421,-3.7733718931176132,-0.24817541909398108,3.844493130524667
195,1791273851.2554834,0.9504874511718748,0.6909152343750001,-0.4992657714843751,1.2767366864403,-0.6892111492431953,-3.751007922248506,-0.2534464006634623,3.822212385389049
196,1791273851.3097281,0.8115763183593748,0.5903244140625,-0.5232159667968751,1.1317658690167238,-0.6733875411004732,-3.694237386362909,-0.26975796503037885,3.764785519389933
197,1791273851.3297281,0.9696476074218748,0.52805390625,-0.6573370605468751,1.2849705917464633,-0.6657566831783492,-3.6747682725355095,-0.27664074003958755,3.7448209459305124
198,1791273851.3553326,1.5013419433593749,0.13527070312500003,-0.8345685058593751,1.723029420812769,-0.6527077154395594,-3.6523083377688805,-0.2869954794552481,3.7212565030051556
199,1791273851.3753326,1.3480606933593748,-0.0994412109375,-0.6525470214843752,1.500990940232953,-0.6397698120391659,-3.637342420771164,-0.2961011333461893,3.705029173907671
200,1791273851.3553326,0.9792276855468748,-0.12339140625,-0.3411944824218751,1.044282516425978,-0.6397698120391659,-3.637342420771164,-0.2961011333461893,3.705029173907671
201,1791273851.3753326,1.0893985839843747,0.07779023437500002,-0.2645538574218751,1.1237567970108444,-0.6243519505340037,-3.6268820587488575,-0.30485560913478565,3.6928343814245053
202,1791273851.4004316,1.5971427246093748,-0.5497048828125,-0.5040558105468751,1.7627003719029017,-0.6028483403452981,-3.616612229428252,-0.31564094986929314,3.6800732803493816
203,1791273851.4204316,1.731263818359375,-0.65987578125,-0.5040558105468751,1.9200996629307157,-0.5832909934528909,-3.6114706777358503,-0.3244582010081603,3.672631476665002
204,1791273851.4446118,1.5061319824218748,-0.6838259765625,-0.4561554199218751,1.715846520473147,-0.5573216627278202,-3.6086237397663417,-0.3352606785268258,3.6667659392872607
205,1791273851.4646118,1.6258829589843748,-0.640715625,-0.5854864746093751,1.8430426800227502,-0.534365785956796,-3.6086089972835107,-0.344417871977667,3.664181949496279
206,1791273851.4749293,2.0042960449218747,-0.7029861328125,-0.7962481933593751,2.2683481487735104,-0.5214906100986122,-3.6096423124179644,-0.3495024830056703,3.6638261511221106
207,1791273851.4949293,2.248588037109375,-0.726936328125,-0.7387677246093751,2.4759568527548623,-0.4938971952763801,-3.613489760727362,-0.3601827869765592,3.664829372619899
208,1791273851.520551,2.2533780761718747,-0.8179470703125,-0.6812872558593751,2.492168230477481,-0.4551990529671833,-3.6206480139735393,-0.37454160883844345,3.6683210922251672
209,1791273851.540551,2.334808740234375,-1.02391875,-0.8537286621093751,2.6886044871984156,-0.42264053577662863,-3.628160315927268,-0.3863712185119094,3.673071605488435
210,1791273851.5653348,2.507250146484375,-1.2490505859375,-0.9591095214843751,2.9607974833613184,-0.3793458092146893,-3.640298103168235,-0.4022012024824285,3.682042820253087
211,1791273851.5853348,2.684481591796875,-1.407121875,-1.189031396484375,3.2557992950465144,-0.34186107117098474,-3.6526080293610628,-0.41628167025530965,3.6921138710941226
212,1791273851.5950375,2.775492333984375,-1.3448513671875,-1.3518927246093753,3.3674317861961036,-0.32243047017702103,-3.659686818876343,-0.42393698738972735,3.6982416889155445
213,1791273851.6150374,2.8760831542968748,-1.34964140625,-1.4476935058593752,3.4913038714500555,-0.2799089316762672,-3.6761312383938836,-0.44154917586129344,3.7131193849149646
214,1791273851.6397514,3.014994287109375,-1.5077126953125,-1.5291241699218752,3.70156843107728,-0.22432721271477035,-3.6986998110530487,-0.465565741274326,3.734629091368586
215,1791273851.6597514,3.010204248046875,-1.627463671875,-1.6297149902343753,3.7902425473347927,-0.17705649538972978,-3.7189267872254836,-0.48682424058351625,3.754831992582713
216,1791273851.6855652,2.785072412109375,-1.5556130859375001,-1.347102685546875,3.462837862106791,-0.11397647772894118,-3.747280118640193,-0.5159099188934027,3.784344324905459
217,1791273851.7055652,2.823392724609375,-1.5220828125,-1.308782373046875,3.4642739304915353,-0.06402172408447404,-3.7705690673655514,-0.5390484473499142,3.809443935998931
218,1791273851.714673,2.8090226074218747,-1.7520046875,-1.5099640136718753,3.6386975357417715,-0.040837654612447614,-3.7818203119913663,-0.5499304291916367,3.821813190512537
219,1791273851.734673,2.545570458984375,-1.9388162109375,-1.6297149902343753,3.5909480935879032,0.010467859535172722,-3.8083572610947556,-0.5749514282316336,3.851527456612765
220,1791273851.7753878,2.411449365234375,-1.9675564453125,-1.2513019042968752,3.3544184089461795,0.11438258255773726,-3.866204738768121,-0.6270447070143952,3.918393487369591
221,1791273851.7953877,2.5695206542968747,-2.0106667968750003,-1.0597003417968751,3.430478417847608,0.16524245868182127,-3.8963256340545316,-0.6522621719214171,3.9539985404222526
222,1791273851.8049386,2.751542138671875,-1.9675564453125,-1.0549103027343751,3.5433174079092726,0.18969851556519907,-3.911401644854346,-0.6640129065283871,3.9718964606612293
223,1791273851.8249385,2.7563321777343748,-1.742424609375,-1.0165899902343751,3.4156794055669613,0.2414909282513517,-3.9438011877701675,-0.6880358984004074,4.01064571790787
224,1791273851.8346536,2.8090226074218747,-1.2394705078125001,-1.0788604980468752,3.2543563300582368,0.2669306552390035,-3.959351378601301,-0.6994815930870157,4.029514835933217
225,1791273851.8546536,2.9287735839843747,-1.033498828125,-1.4476935058593752,3.426609260024819,0.3200531800678408,-3.9899714117590035,-0.7232997289307728,4.067612125387203
226,1791273851.8802364,2.943143701171875,-1.1388796875,-1.620134912109375,3.5473904383058024,0.38907819004309163,-4.027431806627956,-0.755082735474373,4.116034345388433
227,1791273851.9002364,2.909613427734375,-1.54124296875,-1.4333233886718753,3.59105780015963,0.44372502895155563,-4.056344740700776,-0.7807829992072831,4.154569369811994
228,1791273851.92488,2.746752099609375,-1.57956328125,-1.232141748046875,3.399682418029923,0.5114142686008917,-4.092394997562031,-0.8126268494499955,4.203522780555179
229,1791273851.94488,2.741962060546875,-1.512502734375,-1.347102685546875,3.4089156792707445,0.5663415322704146,-4.121901711203899,-0.8384626177660597,4.244270963238698
