imu_index,t_imu,ax,ay,az,mag,vx,vy,vz,velocity
0,1790943179.486342,-0.17071699218749994,0.02184257812500001,0.017483642578125437,0.17299441435634066,0.0,0.0,0.0,0.0
1,1790943179.506342,-0.09886640624999994,-0.02126777343749999,-0.03520678710937457,0.10708128842306522,-0.0006220386694724436,2.87114667592105e-05,-4.293068415570781e-06,0.0006227157337653626
2,1790943179.5309083,-0.09407636718749994,-0.0883283203125,0.06538403320312544,0.14466280389351066,-0.0016269861375013796,-0.00014324036074085732,4.68256520777158e-05,0.001633950529930246
3,1790943179.5509083,-0.13239667968749994,-0.00689765624999999,0.003113525390625436,0.13261279159408298,-0.002662120124062416,-0.0004050700408987763,0.00018494610212751875,0.0026991054728676303
4,1790943179.560448,-0.18508710937499995,-0.05479804687499999,0.14202465820312543,0.23964779893798835,-0.003308948412330699,-0.0005553660255320593,0.0003447868303282746,0.0033728991944837233
5,1790943179.580448,-0.17071699218749994,-0.073958203125,0.15160473632812543,0.23999604852610826,-0.004995329805998062,-0.0010163341067252881,0.001070073534849386,0.005208772624829269
6,1790943179.60588,-0.17071699218749994,-0.1362287109375,-0.0016765136718745644,0.2184155759174053,-0.007469335603660667,-0.001915490945164833,0.002139985382401352,0.008002475701807085
7,1790943179.62588,-0.12760664062499993,-0.16017890625,-0.12621752929687458,0.24056517088068166,-0.009570559097965385,-0.002961139445449807,0.0026633224465024107,0.010366158146444149
8,1790943179.6511028,-0.08928632812499994,-0.150598828125,-0.011256591796874564,0.17543878214793304,-0.012233304003244006,-0.004669943170758659,0.0029642626625017805,0.013425682447689706
9,1790943179.6711028,-0.027015820312499935,-0.03084785156249999,0.05580395507812544,0.06924973570737118,-0.014202429305592408,-0.006093835205626923,0.0032339153352761887,0.015789301253995462
10,1790943179.6956148,-0.06533613281249993,-0.05000800781249999,0.06538403320312544,0.10509368627170283,-0.016423571828033175,-0.0077258392962136855,0.0037376220488028293,0.018530842479530754
11,1790943179.7156148,-0.16592695312499994,-0.02126777343749999,0.07496411132812544,0.18331309267902918,-0.01831090778500207,-0.008964605983707859,0.004297482658611493,0.020835591221634357
12,1790943179.7559493,-0.09407636718749994,-0.03563789062499999,0.017483642578125437,0.10210827522388388,-0.02233274195387907,-0.011260264508472496,0.005536867140436534,0.025616436475633404
13,1790943179.7759492,0.044834765625000064,-0.10748847656249999,-0.06394702148437456,0.13286515855971745,-0.024101708431943536,-0.012442517438710488,0.005989542202950349,0.027777386582469494
14,1790943179.7709737,-0.027015820312499935,-0.12185859375,-0.08789721679687457,0.1526607092166206,-0.024101708431943536,-0.012442517438710488,0.005989542202950349,0.027777386582469494
15,1790943179.7909737,-0.08928632812499994,-0.1745490234375,-0.049576904296874565,0.2022307578304832,-0.025531520635023043,-0.014033723418351554,0.005916787731458358,0.029728981078713957
16,1790943179.8158052,-0.041385937499999935,-0.16017890625,0.017483642578125437,0.16636031854982675,-0.02728381978369387,-0.016336374193501577,0.005780237574260939,0.03232174330375896
17,1790943179.8358052,-0.022225781249999937,-0.09790839843749999,0.05580395507812544,0.1148656660587947,-0.028578883567329447,-0.018299928804970885,0.00579668489058551,0.03442733704402242
18,1790943179.846031,-0.017435742187499936,-0.150598828125,0.09412426757812543,0.17844716272715241,-0.029172130527549786,-0.01934386969936159,0.005918817720776303,0.0354997309521362
19,1790943179.866031,-0.046175976562499936,-0.10748847656249999,0.12765454101562546,0.1731521736714202,-0.030253799992511182,-0.02146651490568118,0.006454527104038084,0.03765321495330066
20,1790943179.8912055,0.011304492187500065,-0.10269843749999999,0.11328442382812544,0.1533235836087489,-0.031476942969527126,-0.024134433436431606,0.0074826104822575635,0.0403640715938519
21,1790943179.9112055,-0.017435742187499936,-0.12185859375,0.07017407226562544,0.14169658568468657,-0.032312107124367585,-0.026272867883497215,0.008452044880575065,0.04249438687995817
22,1790943179.935333,-0.12760664062499993,-0.0787482421875,0.05101391601562544,0.15838926733358016,-0.033430963410363536,-0.0288286695981099,0.009665418440145868,0.04519006327684399
23,1790943179.955333,-0.14197675781249994,-0.09311835937499999,0.11328442382812544,0.204112197807263,-0.034623673085973736,-0.030887261614496894,0.010766796605367137,0.04763135078021723
24,1790943179.9653459,-0.11802656249999995,-0.064378125,0.07975415039062544,0.15631870309918938,-0.035326480676681225,-0.03188156395213217,0.01138045015767694,0.04892758938293603
25,1790943179.9853458,-0.14197675781249994,-0.11706855468749999,0.05101391601562544,0.19095775942029358,-0.03690972194309198,-0.033841874270014144,0.01261847174200006,0.05164131928143843
26,1790943180.010373,-0.22340742187499996,-0.1553888671875,0.041433837890625436,0.2752695753565863,-0.03927959545217372,-0.03643839335908494,0.01410883468741896,0.05540489460070065
27,1790943180.030373,-0.28088789062499997,-0.064378125,0.03185375976562544,0.2899262183547458,-0.0416457938993235,-0.03853175061925689,0.015231107347558073,0.05874567717136616
28,1790943180.0559452,-0.16592695312499994,-0.064378125,0.027063720703125436,0.18002428094609443,-0.04507435892575619,-0.04105378207397069,0.016563806703426352,0.0631780859764954
29,1790943180.0759451,-0.08449628906249994,-0.073958203125,0.027063720703125436,0.11550707187488171,-0.04772926019135338,-0.042937901050931516,0.017530959501014156,0.06655133481831672
30,1790943180.0850837,-0.13239667968749994,-0.05000800781249999,0.03185375976562544,0.14506668690245772,-0.048909054913112704,-0.043754640063752126,0.017946973842272843,0.06803424174412179
31,1790943180.1050837,-0.20424726562499995,-0.05000800781249999,0.05101391601562544,0.21637968016408943,-0.05160872478533095,-0.045423996673180256,0.018845162849616594,0.07128772762938718
32,1790943180.1307755,-0.13239667968749994,-0.05479804687499999,0.06059399414062544,0.1555742229918032,-0.055205168022067444,-0.047448716487675666,0.02004095088143811,0.07550252303668227
33,1790943180.1507754,-0.05096601562499994,-0.05479804687499999,0.08454418945312545,0.11290739860739155,-0.0578599439063478,-0.048952848214123254,0.02104989945675404,0.0786590918092763
34,1790943180.1759086,-0.046175976562499936,-0.150598828125,0.017483642578125437,0.15848629468166475,-0.06087877830241465,-0.05094667033048138,0.022319938057827088,0.08246192151691921
35,1790943180.1959085,-0.17550703124999995,-0.11706855468749999,-0.0016765136718745644,0.21097529526676959,-0.0632532339953266,-0.05269678696003305,0.023202699436020602,0.08553530398552964
36,1790943180.2059712,-0.18508710937499995,-0.169758984375,0.003113525390625436,0.25116736426769853,-0.06454084656603354,-0.05366171980281718,0.023581310031435467,0.08718474195898628
37,1790943180.2259712,-0.15155683593749994,-0.1937091796875,0.027063720703125436,0.24743719565353797,-0.06722111333139608,-0.055837085557357745,0.024266203141346105,0.0906934772513942
38,1790943180.2504423,-0.022225781249999937,-0.1649689453125,0.007903564453125437,0.1666469459688841,-0.07032759356651216,-0.058757802414433874,0.02504268238650636,0.09500308259494326
39,1790943180.2704422,-0.027015820312499935,-0.14101875,0.13244458007812543,0.19533998359473354,-0.07255952126199541,-0.06124579945058508,0.025792622920500323,0.0983930458580807
40,1790943180.2954547,-0.041385937499999935,-0.0691681640625,0.10370434570312544,0.13134543029829462,-0.07506044914872202,-0.06428491725201657,0.02703283418905094,0.10245679936831535
41,1790943180.3154547,-0.07491621093749994,0.026632617187500013,0.012693603515625436,0.08051622525739645,-0.07693468212303223,-0.06641428642995684,0.02805035257541051,0.10543540693228817
42,1790943180.3255024,-0.017435742187499936,-0.11227851562499999,0.03185375976562544,0.11800479730836586,-0.0778046235575289,-0.0673881242808446,0.02851842975591092,0.10680833102694828
43,1790943180.3455024,0.06399492187500007,-0.2416095703125,0.07975415039062544,0.26235712110958365,-0.07920666680648064,-0.06956662355093972,0.0294777963296506,0.10946301501111398
44,1790943180.3706548,0.07836503906250007,-0.23681953125,0.036643798828125435,0.25212563876229055,-0.0804368703139209,-0.07279792015659477,0.030722916912611767,0.11275426780678291
45,1790943180.3906548,-0.022225781249999937,-0.05958808593749999,0.09412426757812543,0.11359622830440405,-0.08118412897778274,-0.07542649340375886,0.03176061841840444,0.11527686492695763
46,1790943180.4160988,-0.07970624999999994,-0.09790839843749999,0.07975415039062544,0.14933139414801308,-0.08218671095710425,-0.07856951070785521,0.033214572708713856,0.11845265430137399
47,1790943180.4360988,-0.06054609374999994,-0.1793390625,0.017483642578125437,0.19008946989394843,-0.0830669468726379,-0.08108533349980453,0.03433186336848775,0.12105216154149698
48,1790943180.4607043,-0.12760664062499993,-0.150598828125,-0.020836669921874565,0.19848835879631413,-0.08433466021340016,-0.08432508998047383,0.035494065911702725,0.12443023920441913
49,1790943180.4807043,-0.18987714843749995,-0.11227851562499999,0.022273681640625438,0.22171132912762417,-0.08568675039934945,-0.08695775799659708,0.03629918882312561,0.127363660354954
50,1790943180.490275,-0.19466718749999995,-0.073958203125,0.05101391601562544,0.21440044152447116,-0.08651273816400157,-0.0881622776593471,0.036679278697872596,0.12885034168566692
51,1790943180.510275,-0.11323652343749994,-0.05958808593749999,0.003113525390625436,0.1279958759736595,-0.08844177201003588,-0.09050215113350495,0.037435612683953866,0.1319621593226253
52,1790943180.535255,-0.036595898437499934,-0.073958203125,-0.030416748046874567,0.08794460844004945,-0.09077045014648404,-0.09323648661491521,0.03818742489117994,0.13561193338312125
53,1790943180.555255,-0.10365644531249994,-0.03084785156249999,0.007903564453125437,0.1084376084756116,-0.09256559157094041,-0.09525452548827035,0.03866529487725062,0.1383358897640755
54,1790943180.5808296,-0.13718671874999994,-0.01647773437499999,0.022273681640625438,0.13995652333975922,-0.09497873745461415,-0.09753875788644757,0.039242586780980575,0.14168539259841276
55,1790943180.6008296,-0.08928632812499994,-0.02605781249999999,0.007903564453125437,0.09334626030749715,-0.0969225111214542,-0.09912093429643706,0.03967158962396434,0.14419697570053
56,1790943180.6110222,-0.05096601562499994,-0.011687695312499989,0.012693603515625436,0.053807662471226814,-0.09787174473815613,-0.09983516748369504,0.03987317366053124,0.1453815980870726
57,1790943180.6310222,-0.06054609374999994,-0.03563789062499999,0.036643798828125435,0.07923797517061734,-0.09962221078473477,-0.10109740372768378,0.04028339561164026,0.1475398992954798
58,1790943180.6559453,-0.022225781249999937,-0.073958203125,0.041433837890625436,0.08763882749100559,-0.10163108053063202,-0.10263926543287838,0.0408638610750821,0.1501117932755061
59,1790943180.6759453,-0.012645703124999935,-0.09311835937499999,0.022273681640625438,0.09657670295700312,-0.10305363346594333,-0.10394158061017485,0.041355356514800004,0.15209920796223983
60,1790943180.700248,-0.06054609374999994,-0.05000800781249999,0.017483642578125437,0.08045065612882521,-0.10465634790667902,-0.10554757550958453,0.041935471589489084,0.15444036269883638
61,1790943180.720248,-0.07491621093749994,-0.00689765624999999,0.012693603515625436,0.07629642123446582,-0.10598065511771149,-0.10675634258400252,0.042386533410693594,0.15628638506174508
62,1790943180.7306817,-0.09886640624999994,-0.03563789062499999,-0.0016765136718745644,0.10510678489555976,-0.10670388406896336,-0.1073256332075247,0.04259516961274805,0.15722232313872503
63,1790943180.7506816,-0.09886640624999994,-0.02605781249999999,0.07017407226562544,0.12400796867708302,-0.108178867590431,-0.10834574365576795,0.04303785479462711,0.15904000913855856
64,1790943180.7759972,-0.10844648437499994,0.012262500000000011,0.06059399414062544,0.12483044903172165,-0.11015943580287152,-0.10946948412972796,0.04376242919593825,0.16134999058309624
65,1790943180.7959971,-0.08928632812499994,-0.04042792968749999,0.036643798828125435,0.10463858696207019,-0.11178603401649076,-0.11026635103948729,0.04439485491586175,0.16317379910910906
66,1790943180.8203328,-0.07012617187499993,-0.04521796874999999,0.012693603515625436,0.08440066498511671,-0.11375932272947999,-0.11124684102873199,0.045138999905461566,0.16539217774492
67,1790943180.8403327,-0.10365644531249994,-0.00689765624999999,0.04622387695312544,0.11370524665618617,-0.11539846435966791,-0.11200994915034909,0.04574720875252451,0.16720000416830255
68,1790943180.8507354,-0.07491621093749994,-0.002107617187499989,0.08933422851562545,0.11660825483610934,-0.11626247486830524,-0.11235435608478275,0.04612186914375197,0.16812998306977506
69,1790943180.8707354,-0.11802656249999995,0.10327324218750002,0.09891430664062544,0.1854175613734581,-0.11796384849985146,-0.11276543512255269,0.04701650898884048,0.16982951754265882
70,1790943180.8959713,-0.15634687499999994,0.1320134765625,0.07017407226562544,0.21632453336301125,-0.12030792101345059,-0.11276100298990759,0.04829606604235573,0.17181836237444528
71,1790943180.9159713,-0.16113691406249994,0.10327324218750002,0.10370434570312544,0.21768109459302357,-0.12236321449086458,-0.11240508757283876,0.049418848186155266,0.17334901940547903
72,1790943180.940881,-0.15634687499999994,0.11764335937500002,0.13244458007812543,0.23627499258146636,-0.12513221398885346,-0.1116155694263653,0.05104867857969332,0.17527713456368696
73,1790943180.960881,-0.12760664062499993,0.136803515625,0.09412426757812543,0.20942309893150768,-0.12744788483853892,-0.11069508219065023,0.05250083121919293,0.17678433711649477
74,1790943180.970382,-0.09407636718749994,0.08890312500000001,0.022273681640625438,0.13134018955289686,-0.12854089976368407,-0.11016256418444524,0.053170141009391936,0.17744187035395034
75,1790943180.990382,-0.13718671874999994,0.041002734375000016,0.017483642578125437,0.1442466560632101,-0.13084351181607243,-0.1090148778610581,0.05442736446460682,0.17879207527736582
76,1790943181.015259,-0.18508710937499995,0.05058281250000001,0.07975415039062544,0.20778975788458354,-0.13387930170130613,-0.10763057751976876,0.05593802169556783,0.18065733008234713
77,1790943181.035259,-0.17071699218749994,0.09369316406250001,0.08454418945312545,0.2122979519069259,-0.13648754329151405,-0.10646818893176267,0.0572167909844959,0.1823131533892328
78,1790943181.060919,-0.08449628906249994,0.11285332031250002,0.007903564453125437,0.14120184524981955,-0.13982312676907388,-0.10480304367346088,0.058789272193234425,0.18436475603463928
79,1790943181.080919,-0.08928632812499994,0.060162890625000014,-0.020836669921874565,0.10966215669880847,-0.14229365161845337,-0.10344034733329083,0.059811654138602816,0.18580856470610138
80,1790943181.1051886,-0.08928632812499994,0.05058281250000001,-0.0016765136718745644,0.10263274335487332,-0.14516693592086669,-0.10183320167617368,0.0608252194337296,0.18746505692377619
81,1790943181.1251886,-0.07012617187499993,0.04579277343750001,-0.03520678710937457,0.09085249550510466,-0.147418688566088,-0.10056288969253613,0.06147986120914091,0.18874569625862642
82,1790943181.1352532,-0.07491621093749994,0.036212695312500015,-0.025626708984374566,0.08706621719356923,-0.1484913512655119,-0.09995761740752684,0.06171396173352601,0.18934048629729003
83,1790943181.1552532,-0.05575605468749994,0.02184257812500001,-0.030416748046874567,0.06716408575428731,-0.15049917962491752,-0.09884817729929825,0.062025312677334646,0.1904418668147522
84,1790943181.1808848,-0.09407636718749994,0.10327324218750002,0.012693603515625436,0.1402742064148903,-0.15297443522352122,-0.0973990926897332,0.062330411318414096,0.19176246051785323
85,1790943181.2008848,-0.05575605468749994,0.060162890625000014,0.027063720703125436,0.08637566799144293,-0.15484087578737143,-0.09619284572735078,0.0625924013170435,0.19273445225584326
86,1790943181.2259762,-0.017435742187499936,0.10327324218750002,-0.016046630859374564,0.10595688755094701,-0.1569689581431472,-0.09459895771793565,0.06289251633860439,0.19376192926699118
87,1790943181.2459762,-0.07012617187499993,0.136803515625,0.012693603515625436,0.15425306946512782,-0.1585421236483836,-0.0931589486237199,0.06309082135254977,0.19440845253886363
88,1790943181.25604,-0.07491621093749994,0.06974296875000001,0.04622387695312544,0.11230835744446245,-0.15932446781837037,-0.09238713475369967,0.06322010991198243,0.19472147033875933
89,1790943181.27604,-0.03180585937499994,0.01705253906250001,0.017483642578125437,0.04010086703376874,-0.16080609171042912,-0.09095318852914093,0.06353406618867835,0.19536545037766465
90,1790943181.3001487,-0.046175976562499936,0.026632617187500013,0.007903564453125437,0.0538886206988189,-0.16246519375382076,-0.08940495140146638,0.06390165545078544,0.19614180096531178
91,1790943181.3201487,-0.05096601562499994,0.026632617187500013,0.017483642578125437,0.060104149646620066,-0.16378080661115121,-0.08823332895775628,0.06419893829302409,0.19680136338734663
92,1790943181.3452122,-0.041385937499999935,0.041002734375000016,0.012693603515625436,0.05962505865148149,-0.16535579778136303,-0.08685817780044634,0.06457233018166848,0.19762709514592222
93,1790943181.3652122,-0.07491621093749994,0.060162890625000014,0.003113525390625436,0.0961337927575198,-0.1665985297550094,-0.08577369730108236,0.06484930365800898,0.19828673543673345
94,1790943181.3751864,-0.10365644531249994,0.04579277343750001,0.007903564453125437,0.11359622830440369,-0.16725891537626253,-0.08523471783006961,0.06497495581506017,0.198651067904465
95,1790943181.3951864,-0.08449628906249994,0.031422656250000014,0.012693603515625436,0.09103918805300885,-0.16866669797921593,-0.08420026429236094,0.06522001165035954,0.19947879444639852
96,1790943181.4207962,-0.007855664062499936,0.036212695312500015,0.007903564453125437,0.037888482296385556,-0.17037633232140098,-0.08294444068318395,0.06552629560355193,0.20050329241950804
97,1790943181.4407961,-0.027015820312499935,0.041002734375000016,0.017483642578125437,0.052122514628361254,-0.17156351105665368,-0.08199498997711373,0.06576769058290124,0.20120289717606393
98,1790943181.4958851,-0.08449628906249994,0.060162890625000014,0.03185375976562544,0.1085074111980165,-0.17480376611604506,-0.07935407219997605,0.06653671103100724,0.20317617807680052
99,1790943181.515885,-0.07012617187499993,0.041002734375000016,0.041433837890625436,0.09119027980226548,-0.17603561402634385,-0.0783873597231947,0.06688395532322997,0.2039769081285557
100,1790943181.4958851,-0.036595898437499934,0.007472460937500011,0.027063720703125436,0.04612529060295505,-0.17603561402634385,-0.0783873597231947,0.06688395532322997,0.2039769081285557
101,1790943181.515885,-0.08449628906249994,0.04579277343750001,0.036643798828125435,0.10285605940822291,-0.17724333275944235,-0.07754720636827345,0.0673177348164419,0.20484248984040102
102,1790943181.5404027,-0.06054609374999994,-0.002107617187499989,0.017483642578125437,0.06305512886667085,-0.17876847732735895,-0.07659144076739391,0.06786926179765616,0.20598702381879896
103,1790943181.5604026,-0.017435742187499936,-0.0787482421875,0.003113525390625436,0.08071545572942142,-0.1799429556160988,-0.07605001512076011,0.06828257562596796,0.2069434275589374
104,1790943181.5855525,-0.05096601562499994,-0.09790839843749999,0.022273681640625438,0.11260420119654471,-0.18132734032470657,-0.07580451855441368,0.06877224002371905,0.20821995672936452
105,1790943181.6055524,-0.10365644531249994,-0.02126777343749999,0.003113525390625436,0.10586156470679144,-0.18249504651657703,-0.07581733961404431,0.06914130869700016,0.20936387357319508
106,1790943181.6153965,-0.08928632812499994,0.002682421875000011,0.027063720703125436,0.0933364278053184,-0.1831260340195616,-0.07583642525640048,0.06931799712739362,0.20997926673163853
107,1790943181.6353965,-0.027015820312499935,-0.09311835937499999,0.03185375976562544,0.10205657945990111,-0.18439015660099967,-0.07600503854950758,0.06971150133233618,0.21127278375186337
108,1790943181.6606836,-0.046175976562499936,-0.12185859375,0.04622387695312544,0.13826924633773685,-0.18588752630849525,-0.07659395969744744,0.07028247932805962,0.2129798910689102
109,1790943181.6806836,-0.08449628906249994,-0.073958203125,0.06538403320312544,0.12994041123807373,-0.18709018253711276,-0.07728360307074807,0.07083374671358769,0.2144595798253177
110,1790943181.7053604,-0.06533613281249993,-0.04042792968749999,0.07975415039062544,0.11074273002884015,-0.18862879013596437,-0.07821857817387963,0.07168051259018919,0.2164187199040168
111,1790943181.7253604,-0.036595898437499934,-0.09790839843749999,0.07017407226562544,0.1258956499859518,-0.18984164331790476,-0.07907019198563499,0.07248874640334703,0.2180517442109017
112,1790943181.7507894,-0.027015820312499935,-0.1458087890625,0.036643798828125435,0.15275086090620252,-0.19127373368431708,-0.08045537148028478,0.07356595259933578,0.22016052638794584
113,1790943181.7707894,-0.05575605468749994,-0.12185859375,0.007903564453125437,0.1342412784359108,-0.19235528266642143,-0.08178290226831382,0.07435291516629966,0.22184984531622826
114,1790943181.795494,-0.06533613281249993,-0.14101875,-0.011256591796874564,0.15582621397356927,-0.19371522150598633,-0.08366381676028249,0.07517297426530081,0.22400044048595763
115,1790943181.815494,-0.08928632812499994,-0.188919140625,0.027063720703125436,0.2107010561502492,-0.19488296650759607,-0.08545303241223058,0.0757609902848931,0.2258789920116393
116,1790943181.825537,-0.09886640624999994,-0.150598828125,0.06059399414062544,0.19006894918246764,-0.1955231080020636,-0.08647244344516766,0.076077994940924,0.22692428374326887
117,1790943181.845537,-0.05096601562499994,-0.0787482421875,0.04622387695312544,0.10457278420739582,-0.19683144669174882,-0.08854205702840985,0.07677482664875558,0.22907790874838938
118,1790943181.8711247,-0.012645703124999935,-0.10748847656249999,0.017483642578125437,0.10963286076287704,-0.19837631829350752,-0.0911501294631718,0.07765487900993427,0.23171488945444899
119,1790943181.8911247,-0.012645703124999935,-0.150598828125,-0.011256591796874564,0.15154745692036667,-0.199440634934059,-0.09327000745485323,0.07824890749604475,0.23366375987271443
120,1790943181.9011743,-0.05575605468749994,-0.150598828125,-0.006466552734374565,0.16071888803499487,-0.1999467683618584,-0.09440244178352175,0.07848926332635366,0.23462969899515185
121,1790943181.9211743,-0.11323652343749994,-0.11706855468749999,0.05101391601562544,0.17067506075604877,-0.20105643791813738,-0.09671958096931112,0.07896267290103769,0.23667165500516793
122,1790943181.945899,-0.08449628906249994,-0.073958203125,0.07496411132812544,0.13501502383819325,-0.20258914721580656,-0.0995086659858332,0.0796937403559259,0.23936463696174
123,1790943181.965899,-0.06054609374999994,-0.05958808593749999,0.007903564453125437,0.08531726545748741,-0.2038605559324594,-0.10162667717405514,0.08032070200044604,0.24153368905470615
124,1790943181.9910467,-0.07970624999999994,-0.12185859375,-0.006466552734374565,0.14575465503391813,-0.20548393521095504,-0.10423258156760587,0.08099349466767247,0.24422945127176998
125,1790943182.0110466,-0.12281660156249995,-0.09311835937499999,0.027063720703125436,0.15648447670727691,-0.20688513356411273,-0.10631665406923096,0.08147920236652101,0.2464620657233112
126,1790943182.0210946,-0.041385937499999935,-0.05000800781249999,0.022273681640625438,0.06862735287009762,-0.20760723863165886,-0.10731448858967076,0.08172379771882493,0.24758017712876879
127,1790943182.0410945,-0.012645703124999935,-0.05479804687499999,0.027063720703125436,0.06241141503873398,-0.20891000986310504,-0.1091599258483316,0.08221163269217813,0.24963580308547392
128,1790943182.0660517,-0.03180585937499994,-0.150598828125,0.007903564453125437,0.15412360641469,-0.210375038690958,-0.11150180589414259,0.08279452142112975,0.2520818168754562
129,1790943182.0860517,-0.11802656249999995,-0.1266486328125,0.04622387695312544,0.17918368354685513,-0.21159771501229066,-0.11351288587420143,0.08327275652011316,0.2541517661484376
130,1790943182.1116357,-0.07012617187499993,-0.1362287109375,0.04622387695312544,0.16003933412168597,-0.21328818300612093,-0.11620398264652486,0.08397013987613394,0.25699455049433223
131,1790943182.1316357,-0.012645703124999935,-0.1362287109375,-0.0016765136718745644,0.13682465490294704,-0.21453561884992434,-0.11840084196881595,0.08450035649016585,0.25919992550386595
132,1790943182.1408854,-0.06533613281249993,-0.150598828125,-0.020836669921874565,0.16547804717529477,-0.21508009901919536,-0.11946343378410429,0.0846931730535694,0.2601997205368941
133,1790943182.1608853,-0.12760664062499993,-0.1793390625,0.003113525390625436,0.22012643664570336,-0.2163702120464922,-0.12191127577195829,0.08502096558405628,0.2625014141109258
134,1790943182.1852527,-0.10365644531249994,-0.1266486328125,0.06059399414062544,0.17451695325673347,-0.21812891421260713,-0.12500549961179558,0.08547686033756656,0.26554263650482457
135,1790943182.2052526,-0.007855664062499936,-0.09790839843749999,0.08933422851562545,0.13277187325236128,-0.21952314903274175,-0.12750103461312604,0.08601980957029182,0.268041665468595
136,1790943182.231026,-0.0030656249999999347,-0.073958203125,0.07017407226562544,0.10199810922002724,-0.2210714568941515,-0.13056677568395858,0.08692286654432348,0.2710643036146407
137,1790943182.251026,-0.07012617187499993,-0.05000800781249999,0.04622387695312544,0.09775033313393246,-0.22220250377258466,-0.13277487856950462,0.08769311701183141,0.2733005741545432
138,1790943182.2605786,0.006514453125000066,-0.11227851562499999,-0.006466552734374565,0.11265309349830406,-0.22270727333417062,-0.13378761897276725,0.08803431595378669,0.274313137439304
139,1790943182.2805786,-0.0030656249999999347,-0.11227851562499999,0.003113525390625436,0.11236350460871208,-0.22360038633064322,-0.13592672365327085,0.08863648292037869,0.27627818059850495
140,1790943182.3051393,-0.10844648437499994,-0.09311835937499999,0.07017407226562544,0.1592358918219444,-0.22473805582877035,-0.13853793764263522,0.08940004260331538,0.2787334237608486
141,1790943182.3251393,-0.13718671874999994,-0.11227851562499999,0.05101391601562544,0.18446972786772964,-0.22589395722588987,-0.14065341655885227,0.09011033164363795,0.28094721100195424
142,1790943182.350754,-0.07012617187499993,-0.16017890625,-0.0016765136718745644,0.1748650127595006,-0.22755057309552223,-0.1434798043399788,0.09097835412045646,0.2839767217361423
143,1790943182.370754,-0.036595898437499934,-0.2032892578125,-0.0016765136718745644,0.2065637742260169,-0.2288101184912106,-0.14590082246469419,0.09154941354386766,0.2863955576472201
144,1790943182.3808773,-0.08449628906249994,-0.1841291015625,0.027063720703125436,0.20439078718436351,-0.22944396212355192,-0.14723658310313317,0.0918143804671224,0.2876682527137836
145,1790943182.4008772,-0.10365644531249994,-0.11706855468749999,0.06538403320312544,0.1694838545388642,-0.23079060489616693,-0.149931522688876,0.09239801105724445,0.2903121720690992
146,1790943182.4259787,-0.10844648437499994,-0.10269843749999999,0.07496411132812544,0.16711441297941387,-0.23262652530660208,-0.15322025006893736,0.09328485524960364,0.2937577395173621
147,1790943182.4459786,-0.07012617187499993,-0.10748847656249999,0.03185375976562544,0.13223507320970226,-0.23413776441618941,-0.15576282663787225,0.09404569871842641,0.2965251158594629
148,1790943182.470575,-0.0030656249999999347,-0.1745490234375,0.012693603515625436,0.17503681672676022,-0.23585255797071406,-0.15894099380977889,0.09492322465263545,0.29983176481657825
149,1790943182.490575,-0.012645703124999935,-0.227239453125,0.007903564453125437,0.22772823539284587,-0.23706131464912236,-0.16174028499047588,0.09556062761536545,0.30247284215647047
150,1790943182.5157516,-0.07491621093749994,-0.188919140625,0.022273681640625438,0.20444803068151193,-0.23852002618432855,-0.16552134294405585,0.09629963277761626,0.30588026600956175
151,1790943182.5357516,-0.09407636718749994,-0.10748847656249999,0.06059399414062544,0.1551636799732417,-0.23975848284388032,-0.16851904352488573,0.09692293376539338,0.3086694886376566
152,1790943182.5458016,-0.05575605468749994,-0.14101875,0.06059399414062544,0.163299288460765,-0.24040039906492522,-0.16998675845220404,0.09728050897644712,0.3100828072408721
153,1790943182.5658016,-0.05096601562499994,-0.227239453125,0.022273681640625438,0.2339474742310007,-0.24164630310995716,-0.17302183031144217,0.09800965987294671,0.312946294113609
154,1790943182.5905998,-0.05575605468749994,-0.217659375,-0.054366943359374566,0.2311711610256512,-0.24315787780403594,-0.17704801134404208,0.09871843944545731,0.316570816951893
155,1790943182.6105998,-0.05575605468749994,-0.2416095703125,0.012693603515625436,0.24828421148175786,-0.24436138199099602,-0.1804969989882123,0.09914182214835875,0.3195633779881496
156,1790943182.6356893,-0.046175976562499936,-0.1266486328125,0.12765454101562546,0.18565499951977052,-0.24583649115715805,-0.18486762742493368,0.09985737206718735,0.323393127339392
157,1790943182.6556892,-0.017435742187499936,-0.03084785156249999,0.10370434570312544,0.10959099584073662,-0.24693140363526547,-0.18806529426031507,0.10068924778277337,0.3263157943243968
158,1790943182.6660395,0.006514453125000066,-0.11227851562499999,0.05101391601562544,0.12349624608756525,-0.24742151713748997,-0.18958300448191479,0.10117528018911834,0.32771261808534863
159,1790943182.6860394,-0.07012617187499993,-0.11227851562499999,0.03185375976562544,0.13615728795772034,-0.24832193352032542,-0.19241263994025315,0.10209787738432205,0.3303186086832446
160,1790943182.7107506,-0.046175976562499936,-0.131438671875,0.017483642578125437,0.14040663457815694,-0.2494831193490065,-0.19583608090174817,0.10315824993575916,0.3335194476381778
161,1790943182.7307506,-0.05096601562499994,-0.169758984375,0.017483642578125437,0.17810481543888382,-0.2504276681327656,-0.19864302769162426,0.10394018241500433,0.33611996509784176
162,1790943182.7561572,-0.09886640624999994,-0.1553888671875,-0.0016765136718745644,0.184182184341202,-0.25173307934506767,-0.20229348445851986,0.10481461903583207,0.33952658431195953
163,1790943182.7761571,-0.09407636718749994,-0.1793390625,-0.016046630859374564,0.20315106832973648,-0.2528959658811872,-0.20523815804528805,0.10537313463077803,0.3423193955631455
164,1790943182.7857065,-0.06054609374999994,-0.188919140625,0.003113525390625436,0.19840858147577783,-0.2534786633700306,-0.20669699869939037,0.10559054489693358,0.34369237004452746
165,1790943182.8057065,-0.08449628906249994,-0.11706855468749999,0.07017407226562544,0.16052747359967684,-0.2547335557087954,-0.20975303523228667,0.10608751401218082,0.3466122917937094
166,1790943182.8311348,-0.08928632812499994,-0.073958203125,0.04622387695312544,0.12481390547571851,-0.2564211470201004,-0.21342001619358278,0.10684657541658797,0.3503085763001324
167,1790943182.8511348,-0.08928632812499994,-0.10269843749999999,0.003113525390625436,0.13612020972414285,-0.25781723808938845,-0.21613654618076336,0.10742804887901361,0.35316500468894335
168,1790943182.876213,-0.041385937499999935,-0.1937091796875,-0.011256591796874564,0.19840048633216487,-0.2595510097517378,-0.2195894064623202,0.10803248387205978,0.3567313438221929
169,1790943182.896213,-0.022225781249999937,-0.20807929687499999,0.017483642578125437,0.2099920400823966,-0.2608217100162091,-0.22253270086964064,0.10845155661615978,0.359597702307154
170,1790943182.905587,-0.07970624999999994,-0.10269843749999999,0.06538403320312544,0.1455167590070343,-0.2613996084823353,-0.223923773695561,0.10867677105683031,0.3609463288469876
171,1790943182.925587,-0.08449628906249994,-0.14101875,0.05101391601562544,0.17212881904011695,-0.26269395621301694,-0.22681212057090244,0.10925980405762149,0.36385375833076933
172,1790943182.9512622,-0.007855664062499936,-0.1745490234375,0.003113525390625436,0.17475344655029224,-0.26428418723572167,-0.23057156023214678,0.11000024070004158,0.36757234521220383
173,1790943182.9712622,-0.017435742187499936,-0.1649689453125,0.012693603515625436,0.16637273091874005,-0.26537503917227495,-0.23357001584444462,0.11051420513583783,0.3703947262773413
174,1790943182.9955602,-0.07970624999999994,-0.169758984375,0.06538403320312544,0.19861085283287366,-0.26667854903102445,-0.23727640318252052,0.11118724219586126,0.3738718267637288
175,1790943183.0155602,-0.07012617187499993,-0.14101875,0.05580395507812544,0.16708695112355715,-0.26781529389558045,-0.24033573122274135,0.11183991220166423,0.3768215244754762
176,1790943183.025605,-0.046175976562499936,-0.11227851562499999,0.022273681640625438,0.12342934325468091,-0.2683881934249375,-0.24183259783450362,0.11217736091391128,0.37828426883350086
177,1790943183.045605,0.011304492187500065,-0.188919140625,-0.006466552734374565,0.18936749864317326,-0.26941008386409965,-0.24481771210275038,0.11277217455573012,0.3810971907544248
178,1790943183.071179,0.0017244140625000655,-0.227239453125,0.007903564453125437,0.2273833964727256,-0.27049578111774225,-0.24886042904201194,0.11342143061596376,0.38466076179985353
179,1790943183.091179,-0.08449628906249994,-0.1553888671875,0.05101391601562544,0.1840862366892141,-0.27134164281450435,-0.25212171773494435,0.11394139179679295,0.3875232747119627
180,1790943183.1160939,-0.12281660156249995,-0.10269843749999999,0.07496411132812544,0.17677812271748689,-0.27262470506304354,-0.25605732407932114,0.11472737777508361,0.3912185504759721
181,1790943183.1360939,-0.07012617187499993,-0.10269843749999999,0.05101391601562544,0.13441379644230245,-0.2737895777065715,-0.25905076117830145,0.11545263842071754,0.39420469485548376
182,1790943183.1611388,-0.012645703124999935,-0.1793390625,0.003113525390625436,0.17981130995091107,-0.27518495594714815,-0.2627667761144103,0.11632628442833871,0.39787553714459156
183,1790943183.1811388,-0.05096601562499994,-0.1841291015625,0.003113525390625436,0.19107787635218068,-0.2762275279592046,-0.2658343336141327,0.11692863823405077,0.4008015051990108
184,1790943183.1907265,-0.10844648437499994,-0.1362287109375,0.022273681640625438,0.1755420706008049,-0.27676698632533187,-0.2673146667910452,0.1171923410903839,0.40223269460780886
185,1790943183.2107265,-0.05096601562499994,-0.1266486328125,0.036643798828125435,0.1413512608168718,-0.27796261386966603,-0.2703337485455739,0.11774828650952751,0.4052261211816045
186,1790943183.2360995,0.016094531250000065,-0.1553888671875,0.017483642578125437,0.15719545712192634,-0.27931828165333833,-0.2741260936330628,0.11845079488399336,0.40889412869952807
187,1790943183.2560995,-0.022225781249999937,-0.150598828125,0.022273681640625438,0.15385093200440508,-0.2802357805205256,-0.27712595877552043,0.11898111380075697,0.4116884685687326
188,1790943183.2806776,-0.06533613281249993,-0.1745490234375,0.05101391601562544,0.19323196283515529,-0.28135558019770884,-0.28085889153865784,0.11967016425030508,0.41516698770062144
189,1790943183.3006775,-0.05575605468749994,-0.14101875,0.041433837890625436,0.15719983590393666,-0.28231175257123803,-0.28391420842820003,0.12028543276417737,0.41806194364294963
190,1790943183.3106651,-0.027015820312499935,-0.1553888671875,0.027063720703125436,0.1600249967076037,-0.2827796239005167,-0.2854331381342517,0.12059790712286955,0.41949999671144306
191,1790943183.330665,-0.0030656249999999347,-0.1793390625,-0.006466552734374565,0.17948179211074858,-0.2836211146053082,-0.28852061535414675,0.12116066865054939,0.42233279503507787
192,1790943183.356229,-0.046175976562499936,-0.1745490234375,0.017483642578125437,0.18139807097178598,-0.2846297790424911,-0.2925535725047264,0.12179321471111594,0.42595221686560514
193,1790943183.376229,-0.07491621093749994,-0.11227851562499999,0.05101391601562544,0.14429595752977503,-0.2854821771668468,-0.29566572257364976,0.12231660293092343,0.42881189854933194
194,1790943183.4009733,-0.022225781249999937,-0.1362287109375,0.027063720703125436,0.14065806771800385,-0.2865588648918825,-0.29939974574242795,0.12301191310344625,0.4323055881712894
195,1790943183.4209733,0.030464648437500068,-0.150598828125,-0.05915698242187457,0.16464401114618699,-0.28728622016965477,-0.30239536147720736,0.12344147013746791,0.43498749808701126
196,1790943183.4311585,0.016094531250000065,-0.2511896484375,-0.030416748046874567,0.25353589879947797,-0.2875655065280148,-0.30399900665739904,0.12355898910183548,0.43632114363306596
197,1790943183.4511585,-0.09407636718749994,-0.1841291015625,0.07017407226562544,0.21835358784263653,-0.288148630461069,-0.3073285963471173,0.1238147735909391,0.4391020354412566
198,1790943183.4762309,-0.09407636718749994,-0.150598828125,0.09891430664062544,0.20325946461116218,-0.28912380006958727,-0.31150595573393663,0.12440528927704202,0.442837677060677
199,1790943183.4962308,-0.03180585937499994,-0.11227851562499999,0.04622387695312544,0.1255178256747356,-0.2899738247785334,-0.31473267762767826,0.12502338811569322,0.44583890027599304
200,1790943183.5208197,-0.017435742187499936,-0.1793390625,-0.020836669921874565,0.18138542184376621,-0.29095293216758206,-0.3186424758444381,0.12571613558113803,0.44943429207687524
201,1790943183.5408196,-0.06054609374999994,-0.227239453125,-0.011256591796874564,0.23543642323101646,-0.29174683064426554,-0.3219554616620101,0.12614694080349084,0.452420803189963
202,1790943183.566189,-0.09407636718749994,-0.188919140625,0.036643798828125435,0.21420451104083213,-0.2928970135912719,-0.3263193527462004,0.1266597397037146,0.4564161151944546
203,1790943183.586189,-0.036595898437499934,-0.150598828125,0.04622387695312544,0.16172789992963113,-0.29386375690186956,-0.32975286316784636,0.1271276665300889,0.4596240876904288
204,1790943183.5957918,0.030464648437500068,-0.1458087890625,0.017483642578125437,0.14997991708923142,-0.2942627187602716,-0.33136761857021263,0.12736451896605697,0.4611038570436553
205,1790943183.6157918,-0.017435742187499936,-0.1362287109375,0.036643798828125435,0.1421444152328118,-0.2949494647977362,-0.3346493050478957,0.12786501419273,0.46404181493483715
206,1790943183.6403675,-0.036595898437499934,-0.16017890625,0.08454418945312545,0.18478165969646465,-0.29576633947352987,-0.3386232558832525,0.12861113685018355,0.46763689066672515
207,1790943183.6603675,-0.012645703124999935,-0.1745490234375,0.041433837890625436,0.1798444836875938,-0.296405266093599,-0.3418742851305794,0.12931622604995932,0.4705919622362521
208,1790943183.671436,-0.007855664062499936,-0.169758984375,-0.011256591796874564,0.17031305027148042,-0.29672284597203163,-0.343689443844955,0.12967296218179764,0.47220965497668344
209,1790943183.691436,-0.05096601562499994,-0.1937091796875,0.036643798828125435,0.20362600284945936,-0.29729884210865354,-0.3470225064936019,0.1302589458549418,0.4751616719680668
210,1790943183.7161827,-0.07012617187499993,-0.20807929687499999,0.08454418945312545,0.23529214551302466,-0.2981293837791725,-0.3512737205782351,0.13110016956238274,0.479021513818232
211,1790943183.7361827,-0.041385937499999935,-0.1649689453125,0.13244458007812543,0.2155669629890988,-0.2988672013842472,-0.35475370999058253,0.13200354014782326,0.48228283550930207
212,1790943183.7612872,-0.027015820312499935,-0.1266486328125,0.21387524414062545,0.2500247003730729,-0.29978320039594325,-0.3590157301515392,0.13361944982215634,0.48643233764487004
213,1790943183.7812872,-0.0030656249999999347,0.036212695312500015,0.27614575195312546,0.2785268993835132,-0.3004486078985855,-0.362037488336362,0.1354487232180737,0.4895782527548643
214,1790943183.7911735,0.05920488281250007,0.08411308593750001,0.39110668945312543,0.40440656758978905,-0.3006865643753784,-0.3632179124241425,0.1367120704758171,0.49094791181489444
215,1790943183.8111734,0.2699666015625001,-0.03084785156249999,0.43421704101562547,0.5122284593944318,-0.30060198705490926,-0.36516781971252554,0.14012245097089296,0.49329848209887056
216,1790943183.851091,0.22685625000000006,-0.01647773437499999,0.09412426757812543,0.2461598091511166,-0.2989711088247466,-0.36861750964895296,0.14748989478049082,0.4970069027629844
217,1790943183.871091,-0.26172773437499997,0.002682421875000011,0.15639477539062543,0.30490642514986493,-0.29832886035574807,-0.3701073506783509,0.15100330742029439,0.4987800705713643
218,1790943183.8811333,-0.24735761718749993,0.20865410156250003,0.5874982910156255,0.6707283852840972,-0.29843818038372344,-0.37058404534823386,0.15306313171377814,0.49982617425204845
219,1790943183.9011333,-0.16113691406249994,0.4385759765625,0.4821174316406255,0.6713800787803353,-0.2992359802816185,-0.370420157490245,0.15815445715506554,0.5017629891574432
220,1790943183.9257026,-0.046175976562499936,0.002682421875000011,0.003113525390625436,0.04635849694472515,-0.30045105354965873,-0.3694359217383525,0.1643649271124065,0.5037554616224351
221,1790943183.9457026,-0.041385937499999935,-0.27034980468750003,0.10849438476562544,0.2942326362642236,-0.30142313040519125,-0.36915640953080664,0.1688294903295203,0.5056043463478802
222,1790943183.9563668,0.025674609375000067,-0.08353828125,0.38152661132812543,0.39140820782437025,-0.30187627096271824,-0.3693127718719431,0.17124489126966277,0.5067997821862722
223,1790943183.9763668,0.3561873046875001,-0.1649689453125,0.5300178222656254,0.6595476031775575,-0.30202583609026,-0.36993479166560805,0.1764626297146293,0.5091271112762508
224,1790943184.0005035,0.5861091796875001,-0.03563789062499999,0.5204377441406255,0.7846333381193644,-0.30047346178197765,-0.37093601865814857,0.1837166561558331,0.5114974495755423
225,1790943184.0205035,0.6771199218750001,0.20865410156250003,0.3432062988281255,0.7872855176199808,-0.2974852538695395,-0.3713816773620624,0.19012126658120437,0.5124138196385073
226,1790943184.0455625,0.37055742187500007,0.20386406250000003,0.23782543945312545,0.4852157237113436,-0.2923337591381043,-0.3710810109092177,0.19803423198499684,0.5122281722309987
227,1790943184.0655625,0.3657673828125001,0.20865410156250003,0.25698559570312546,0.4933192767642983,-0.28773450542828355,-0.3702582625092291,0.20414459362204102,0.5114267705894173
228,1790943184.0761123,0.4759382812500001,0.06974296875000001,0.21866528320312545,0.5283898516508154,-0.2850063694054698,-0.3696690927409407,0.20726062450644286,0.5107257925740564
229,1790943184.0961123,0.6387996093750001,-0.011687695312499989,0.15639477539062543,0.6577696169091841,-0.27893812966061166,-0.36863261826870564,0.21284440463281523,0.508919667544593
230,1790943184.120758,0.4998884765625001,-0.02605781249999999,0.09891430664062544,0.5102465469265403,-0.2704771743651435,-0.3676167355719086,0.21916504477810375,0.5062936726621092
231,1790943184.140758,0.35139726562500007,-0.370940625,0.10849438476562544,0.522348559000395,-0.2633641178289764,-0.3675115053306228,0.2238359574289673,0.5045075826470379
232,1790943184.166339,0.36097734375000007,-0.438001171875,-0.020836669921874565,0.5679646433345232,-0.25426414623107946,-0.36894910862661917,0.229082297384359,0.5032418899395126
233,1790943184.186339,0.4998884765625001,-0.44758125,-0.049576904296874565,0.6728115143122932,-0.24692538862395633,-0.3712328519506621,0.23246317499384694,0.5028171692004301
234,1790943184.1959147,0.5861091796875001,-0.3757306640625,-0.13579760742187458,0.7093225589337385,-0.24315875612443325,-0.3727535685077515,0.23370596963036613,0.5026826869468594
235,1790943184.2159147,0.6867000000000001,-0.2943,-0.19806811523437456,0.7729167861241582,-0.2345626461133072,-0.3764583397863158,0.23541150331979746,0.5021544507834544
236,1790943184.2411747,0.7489705078125001,-0.2895099609375,-0.22201831054687457,0.8331056171176829,-0.2226144190576297,-0.38154162304500144,0.23644662586156734,0.5010371209496358
237,1790943184.2611747,0.5956892578125002,-0.08353828125,-0.26991870117187455,0.6593029967698638,-0.21255626369792557,-0.38552224911371613,0.23640535945625146,0.4996949707357077
238,1790943184.2856977,0.5956892578125002,0.041002734375000016,-0.2651286621093746,0.6533147201551033,-0.1998821442067901,-0.3897492068787317,0.23537827711717815,0.4972527015250451
239,1790943184.3056977,0.9214119140625001,-0.131438671875,-0.3034489746093746,0.9789572615962685,-0.1888204712130387,-0.3928150957608036,0.23381341176001524,0.49459638224065255
240,1790943184.3157344,0.8878816406250001,-0.150598828125,-0.26033862304687455,0.9374380051190093,-0.18274004780488137,-0.3943351872850171,0.23272150927097307,0.49300452926945754
241,1790943184.3357344,0.7058601562500001,-0.2416095703125,-0.4519401855468746,0.8722750001920316,-0.17005053156920574,-0.3974982015084725,0.22980364835497247,0.4896240601591138
242,1790943184.3612545,0.6723298828125001,-0.2416095703125,-0.6100114746093745,0.9394235758934116,-0.15364955794481605,-0.40185370616889315,0.22460634033670684,0.48532730804866225
243,1790943184.3812544,0.6244294921875001,-0.2320294921875,-0.6052214355468746,0.9000238119093006,-0.14077905463305407,-0.4054655456782775,0.21932135112263137,0.48199886515822454
244,1790943184.406222,0.7393904296875001,-0.591282421875,-0.6243815917968746,1.1340923604833208,-0.12456796051578013,-0.4108398796624474,0.21141078210578412,0.47854059629115536
245,1790943184.426222,0.8878816406250001,-0.8738947265625,-0.6435417480468746,1.4022024755191083,-0.11108924735332013,-0.41669691902401723,0.20412275183788162,0.47711973446872313
246,1790943184.4361706,0.7202302734375001,-0.8547345703125,-0.6962321777343746,1.3168303147239206,-0.104190423267324,-0.4204631356519017,0.2000416354052268,0.47713891964337946
247,1790943184.4561706,0.6387996093750001,-0.7637238281250001,-0.8830437011718746,1.3308287661314209,-0.09036316939226521,-0.429326532124684,0.19069891185118673,0.4783856692565625
248,1790943184.4814825,0.6483796875000001,-0.84994453125,-0.8590935058593746,1.3714385065230343,-0.07304480375286733,-0.4419247901764636,0.1773411287406117,0.48174987231010297
249,1790943184.5014825,0.6340095703125,-1.06070625,-0.6052214355468746,1.3759937754518814,-0.05948987873750157,-0.45325199276280365,0.16617331783478803,0.4864051666829586
250,1790943184.5259585,0.6531697265625,-1.2331476562500001,-0.7393425292968746,1.5792122116548173,-0.0430267160803095,-0.4692457611036846,0.15208796920758363,0.49515011157033856
251,1790943184.5459585,0.7106501953125001,-1.223567578125,-1.0123747558593745,1.739840212386672,-0.029546402786465704,-0.4840393952508105,0.1396773349859696,0.504655212973346
252,1790943184.5709574,0.6531697265625,-1.3337384765625,-0.8638835449218746,1.7180756079834711,-0.012667134408333256,-0.5045516954808066,0.12297377203715351,0.5194760998503407
253,1790943184.5909574,0.5908992187500001,-1.4726496093750001,-0.5621110839843746,1.6833976444826664,0.0006773623268573198,-0.5227102363766502,0.10947587185649127,0.5340518856360252
254,1790943184.6010275,0.7250203125000001,-1.760051953125,-0.5142106933593746,1.9717631623503502,0.007382383935554644,-0.5329232299222545,0.10288615452852684,0.5428141757332872
255,1790943184.6210275,1.0411628906250001,-1.65467109375,-0.6722819824218746,2.067346041957058,0.02135085090714346,-0.5552865459664468,0.08998187537424165,0.5629349383913487
256,1790943184.6457815,0.8399812500000001,-1.9037531250000002,-0.2842888183593746,2.100158230596685,0.03953879373365281,-0.5854202334083938,0.07463002915174007,0.5914810285588542
257,1790943184.6657815,0.7825007812500001,-1.798372265625,0.027063720703125436,1.9614236471003283,0.0544631883384699,-0.611667898592422,0.0637012235763797,0.6173829467498994
258,1790943184.7058551,0.8687214843750001,-1.606770703125,-0.09268725585937457,1.8289286583227493,0.08484417362274074,-0.6666053455357039,0.044890802615008545,0.6734808123873468
259,1790943184.725855,0.8783015625000001,-1.84627265625,-0.4136198730468746,2.08595727551781,0.10035288717679042,-0.6950903968753332,0.036151610690199176,0.703227062013772
260,1790943184.7351732,0.9309919921875001,-2.162415234375,-0.7297624511718745,2.4648202714426706,0.10775909110711905,-0.7091725580393442,0.031891651752606595,0.718021459459123
261,1790943184.7551732,0.9262019531250001,-2.5935187500000003,-0.8255632324218746,2.8750207330210653,0.12405677199339508,-0.7419979739916147,0.02178678821335184,0.7526126096643184
262,1790943184.7663202,1.0267927734375002,-2.5408283203125004,-0.8830437011718746,2.8792148462844587,0.13341053601696884,-0.7618414296792096,0.015571179291579966,0.7735911043442315
263,1790943184.7863202,0.9597322265625001,-2.430657421875,-0.8399333496093746,2.7449352416777812,0.1506554610172095,-0.7995613004778563,0.0035074805102574963,0.8136385214428326
264,1790943184.8101523,0.9597322265625001,-2.4833478515625003,-0.8351433105468746,2.79026286355137,0.1715530957336111,-0.846549741426442,-0.011705453934051747,0.863836759472971
265,1790943184.8301523,1.1321736328125,-2.5072980468750004,-0.8351433105468746,2.875034778894029,0.189597724686643,-0.8875536605354672,-0.025062624550748966,0.9079245192666796
266,1790943184.8407028,1.0172126953125,-2.45939765625,-0.6579118652343746,2.7415700832714616,0.19938965792926777,-0.9098697636650243,-0.03223337066993116,0.9320183542751412
267,1790943184.8607028,0.9741023437500002,-2.1384650390625,-0.6100114746093745,2.4277607169049684,0.21815433701267387,-0.9527244136692748,-0.045689453170145056,0.978449104087632
268,1790943184.8859,1.05074296875,-1.9947638671875,-0.4423601074218746,2.2975696152353438,0.2420756910138688,-1.006427766474313,-0.06208813523925037,1.0369920085747064
269,1790943184.9059,1.2231843750000002,-1.7887921875000001,-0.3417692871093746,2.19380121043736,0.26162573472573325,-1.0483354416017272,-0.07432812030322035,1.0830419625558734
270,1790943184.9301627,1.16570390625,-1.7361017578125,-0.4519401855468746,2.1394309621575323,0.28613210223323765,-1.0979633903752677,-0.08839386928650617,1.138072345090682
271,1790943184.9501626,0.9166218750000001,-1.7887921875000001,-0.5237907714843746,2.077096512943428,0.30642632416200527,-1.1380232570246243,-0.09971283214751481,1.1827665342590865
272,1790943184.9602065,0.8783015625000001,-1.7744220703125,-0.3513493652343746,2.010829106302333,0.31644130264976017,-1.1578075211189258,-0.10520372867672675,1.2048739263963328
273,1790943184.9802065,0.7681306640625001,-1.7073615234375001,-0.19327807617187456,1.882143592693347,0.33586204917820106,-1.1965165390290544,-0.11531442233702216,1.248099579459575
274,1790943185.0047667,0.6962800781250001,-1.73131171875,-0.20764819335937457,1.8775952670584382,0.3588310876076665,-1.2432554920843744,-0.12660657860562044,1.300181984868996
275,1790943185.0247667,0.8304011718750001,-1.6594611328125002,-0.10226733398437457,1.8584498823393092,0.37701971858119115,-1.2806932161538334,-0.13488760812901393,1.3418321984988497
276,1790943185.0653799,0.9884724609375001,-1.6786212890625,-0.05915698242187457,1.9489347825658376,0.4139546827386345,-1.355480791830845,-0.1496728714084424,1.4251626660908803
277,1790943185.0853798,1.1417537109375002,-1.5924005859375001,-0.20285815429687457,1.9698965945699742,0.43261036649770984,-1.391692126633295,-0.1562547533764932,1.4657333497219522
278,1790943185.0809157,1.0363728515625001,-1.6786212890625,-0.24117846679687457,1.9874619926922197,0.43261036649770984,-1.391692126633295,-0.1562547533764932,1.4657333497219522
279,1790943185.1009157,1.0076326171875,-1.7169416015625,-0.3657194824218746,2.0240955249738235,0.45193221201152123,-1.4271187044198868,-0.1624866553060385,1.5057597530520153
280,1790943185.12549,0.9741023437500002,-1.8414826171875,-0.3321892089843746,2.109569452771971,0.47576457805975336,-1.470676930091809,-0.1702815980901395,1.5550686123411965
281,1790943185.14549,0.9214119140625001,-1.80795234375,-0.24596850585937458,2.04406264544953,0.49509458978418086,-1.5062837663155637,-0.1765412157123719,1.5953608489443911
282,1790943185.1700764,1.0315828125000002,-1.67383125,-0.34655932617187457,1.996491302029307,0.5188942846543291,-1.5499105770682087,-0.18417465573661662,1.64480831082851
283,1790943185.1900764,1.0172126953125,-1.7792121093750002,-0.45673022460937457,2.0997428165666596,0.5384234743577743,-1.5852553461877255,-0.19065763491110116,1.6850177103241843
284,1790943185.2006533,0.8016609375000001,-1.9181232421875,-0.3561394042968746,2.1091923350482285,0.5486451245428061,-1.604076568933408,-0.1942166995438719,1.7063977373600447
285,1790943185.2206533,0.8064509765625001,-1.7840021484375002,-0.22680834960937457,1.9709055965927833,0.5674861913444207,-1.639880445489787,-0.20081148058284193,1.746875411584997
286,1790943185.2457948,0.9453621093750001,-1.6211408203125002,-0.20764819335937457,1.888100857828005,0.5909213692445623,-1.6845581566915282,-0.20867731119666288,1.7973509585259348
287,1790943185.2657948,0.9357820312500001,-1.67383125,-0.31781909179687456,1.9438127581116267,0.609589313083148,-1.71971046404021,-0.21478417223738047,1.8371541719186977
288,1790943185.3052404,0.8447712890625001,-1.6690412109375001,-0.3513493652343746,1.9033610984473317,0.6461526537477564,-1.7885308722576292,-0.2270016492300142,1.915172493985085
289,1790943185.3252404,0.8447712890625001,-1.69299140625,-0.2651286621093746,1.9105370030262636,0.6644447579397738,-1.8232336167563874,-0.23319176146011905,1.9544938104883052
290,1790943185.3507652,0.8399812500000001,-1.6019806640625,-0.24117846679687457,1.824850021571138,0.6875133969306669,-1.8671871855579747,-0.2408760969426339,2.004266437115927
291,1790943185.3707652,0.7633406250000001,-1.5445001953125002,-0.33697924804687457,1.7554842000741502,0.7052824801670847,-1.9011807206294904,-0.24686122974780805,2.042755975655561
292,1790943185.380652,0.8016609375000001,-1.5013898437500002,-0.3513493652343746,1.7378947315875108,0.7139092739879206,-1.9177229040333954,-0.24988650380619176,2.061497235730555
293,1790943185.400652,0.8783015625000001,-1.5540802734375,-0.23638842773437457,1.8006828204168126,0.7312627530622745,-1.9507499400236628,-0.25596998625158845,2.09897383889847
294,1790943185.4108562,0.8926716796875002,-1.5732404296875,-0.24596850585937458,1.8254995708556345,0.7401440436524089,-1.9674666432517767,-0.2589774532540384,2.117972501935873
295,1790943185.4308562,0.7872908203125001,-1.53971015625,-0.3848796386718746,1.7716282164359207,0.7574598623608252,-1.999985428274406,-0.26493404513901636,2.154965708467622
296,1790943185.4557674,0.8160310546875001,-1.6355109375,-0.4423601074218746,1.8805544856596992,0.7787881079513517,-2.0403462805561454,-0.27278600400339786,2.200894378575647
297,1790943185.4757674,0.9070417968750001,-1.7121515625000001,-0.4040397949218746,1.9792513610276818,0.7959276272217408,-2.0729109947297952,-0.27941396995342527,2.2379751889714137
298,1790943185.485318,0.8830916015625001,-1.7456818359375001,-0.3992497558593746,1.996661267372639,0.8041668122636357,-2.088605822944027,-0.28267964973585397,2.2558515753384
299,1790943185.505318,0.7202302734375001,-1.7792121093750002,-0.26033862304687455,1.937034737833175,0.821237513361744,-2.1218298981885644,-0.2894819299600578,2.2935546555451594
300,1790943185.545008,0.7920808593750001,-1.7935822265625,-0.26991870117187455,1.9791880649578113,0.8545346132167143,-2.1885084976354925,-0.3025346465528336,2.3688237717848595
301,1790943185.565008,1.0172126953125,-1.88459296875,-0.4615202636718746,2.190756325825996,0.8715103273593778,-2.2225854579650033,-0.30922252885937523,2.407287880791523
302,1790943185.5758386,0.8399812500000001,-1.9420734375000002,-0.4950505371093746,2.173083700939039,0.8808328889876343,-2.241379567577322,-0.31307799956482507,2.428511226675083
303,1790943185.5958385,0.6723298828125001,-1.92291328125,-0.4902604980468746,2.0952275090012256,0.8977342270135958,-2.2766766409796024,-0.3206075862824055,2.468192151011686
304,1790943185.6053834,0.8208210937500001,-1.9660236328125,-0.4615202636718746,2.1799076004505245,0.9056592569987398,-2.2937790765351105,-0.32434335727480257,2.4873358750168952
305,1790943185.6253834,0.9070417968750001,-2.0618244140625,-0.3321892089843746,2.2768826070458847,0.9223660312662498,-2.330281368213424,-0.33218756606571637,2.528105798760239
306,1790943185.6508055,0.7825007812500001,-1.92291328125,-0.31781909179687456,2.1002171161513497,0.9436380790325855,-2.3773174375477026,-0.3419021069808874,2.580501515951241
307,1790943185.6708055,0.5573689453125001,-1.9660236328125,-0.2507585449218746,2.058831929475392,0.959872690846742,-2.4146042788095516,-0.3492511732671723,2.621763869593762
308,1790943185.6948774,0.6867000000000001,-1.88459296875,-0.3705095214843746,2.0397364666477182,0.9787276773338343,-2.4597027665240287,-0.3578913290942694,2.67135392066759
309,1790943185.7148774,0.7777107421875001,-1.80795234375,-0.3705095214843746,2.0026989242758213,0.994239984780554,-2.49709085350713,-0.3651046730197737,2.712430146615075
310,1790943185.7258477,0.6483796875000001,-1.6115607421875,-0.12142749023437457,1.7413411154357845,1.0026458044251614,-2.5173361888164267,-0.36887258028841896,2.734656665313733
311,1790943185.7458477,0.5621589843750001,-1.2379376953125,0.10370434570312544,1.3635494316330703,1.017487516395358,-2.5529832002683923,-0.3747380250578176,2.773703779118684
312,1790943185.7707644,0.7681306640625001,-1.0559162109375,0.08454418945312545,1.308484421597747,1.0356902517312225,-2.5950185455586596,-0.38059749896217876,2.819863472854799
313,1790943185.7907643,0.9884724609375001,-1.1086066406250001,-0.07352709960937456,1.4871088474105225,1.050744408488561,-2.626944953454966,-0.38457874053563745,2.855311613138655
314,1790943185.8154132,0.7202302734375001,-1.15650703125,-0.06394702148437456,1.3639389215295779,1.069673657618189,-2.6645778452218933,-0.38900355139494197,2.8974990233039772
315,1790943185.8354132,0.5477888671875001,-0.9888556640625,-0.1741179199218746,1.1437767340704972,1.084630906681045,-2.6937507330783874,-0.3924123748405556,2.9303079509867387
316,1790943185.845059,0.8926716796875002,-0.687083203125,-0.3226091308593746,1.171760516081018,1.0918045899736972,-2.70692236465624,-0.3941691430177343,2.945307329341218
317,1790943185.865059,0.7585505859375001,-0.629602734375,-0.23638842773437457,1.0137445848562305,1.1069246189037152,-2.7321116231731044,-0.39810383988118675,2.974592863021906
318,1790943185.8909023,0.6148494140625,-0.5577521484375,-0.27949877929687456,0.8759262689793529,1.1261936212644084,-2.762079508637512,-0.4034254138893937,3.0100078653026325
319,1790943185.9109023,0.6387996093750001,-0.11706855468749999,-0.46631030273437457,0.7995094032408231,1.1407493972381786,-2.7828048540371353,-0.40804470049107616,3.0350967893216785
320,1790943185.9356124,0.7681306640625001,-0.131438671875,-0.44715014648437457,0.8984676371680612,1.158643046547466,-2.8050308208592596,-0.41458868224085693,3.0630924554648
321,1790943185.9556124,0.8256111328125001,-0.20807929687499999,-0.3944597167968746,0.9383651765636897,1.1733440394918588,-2.8208310057896266,-0.42035319136360744,3.083913196528845
322,1790943185.980181,0.7489705078125001,-0.23681953125,-0.44715014648437457,0.9038714319278941,1.1915956873715672,-2.8381487903338485,-0.42792307383974504,3.107749506533701
323,1790943186.000181,0.5046785156250001,-0.1841291015625,-0.40882983398437456,0.6750894483928468,1.2061052161928962,-2.850763091757977,-0.4344449519794871,3.1257450974379966
324,1790943186.010336,0.4376179687500001,-0.0787482421875,-0.4758903808593746,0.6512928886568452,1.213085004247499,-2.8564074649014177,-0.4379335279102215,3.1340747610646735
325,1790943186.030336,0.6100593750000001,-0.10269843749999999,-0.5094206542968746,0.8013917975089263,1.2263410802096268,-2.86612863573396,-0.4452515672075845,3.1491038026214278
326,1790943186.056027,0.48072832031250007,-0.27992988281250003,-0.4040397949218746,0.6875380812161667,1.2429167504450913,-2.8774801484838988,-0.4550019948306709,3.1672955133292815
327,1790943186.076027,0.12626542968750007,-0.2607697265625,-0.27949877929687456,0.402570958532894,1.254795508069614,-2.885802593694143,-0.4624792460685796,3.1806061418993217
328,1790943186.1008704,0.025674609375000067,-0.10748847656249999,-0.24117846679687457,0.2652923123778318,1.2676207720363688,-2.8952759897434563,-0.4713442420723576,3.195567378888731
329,1790943186.1208704,0.15021562500000007,-0.10269843749999999,-0.20764819335937457,0.27609685848356597,1.2766607328850914,-2.9020737652394835,-0.4780836582955893,3.2063154476924547
330,1790943186.1306725,0.25080644531250007,-0.3278302734375,-0.14058764648437458,0.4360521156196969,1.280721502629715,-2.9052221555238167,-0.4811472384633461,3.211240571076149
331,1790943186.1506724,0.11668535156250007,-0.2943,-0.049576904296874565,0.320446299259214,1.28831541416456,-2.9116156664228385,-0.48674571351113904,3.2208979780418967
332,1790943186.1752138,0.020884570312500066,-0.05479804687499999,0.007903564453125437,0.059173115090530456,1.2964891481569911,-2.9189267104513936,-0.49266168059972326,3.2316764664500033
333,1790943186.1952138,-0.08449628906249994,0.06974296875000001,0.022273681640625438,0.11180260036879715,1.3020557332369036,-2.9239687042997886,-0.4967144464534106,3.239084339361233
334,1790943186.2204063,0.19332597656250008,-0.14101875,0.11807446289062544,0.26683852767603955,1.3082214038797164,-2.9295017486737844,-0.5007884918187502,3.2471853736104865
335,1790943186.2404063,0.6867000000000001,-0.1937091796875,0.08454418945312545,0.7184899834134714,1.3137020570251423,-2.933737557179376,-0.5032337437457488,3.253593912872543
336,1790943186.2501366,0.8591414062500001,-0.1937091796875,-0.27949877929687456,0.9239950053203074,1.3170966423278616,-2.9357719609979704,-0.504387225817813,3.2569782077535283
337,1790943186.2701366,0.4328279296875001,0.5104265625000001,-0.27949877929687456,0.7252550310418929,1.3249653122944876,-2.938851214959237,-0.5072409827383065,3.263383666843409
338,1790943186.2954519,0.5621589843750001,0.8121990234375001,-0.16453784179687458,1.0013803866511135,1.3353203475228972,-2.939652987979643,-0.5111544101104714,3.2689323870679394
339,1790943186.3154519,1.6734480468750002,0.20386406250000003,-0.42798999023437456,1.739299960705334,1.3456274760281886,-2.938667309777398,-0.5146711865379319,3.272822221271526
340,1790943186.3554688,2.3344734375000002,0.48647636718750004,-0.6435417480468746,2.4699334945913507,1.3751858510907995,-2.9349190519526966,-0.5238681890779674,3.2831880613335374
341,1790943186.3754687,1.7884089843750002,1.1475017578125,-0.5094206542968746,2.1851032887715522,1.3939271641900615,-2.9308757513930566,-0.5295047036643932,3.2883796679175408
342,1790943186.3857603,1.3956257812500001,1.4828044921875,-0.4758903808593746,2.0911604763708556,1.4045821276342996,-2.9270769925760303,-0.5327306026667883,3.290050541975815
343,1790943186.4057603,2.0710212890625,0.47210625000000006,-0.8255632324218746,2.278940135625773,1.4273823324495,-2.9178697073344617,-0.5400114333854088,3.292870525871923
344,1790943186.4316185,2.4685945312500004,0.14638359375,-1.0985954589843747,2.7059747040091975,1.4612431019082242,-2.9065516734712977,-0.5517445106440875,3.299650896452389
345,1790943186.4516184,2.0039607421875,0.5870671875000001,-1.0650651855468747,2.3441139879135218,1.490213081050343,-2.8980106609628615,-0.5627036987018378,3.306937597010365
346,1790943186.4607477,1.9177400390625001,0.702028125,-1.1417058105468747,2.33967145205282,1.5041384631491381,-2.893814151703012,-0.5684667772950607,3.3105509115265854
347,1790943186.4807477,2.2290925781250004,0.2805046875,-1.2758269042968746,2.583654561137998,1.53628967980057,-2.8845258773964595,-0.5828247166174726,3.3196927821609923
348,1790943186.490192,2.439854296875,-0.03563789062499999,-1.2614567871093747,2.746895024381512,1.5525016474202915,-2.8806243022227984,-0.5903849157826874,3.3251785041683153
349,1790943186.510192,2.2338826171875,0.07453300781250001,-1.2901970214843745,2.580774122404595,1.5886944017247007,-2.8735429765478995,-0.6078210376272221,3.3392582340875347
350,1790943186.535683,2.2147224609375002,0.29966484375,-1.4003679199218746,2.6373897908172554,1.6364094458140641,-2.865155890586989,-0.6318546719596931,3.3594931876984226
351,1790943186.555683,2.6649861328125004,-0.1266486328125,-1.3428874511718747,2.9868943186512467,1.6755502327745415,-2.859303006912228,-0.6519976161534934,3.3776002071527005
352,1790943186.580757,2.8134773437500002,-0.5577521484375,-1.3045671386718747,3.1509740783103446,1.727562991599055,-2.854352953617501,-0.6784415405257467,3.4047154943810765
353,1790943186.600757,2.449434375,-0.629602734375,-1.4722185058593746,2.9263553594119305,1.7707216044986323,-2.852777885952087,-0.7005354935832593,3.4299484901358808
354,1790943186.6105187,2.2578328125000002,-0.75414375,-1.4051579589843746,2.7642378144007176,1.792073493436656,-2.8531375163805057,-0.7118084041562178,3.4436306854080048
355,1790943186.6305187,2.2482527343750003,-0.6439728515625001,-1.2710368652343746,2.6617430574642302,1.8360164730712387,-2.855860977979599,-0.7354542251422451,3.4738726706969443
356,1790943186.6558325,2.50691484375,-0.7397736328125001,-1.3333073730468745,2.9342112419932973,1.8923199522357468,-2.86141808320251,-0.765837790456384,3.514981617277527
357,1790943186.6758325,2.8661677734375,-1.1086066406250001,-1.5536491699218746,3.4435086949691964,1.9381912041413936,-2.867922627058914,-0.7905728625405133,3.550573304354252
358,1790943186.700503,2.9236482421875003,-1.5253400390625,-1.6542399902343747,3.6892941362954343,1.9970001503169197,-2.8796162298427785,-0.8224431651463346,3.5995294124976476
359,1790943186.720503,2.899698046875,-1.5349201171875,-1.6542399902343747,3.674335106449629,2.046259149301863,-2.892264427449563,-0.8493670247436179,3.6433218862891534
360,1790943186.746104,2.9332283203125002,-1.3433185546875002,-1.6542399902343747,3.625581755214138,2.1110545135970837,-2.911552583569509,-0.8850137608291994,3.703638611301857
361,1790943186.766104,3.244580859375,-1.36726875,-1.5823894042968747,3.8601405433714713,2.163347819321516,-2.928426534226806,-0.9135394968021998,3.753706190679339
362,1790943186.7754676,3.5990437500000003,-1.4582794921875,-1.6063395996093746,4.202382883677058,2.1889643295919203,-2.937125925318863,-0.9271308329800283,3.778603593772206
363,1790943186.7954676,3.7187947265625003,-1.5732404296875,-1.6302897949218746,4.3545797137426225,2.2464486032799664,-2.957467200788055,-0.9566612422849765,3.8351459298709716
364,1790943186.8210363,3.6421541015625003,-1.52055,-1.6446599121093746,4.275776540995584,2.3230308970138385,-2.9855043115135875,-0.99503132641172,3.9114953512803523
365,1790943186.8410363,3.7858552734375004,-1.5732404296875,-1.7356706542968747,4.452003843350226,2.385090488995525,-3.0087861432949117,-1.0256130950428926,3.9740826510660097
366,1790943186.8657758,3.8672859375,-1.683411328125,-1.7500407714843746,4.566444669970552,2.46454191936892,-3.0393079539026076,-1.0642352893357094,4.05511485189381
367,1790943186.8857758,3.8193855468750004,-1.4103791015625,-1.8697917480468746,4.480289761484862,2.5306677165446043,-3.064921985614778,-1.09620463860229,4.123068090531503
368,1790943186.8953993,3.6229939453125004,-1.4726496093750001,-1.8745817871093746,4.336915825367788,2.5630848338779106,-3.0774790004860137,-1.111982668495024,4.156535374457995
369,1790943186.9153993,3.5990437500000003,-1.5588703125,-1.8697917480468746,4.345033227338095,2.6311827933521945,-3.1042082720451156,-1.1454711499909038,4.227450300562676
370,1790943186.9403756,3.551143359375,-1.5157599609375,-1.9081120605468747,4.306859534930163,2.7168620844509777,-3.138340630150292,-1.1880957392845555,4.317649011034311
371,1790943186.9603755,3.5750935546875002,-1.2762580078125,-1.9176921386718746,4.2529603296994845,2.78586868521837,-3.165760701670937,-1.2228466907535724,4.390724220514351
372,1790943186.9854486,3.6565242187500004,-1.0990265625,-1.7548308105468746,4.202078047946095,2.873001416878159,-3.1994463586778545,-1.2667836045878698,4.482782042916377
373,1790943187.0054486,3.7523250000000004,-1.1517169921875001,-1.7739909667968747,4.307370298220869,2.943192253030239,-3.225661957402795,-1.3018668569369356,4.556548366354043
374,1790943187.0159755,3.4409724609375,-1.3097882812500001,-1.9081120605468747,4.1468938320427915,2.9802744077423475,-3.239334046177585,-1.3204699590601248,4.595537130842215
375,1790943187.0359755,3.3403816406250004,-1.3912189453125001,-1.8841618652343746,4.079669789728634,3.0503307538298787,-3.265464739462979,-1.3562006912287716,4.669802778204426
376,1790943187.0604768,3.4266023437500004,-1.4774396484375,-1.7356706542968747,4.115456737368947,3.1357159398219823,-3.2979462647960998,-1.4000591633176278,4.761231949981628
377,1790943187.0804768,3.2685310546875,-1.606770703125,-1.7596208496093746,4.04490703011298,3.2050022367422817,-3.3251095380290723,-1.4357328316262021,4.836292127366205
378,1790943187.1058416,3.225420703125,-1.5445001953125002,-1.8075212402343745,4.006987970953511,3.292047307366091,-3.3603866402717344,-1.4809753490487931,4.931841626668812
379,1790943187.1258416,3.2876912109375,-1.4870197265625,-1.7500407714843746,4.010334632860371,3.360156096040009,-3.3885772472925133,-1.5166340141573216,5.007322985740214
380,1790943187.1355174,3.5607234375,-1.5109699218750001,-1.8027312011718746,4.26750762001093,3.393133512355914,-3.4023453544954174,-1.533875726438033,5.044014639955472
381,1790943187.1555173,3.3930720703125004,-1.8031623046875,-1.7117204589843746,4.2064616129338885,3.461504515836587,-3.431506694823268,-1.5694405643869136,5.120585454312534
382,1790943187.1808403,3.2014705078125,-1.9037531250000002,-1.9129020996093746,4.187228655809287,3.5476115682760803,-3.469931097301321,-1.6146002781540088,5.218515470667882
383,1790943187.2008402,3.0194490234375,-1.6977814453125,-1.8650017089843747,3.9341791539913014,3.6147490224572203,-3.5011287750571096,-1.6505841132355334,5.296106221532368
384,1790943187.2253854,3.4505525390625,-1.453489453125,-1.8889519042968748,4.193695710459101,3.6966954713306985,-3.5394744505049145,-1.695032044741129,5.39134217298747
385,1790943187.2453854,3.54156328125,-1.5636603515625,-1.8075212402343745,4.27256798705945,3.7639396898298267,-3.5705583596382033,-1.731361356308851,5.469345585568545
