imu_index,t_imu,ax,ay,az,mag,vx,vy,vz,velocity
0,1790565725.7736127,-0.016142431640625024,-0.01978286132812498,0.015615527343751046,0.029929657462515524,0.0,0.0,0.0,0.0
1,1790565725.7936127,0.007807763671874979,-0.01978286132812498,-0.022704785156248956,0.03110996697000973,-3.3083570743940175e-05,-8.457165152384543e-05,9.275901798337977e-06,9.128487962862443e-05
2,1790565725.81768,0.01259780273437498,-0.04373305664062498,-0.022704785156248956,0.05086051657088986,-3.0090472810330823e-05,-0.00028572482244341134,-6.320215812271082e-05,0.0002941744779984089
3,1790565725.8376799,-0.04009262695312502,-0.03894301757812498,0.010825488281251046,0.05693126162856487,-6.921847731315978e-05,-0.0005518245519073859,-0.00013221639432579814,0.0005716491131960713
4,1790565725.8626626,-0.07362290039062502,0.028117529296875023,0.020405566406251047,0.08140831687271541,-0.0003238322270760249,-0.0008546437671605556,-0.000146975636782576,0.0009256808941784678
5,1790565725.8826625,-0.001772314453125022,0.056857763671875027,-0.017914746093748955,0.05963962203008199,-0.0006101820838338434,-0.00093324048819879,-0.00015328263878206013,0.0011255023552162468
6,1790565725.8930316,0.04133803710937498,0.013747412109375022,-0.06102509765624896,0.07497924509966591,-0.0007056028760126144,-0.0009129687186338579,-0.0002174519561409682,0.0011741689201604489
7,1790565725.9130316,0.007807763671874979,-0.03894301757812498,-0.06102509765624896,0.07281196560731433,-0.0007883257683745138,-0.0009175267084746977,-0.0005057320882556854,0.0013111360428800425
8,1790565725.9376252,-0.030512548828125024,-0.07247329101562498,0.006035449218751046,0.07886583667150374,-0.0009166695211212971,-0.0011278003901014026,-0.000908480211796885,0.0017139291193314084
9,1790565725.9576252,-0.04009262695312502,0.008957373046875022,0.044355761718751045,0.060457314409043596,-0.001111293046989812,-0.0013684229818363542,-0.0011112875978227057,0.002083869914025431
10,1790565725.9976087,0.01738784179687498,0.07601791992187502,0.015615527343751046,0.07952927690998575,-0.001510103244348181,-0.0015224923614351373,-0.0012760786565522667,0.002495349982853604
11,1790565726.0176086,0.04133803710937498,0.013747412109375022,-0.017914746093748955,0.04710374485499585,-0.0015915785809035331,-0.0014533509191163578,-0.0013495924971583446,0.0025429807670671366
12,1790565726.0126388,0.046128076171874983,-0.07247329101562498,-0.013124707031248956,0.08690474818219017,-0.0015915785809035331,-0.0014533509191163578,-0.0013495924971583446,0.0025429807670671366
13,1790565726.0326388,0.01738784179687498,-0.05331313476562498,0.03477568359375105,0.06598466147752469,-0.0014436515373913927,-0.0016669511099726207,-0.0014098050781168757,0.002617328050271042
14,1790565726.0726771,0.0030177246093749783,0.03290756835937502,0.03477568359375105,0.0479725222034203,-0.001130658851587732,-0.0020916952841652787,-0.0013034105610803643,0.0027115415709903445
15,1790565726.092677,0.0030177246093749783,0.052067724609375025,0.010825488281251046,0.053266742009843715,-0.0009887113250997338,-0.0021445756765200667,-0.001189834549649259,0.002644326222734447
16,1790565726.1019368,0.01738784179687498,-0.02457290039062498,0.0012454101562510457,0.030128317616787414,-0.0009186784200010044,-0.0021462915639099208,-0.0011367551440058478,0.0025966805298515624
17,1790565726.1219368,0.01738784179687498,-0.03894301757812498,0.010825488281251046,0.0440009869999618,-0.0007379407841136837,-0.0022447155660321365,-0.0010211997645277894,0.002574131607419657
18,1790565726.1475449,-0.011352392578125023,-0.005412744140624978,0.015615527343751046,0.02005041921265425,-0.0005296444037490006,-0.0024370245938054474,-0.0008446530557100055,0.002633068713451187
19,1790565726.1675448,0.04133803710937498,0.03769760742187502,0.0012454101562510457,0.05595975307171363,-0.0003463878475031514,-0.0025162622288584344,-0.0007021606491355419,0.0026352589478971376
20,1790565726.2082758,0.01259780273437498,0.013747412109375022,0.0012454101562510457,0.01868815185877164,0.00013560592204397152,-0.0024962725456575837,-0.0004478877117763531,0.0025397576637658653
21,1790565726.2282758,-0.011352392578125023,-0.02457290039062498,-0.0035446289062489545,0.02729960887885504,0.0003386450276027181,-0.0025041676165707,-0.000345209979992476,0.0025504324803624643
22,1790565726.2228458,0.007807763671874979,-0.01978286132812498,0.006035449218751046,0.02210767792319664,0.0003386450276027181,-0.0025041676165707,-0.000345209979992476,0.0025504324803624643
23,1790565726.2428458,-0.054462744140625026,0.008957373046875022,0.020405566406251047,0.05884566399989034,0.000410838979860841,-0.0025826635644990103,-0.00022818804029553277,0.0026250732440253445
24,1790565726.2528925,-0.06883286132812502,0.028117529296875023,-0.0035446289062489545,0.0744387173886045,0.00034876105225792423,-0.0025882441489514883,-0.00016551652251017894,0.0026168755731554244
25,1790565726.2728925,0.01259780273437498,-0.01978286132812498,-0.0035446289062489545,0.023719836216657658,0.00015936692826544488,-0.0025851850258917864,-7.010437284591688e-05,0.002591041114882587
26,1790565726.2988503,-0.030512548828125024,-0.01978286132812498,0.006035449218751046,0.03686195715895534,-8.445136851229794e-05,-0.0026588381765891905,4.0004344101367726e-05,0.0026604798120787748
27,1790565726.3188503,-0.08799301757812503,0.013747412109375022,-0.017914746093748955,0.0908443757742476,-0.0004218880826690357,-0.002716127373650283,9.429648678453588e-05,0.002750314398684348
28,1790565726.3437,-0.11194321289062503,-0.0006227050781249783,-0.03228486328124896,0.11650743783544061,-0.001150884749275809,-0.002752170308919826,5.80768141012304e-05,0.0029836806182551847
29,1790565726.3637,-0.02093247070312502,-0.02457290039062498,0.006035449218751046,0.03283934242059191,-0.001848914561302732,-0.002814621140450931,-6.075637267512142e-06,0.0033675828323352017
30,1790565726.3729448,-0.001772314453125022,0.028117529296875023,0.044355761718751045,0.052546837677751854,-0.002138919845341634,-0.002836700925252308,3.6579590615503732e-06,0.00355272622429425
31,1790565726.3929448,0.022177880859374978,0.08559799804687503,0.020405566406251047,0.09074834879712894,-0.0026415866375787893,-0.002706729125143842,0.00011869844516620455,0.0037839730233739295
32,1790565726.4175284,0.01259780273437498,0.052067724609375025,0.039565722656251044,0.0665972896523824,-0.0031026561382716607,-0.0023171104864418766,0.0003494662629457948,0.0038881361585817726
33,1790565726.4375284,-0.006562353515625022,0.013747412109375022,0.029985644531251045,0.03363323804398816,-0.0034124407761715906,-0.0019489596209405107,0.0006133732860771473,0.003977363755429998
34,1790565726.4628868,0.046128076171874983,-0.010202783203124979,-0.027494824218748957,0.05466133510286932,-0.0036710570478940578,-0.0015454492026575894,0.0009025322814290521,0.004084071204803994
35,1790565726.4828868,0.046128076171874983,-0.04373305664062498,-0.017914746093748955,0.06604027393987631,-0.0037060461039572353,-0.0013558444873972085,0.001028266608001384,0.00407804171334633
36,1790565726.4927247,-0.006562353515625022,-0.06289321289062498,0.010825488281251046,0.06415459381756707,-0.0036914821972480233,-0.0013552420374619584,0.0010756066115840362,0.004076843310158783
37,1790565726.5127246,-0.049672705078125025,-0.04373305664062498,0.039565722656251044,0.07710644773442671,-0.003750668049422016,-0.001514140246454863,0.0012329976117627338,0.004228523928453303
38,1790565726.5525148,-0.04009262695312502,0.04248764648437502,0.025195605468751048,0.06361947323517093,-0.0041186394715216484,-0.001786566957721608,0.0016924236170619178,0.0047978443378654655
39,1790565726.5725148,0.0030177246093749783,0.056857763671875027,0.006035449218751046,0.05725677775475094,-0.004331464239387967,-0.001753940837034237,0.001935555766659726,0.005058089267970946
40,1790565726.5829291,0.007807763671874979,0.03769760742187502,0.015615527343751046,0.04154413885391168,-0.004417207239750563,-0.0016656451240451887,0.0020600797661417362,0.005150730251238837
41,1790565726.602929,-0.044882666015625024,0.01853745117187502,0.006035449218751046,0.048933806840383,-0.004612782950618025,-0.0014371622612314651,0.002295824146888951,0.00534920652321993
42,1790565726.6432464,-0.049672705078125025,0.008957373046875022,-0.017914746093748955,0.053558848842023894,-0.005233815614273401,-0.0009625211273530622,0.0026638484355585674,0.005951080682736615
43,1790565726.6632464,-0.006562353515625022,-0.04373305664062498,-0.008334667968748955,0.045001237949032456,-0.0055800295559922395,-0.0008145498671667633,0.0027796535780335984,0.006287025953956555
44,1790565726.657774,0.0030177246093749783,-0.04373305664062498,0.006035449218751046,0.04425057685750845,-0.0055800295559922395,-0.0008145498671667633,0.0027796535780335984,0.006287025953956555
45,1790565726.677774,-0.06883286132812502,0.03290756835937502,0.029985644531251045,0.08197566548615738,-0.005933411137358348,-0.000835398036698559,0.0029144228814576762,0.00666311626317686
46,1790565726.7030697,-0.04009262695312502,0.07601791992187502,0.0012454101562510457,0.08595169533934945,-0.006519972247891798,-0.0006511600062279444,0.0031185602159564214,0.007256684179949969
47,1790565726.7230697,0.022177880859374978,0.004167333984375022,-0.008334667968748955,0.02405601301336628,-0.006941042399054494,-0.00040706517744891046,0.0032451167178544757,0.007672975573834592
48,1790565726.7480662,-0.001772314453125022,-0.04373305664062498,0.006035449218751046,0.044183118822973454,-0.007350112458920395,-0.0002219256862705679,0.0033752539718294988,0.00809109038037237
49,1790565726.7680662,-0.044882666015625024,-0.04373305664062498,0.010825488281251046,0.0635942226018194,-0.007698300974741952,-0.00022721246555569362,0.0034890509254705345,0.008455113231810888
50,1790565726.7781253,-0.049672705078125025,0.028117529296875023,0.020405566406251047,0.06061650125088823,-0.007918491843376,-0.00024125351481141618,0.0035612623604888683,0.008685810608818031
51,1790565726.7981253,-0.001772314453125022,0.056857763671875027,0.015615527343751046,0.05898975404687651,-0.008367783484932629,-0.0001375201733257449,0.003737331805342572,0.009165498419180922
52,1790565726.822879,0.022177880859374978,0.01853745117187502,0.006035449218751046,0.029528327799494575,-0.008802571651187117,0.00011158513777030686,0.003962759342021914,0.009654075850128601
53,1790565726.842879,-0.006562353515625022,0.004167333984375022,0.0012454101562510457,0.007872877660592493,-0.009077744521178216,0.0003167184294987431,0.00412849576336688,0.009977486327903615
54,1790565726.8676746,-0.03530258789062502,0.03290756835937502,-0.0035446289062489545,0.04839158151151148,-0.009445579515554001,0.0006018370695419822,0.004298874871489302,0.010395263604336851
55,1790565726.8876746,-0.03530258789062502,0.03769760742187502,0.0012454101562510457,0.05166172048593043,-0.009803677326180862,0.0009032239908937573,0.004412239109964555,0.010788686512133884
56,1790565726.8984797,0.0030177246093749783,0.013747412109375022,0.025195605468751048,0.028860293422970876,-0.009994285613305943,0.0010833166890415616,0.0044857254571802965,0.01100822659860731
57,1790565726.9184797,0.007807763671874979,0.004167333984375022,0.049145800781251046,0.04993633527326163,-0.010277936225975268,0.001393533170580151,0.004712855385278763,0.011392493741287415
58,1790565726.942924,-0.016142431640625024,0.008957373046875022,0.044355761718751045,0.048044211189525794,-0.010587896898104238,0.0017398744403276827,0.005120236187219259,0.01188896725564927
59,1790565726.962924,-0.006562353515625022,0.008957373046875022,0.015615527343751046,0.01916099448850074,-0.010837518302538488,0.0020076119272587453,0.005493508786570241,0.012315069930635908
60,1790565726.987712,0.01259780273437498,-0.0006227050781249783,0.0012454101562510457,0.0126745193915131,-0.011089270716181543,0.002305164776179069,0.005918092616830845,0.012779261711205619
61,1790565727.007712,-0.030512548828125024,-0.0006227050781249783,-0.027494824218748957,0.04107759433587781,-0.01128879908398347,0.0025073636885597043,0.006169905661128973,0.01310692920910482
62,1790565727.017782,-0.03530258789062502,0.01853745117187502,0.010825488281251046,0.04131707884461895,-0.011423900348056413,0.0026074308124732558,0.006265086743948498,0.013287419106559317
63,1790565727.037782,-0.049672705078125025,0.052067724609375025,0.05393583984375105,0.08993053094153769,-0.011779436630977792,0.0028822684688249943,0.0065229101849480905,0.013769929417048722
64,1790565727.0627968,-0.02093247070312502,0.06164780273437503,-0.022704785156248956,0.06895017897514863,-0.012289882578464485,0.003387801030809597,0.006855603945700763,0.014474726770378336
65,1790565727.0827968,-0.05925278320312503,-0.01499282226562498,-0.022704785156248956,0.06520110663015298,-0.012757056822298439,0.003801340800578988,0.007013586648064774,0.01504603231152353
66,1790565727.1083388,-0.049672705078125025,-0.03415297851562498,-0.0035446289062489545,0.060385163453866256,-0.013472854993188389,0.0041561072582756734,0.0071347979730748985,0.015801784434878445
67,1790565727.1283388,-0.04009262695312502,0.004167333984375022,0.0012454101562510457,0.04032786201867224,-0.014083916119107264,0.004347250481793985,0.007212023679684848,0.016409404789871036
68,1790565727.1383693,-0.02093247070312502,0.028117529296875023,0.006035449218751046,0.035569515469991084,-0.01439031809782625,0.004453021782783421,0.007250422070493008,0.01671763374867572
69,1790565727.1583693,-0.02093247070312502,0.04248764648437502,0.015615527343751046,0.049871967353833646,-0.014972414038832916,0.004738193585873069,0.007347977164240557,0.01733829371690451
70,1790565727.183098,0.03175795898437498,0.04248764648437502,0.020405566406251047,0.05683445436523861,-0.015564104124072874,0.005195501837262553,0.0075173118398247024,0.018048394771368156
71,1790565727.203098,0.03175795898437498,0.028117529296875023,0.015615527343751046,0.045199647198150845,-0.015875592170961808,0.005615789522875929,0.007687753834885675,0.018511431002754656
72,1790565727.2289124,0.01738784179687498,-0.0006227050781249783,-0.0035446289062489545,0.017756384712279995,-0.016122178564229903,0.006130122709488148,0.007898117339185872,0.018970590491438188
73,1790565727.2489123,0.022177880859374978,-0.01978286132812498,-0.022704785156248956,0.037399562440379924,-0.016225219314483997,0.006438228109371828,0.007997277977904156,0.019200650458963128
74,1790565727.2733955,0.06528823242187498,-0.010202783203124979,-0.017914746093748955,0.06846596384676279,-0.01617182824251109,0.0067037623777413255,0.008025871087152036,0.01925832457484509
75,1790565727.2933955,0.03175795898437498,0.023327490234375022,-0.013124707031248956,0.041533091555339595,-0.01598918684820548,0.006907823910612359,0.007999165660387745,0.01916660581608495
76,1790565727.3177674,-0.001772314453125022,0.052067724609375025,-0.046654980468748955,0.06993479997152934,-0.01574519550293776,0.007257006030498902,0.007862233368164709,0.019036544630996233
77,1790565727.3377674,0.0030177246093749783,-0.005412744140624978,-0.017914746093748955,0.01895633373185308,-0.0155731373217824,0.007570551699210983,0.007669865170977199,0.018938391980695916
78,1790565727.3477535,0.01259780273437498,-0.05810317382812498,-0.0035446289062489545,0.05955877631985524,-0.015488418274639936,0.007656053317519219,0.007572149482479112,0.018863819889828944
79,1790565727.3677535,-0.025722509765625023,-0.03415297851562498,0.020405566406251047,0.04737573841631745,-0.015363883502151201,0.007663223248442613,0.007431094165109577,0.01870815510182313
80,1790565727.4232278,-0.04009262695312502,0.03290756835937502,0.07309599609375105,0.08962896538657052,-0.015344101505219922,0.007674945884575673,0.007487553696403846,0.018719233576463226
81,1790565727.4432278,-0.011352392578125023,0.09038803710937503,0.03477568359375105,0.09751011352237424,-0.015415206807090489,0.00786348149506029,0.007666662973319638,0.018927246584619615
82,1790565727.4242291,0.05091811523437498,0.008957373046875022,-0.022704785156248956,0.05646588580650617,-0.015415206807090489,0.00786348149506029,0.007666662973319638,0.018927246584619615
83,1790565727.4442291,0.06528823242187498,-0.08205336914062498,-0.017914746093748955,0.1063778492342458,-0.01524182478416473,0.008016719861211144,0.007750530567953396,0.01888522555250785
84,1790565727.46784,0.01259780273437498,-0.04373305664062498,0.010825488281251046,0.04678115083443162,-0.014929921096623059,0.007947744476340722,0.007822134704140659,0.01863477870923925
85,1790565727.48784,-0.03530258789062502,0.04248764648437502,0.006035449218751046,0.05556887134744283,-0.014739405130194236,0.007896213542508905,0.007898981628302928,0.018493084184774706
86,1790565727.5134273,0.0030177246093749783,0.047277685546875024,0.0012454101562510457,0.047390265444967876,-0.014594182462927591,0.008012439675236216,0.007996522075832992,0.018469805538223923
87,1790565727.5334272,0.046128076171874983,-0.048523095703124984,0.039565722656251044,0.07776719512264992,-0.01442397920774183,0.008087791151280985,0.008122543706228268,0.018423877391898158
88,1790565727.5424154,0.04133803710937498,-0.03894301757812498,0.0012454101562510457,0.05680618783727269,-0.014300000338447806,0.008057613305289547,0.008198194734654716,0.01834735781426053
89,1790565727.5624154,0.01259780273437498,-0.005412744140624978,-0.027494824218748957,0.030724058841338005,-0.0139846056158858,0.007934001979524687,0.00830190542378391,0.018095281575825753
90,1790565727.5875707,-0.025722509765625023,-0.01978286132812498,0.0012454101562510457,0.03247399201557749,-0.013672178340475464,0.00775431368627086,0.008363259276081367,0.017804548492950194
91,1790565727.6075706,-0.011352392578125023,-0.010202783203124979,0.025195605468751048,0.02945831185378407,-0.013516651939410023,0.007587901713167238,0.008444383763578428,0.017651735019720585
92,1790565727.6332412,0.022177880859374978,0.004167333984375022,0.03477568359375105,0.04145567803525404,-0.013326130669117055,0.007394726512669752,0.008648352558568754,0.017523177245718478
93,1790565727.6532412,0.02696791992187498,0.028117529296875023,0.03477568359375105,0.05222271850532077,-0.013126241729083525,0.0073152259204251995,0.008887755272706119,0.017458606644996325
94,1790565727.6933396,0.03175795898437498,-0.0006227050781249783,0.039565722656251044,0.05073856649314152,-0.012608982866347346,0.007262429659561618,0.009519314768748453,0.017388119137803075
95,1790565727.7133396,0.01738784179687498,-0.03415297851562498,0.06351591796875104,0.07418244279649333,-0.012315969052106246,0.007187882873468312,0.009941690745765185,0.01738349702388938
96,1790565727.7078226,0.0030177246093749783,0.004167333984375022,0.16410673828125105,0.16418737735790284,-0.012315969052106246,0.007187882873468312,0.009941690745765185,0.01738349702388938
97,1790565727.7278225,0.03175795898437498,0.052067724609375025,0.20721708984375106,0.2160058754482483,-0.01202608602331731,0.007180143667644871,0.011094061210108735,0.017867831492990077
98,1790565727.7534447,-0.006562353515625022,0.08080795898437503,0.15931669921875105,0.17875905954340457,-0.011662002971763934,0.007427057972277502,0.013053278491936212,0.019014509797127196
99,1790565727.7734447,0.03175795898437498,0.07601791992187502,0.14015654296875105,0.16257659316473946,-0.011382644744966962,0.007826121325102091,0.014802405722679289,0.020246579749778733
100,1790565727.783361,0.07007827148437498,0.07122788085937502,0.21200712890625106,0.23437448208588504,-0.011189173129309426,0.008103814012599561,0.01580147602072507,0.02098942689312918
101,1790565727.803361,0.09881850585937499,0.056857763671875027,0.11141630859375105,0.15940983724571103,-0.010604150816020322,0.008772003785539025,0.017999363391958588,0.02265773923978724
102,1790565727.8428357,-0.006562353515625022,0.03769760742187502,-0.027494824218748957,0.04711835574187354,-0.00934953810399442,0.010172951745843362,0.02193516777571344,0.025924011945105997
103,1790565727.8628356,0.0030177246093749783,-0.04373305664062498,0.07309599609375105,0.08523327724479336,-0.008814549938870965,0.010767223674769148,0.02369854288454424,0.027481818191996354
104,1790565727.8878171,0.11797866210937498,-0.11079360351562498,0.23116728515625107,0.2821923121199567,-0.008019844804343753,0.01110864785509727,0.026140815631202127,0.029513763055883234
105,1790565727.9078171,0.12276870117187498,-0.05331313476562498,0.25032744140625107,0.283863122379373,-0.007117924908569353,0.011094828147275965,0.028525030862021857,0.03142351750362964
106,1790565727.932766,0.01259780273437498,-0.05331313476562498,0.14015654296875105,0.1504820637458939,-0.005908302582502247,0.010880659651277307,0.03178373653581217,0.03411015540907514
107,1790565727.952766,-0.001772314453125022,-0.08205336914062498,0.11141630859375105,0.1383816834212765,-0.005067835112985721,0.01053167698615862,0.03438155756282041,0.0363137807632134
108,1790565727.9482408,0.127558740234375,-0.149113916015625,0.15931669921875105,0.25276076200560404,-0.005067835112985721,0.01053167698615862,0.03438155756282041,0.0363137807632134
109,1790565727.9682407,0.10360854492187499,-0.13953383789062498,0.08267607421875105,0.19245715301214406,-0.003953469229290104,0.009551827785175035,0.036966656324583944,0.03838490605439184
110,1790565727.9930403,-0.049672705078125025,-0.192224267578125,-0.07539521484374896,0.21237227949301682,-0.002678627121432604,0.007902023251546816,0.03970484963285999,0.040572060572414644
111,1790565728.0130403,-0.054462744140625026,-0.302395166015625,-0.07060517578124896,0.3152683266299449,-0.0019609326651053713,0.006029162579927879,0.04136286619800195,0.041845940764261624
112,1790565728.0373948,-0.05925278320312503,-0.335925439453125,0.13536650390625105,0.3669889420253596,-0.001425782933965648,0.002924682792332469,0.04319731388114879,0.04331967858787786
113,1790565728.0573947,0.05570815429687498,-0.10121352539062499,0.14015654296875105,0.18163543903686438,-0.0010575527866505847,0.0001019751393380201,0.04489108564025131,0.044903656719536465
114,1790565728.0688872,0.11318862304687498,0.07122788085937502,0.08746611328125105,0.15979798613090693,-0.0007321192993755086,-0.0013025694260846844,0.0459145731678666,0.04593888021018432
115,1790565728.0888872,0.09881850585937499,0.09996811523437503,0.15931669921875105,0.21246301281340854,6.728055788618882e-05,-0.003123413616447142,0.047798715739486984,0.04790070422903152
116,1790565728.1129239,0.137138818359375,-0.02457290039062498,0.25032744140625107,0.28648684237781896,0.0013092859151809261,-0.004847593732794817,0.05046196279270032,0.05071117316231004
117,1790565728.1329238,0.328740380859375,0.08080795898437503,0.20242705078125106,0.39443234544188,0.0028865157459052825,-0.005982672345635844,0.05302468267250313,0.05343913653930281
118,1790565728.158551,0.362270654296875,0.16702866210937503,0.22637724609375107,0.4586777283449944,0.0059325099881706615,-0.0067425974161168245,0.05664005708222349,0.05734765349125547
119,1790565728.178551,0.290420068359375,0.18618881835937504,0.25511748046875105,0.42906295695229624,0.008932131920771701,-0.00671687460793163,0.059760588553558626,0.060796606232720485
120,1790565728.1886866,0.371850732421875,0.23887924804687502,0.19284697265625106,0.48220972326655354,0.010727706660392987,-0.006382668501705574,0.061445336888529864,0.06270049100875554
121,1790565728.2086866,0.443701318359375,0.27240952148437503,0.19284697265625106,0.5552186615846719,0.014962654881930559,-0.005055190082086413,0.06484961537583747,0.06674510170998199
122,1790565728.233187,0.5107618652343751,0.315519873046875,0.22158720703125107,0.6399463755543308,0.021126218110250918,-0.002592594404766327,0.06915591157380405,0.07235729916873158
123,1790565728.253187,0.491601708984375,0.334680029296875,0.07309599609375105,0.5991877726818639,0.02690645152626442,9.141693994928115e-05,0.07258593023920024,0.0774124199304102
124,1790565728.2783635,0.472441552734375,0.27240952148437503,-0.19514619140624898,0.5792149895900294,0.03491166502939334,0.004109648436874306,0.07602560167453051,0.08375921248061999
125,1790565728.2983634,0.381430810546875,0.03290756835937502,-0.24783662109374896,0.45606508531671164,0.04159784498238846,0.007280860270502168,0.0776837027246029,0.08842029915388136
126,1790565728.3085763,0.38622084960937497,-0.06768325195312498,-0.17119599609374897,0.4278500161814518,0.04508796808431862,0.008630683255825356,0.07808243383570874,0.09057748082797816
127,1790565728.3285763,0.391010888671875,-0.02457290039062498,-0.14245576171874896,0.4168776637581414,0.05206333452922543,0.010739160754782278,0.07827566857895199,0.09462029733361138
128,1790565728.3528268,0.534712060546875,0.06164780273437503,-0.26220673828124896,0.5987234861573018,0.060936172673616756,0.012979689303175881,0.0777388301728441,0.09962437046806426
129,1790565728.3728268,0.587402490234375,0.052067724609375025,-0.33405732421874895,0.6777514510082092,0.06883934078567126,0.014720907879924134,0.07646810283859314,0.10393714793253013
130,1790565728.3985493,0.520341943359375,-0.0006227050781249783,-0.29573701171874894,0.598511909556494,0.07961619004890849,0.016723668099722387,0.07386394271871458,0.10988312348385049
131,1790565728.4185493,0.496391748046875,-0.07247329101562498,-0.276576855468749,0.5728454437460849,0.0882637008984151,0.017937646969195593,0.07128438522510708,0.11486384832486607
132,1790565728.4427094,0.6305128417968751,-0.168274072265625,-0.25262666015624896,0.6997734179642213,0.09918499094329963,0.018747932359357823,0.06767675438691607,0.12152896971718492
133,1790565728.4627094,0.726313623046875,-0.10121352539062499,-0.20472626953124898,0.7613727747835867,0.10890485727018628,0.01891384848612243,0.0644522615185571,0.12795349005186266
134,1790565728.4731917,0.779004052734375,0.11912827148437503,-0.31489716796874895,0.8486454416528579,0.11441848525594744,0.019001847992933363,0.06260724019400604,0.13180412178730214
135,1790565728.4931917,0.735893701171875,0.17181870117187503,-0.386747753906249,0.8489022503494495,0.1256327113471568,0.019580983716788555,0.058562558466530995,0.13998773638394552
136,1790565728.5179713,0.687993310546875,0.10954819335937503,-0.30052705078124897,0.7587174113441888,0.14008902107429502,0.020713801261437435,0.05302569634036457,0.15121415231595606
137,1790565728.5379713,0.692783349609375,0.028117529296875023,-0.18077607421874897,0.7165328701181048,0.15207791664879902,0.021697467657378348,0.04850518525297825,0.16109384169299512
138,1790565728.5479517,0.711943505859375,0.013747412109375022,-0.26220673828124896,0.758818107635245,0.15821472024205746,0.022146045848157946,0.046256136827986835,0.1663188962271896
139,1790565728.5679517,0.731103662109375,-0.02457290039062498,-0.338847363281249,0.8061847975408626,0.17083229101496064,0.022893884351677298,0.041523684727521964,0.1772907724262005
140,1790565728.5932608,0.673623193359375,-0.04373305664062498,-0.257416699218749,0.7224570187294812,0.1870706456302931,0.023568630146633896,0.035301465947005756,0.19182570286989992
141,1790565728.6132607,0.697573388671875,-0.01978286132812498,-0.10413544921874895,0.705580743763236,0.20003465845791654,0.023926579667174496,0.030579705644298835,0.20376816286220212
142,1790565728.6379461,0.774214013671875,-0.02457290039062498,-0.07060517578124896,0.7778150533684873,0.21636046293340103,0.0242199947438673,0.02530245089554388,0.21917726179389588
143,1790565728.657946,0.812534326171875,0.008957373046875022,-0.23825654296874896,0.8467930361114829,0.2299836095896537,0.024398636461522755,0.021204892856141567,0.23224427145165116
144,1790565728.6978872,0.740683740234375,-0.12037368164062498,-0.24304658203124896,0.7887799866352938,0.257761652525177,0.02436812376265125,0.012807517338783478,0.2592275206620725
145,1790565728.7178872,0.6688331542968751,-0.182644189453125,-0.12329560546874896,0.7042006067560592,0.2716990004558425,0.023900610372505165,0.008683857998980212,0.2728864148590557
146,1790565728.713419,0.711943505859375,-0.24491469726562498,-0.07539521484374896,0.756657916692468,0.2716990004558425,0.023900610372505165,0.008683857998980212,0.2728864148590557
147,1790565728.733419,0.879594873046875,-0.23533461914062498,-0.26220673828124896,0.9475346417184453,0.28591652819015867,0.022297321599834705,0.004944781124924963,0.286827269455353
148,1790565728.7583807,0.860434716796875,-0.206594384765625,-0.37237763671874896,0.9600490852108794,0.30425708778731275,0.019769086958385897,-0.00020993047394390028,0.3048987312843211
149,1790565728.7783806,0.779004052734375,-0.331135400390625,-0.25262666015624896,0.8833562118365056,0.3192069429957054,0.017240657969002107,-0.0046580133731972985,0.31970613042676005
150,1790565728.8183975,0.817324365234375,-0.465256494140625,-0.23346650390624896,0.9690146189774467,0.3494234595573011,0.01055032517507552,-0.0136818496157464,0.34985033437057134
151,1790565728.8383975,0.817324365234375,-0.493996728515625,-0.405907910156249,1.0376960621093865,0.3647120174945631,0.006269258071317337,-0.018474418410040404,0.36523343691029786
152,1790565728.832681,0.850854638671875,-0.556267236328125,-0.47296845703124896,1.1211984729333597,0.3647120174945631,0.006269258071317337,-0.018474418410040404,0.36523343691029786
153,1790565728.852681,0.9083351074218751,-0.580217431640625,-0.386747753906249,1.1451195398325371,0.3805237089084181,0.00013237643452995718,-0.024347188749997903,0.3813018439044938
154,1790565728.8786223,0.884384912109375,-0.637697900390625,-0.276576855468749,1.1248511198866717,0.4014441679148493,-0.009003172593026075,-0.0321125392863709,0.40282712451994124
155,1790565728.8986223,0.8891749511718751,-0.7478687988281251,-0.34363740234374895,1.2116214335928897,0.4178141680642554,-0.017068258209798286,-0.03813167442687901,0.4198976411795376
156,1790565728.9237084,0.898755029296875,-0.958630517578125,-0.405907910156249,1.375316074015695,0.43863117956403946,-0.028877668331711008,-0.04595929492173343,0.4419767960014641
157,1790565728.9437084,1.004135888671875,-1.1550221191406251,-0.35321748046874896,1.5707092560788098,0.45559244687792266,-0.04005095317472885,-0.05240247642278976,0.46034180348699394
158,1790565728.9686294,1.052036279296875,-1.250822900390625,-0.286156933593749,1.659284198605593,0.4773999509162187,-0.05638173102571535,-0.06042174984798677,0.4845001554003433
159,1790565728.9886293,1.119096826171875,-1.308303369140625,-0.501708691406249,1.793250407245247,0.4955327801168605,-0.07136056454278489,-0.06707394739344126,0.5051177889969308
160,1790565729.0281785,1.090356591796875,-1.418474267578125,-0.597509472656249,1.8862566938171867,0.5325647884839838,-0.10462569287091192,-0.08151570234006604,0.5488320319275316
161,1790565729.0481784,0.9658155761718751,-1.5909156738281252,-0.266996777343749,1.8801860778976522,0.5515670633133818,-0.12343861886536991,-0.08902017502757291,0.5721782148260084
162,1790565729.0731356,1.152627099609375,-1.485534814453125,-0.19514619140624898,1.890355773849612,0.5756876949122657,-0.14915159972990008,-0.0978450617369991,0.6026907813146832
163,1790565729.0931356,1.2963282714843751,-1.370573876953125,-0.37237763671874896,1.9229157142122035,0.5957912798656206,-0.17095056834410463,-0.10470755990728152,0.6286135689617459
164,1790565729.1334302,1.171787255859375,-1.447214501953125,-0.358007519531249,1.8962290398838408,0.637678042731701,-0.21679746247041426,-0.11866704959919916,0.6838978685274013
165,1790565729.1534302,1.028086083984375,-1.638816064453125,-0.28136689453124897,1.954954326456277,0.6586495340196173,-0.24076893548604292,-0.12551550541980758,0.7124205436819822
166,1790565729.1334302,1.066406396484375,-1.653186181640625,-0.425068066406249,2.0126922304984056,0.6586495340196173,-0.24076893548604292,-0.12551550541980758,0.7124205436819822
167,1790565729.1534302,1.061616357421875,-1.610075830078125,-0.425068066406249,1.9748560276703213,0.6796639429276667,-0.2671805119501886,-0.1326394214495029,0.7422410103223928
168,1790565729.1784167,1.008925927734375,-1.581335595703125,-0.266996777343749,1.8946875924553825,0.7058598927929948,-0.3012083576701267,-0.14150142491891324,0.7803763939524029
169,1790565729.1984167,1.061616357421875,-1.447214501953125,-0.27178681640624897,1.8153036050703382,0.7267885525907902,-0.3289025881669037,-0.14833901070453254,0.8114203440737132
170,1790565729.1929355,1.052036279296875,-1.279563134765625,-0.348427441406249,1.6927680971512165,0.7267885525907902,-0.3289025881669037,-0.14833901070453254,0.8114203440737132
171,1790565729.2129354,0.980185693359375,-1.1933424316406251,-0.34363740234374895,1.5820609396954084,0.7476527438883177,-0.3560976626841474,-0.15510803513483165,0.8425251767017004
172,1790565729.2378016,1.066406396484375,-1.1981324707031251,-0.30052705078124897,1.6318886383780116,0.7735190468326799,-0.389297700961037,-0.16346295030282904,0.8812516961164908
173,1790565729.2578015,1.075986474609375,-1.183762353515625,-0.26220673828124896,1.621046753410664,0.7944164137130949,-0.41556810872135663,-0.17001897922678919,0.9125243803101042
174,1790565729.283457,1.013715966796875,-1.087961572265625,-0.276576855468749,1.5125393221488805,0.8212229977492872,-0.4485834813426991,-0.17820411929879018,0.9525707637235771
175,1790565729.303457,0.951445458984375,-1.049641259765625,-0.25262666015624896,1.4390328227827387,0.8419334527197241,-0.4736666973828145,-0.18442160313966272,0.9834751683304983
176,1790565729.3284664,0.9658155761718751,-1.092751611328125,-0.20951630859374898,1.4733644813158677,0.8675428155965902,-0.5043461498782845,-0.19189701189952213,1.021675114195444
177,1790565729.3484664,1.013715966796875,-1.169392236328125,-0.08018525390624896,1.5496864001040425,0.8879199192840013,-0.5285935343083642,-0.1974129276271017,1.0520383888281921
178,1790565729.3586712,1.099936669921875,-1.097541650390625,-0.07539521484374896,1.5556808125712474,0.8983752560987645,-0.5408447428967734,-0.19992427772765767,1.0675021562107139
179,1790565729.3786712,1.075986474609375,-1.011320947265625,-0.11850556640624896,1.481404914663718,0.9190564996587856,-0.5644171069763609,-0.20439874264381214,1.097729641672755
180,1790565729.4326801,0.932285302734375,-1.049641259765625,-0.013124707031248956,1.4039497561634995,0.9746627253209738,-0.6268729932384575,-0.21520254450521228,1.1786642070341191
181,1790565729.45268,0.893964990234375,-1.064011376953125,-0.013124707031248956,1.3897718776781631,0.9949048406942559,-0.6497022265254024,-0.21864254792925655,1.2082024619052576
182,1790565729.4633417,0.9274952636718751,-1.102331689453125,-0.16161591796874897,1.4496559325050973,1.0055333943373694,-0.6617788264502048,-0.2203410033076747,1.2237641848019882
183,1790565729.4833417,0.932285302734375,-1.169392236328125,-0.22388642578124895,1.5122034319919133,1.0252703504926914,-0.6844426149145034,-0.22362745283010793,1.252856824369685
184,1790565729.4783907,0.917915185546875,-1.212502587890625,-0.17598603515624897,1.530915379134011,1.0252703504926914,-0.6844426149145034,-0.22362745283010793,1.252856824369685
185,1790565729.4983907,0.893964990234375,-1.174182275390625,-0.16640595703124897,1.4851156056488457,1.0446071223595035,-0.7074341389653512,-0.227025337010028,1.281876594958488
186,1790565729.5234716,0.865224755859375,-1.131071923828125,-0.16161591796874897,1.4331982695932381,1.0685281198133008,-0.7362780681588511,-0.23126430972511533,1.3180822878091154
187,1790565729.5434716,0.903545068359375,-1.121491845703125,-0.15203583984374897,1.4481894030589175,1.0873950544803648,-0.7592074830185324,-0.2346079857249157,1.3467980226246226
188,1790565729.5684824,0.922705224609375,-1.126281884765625,-0.12808564453124896,1.4616093006708843,1.1108755728975137,-0.7877969582602935,-0.2386876382411004,1.382620835425846
189,1790565729.5884824,0.8891749511718751,-1.140652001953125,-0.18077607421874897,1.45753184265769,1.1295532177691578,-0.8106297668568179,-0.2419238908392196,1.4112187143195714
190,1790565729.6283593,0.841274560546875,-1.030481103515625,-0.19035615234374897,1.3438264976034793,1.166382934602978,-0.8558195200694019,-0.24851857068567285,1.4678684140755007
191,1790565729.6483593,0.8891749511718751,-1.087961572265625,-0.14724580078124896,1.4127893694269889,1.1846795258382188,-0.8782620773331226,-0.2518363587721526,1.496071992593062
192,1790565729.6430638,0.951445458984375,-1.0783814941406251,-0.08497529296874896,1.4406165030090694,1.1846795258382188,-0.8782620773331226,-0.2518363587721526,1.496071992593062
193,1790565729.6630638,1.008925927734375,-1.0352711425781251,-0.11850556640624896,1.4504349125620741,1.2031861560662995,-0.9004093856631706,-0.25483476327478055,1.5242489115998212
194,1790565729.688042,0.980185693359375,-0.925100244140625,-0.23825654296874896,1.3687003453798285,1.2265586184931765,-0.9275928522497593,-0.2586861326863937,1.559420744824493
195,1790565729.708042,0.8700147949218751,-0.939470361328125,-0.24304658203124896,1.3033042408563023,1.2452410718169182,-0.9488906068935152,-0.26202930519418643,1.587349384216039
196,1790565729.7186363,0.884384912109375,-1.054431298828125,-0.18077607421874897,1.3880353114114268,1.2550470599205548,-0.9600644662509614,-0.2638713656084597,1.6020284016087372
197,1790565729.7386363,0.951445458984375,-1.0783814941406251,-0.14724580078124896,1.4456266579496473,1.2735357328706516,-0.9811935323117599,-0.26731921345997894,1.6297526108688023
198,1790565729.7633257,0.937075341796875,-0.996950830078125,-0.20951630859374898,1.3841669831938428,1.2964329234122611,-1.00720721303746,-0.2715976663499656,1.6640222316029003
199,1790565729.7833257,0.822114404296875,-0.963420556640625,-0.15682587890624897,1.2761840067188017,1.3148376334459837,-1.0280595637320415,-0.27509312043553524,1.6915616139584484
200,1790565729.8079813,0.822114404296875,-0.9873707519531251,-0.13766572265624896,1.292178372655785,1.3371637074553286,-1.0535173159770883,-0.27930044264391046,1.7250838393713888
201,1790565729.8279812,0.9274952636718751,-1.001740869140625,-0.23346650390624896,1.38500499691755,1.3551819121854918,-1.0740540604865392,-0.282758082463579,1.752159317288479
202,1790565729.8376195,0.903545068359375,-1.006530908203125,-0.29573701171874894,1.3845427186710748,1.3638862931497,-1.0839182230962294,-0.2845569774714188,1.765230072378495
203,1790565729.8576195,0.7502638183593751,-1.025691064453125,-0.21430634765624895,1.2887455790356508,1.3817197312284426,-1.104364895130361,-0.2884949203895138,1.792205500592174
204,1790565729.912682,0.779004052734375,-0.9873707519531251,-0.12329560546874896,1.2637049190048149,1.429768229313106,-1.160526697406774,-0.29910452772346163,1.8656159635497558
205,1790565729.932682,1.037666162109375,-0.939470361328125,-0.17598603515624897,1.4107893919259578,1.44732770572465,-1.180756328233154,-0.3028290555943294,1.892260138388211
206,1790565729.927207,1.114306787109375,-1.006530908203125,-0.18556611328124897,1.5130164795416259,1.44732770572465,-1.180756328233154,-0.3028290555943294,1.892260138388211
207,1790565729.947207,0.961025537109375,-0.992160791015625,-0.10892548828124896,1.3855749276753033,1.4658711858431273,-1.2008514204473317,-0.30642274251173546,1.9195617636856397
208,1790565729.957495,0.917915185546875,-1.001740869140625,-0.13287568359374896,1.3651772793504422,1.4754289355833141,-1.211176301574581,-0.30818062148048475,1.933601270404136
209,1790565729.977495,1.023296044921875,-1.131071923828125,-0.18556611328124897,1.536519858258694,1.4941340611744096,-1.2314364440300092,-0.3115630187182147,1.9611078050631523
210,1790565730.0025334,1.008925927734375,-1.260402978515625,-0.18077607421874897,1.624569846117941,1.5178551483701352,-1.2574869174144607,-0.31585029978335627,1.9962261922877087
211,1790565730.0225334,0.994555810546875,-1.260402978515625,-0.20951630859374898,1.6191522510592888,1.5369659018952073,-1.2789552032606235,-0.31934660564713147,2.0248389689242736
212,1790565730.047559,0.975395654296875,-1.3130934082031251,-0.24783662109374896,1.6543983715668047,1.560989336612096,-1.3066188898852589,-0.3239236541411144,2.0612780419278205
213,1790565730.067559,0.951445458984375,-1.250822900390625,-0.19035615234374897,1.5830482792065188,1.5801988006698573,-1.3292568019681532,-0.32769014809024866,2.090773236956238
214,1790565730.108021,0.932285302734375,-1.126281884765625,-0.19514619140624898,1.4750419674253672,1.6189485787913072,-1.375399485529038,-0.3353370170009005,2.1506206454265704
215,1790565730.128021,0.884384912109375,-1.145442041015625,-0.21430634765624895,1.4629085250754774,1.6379541737272356,-1.3981937653585437,-0.3391640021215528,2.1801082314997764
216,1790565730.1225505,0.922705224609375,-1.102331689453125,-0.19514619140624898,1.4507246882556255,1.6379541737272356,-1.3981937653585437,-0.3391640021215528,2.1801082314997764
217,1790565730.1425505,0.951445458984375,-0.9298902832031251,-0.17119599609374897,1.3413621693249393,1.656800977139853,-1.4205768713604305,-0.34300056311785443,2.209225545659593
218,1790565730.1679208,0.8891749511718751,-0.805349267578125,-0.18077607421874897,1.2132186635516582,1.680624669123778,-1.4480130345875142,-0.3478070259928744,2.2454867521614905
219,1790565730.1879208,0.8269044433593751,-0.786189111328125,-0.16640595703124897,1.1530634066493788,1.6991623900111947,-1.4687845622828308,-0.3515484778246028,2.2733383492761736
220,1790565730.2128475,0.8269044433593751,-0.685598291015625,-0.14724580078124896,1.084203532985728,1.7218927531501995,-1.4935410958726507,-0.35609848450826065,2.3070296463376305
221,1790565730.2328475,0.8269044433593751,-0.699968408203125,-0.14245576171874896,1.0927123935312364,1.7398755717752863,-1.512503399847667,-0.3596361409958439,2.333274886017829
222,1790565730.2422638,0.740683740234375,-0.738288720703125,-0.18556611328124897,1.0621287212778634,1.7481792751674972,-1.5211077513827238,-0.3612835505627278,2.3452985680609992
223,1790565730.2622638,0.707153466796875,-0.838879541015625,-0.14724580078124896,1.1070077848800957,1.7653422883915186,-1.5390075422316225,-0.364756952261781,2.3702373814562385
224,1790565730.2874823,0.850854638671875,-0.901150048828125,-0.12808564453124896,1.2459658739256725,1.786684173389279,-1.5614833686762308,-0.36900045622432986,2.401381265602354
225,1790565730.3074822,0.836484521484375,-0.872409814453125,-0.16640595703124897,1.2200394180404852,1.8036019152101475,-1.5792948404336726,-0.3723027731909543,2.426058823791337
226,1790565730.3336828,0.721523583984375,-0.814929345703125,-0.21909638671874895,1.1102744468855403,1.8255017700585148,-1.6024440254490497,-0.37673750894711916,2.4580916821452785
227,1790565730.3536828,0.721523583984375,-0.862829736328125,-0.13766572265624896,1.1331475134915958,1.8418758656517862,-1.6199808053942997,-0.38015009062875105,2.48220841303093
228,1790565730.3782396,0.874804833984375,-0.925100244140625,-0.11371552734374896,1.278289943804042,1.8619050512380362,-1.6415763328314796,-0.3841746789336737,2.5117829245920027
229,1790565730.3982396,0.8077442871093751,-0.862829736328125,-0.13287568359374896,1.1893619863356995,1.8782944733707885,-1.6592081573060629,-0.3873306664503942,2.535939053514326
230,1790565730.4072878,0.687993310546875,-0.800559228515625,-0.12329560546874896,1.0627472324342637,1.885612056049739,-1.6671172766661773,-0.3887181431555589,2.5467458913086087
231,1790565730.4272878,0.721523583984375,-0.786189111328125,-0.09934541015624895,1.0717085011959537,1.9014747504844116,-1.6843572089965708,-0.3916589234234036,2.570226088601089
232,1790565730.4530368,0.7694239746093751,-0.776609033203125,-0.14724580078124896,1.1030939076089996,1.9217130846944273,-1.7062414548512053,-0.3953533241233196,2.600104869622356
233,1790565730.4730368,0.731103662109375,-0.743078759765625,-0.15682587890624897,1.0541693242829997,1.9373256270563466,-1.7229694012094536,-0.39824854844549706,2.623062341823441
234,1790565730.4828947,0.683203271484375,-0.719128564453125,-0.07060517578124896,0.9944333528328915,1.9449123275809272,-1.7310588271116225,-0.39962968341816246,2.634189155844019
235,1790565730.5028946,0.726313623046875,-0.680808251953125,-0.08018525390624896,0.9987297081267571,1.9601099023835078,-1.7471089841378709,-0.4022376427379447,2.656353845614798
236,1790565730.5283828,0.721523583984375,-0.671228173828125,-0.14724580078124896,0.9964059762135152,1.9793403288866174,-1.7670798339309148,-0.4054974661648623,2.684173517511194
237,1790565730.5483828,0.716733544921875,-0.738288720703125,-0.11850556640624896,1.0357706207471808,1.9943239509958872,-1.7825141905067292,-0.4080703177622111,2.7057727630221016
238,1790565730.5725875,0.745473779296875,-0.757448876953125,-0.09455537109374897,1.0669586097967403,2.012392058866219,-1.8011068391895448,-0.4111037966703597,2.7317968402500137
239,1790565730.5925875,0.707153466796875,-0.819719384765625,-0.08976533203124896,1.0863073737198206,2.0272609771917374,-1.8165309755702839,-0.4135108151767031,2.7532822320130617
240,1790565730.6031487,0.774214013671875,-0.862829736328125,-0.09455537109374897,1.1631092859489398,2.0351083094385816,-1.8247868732752155,-0.41473721068440095,2.7646916497052207
241,1790565730.6231487,0.721523583984375,-0.814929345703125,-0.07060517578124896,1.0907296693410709,2.0499834489219344,-1.8405926961168173,-0.4169590308116449,2.7864078034680833
242,1790565730.6483278,0.711943505859375,-0.786189111328125,-0.09934541015624895,1.0652823028781424,2.068608566785689,-1.8605303509055906,-0.4196575742278948,2.8136856734231817
243,1790565730.6683278,0.755053857421875,-0.762238916015625,-0.17119599609374897,1.0864725315326014,2.083384017805325,-1.8763141218204786,-0.42188533778261245,2.8353184808105
244,1790565730.6923776,0.735893701171875,-0.8292994628906251,-0.18077607421874897,1.1233686516834367,2.101175508388008,-1.895317670900736,-0.4247972332088283,2.8614018033160025
245,1790565730.7123775,0.692783349609375,-0.790979150390625,-0.12808564453124896,1.0592462972244208,2.11589474160644,-1.911181070486736,-0.42731884847507995,2.8830929641630845
246,1790565730.753075,0.635302880859375,-0.676018212890625,-0.03707490234374896,0.928431431486383,2.14540741104365,-1.9430967325331376,-0.4321844507378314,2.926633094667238
247,1790565730.7730749,0.692783349609375,-0.656858056640625,-0.06581513671874896,0.9569445690796263,2.159727492818809,-1.9584277710860352,-0.43437123217554774,2.9476330411264113
248,1790565730.7677107,0.755053857421875,-0.666438134765625,-0.12808564453124896,1.0152103463876458,2.159727492818809,-1.9584277710860352,-0.43437123217554774,2.9476330411264113
249,1790565730.7877107,0.707153466796875,-0.632907861328125,-0.13287568359374896,0.9582767522090297,2.1741130514744746,-1.9731406646109162,-0.4365898466435002,2.9682759873578224
250,1790565730.8129437,0.683203271484375,-0.5897975097656251,-0.19035615234374897,0.9224225048359356,2.192171412319795,-1.9912327845425388,-0.4395808083770593,2.9939697377098895
251,1790565730.8329437,0.711943505859375,-0.585007470703125,-0.24783662109374896,0.954211866971362,2.2064303997694807,-2.005184003765811,-0.4422531660612629,3.014081263150748
252,1790565730.8734226,0.702363427734375,-0.599377587890625,-0.25262666015624896,0.957281623612438,2.23525466962031,-2.03278077784132,-0.448369941672998,3.054438857370763
253,1790565730.8934226,0.697573388671875,-0.541897119140625,-0.18556611328124897,0.9026050646403335,2.249459930895319,-2.0460825336676467,-0.4515960987082146,3.0741604954282837
254,1790565730.8876214,0.659253076171875,-0.537107080078125,-0.07060517578124896,0.8532782223631578,2.249459930895319,-2.0460825336676467,-0.4515960987082146,3.0741604954282837
255,1790565730.9076214,0.7502638183593751,-0.517946923828125,-0.10892548828124896,0.9181664201219272,2.263567457584843,-2.0586513607907655,-0.45452291098749875,3.093278865045202
256,1790565730.932603,0.664043115234375,-0.608957666015625,-0.08976533203124896,0.9054504474150151,2.2811954891790656,-2.074107251827905,-0.4580026202176067,3.116976123113909
257,1790565730.9526029,0.635302880859375,-0.695178369140625,0.11141630859375105,0.9483123478948792,2.2951404339682853,-2.086581233593319,-0.4603380962098211,3.135825572132804
258,1790565730.9776278,0.812534326171875,-0.656858056640625,0.14015654296875105,1.0541908718625073,2.312689101406427,-2.102385639941567,-0.4623498436973104,3.159481545564637
259,1790565730.9976277,0.822114404296875,-0.652068017578125,-0.0035446289062489545,1.0493223326007861,2.3270622854524468,-2.115085323804856,-0.4635115523461705,3.1786235647695396
260,1790565731.0073075,0.620932763671875,-0.819719384765625,-0.16161591796874897,1.0409692943130497,2.334022923343716,-2.1213783626605083,-0.46410937359387006,3.187994145997734
261,1790565731.0273075,0.410171044921875,-1.025691064453125,-0.20951630859374898,1.1243573850684838,2.347794086439359,-2.135198524434073,-0.4657159853980474,3.207507005467072
262,1790565731.0530963,0.391010888671875,-1.3562037597656251,-0.09455537109374897,1.4146090877924766,2.36443722983477,-2.1549527213252957,-0.46806499399849133,3.2331825626745587
263,1790565731.0730963,0.38622084960937497,-1.461584619140625,0.07788603515625105,1.513757701236824,2.376574247658102,-2.1722013797488273,-0.4696384660289403,3.253786145029879
264,1790565731.0976682,0.26646987304687497,-1.370573876953125,0.39402861328125105,1.4507713443242127,2.3904518535986945,-2.1954336295892856,-0.4704119653800947,3.2795542842706205
265,1790565731.1176682,0.08923842773437499,-1.284353173828125,0.7676516601562511,1.498938171989602,2.4005865907961366,-2.2154891707173547,-0.4692045895707944,3.3002062348208465
266,1790565731.1276543,-0.05925278320312503,-1.030481103515625,0.7005911132812511,1.2474895210095993,2.404910356009316,-2.2257347122974607,-0.4675925061446906,3.3100047706565903
267,1790565731.1476543,-0.12152329101562503,-0.814929345703125,0.47066923828125107,0.9488979295011897,2.4119997714420585,-2.245944364685364,-0.4630912805197834,3.328131986684413
268,1790565731.172414,-0.09278305664062503,-0.666438134765625,0.39402861328125105,0.7797480562039307,2.419061937766805,-2.2699616779392002,-0.45674895142621047,3.3486125907147843
269,1790565731.192414,0.08444838867187499,-0.556267236328125,0.3796584960937511,0.678752784316628,2.423898298094252,-2.2882859498333583,-0.45123379764559474,3.36379956118771
270,1790565731.2174006,-0.001772314453125022,-0.556267236328125,0.34612822265625104,0.6551649607769223,2.42918909607439,-2.309829874172055,-0.44401698865820355,3.3813347657872477
271,1790565731.2374005,0.07486831054687498,-0.350295556640625,0.22637724609375107,0.4237439067117065,2.4328984221946466,-2.3258474836080563,-0.43824815548366236,3.3942042801675862
272,1790565731.2625563,0.19940932617187498,-0.426936181640625,0.2599075195312511,0.5381361363698647,2.437381618702133,-2.3444386492425733,-0.43116310472455227,3.4092702090220253
273,1790565731.2825563,0.309580224609375,-0.259284814453125,0.13057646484375104,0.42440398636944243,2.4411747940753874,-2.3580316720938232,-0.42578938485309425,3.420664312977843
274,1790565731.3377378,0.18024916992187498,0.23408920898437505,-0.07539521484374896,0.30491303586726237,2.452097824308105,-2.390014523348437,-0.4129584765258057,3.4489835988487267
275,1790565731.3577378,0.05570815429687498,0.12391831054687502,-0.12329560546874896,0.1834692139620748,2.4558168610464968,-2.3993305959576383,-0.40930364383826334,3.457651404719392
276,1790565731.3387394,0.352690576171875,0.34905014648437505,-0.367587597656249,0.6175332292532162,2.4558168610464968,-2.3993305959576383,-0.40930364383826334,3.457651404719392
277,1790565731.3587394,0.568242333984375,0.30593979492187506,-0.48254853515624896,0.8058235520449192,2.4604059710225754,-2.4044759402350318,-0.40856410569170565,3.4643941343144466
278,1790565731.367792,0.496391748046875,0.6460325683593751,-0.487338574218749,0.9493480567376782,2.462894370857408,-2.4058091893356255,-0.4089380753350386,3.467130930171454
279,1790565731.3877919,0.529922021484375,0.7035130371093751,-0.19993623046874898,0.9031735373066441,2.469106879161332,-2.4062886204927323,-0.41067127513316115,3.4720836110402247
280,1790565731.42815,0.759843896484375,0.669982763671875,-0.28136689453124897,1.0513833648960402,2.4836666287348645,-2.402953577524329,-0.4151009279293175,3.480674445965316
281,1790565731.44815,0.893964990234375,1.1873069824218752,-0.717260449218749,1.6502526552882641,2.4922803269258744,-2.398762829097157,-0.41846476526967996,3.4843417022462293
282,1790565731.4733098,0.577822412109375,1.048395849609375,-0.659779980468749,1.3668658383474959,2.504268147785231,-2.3900629430588722,-0.4246601548298584,3.487706420399376
283,1790565731.4933097,0.429331201171875,1.254367529296875,-0.635829785156249,1.4703886202449588,2.5138788008558035,-2.38073046715364,-0.4307896649767834,3.4889889535618495
284,1790565731.503361,0.994555810546875,1.412438818359375,-0.573559277343749,1.8201909022209903,2.519057654090143,-2.3747334782221237,-0.434319750672466,3.4890749781343584
285,1790565731.523361,1.746591943359375,1.4747093261718751,-0.841801464843749,2.4359763380458492,2.5319285228518353,-2.360259871443296,-0.44241333042636005,3.4895871189175294
286,1790565731.5329082,1.674741357421875,1.6711009277343751,-0.942392285156249,2.546652733306206,2.539600798540846,-2.352134558496176,-0.44697492224261076,3.49025726535095
287,1790565731.5529082,0.692783349609375,1.6327806152343751,-0.635829785156249,1.8841976601919905,2.5568134806933225,-2.3327106557616295,-0.45746470932439,3.4911471093089452
288,1790565731.5783908,0.692783349609375,1.9441331542968752,-0.654989941406249,2.1653208340741714,2.5781031477154617,-2.304838105686054,-0.4712923075303376,3.4901305094251303
289,1790565731.5983908,1.4927198730468751,2.102204443359375,-0.841801464843749,2.7122141964236635,2.595584158134968,-2.2801742746453337,-0.4827621572469354,3.488453976360488
290,1790565731.638081,1.607680810546875,1.613620458984375,-0.7651608398437489,2.4028898612054594,2.6343009592292765,-2.2275092465515502,-0.5068934857049427,3.486872523210312
291,1790565731.658081,1.181367333984375,1.4651292480468752,-0.822641308593749,2.0540134405335784,2.6550675645860986,-2.200333836235982,-0.519611028060987,3.4872407980930578
292,1790565731.652631,1.052036279296875,1.283107763671875,-0.884911816406249,1.880482594699366,2.6550675645860986,-2.200333836235982,-0.519611028060987,3.4872407980930578
293,1790565731.672631,1.564570458984375,0.9765452636718751,-1.009452832031249,2.1025024121799385,2.676843930211999,-2.1738061271261633,-0.5338181248340766,3.489396551761556
294,1790565731.6985316,1.511880029296875,0.47838120117187505,-0.755580761718749,1.7565682691261535,2.70679098905262,-2.141778783994592,-0.5528856227079275,3.495656780890102
295,1790565731.7185316,1.042456201171875,0.262829443359375,-0.554399121093749,1.2096084627381776,2.7302783845408243,-2.119645669782681,-0.5673656337626278,3.502744864373395
296,1790565731.7426972,1.349018701171875,0.14307846679687503,-0.654989941406249,1.5064311225926523,2.758735247904056,-2.096178393671894,-0.5844291118871228,3.5137076447744344
297,1790565731.7626972,2.014834130859375,-0.206594384765625,-0.707680371093749,2.1454718181145904,2.7837997931729115,-2.0797649603479895,-0.5984768929777275,3.526065536853944
298,1790565731.7732449,1.952563623046875,-0.685598291015625,-0.568769238281249,2.1461705815485677,2.7981741038345143,-2.0731130172679713,-0.6057839272316919,3.5347630845967952
299,1790565731.7932448,1.382548974609375,-0.800559228515625,-0.6070895507812489,1.7090624529907459,2.8263443292289634,-2.064621090421555,-0.6193247072710418,3.5544965336056484
300,1790565731.8184507,1.521460107421875,-0.6903883300781251,-0.7651608398437489,1.8376474133017566,2.8620115253778033,-2.0583426616774148,-0.6364244188241921,3.58230659284662
301,1790565731.8384507,2.139375146484375,-1.121491845703125,-0.396327832031249,2.447804266647199,2.8915583689177895,-2.0568260185269476,-0.649699481328392,3.607457898213963
302,1790565731.8634293,2.1872755371093753,-1.547805322265625,0.06830595703125104,2.680399465497047,2.9310306325634845,-2.0602166161157975,-0.6644067117448235,3.643743864894553
303,1790565731.8834293,1.8855030761718752,-1.365783837890625,-0.07060517578124896,2.3292643544569924,2.964003863475547,-2.0668945716553657,-0.6744196207207156,3.6758963393775757
304,1790565731.8924809,1.6939015136718751,-1.279563134765625,-0.329267285156249,2.148255361670318,2.979118332556501,-2.071259364920141,-0.6785429642003391,3.691298138922051
305,1790565731.9124808,2.081894677734375,-1.5957057128906251,-0.611879589843749,2.693503072914128,3.0131689172759843,-2.083769901129426,-0.6876988468030762,3.727494282864207
306,1790565731.938358,2.335766748046875,-1.902268212890625,-0.760370800781249,3.1068624703607792,3.059190958593934,-2.1043176267228674,-0.7004315903294799,3.778545541344039
307,1790565731.958358,2.0771046386718752,-2.156140283203125,-0.813061230468749,3.1023173862992857,3.0960443197674588,-2.123904008574679,-0.7111564788854998,3.8212827957460513
308,1790565731.9831138,1.554990380859375,-1.978908837890625,-0.559189160156249,2.578132616853342,3.141562072871371,-2.152188669753964,-0.7249881654459513,3.8764592307875354
309,1790565732.0031137,1.871132958984375,-1.9549586425781251,-0.09455537109374897,2.7077560013027773,3.1779587231614115,-2.177512808836603,-0.7354671308688416,3.9219759789363353
310,1790565732.013486,2.417197412109375,-1.6771363769531251,-0.257416699218749,2.953285139136482,3.197338940514793,-2.191501578252381,-0.7403602434562799,3.9463639920952014
311,1790565732.033486,2.120214990234375,-1.883108056640625,-0.405907910156249,2.864641127493424,3.2359092484708567,-2.2197695470305194,-0.7493750459011606,3.995002936880356
312,1790565732.057542,1.760962060546875,-1.9932789550781251,-0.37237763671874896,2.6856681618865497,3.282345595915747,-2.255664250731017,-0.7599958778261394,4.054553928284362
313,1790565732.077542,1.780122216796875,-2.069919580078125,-0.329267285156249,2.749876200813191,3.320472760784945,-2.287125038890012,-0.7685538520975882,4.104528635812701
314,1790565732.1176977,1.789702294921875,-1.926218408203125,-0.44422822265624895,2.666587777357711,3.396292364313759,-2.3528516095577787,-0.7854885501301818,4.2056753064020755
315,1790565732.1376977,1.665161279296875,-1.940588525390625,-0.563979199218749,2.6185336446375453,3.4335730532626285,-2.3864773049475474,-0.7941702020638046,4.256219466729485
316,1790565732.1477513,1.521460107421875,-2.031599267578125,-0.583139355468749,2.604282617228143,3.4519051260946445,-2.403840007393578,-0.7987446505719142,4.281598859949597
317,1790565732.1677513,1.7274317871093752,-2.108239892578125,-0.659779980468749,2.804283446158939,3.487776695447765,-2.4394088597369468,-0.8083440960822579,4.33228831449878
318,1790565732.1778,1.842392724609375,-2.146560205078125,-0.822641308593749,2.945992258700527,3.5057866500743913,-2.4578057637471873,-0.8135609258412542,4.35812236957665
319,1790565732.1978,1.660371240234375,-2.2471510253906253,-0.851381542968749,2.920851060567694,3.54150952178031,-2.4955196850766725,-0.8248976424461394,4.410256717242089
320,1790565732.2236288,1.382548974609375,-2.419592431640625,-0.789111035156249,2.896302026421173,3.5866181030947417,-2.545959504779648,-0.8405201600101951,4.477969780693961
321,1790565732.2436287,1.564570458984375,-2.429172509765625,-0.774740917968749,2.9914851317201396,3.620728272410704,-2.586431045649356,-0.8531483394921815,4.530690992079607
322,1790565732.2690654,1.8088624511718752,-2.4866529785156253,-0.702890332031249,3.154279826154166,3.6640390112324717,-2.6395612938230366,-0.8696190847866481,4.598771906966831
323,1790565732.2890654,1.6939015136718751,-2.4962330566406252,-0.640619824218749,3.083970747310572,3.698238872358351,-2.6825439755462948,-0.8826421858218984,4.653178501406812
324,1790565732.297792,1.392129052734375,-2.438752587890625,-0.616669628906249,2.8750337242588477,3.712942732287232,-2.7017153457083887,-0.8882950922603049,4.676994517146083
325,1790565732.317792,1.4112892089843752,-2.505813134765625,-0.47296845703124896,2.9145387043417683,3.7457919405526923,-2.746479275460326,-0.9009417808523921,4.731363626369047
326,1790565732.343307,1.473559716796875,-2.673464501953125,-0.276576855468749,3.065172986823246,3.7869338925648997,-2.804932144918345,-0.9160901008034832,4.800805527934151
327,1790565732.363307,1.511880029296875,-2.625564111328125,0.05872587890625105,3.0303162961206342,3.8188237797577123,-2.8518261921928727,-0.9265097788265109,4.85538341035818
328,1790565732.3882127,1.626840966796875,-2.299841455078125,0.33654814453125104,2.837101849305359,3.858441884406334,-2.910663482203439,-0.9368005869626506,4.923122080723504
329,1790565732.4082127,1.741801904296875,-1.878318017578125,0.29343779296875105,2.5783828628256917,3.890537152844439,-2.9570915506995608,-0.9428798524299848,4.9769159318799066
330,1790565732.4181843,1.7753321777343751,-1.662766259765625,-0.07539521484374896,2.43357358925827,3.9067693053421526,-2.979415772353066,-0.9452931420484444,5.00333327633825
331,1790565732.4381843,1.396919091796875,-1.964538720703125,0.029985644531251045,2.4107456259519444,3.9392008508330227,-3.0229158822712017,-0.9494755216171193,5.055376102788118
332,1790565732.4632146,1.267588037109375,-2.079499658203125,0.07788603515625105,2.4366297410074584,3.9787032881179787,-3.07678273288112,-0.9537221981176935,5.119204808504801
333,1790565732.4832146,1.440029443359375,-2.117819970703125,-0.19514619140624898,2.56844860997281,4.0095937454320465,-3.119663679751837,-0.9567823211622576,5.169581790460346
