imu_index,t_imu,ax,ay,az,mag
0,1789538940.3622022,-0.01561368502103353,0.7219141564002404,1.1018471585787262,1.317372763206762
1,1789538940.3822021,0.07539705716646647,0.9087256798377404,0.8096547757662261,1.2194293474191051
2,1789538940.3622022,0.08018709622896647,0.9374659142127404,0.5270424710787261,1.0784461400705798
3,1789538940.3822021,0.09455721341646647,0.8320850548377404,0.35939110389122614,0.9113004831829986
4,1789538940.4057343,0.10413729154146648,0.7027540001502404,0.32586083045372616,0.7815964694397926
5,1789538940.4257343,0.09934725247896647,0.7171241173377404,0.16778954139122615,0.7431623015484778
6,1789538940.4513052,0.05144686185396648,0.9183057579627404,-0.004651864858773871,0.9197575139942095
7,1789538940.4713051,-0.03477384127103353,1.2583985314002404,-0.22020362267127389,1.2779928479082259
8,1789538940.481398,-0.12578458345853352,1.4595801720252404,-0.15314307579627387,1.4729727905393943
9,1789538940.501398,-0.05393399752103353,1.7805127892127404,-0.08129248985877388,1.7831834279025167
10,1789538940.5256755,-0.006033606896033528,1.9912745079627405,-0.019021982046273873,1.9913745017638944
11,1789538940.5456755,-0.19763516939603354,1.6080713829627404,0.15341942420372615,1.62741843193719
12,1789538940.5567262,-0.3700765756460335,1.0620069298377404,0.37855126014122614,1.1866408249423193
13,1789538940.5767262,-0.40839688814603353,0.9949463829627404,0.41687157264122615,1.153467915156019
14,1789538940.601644,-0.29822598970853353,1.3398291954627404,0.33544090857872616,1.4130115417434104
15,1789538940.621644,-0.21679532564603354,1.5314307579627404,0.25880028357872614,1.5682021446346552
16,1789538940.6458836,-0.29343595064603356,1.2440284142127405,0.23964012732872614,1.3004379043715757
17,1789538940.6658835,-0.42276700533353356,0.7219141564002404,0.47914208045372614,0.9640897900461759
18,1789538940.675964,-0.48503751314603355,0.5446827110877404,0.39771141639122615,0.8307316146895427
19,1789538940.695964,-0.40839688814603353,0.6883838829627403,0.2923305570162261,0.8521253095265042
20,1789538940.7209723,-0.32217618502103357,0.7698145470252404,0.37855126014122614,0.9163585474915884
21,1789538940.7409723,-0.26469571627103355,0.8464551720252403,0.41687157264122615,0.97996535068179
22,1789538940.7661333,-0.2599056772085335,0.8368750939002404,0.2923305570162261,0.9237792151814088
23,1789538940.7861333,-0.21679532564603354,0.7985547814002404,0.23485008826622614,0.8601421487625227
24,1789538940.7961748,-0.09225431002103353,0.8129248985877404,0.21568993201622613,0.8460968592510607
25,1789538940.8161747,-0.02998380220853353,0.9135157189002404,0.12467918982872614,0.92247216621915
26,1789538940.8407757,0.013126549353966472,1.0188965782752404,0.17257958045372615,1.0334922617555098
27,1789538940.8607757,0.07060701810396648,1.1242774376502405,0.22047997107872613,1.1478660747063658
28,1789538940.8861375,0.022706627478966474,1.1194873985877405,0.24922020545372614,1.147117403466015
29,1789538940.9061375,-0.07309415377103354,1.0859571251502405,0.23485008826622614,1.1134631547288543
30,1789538940.9317153,-0.010823645958533528,1.1290674767127404,0.29712059607872615,1.1675577788257367
31,1789538940.9517152,0.11850740872896648,1.0955372032752404,0.44082176795372613,1.1868317491479736
32,1789538940.9617577,0.10413729154146648,1.1051172814002403,0.34023094764122613,1.1609848745233062
33,1789538940.9817576,-0.0012435678335335283,1.0236866173377404,0.2635903226412261,1.0570788500237094
34,1789538941.0058377,-0.05393399752103353,0.8320850548377404,0.2635903226412261,0.8745023000330131
35,1789538941.0258377,-0.04914395845853353,0.5877930626502403,0.33065086951622613,0.6761995346527235
36,1789538941.0509439,-0.03477384127103353,0.47762216421274034,0.26838036170372614,0.5489628132507955
37,1789538941.0709438,-0.058724036583533534,0.5973731407752404,0.13425926795372614,0.6150843298473875
38,1789538941.0814037,-0.04435391939603353,0.5973731407752404,0.20610985389122613,0.6334849732681334
39,1789538941.1014037,-0.03956388033353353,0.33392099233774036,0.24443016639122614,0.4157097978072082
40,1789538941.1268167,-0.12578458345853352,0.13273935171274034,0.12946922889122614,0.22406199623908574
41,1789538941.1468167,-0.13536466158353352,0.21417001577524036,-0.004651864858773871,0.2534048679671635
42,1789538941.1718333,-0.04914395845853353,0.23812021108774034,0.04803856482872613,0.24783879295269298
43,1789538941.1918333,0.08976717435396647,0.23333017202524037,0.14383934607872614,0.2884282792119719
44,1789538941.2008843,0.12808748685396648,0.09920907827524035,0.17736961951622615,0.240226616818617
45,1789538941.2208843,0.013126549353966472,-0.10197256234975967,0.043248525766226134,0.11153987964432124
46,1789538941.2457943,-0.05393399752103353,-0.3175243201622597,-0.014231942983773872,0.32238659740162495
47,1789538941.2657943,-0.058724036583533534,-0.47080557016225966,-0.10045264610877387,0.4849712687146829
48,1789538941.291716,0.027496666541466472,-0.5761864295372597,-0.19625342735877388,0.6093129540752057
49,1789538941.311716,0.08018709622896647,-0.7438377967247597,-0.19625342735877388,0.7734597895094767
50,1789538941.3214412,0.1711978384164665,-0.6911473670372597,-0.3495346773587739,0.7932010297001065
51,1789538941.3414412,0.2526285024789665,-0.7103075232872597,-0.5028159273587739,0.906190815837873
52,1789538941.3659499,0.29094881497896646,-0.8635887732872597,-0.6273569429837739,1.1063514433467354
53,1789538941.3859499,0.3244790884164665,-0.8300584998497597,-0.6369370211087739,1.0954325907381672
54,1789538941.4114118,0.3819595571664665,-0.7246776404747597,-0.4213852632962739,0.9212037375294014
55,1789538941.4314117,0.3532193227914665,-0.7821581092247597,-0.19146338829627388,0.8793141798454083
56,1789538941.441489,0.3867495962289665,-0.7965282264122597,-0.062132333608773876,0.8876333097255874
57,1789538941.461489,0.4586001821664665,-0.7582079139122597,-0.052552255483773874,0.8876683543749483
58,1789538941.4865408,0.4777603384164665,-0.7821581092247597,-0.12440284142127388,0.9249336818083523
59,1789538941.5065408,0.5017105337289665,-0.9498094764122597,-0.2537338961087739,1.1037356527591529
60,1789538941.5316377,0.4873404165414665,-0.8731688514122597,-0.36869483360877386,1.0657675192091456
61,1789538941.5516376,0.5256607290414665,-0.8108983435997597,-0.38785498985877387,1.0413005420471024
62,1789538941.5760458,0.6023013540414665,-0.7150975623497597,-0.4213852632962739,1.0255227861349656
63,1789538941.5960457,0.4969204946664665,-0.7294676795372597,-0.4644956148587739,0.9974012481103431
64,1789538941.6216404,0.4442300649789665,-0.9210692420372597,-0.3064243257962739,1.067522724206848
65,1789538941.6416404,0.5017105337289665,-0.9162792029747597,-0.17230323204627387,1.0587584432873522
66,1789538941.6511426,0.5065005727914665,-0.7582079139122597,-0.27768409142127387,0.9531686763557239
67,1789538941.6711426,0.5065005727914665,-0.6145067420372596,-0.3064243257962739,0.8532626991068061
68,1789538941.6961298,0.4921304556039665,-0.5666063514122597,-0.2968442476712739,0.8070635973510423
69,1789538941.7161298,0.4681802602914665,-0.6336668982872596,-0.13398291954627387,0.7991732708503988
70,1789538941.726254,0.43944002591646647,-0.49954580453725966,-0.19146338829627388,0.6923234621664447
71,1789538941.746254,0.4250699087289665,-0.46122549203725965,-0.2249936617337739,0.6663599099827631
72,1789538941.7709022,0.4586001821664665,-0.23609365609975966,-0.18188331017127388,0.5469331586698027
73,1789538941.7909021,0.5208706899789665,0.06567880483774034,-0.2345737398587739,0.5750172349724922
74,1789538941.815981,0.5400308462289665,0.21417001577524036,-0.2345737398587739,0.6265197123533083
75,1789538941.835981,0.4969204946664665,0.16147958608774035,-0.17230323204627387,0.5501763703724705
76,1789538941.8465345,0.4346499868539665,0.15189950796274035,-0.20104346642127388,0.5024067545148629
77,1789538941.8665345,0.4106997915414665,0.13273935171274034,-0.20104346642127388,0.47614339190626653
78,1789538941.8910491,0.42027986966646647,0.17584970327524035,-0.2297837007962739,0.5102536978214697
79,1789538941.9110491,0.42985994779146647,0.19979989858774036,-0.18188331017127388,0.5077214912821925
80,1789538941.9361396,0.3675894399789665,0.34350107046274037,-0.13877295860877387,0.5218935866957278
81,1789538941.9561396,0.3053189321664665,0.49199228140024037,-0.057342294546273875,0.5818626934599918
82,1789538941.9667637,0.3053189321664665,0.43451181265024036,0.08635887732872613,0.5380316174402271
83,1789538941.9867637,0.3340591665414665,0.4009815392127404,0.10551903357872613,0.5324621939510692
84,1789538942.0114102,0.3580093618539665,0.6261133751502403,-0.11482276329627387,0.7303238519233108
85,1789538942.0314102,0.4538101431039665,0.9709961876502404,-0.2824741304837739,1.108408262693809
86,1789538942.0717034,0.5256607290414665,0.9470459923377403,-0.18188331017127388,1.098315461139577
87,1789538942.0917034,0.5496109243539665,0.7985547814002404,-0.10524268517127387,0.9751091886801534
88,1789538942.086475,0.5400308462289665,0.8225049767127404,-0.21541358360877388,1.0072491070232694
89,1789538942.1064749,0.5400308462289665,0.8895655235877404,-0.2393637789212739,1.0678273054638454
90,1789538942.1314273,0.5591910024789665,0.8656153282752403,-0.15314307579627387,1.0418432105949662
91,1789538942.1514273,0.6454117056039665,0.8081348595252403,-0.062132333608773876,1.0360977983714534
92,1789538942.1761036,0.6693619009164665,0.8991456017127404,-0.11003272423377387,1.1263282682593816
93,1789538942.1961036,0.6262515493539665,0.9230957970252404,-0.20104346642127388,1.1334528349007686
94,1789538942.206428,0.5735611196664665,0.9853663048377403,-0.17230323204627387,1.1530860837232515
95,1789538942.226428,0.5448208852914666,1.0620069298377404,-0.16272315392127387,1.2046440722866016
96,1789538942.267117,0.4921304556039665,1.1003272423377404,-0.07650245079627388,1.207793463528173
97,1789538942.287117,0.4538101431039665,1.1386475548377404,0.00971825232872613,1.2257880504191303
98,1789538942.2956736,0.4106997915414665,1.1721778282752404,-0.009441903921273871,1.242080645297205
99,1789538942.3156736,0.43944002591646647,1.2104981407752404,0.07677879920372613,1.2900807219724448
100,1789538942.3413472,0.4586001821664665,1.2152881798377404,0.06240868201622613,1.3004362078654403
101,1789538942.3613472,0.42985994779146647,1.1482276329627403,0.01929833045372613,1.2262049981030094
102,1789538942.370946,0.5112906118539665,1.1051172814002403,0.08156883826622613,1.220391646478934
103,1789538942.390946,0.5783511587289665,1.0428467735877405,0.14383934607872614,1.2011283084940816
104,1789538942.4314282,0.5927212759164665,0.8464551720252403,0.22527001014122613,1.0576159258640876
105,1789538942.4514282,0.5735611196664665,0.7171241173377404,0.22047997107872613,0.9443785127306529
106,1789538942.4614422,0.5927212759164665,0.7123340782752404,0.24443016639122614,0.958375947234864
107,1789538942.4814422,0.6262515493539665,0.7985547814002404,0.24443016639122614,1.0438519282960932
108,1789538942.491144,0.6262515493539665,0.7985547814002404,0.19652977576622613,1.0336850074989734
109,1789538942.511144,0.6597818227914665,0.7650245079627404,0.13904930701622614,1.0197594134163979
110,1789538942.5358863,0.6933120962289665,0.7458643517127403,0.14862938514122614,1.0291190349326598
111,1789538942.5558863,0.6981021352914665,0.7314942345252404,0.04803856482872613,1.01229349012674
112,1789538942.5811229,0.6166714712289665,0.6835938439002404,-0.052552255483773874,0.9221420641107508
113,1789538942.6011229,0.5208706899789665,0.7171241173377404,-0.09087256798377387,0.8909719967308531
114,1789538942.610674,0.4633902212289665,0.7506543907752404,-0.07171241173377388,0.8850735458239909
115,1789538942.630674,0.3675894399789665,0.8033448204627404,0.00013817420372612912,0.8834505736262065
116,1789538942.6864462,0.24783846341646648,0.9422559532752404,-0.04776221642127387,0.9754749687966062
117,1789538942.7064462,0.1520376821664665,1.0428467735877405,-0.09087256798377387,1.0577819593814584
118,1789538942.7004578,0.19993807279146647,1.0428467735877405,0.09114891639122613,1.065745162359755
119,1789538942.7204578,0.28136873685396646,1.0380567345252405,0.19173973670372613,1.0924716366126934
120,1789538942.731311,0.2957388540414665,1.0332666954627403,0.18215965857872612,1.0900842513107731
121,1789538942.751311,0.3627994009164665,1.0907471642127404,0.17257958045372615,1.162383969750558
122,1789538942.7757788,0.4442300649789665,1.2152881798377404,0.02887840857872613,1.2942564170853412
123,1789538942.7957788,0.4681802602914665,1.2823487267127405,-0.12440284142127388,1.3707979719791166
124,1789538942.820787,0.3627994009164665,0.8464551720252403,-0.028602060171273872,0.9213728026155685
125,1789538942.840787,0.2669986196664665,0.09441903921274035,0.35460106482872616,0.45381178152106394
126,1789538942.8512506,0.28136873685396646,0.003408297025240343,0.40729149451622615,0.495041759928059
127,1789538942.8712506,0.43944002591646647,0.4009815392127404,0.23485008826622614,0.6395688353301288
128,1789538942.895663,0.5304507681039665,0.8608252892127404,0.043248525766226134,1.0120615746639323
129,1789538942.915663,0.5496109243539665,1.0284766564002403,-0.07650245079627388,1.1686269832188865
130,1789538942.940694,0.4490201040414665,0.9566260704627404,-0.10045264610877387,1.0615287215297793
131,1789538942.960694,0.3340591665414665,0.5015723595252404,0.08635887732872613,0.6087924229846937
132,1789538942.9862876,0.2526285024789665,0.2716504845252404,0.3114907132662261,0.4843981941116888
133,1789538943.0062876,0.2669986196664665,0.3818213829627404,0.32107079139122613,0.5658288473345684
134,1789538943.0159705,0.2574185415414665,0.5063623985877403,0.23006004920372614,0.6128579039814093
135,1789538943.0359704,0.23346834622896648,0.5494727501502403,0.27796043982872615,0.6585512720801137
136,1789538943.0764823,0.24783846341646648,0.46325204702524037,0.39771141639122615,0.6589390971475482
137,1789538943.0964823,0.2957388540414665,0.39619150015024035,0.37376122107872617,0.6197794970498122
138,1789538943.1056046,0.2526285024789665,0.33871103140024034,0.2731704007662261,0.503158415324399
139,1789538943.1256046,0.23346834622896648,0.37703134390024035,0.21568993201622613,0.493135123213987
140,1789538943.1510227,0.22867830716646648,0.32434091421274036,0.33544090857872616,0.5196262117609141
141,1789538943.1710227,0.24783846341646648,0.33871103140024034,0.38813133826622614,0.5716598660787562
142,1789538943.1808357,0.19993807279146647,0.4201416954627404,0.34502098670372616,0.5792527587192698
143,1789538943.2008357,0.22388826810396648,0.5590528282752404,0.34023094764122613,0.6916813711023203
144,1789538943.2264998,0.1520376821664665,0.6548536095252404,0.32107079139122613,0.7450068186207263
145,1789538943.2464998,0.046656822791466476,0.5734229454627404,0.34023094764122613,0.6683919742404199
146,1789538943.2562344,-0.03956388033353353,0.5494727501502403,0.3114907132662261,0.6328602280407712
147,1789538943.2762344,-0.058724036583533534,0.5255225548377404,0.34502098670372616,0.6313968240194615
148,1789538943.3160334,-0.08746427095853353,0.46325204702524037,0.33065086951622613,0.5758319679205208
149,1789538943.3360333,-0.10183438814603353,0.49199228140024037,0.2731704007662261,0.5718817320226892
150,1789538943.3910668,-0.10662442720853353,0.5782129845252404,0.17257958045372615,0.612766460848436
151,1789538943.4110668,-0.12099454439603353,0.5686329064002403,0.15820946326622615,0.602505847508367
152,1789538943.3920882,-0.16410489595853353,0.5542627892127404,0.13904930701622614,0.5945354204462006
153,1789538943.4120882,-0.18805509127103354,0.6740137657752404,0.043248525766226134,0.7010917976901665
154,1789538943.42064,-0.20242520845853354,0.8656153282752403,0.08635887732872613,0.8931538038087342
155,1789538943.44064,-0.17368497408353353,0.7267041954627403,0.23485008826622614,0.783211351988849
156,1789538943.4663258,-0.18805509127103354,0.6261133751502403,0.22047997107872613,0.6899232519214425
157,1789538943.4863257,-0.17847501314603353,0.6021631798377404,0.12467918982872614,0.6403114287954911
158,1789538943.5112996,-0.13057462252103352,0.5686329064002403,0.15820946326622615,0.6045025629016656
159,1789538943.5312996,-0.14494473970853353,0.4584620079627404,0.25401024451622617,0.5437992227225001
160,1789538943.5413358,-0.20721524752103354,0.3818213829627404,0.20610985389122613,0.48083988932267824
161,1789538943.5613358,-0.20721524752103354,0.4105616173377404,0.17736961951622615,0.4929086957678016
162,1789538943.585921,-0.14015470064603353,0.41535165640024035,0.2923305570162261,0.5268941954064589
163,1789538943.605921,-0.13057462252103352,0.34829110952524034,0.36418114295372617,0.5205615563061834
164,1789538943.6161509,-0.19284513033353354,0.28602060171274035,0.3114907132662261,0.4647832756765005
165,1789538943.6361508,-0.20721524752103354,0.2716504845252404,0.32586083045372616,0.47214131928056574
166,1789538943.66155,-0.18805509127103354,0.26686044546274035,0.36897118201622614,0.49266514780729115
167,1789538943.68155,-0.19763516939603354,0.24291025015024034,0.35460106482872616,0.47308240824185976
168,1789538943.7056196,-0.21200528658353354,0.2716504845252404,0.33544090857872616,0.48089586235513126
169,1789538943.7256196,-0.16410489595853353,0.37703134390024035,0.30670067420372615,0.512979877497941
170,1789538943.7515578,-0.15931485689603353,0.32434091421274036,0.41687157264122615,0.5516884631171192
171,1789538943.7715578,-0.19763516939603354,0.20458993765024036,0.44082176795372613,0.5246337140060452
172,1789538943.7812803,-0.21679532564603354,0.25728036733774035,0.33544090857872616,0.4750936789597749
173,1789538943.8012803,-0.15452481783353353,0.34350107046274037,0.28754051795372615,0.4738675492166902
174,1789538943.8408217,-0.12099454439603353,0.2812305626502404,0.32107079139122613,0.4436403523427087
175,1789538943.8608217,-0.15931485689603353,0.17105966421274035,0.29712059607872615,0.3780519553745975
176,1789538943.8708699,-0.15452481783353353,0.25249032827524037,0.15820946326622615,0.33564790996818783
177,1789538943.8908699,-0.12578458345853352,0.31955087515024033,0.13904930701622614,0.37049862756400864
178,1789538943.9015746,-0.04914395845853353,0.24291025015024034,0.3019106351412261,0.3906028032316268
179,1789538943.9215746,-0.006033606896033528,0.18063974233774036,0.3019106351412261,0.3518766154995237
180,1789538943.9463398,-0.02998380220853353,0.20458993765024036,0.17257958045372615,0.269332104607293
181,1789538943.9663398,-0.06351407564603354,0.20458993765024036,0.043248525766226134,0.2185440810771393
182,1789538944.0061553,-0.0012435678335335283,0.21896005483774036,0.09593895545372613,0.2390592714141305
183,1789538944.0261552,0.037076744666466474,0.19979989858774036,0.20131981482872613,0.28604956268696907
184,1789538944.0207205,-0.010823645958533528,0.28602060171274035,0.08635887732872613,0.2989695496357977
185,1789538944.0407205,-0.05393399752103353,0.32913095327524033,0.03845848670372613,0.3357307190175006
186,1789538944.066315,-0.02040372408353353,0.36745126577524034,0.11509911170372614,0.38559635655862995
187,1789538944.086315,0.03228670560396647,0.42493173452524036,0.15341942420372615,0.45293148498243024
188,1789538944.111474,0.008336510291466473,0.47283212515024037,0.10072899451622613,0.483514266918963
189,1789538944.131474,-0.04914395845853353,0.48720224233774034,0.05761864295372613,0.4930527979919852
190,1789538944.1408427,-0.03956388033353353,0.5207325157752404,0.06240868201622613,0.5259491393696348
191,1789538944.1608427,-0.010823645958533528,0.5398926720252404,0.15341942420372615,0.561372219068055
192,1789538944.1857932,0.008336510291466473,0.5638428673377404,0.22527001014122613,0.6072354188620032
193,1789538944.2057931,-0.0012435678335335283,0.5877930626502403,0.20131981482872613,0.6213146536203524
194,1789538944.230982,-0.01561368502103353,0.6021631798377404,0.15820946326622615,0.6227957262050072
195,1789538944.250982,-0.0012435678335335283,0.6309034142127403,0.18215965857872612,0.6566755711458797
196,1789538944.2615333,-0.02519376314603353,0.5015723595252404,0.27796043982872615,0.5739961355714465
197,1789538944.2815332,-0.05393399752103353,0.49678232046274035,0.27796043982872615,0.5718072718344203
198,1789538944.3064418,-0.07309415377103354,0.5782129845252404,0.22527001014122613,0.6248356489974923
199,1789538944.3264418,-0.02519376314603353,0.5877930626502403,0.3019106351412261,0.6612756171314548
200,1789538944.3509495,-0.006033606896033528,0.5877930626502403,0.36897118201622614,0.6940294100903622
201,1789538944.3709495,-0.02519376314603353,0.5542627892127404,0.3019106351412261,0.6316581328683449
202,1789538944.4108624,-0.05393399752103353,0.47283212515024037,0.32586083045372616,0.5767706437455737
203,1789538944.4308624,0.013126549353966472,0.5351026329627404,0.2923305570162261,0.609888751057942
204,1789538944.4409897,0.08976717435396647,0.6165332970252404,0.21089989295372613,0.65776151968643
205,1789538944.4609897,0.06102693997896647,0.6069532189002403,0.16299950232872615,0.6314153427784059
206,1789538944.47112,0.037076744666466474,0.5830030235877404,0.11509911170372614,0.595411635780236
207,1789538944.49112,0.05623690091646647,0.5877930626502403,0.13904930701622614,0.6066283733111488
208,1789538944.5311782,0.10413729154146648,0.5973731407752404,0.20610985389122613,0.6404533680763418
209,1789538944.5511782,0.13287752591646648,0.6069532189002403,0.19652977576622613,0.6516690874897838
210,1789538944.5463262,0.09934725247896647,0.5542627892127404,0.20610985389122613,0.5996318770312906
211,1789538944.5663261,0.07539705716646647,0.5111524376502403,0.20131981482872613,0.5545188892975773
212,1789538944.5913913,0.10413729154146648,0.5734229454627404,0.16299950232872615,0.6051671567692432
213,1789538944.6113913,0.08497713529146647,0.6356934532752404,0.14862938514122614,0.6583448748086397
214,1789538944.6358447,0.05623690091646647,0.5973731407752404,0.21568993201622613,0.6376044268333838
215,1789538944.6558447,0.046656822791466476,0.5925831017127404,0.25401024451622617,0.646415343156147
216,1789538944.6666586,0.05623690091646647,0.6213233360877404,0.23006004920372614,0.6649307507037922
217,1789538944.6866586,0.09455721341646647,0.6452735314002404,0.17736961951622615,0.6758542585958566
218,1789538944.7118065,0.08018709622896647,0.5925831017127404,0.15341942420372615,0.6173509719439408
219,1789538944.7318065,0.037076744666466474,0.5255225548377404,0.21089989295372613,0.5674745857623417
220,1789538944.755896,0.07539705716646647,0.5925831017127404,0.25401024451622617,0.6491229875640274
221,1789538944.775896,0.08497713529146647,0.6596436485877404,0.22047997107872613,0.7006870016572068
222,1789538944.7864451,0.03228670560396647,0.6356934532752404,0.17257958045372615,0.6594939798704319
223,1789538944.8064451,0.027496666541466472,0.6117432579627404,0.19173973670372613,0.6416774945133846
224,1789538944.8314683,0.05623690091646647,0.6261133751502403,0.22047997107872613,0.6661771275070842
225,1789538944.8514683,0.09934725247896647,0.6548536095252404,0.20610985389122613,0.6936745622800494
226,1789538944.8766809,0.09934725247896647,0.6021631798377404,0.21568993201622613,0.6472963142955339
227,1789538944.8966808,0.10892733060396648,0.6117432579627404,0.21089989295372613,0.6561811806683173
228,1789538944.9063826,0.09455721341646647,0.5830030235877404,0.23485008826622614,0.63560062624276
229,1789538944.9263825,0.08497713529146647,0.5159424767127404,0.26838036170372614,0.587746349496995
230,1789538944.9510791,0.08497713529146647,0.5494727501502403,0.23964012732872614,0.6054492607197903
231,1789538944.971079,0.08018709622896647,0.6309034142127403,0.20131981482872613,0.6670822710202983
232,1789538945.011513,0.09455721341646647,0.6692237267127403,0.18215965857872612,0.6999882886290983
233,1789538945.031513,0.07060701810396648,0.6452735314002404,0.15341942420372615,0.6670088463088579
234,1789538945.0266957,0.06102693997896647,0.6021631798377404,0.17736961951622615,0.6307018031390318
235,1789538945.0466957,0.09455721341646647,0.5925831017127404,0.11988915076622614,0.611938891978624
236,1789538945.0717528,0.07539705716646647,0.5111524376502403,0.11030907264122614,0.528327192421622
237,1789538945.0917528,0.037076744666466474,0.4393018517127404,0.14862938514122614,0.4652434803850171
238,1789538945.1164248,0.06102693997896647,0.37224130483774037,0.22047997107872613,0.43692023766057786
239,1789538945.1364248,0.12329744779146648,0.4009815392127404,0.20610985389122613,0.4674074531844464
240,1789538945.1614618,0.1855679556039665,0.47283212515024037,0.19173973670372613,0.5429270773799576
241,1789538945.1814618,0.22388826810396648,0.4488819298377404,0.23964012732872614,0.5559211582190192
242,1789538945.1910517,0.19514803372896647,0.44409189077524036,0.23964012732872614,0.5410432082068288
243,1789538945.2110517,0.14245760404146648,0.4393018517127404,0.25880028357872614,0.5293938728847425
244,1789538945.236716,0.08976717435396647,0.4488819298377404,0.23964012732872614,0.5167015803657635
245,1789538945.256716,0.08018709622896647,0.5015723595252404,0.28754051795372615,0.5836817212372232
246,1789538945.2815354,0.08976717435396647,0.5877930626502403,0.30670067420372615,0.6690471834245063
247,1789538945.3015354,0.046656822791466476,0.5973731407752404,0.32586083045372616,0.6820680385831471
248,1789538945.3114543,0.06102693997896647,0.6117432579627404,0.32586083045372616,0.6958012517163622
249,1789538945.3314543,0.08976717435396647,0.6644336876502404,0.29712059607872615,0.7333559296072883
250,1789538945.3567293,0.10413729154146648,0.7027540001502404,0.24922020545372614,0.7528734761054835
251,1789538945.3767292,0.13766756497896648,0.6548536095252404,0.18215965857872612,0.6935183844491738
252,1789538945.4010491,0.14724764310396649,0.5542627892127404,0.17257958045372615,0.5988929950292823
253,1789538945.421049,0.1520376821664665,0.49199228140024037,0.14862938514122614,0.5359688012220709
254,1789538945.4316003,0.12808748685396648,0.48720224233774034,0.11509911170372614,0.5167400069110908
255,1789538945.4516003,0.14245760404146648,0.47283212515024037,0.12467918982872614,0.5093223811101131
256,1789538945.4767408,0.1568277212289665,0.40577157827524035,0.18215965857872612,0.47162235856177137
257,1789538945.4967408,0.1711978384164665,0.41535165640024035,0.12467918982872614,0.46623019928919385
258,1789538945.5368438,0.11371736966646648,0.5446827110877404,0.00013817420372612912,0.5564269179450804
259,1789538945.5568438,0.12329744779146648,0.6069532189002403,0.04803856482872613,0.6212102496547012
260,1789538945.5509224,0.1807779165414665,0.5351026329627404,0.25401024451622617,0.6193033886811242
261,1789538945.5709224,0.1616177602914665,0.5207325157752404,0.23006004920372614,0.5917856703797937
262,1789538945.5964813,0.10413729154146648,0.5686329064002403,0.11030907264122614,0.5885202199056071
263,1789538945.6164813,0.09934725247896647,0.6596436485877404,0.11988915076622614,0.6777706309428823
264,1789538945.640928,0.1664077993539665,0.6452735314002404,0.22047997107872613,0.7019123190673054
265,1789538945.660928,0.1520376821664665,0.5830030235877404,0.2635903226412261,0.6576380771374971
266,1789538945.671757,0.10413729154146648,0.5638428673377404,0.17257958045372615,0.5987879976475992
267,1789538945.691757,0.08976717435396647,0.5590528282752404,0.18215965857872612,0.5947943775856989
268,1789538945.715935,0.10413729154146648,0.5782129845252404,0.25880028357872614,0.6419909794877241
269,1789538945.735935,0.10413729154146648,0.5973731407752404,0.24443016639122614,0.6537930490998739
270,1789538945.7612314,0.10413729154146648,0.6261133751502403,0.19652977576622613,0.6644444948935472
271,1789538945.7812314,0.11850740872896648,0.7123340782752404,0.14862938514122614,0.7372615133881257
272,1789538945.8068023,0.12329744779146648,0.7985547814002404,0.20131981482872613,0.832719440971416
273,1789538945.8268023,0.11850740872896648,0.7506543907752404,0.2635903226412261,0.8043667562150411
274,1789538945.8367784,0.008336510291466473,0.6356934532752404,0.24443016639122614,0.6811180295535294
275,1789538945.8567784,-0.03477384127103353,0.6692237267127403,0.31628075232872616,0.7410149328627977
276,1789538945.8817837,0.05144686185396648,0.7698145470252404,0.41687157264122615,0.8769510388172571
277,1789538945.9017837,0.07060701810396648,0.8081348595252403,0.36418114295372617,0.8892104402606259
278,1789538945.9266386,0.06102693997896647,0.8560352501502404,0.25401024451622617,0.8950094084545559
279,1789538945.9466386,0.10413729154146648,0.8895655235877404,0.11030907264122614,0.9024076062137832
280,1789538945.9709365,0.1520376821664665,0.8895655235877404,0.07677879920372613,0.9057247162143961
281,1789538945.9909365,0.10892733060396648,0.8943555626502404,0.18215965857872612,0.9191948525799368
282,1789538946.0165243,0.08976717435396647,0.8320850548377404,0.35939110389122614,0.9108159252186881
283,1789538946.0365243,0.1855679556039665,0.7458643517127403,0.6420034085787262,1.001457674557245
284,1789538946.0912163,0.3053189321664665,0.6931739220252404,0.7473842679537261,1.064092561998181
285,1789538946.1112163,0.3148990102914665,0.6261133751502403,0.6994838773287262,0.9901803067458973
286,1789538946.0912163,0.29094881497896646,0.5638428673377404,0.6420034085787262,0.9026285884083288
287,1789538946.1112163,0.31010897122896647,0.46804208608774034,0.6132631742037261,0.8314581704574688
288,1789538946.1216533,0.29094881497896646,0.5207325157752404,0.6803237210787262,0.9047949664900221
289,1789538946.1416533,0.30052889310396647,0.6309034142127403,0.8240248929537262,1.080450719775311
290,1789538946.1813612,0.2861587759164665,0.6404834923377404,0.8671352445162261,1.1153606955928534
291,1789538946.2013612,0.1520376821664665,0.47283212515024037,0.8000746976412262,0.9417033488197563
292,1789538946.1958861,-0.02040372408353353,0.41535165640024035,0.6803237210787262,0.7973541721802831
293,1789538946.215886,-0.03956388033353353,0.5063623985877403,0.6372133695162262,0.814867509243557
294,1789538946.2565236,0.07539705716646647,0.7458643517127403,0.7282241117037261,1.0451357348459152
295,1789538946.2765236,0.14724764310396649,0.7841846642127404,0.7761245023287262,1.1131022860012167
296,1789538946.2862005,0.05623690091646647,0.7650245079627404,0.5941030179537261,0.970249185905377
297,1789538946.3062005,-0.058724036583533534,0.6356934532752404,0.4312416898287261,0.7704051363120574
298,1789538946.315927,-0.09704434908353353,0.5446827110877404,0.32586083045372616,0.6420920045218829
299,1789538946.335927,-0.01561368502103353,0.7314942345252404,0.23964012732872614,0.769905833806792
300,1789538946.36111,0.08018709622896647,0.9949463829627404,0.21089989295372613,1.0202093119650333
301,1789538946.38111,0.09934725247896647,1.0572168907752404,0.22527001014122613,1.085506337238348
302,1789538946.406564,0.022706627478966474,0.9135157189002404,0.19652977576622613,0.9346927368777478
303,1789538946.426564,-0.15452481783353353,0.7602344689002404,0.17736961951622615,0.7957979322402441
304,1789538946.436595,-0.2503255990835335,0.8943555626502404,0.23006004920372614,0.9567979955244361
305,1789538946.456595,-0.16889493502103353,1.0284766564002403,0.34981102576622614,1.0993895968143397
306,1789538946.4815674,-0.07788419283353354,1.0188965782752404,0.5078823148287261,1.1411225308572737
307,1789538946.5015674,-0.08746427095853353,0.9662061485877403,0.45998192420372613,1.0736795103089305
308,1789538946.5264945,-0.30301602877103356,0.7219141564002404,0.30670067420372615,0.8408591240274786
309,1789538946.5464945,-0.47545743502103355,0.5686329064002403,0.13904930701622614,0.7541471106751371
310,1789538946.5718045,-0.5089877084585336,0.7075440392127403,0.15820946326622615,0.8858426999497915
311,1789538946.5918045,-0.3892367318960335,0.8704053673377404,0.4216616117037261,1.0425494001398856
312,1789538946.6015785,-0.28385587252103356,0.8560352501502404,0.4312416898287261,0.9996698959710636
313,1789538946.6215785,-0.28385587252103356,0.6931739220252404,0.33544090857872616,0.8207221488961125
314,1789538946.6466596,-0.36528653658353355,0.5638428673377404,0.2923305570162261,0.732673315620444
315,1789538946.6666596,-0.36528653658353355,0.6021631798377404,0.05761864295372613,0.7066503074203825
316,1789538946.6911051,-0.31259610689603357,0.8033448204627404,-0.12440284142127388,0.8709507985899982
317,1789538946.711105,-0.23595548189603355,0.6500635704627403,0.0049282132662261295,0.6915792957901161
318,1789538946.7218747,-0.21679532564603354,0.2908106407752404,0.08635887732872613,0.3728657904709865
319,1789538946.7418747,-0.27906583345853353,0.23333017202524037,-0.20104346642127388,0.4156190370662972
320,1789538946.766861,-0.33175626314603357,0.19021982046274036,-0.5171860445462739,0.6432162955856435
321,1789538946.786861,-0.24553556002103355,0.09441903921274035,-0.5698764742337739,0.627663812949111
322,1789538946.8116617,-0.058724036583533534,-0.20735342172475968,-0.4549155367337739,0.5033806706016907
323,1789538946.8316617,0.05144686185396648,-0.31273428109975965,-0.3495346773587739,0.47183047892850966
324,1789538946.8567631,0.1520376821664665,-0.12113271859975966,-0.4644956148587739,0.5035322914540341
325,1789538946.876763,0.1520376821664665,-0.11634267953725966,-0.4549155367337739,0.4935577184506778
326,1789538946.8868866,0.041866783728966475,-0.4516454139122597,-0.4740756929837739,0.656112924858084
327,1789538946.9068866,-0.08746427095853353,-0.6288768592247597,-0.5171860445462739,0.8189123930165708
328,1789538946.9311624,-0.058724036583533534,-0.6192967810997597,-0.5219760836087739,0.8120566774633047
329,1789538946.9511623,0.1568277212289665,-0.6001366248497597,-0.4261753023587739,0.7525850722493266
330,1789538946.9607046,0.31968904935396647,-0.2983641639122597,-0.5938266695462739,0.7374634743825109
331,1789538946.9807045,0.3675894399789665,0.06088876577524035,-1.1351010836087738,1.1946898795049261
332,1789538947.0068743,0.43944002591646647,-0.14987295297475967,-1.7242758882962739,1.785692240384872
333,1789538947.0268743,0.3436392446664665,-0.4516454139122597,-1.341072763296274,1.4562100352758252
334,1789538947.0515783,0.2526285024789665,-0.8875389685997597,-1.479983896108774,1.7441040432810182
335,1789538947.0715783,0.2669986196664665,-0.6384569373497597,-1.460823739858774,1.6164533778271517
336,1789538947.081887,0.017916588416466473,-0.6384569373497597,-1.4081333101712739,1.5462172176652378
337,1789538947.101887,-0.14015470064603353,-1.1605711951622597,-1.475193857046274,1.8822236198232658
338,1789538947.1269166,-0.28385587252103356,-1.8599168982872598,-1.4081333101712739,2.3500434983448897
339,1789538947.1469166,-0.33654630220853354,-2.3772411170372596,-1.3698129976712738,2.764222565325006
340,1789538947.1709983,-0.22637540377103355,-2.55926260141226,-1.139891122671274,2.8107690509831516
341,1789538947.1909983,-0.07788419283353354,-2.21916982797476,-1.269222177358774,2.5576758215978432
342,1789538947.2162316,0.3723794790414665,-1.7305858435997596,-1.532674325796274,2.3415132772278167
343,1789538947.2362316,0.3771695181039665,-2.09941885141226,-1.101570810171274,2.40068211324893
344,1789538947.246411,-0.058724036583533534,-3.49332021859976,-1.183001474233774,3.6886619728825547
345,1789538947.266411,-0.26469571627103355,-3.25860830453726,-1.412923349233774,3.561592943532629
346,1789538947.3206425,-0.3892367318960335,-2.72212392953726,-1.412923349233774,3.0915718189986245
347,1789538947.3406425,-0.3509164193960335,-2.13294912484976,-1.0919907320462738,2.421788195006749
348,1789538947.335299,-0.30301602877103356,-1.8263866248497598,-0.5602963961087739,1.9342799354319802
349,1789538947.355299,-0.36528653658353355,-1.6826854529747597,-0.4932358492337739,1.7911298642006468
350,1789538947.3655422,-0.43713712252103354,-1.4479735389122597,-0.5746665132962739,1.6180104557079225
351,1789538947.3855422,-0.5616781381460335,-1.2563719764122596,-0.5315561617337738,1.4752982163150554
352,1789538947.4106846,-0.5568880990835335,-1.2659520545372598,-0.21541358360877388,1.399700672033544
353,1789538947.4306846,-0.5473080209585336,-1.4815038123497597,-0.019021982046273873,1.579481386915777
354,1789538947.4557579,-0.5664681772085336,-1.5916747107872597,-0.11482276329627387,1.6933690819548637
355,1789538947.4757578,-0.49461759127103355,-1.5629344764122597,-0.4309653414212739,1.6950344730002331
356,1789538947.486376,-0.5185677865835335,-1.5725145545372596,-0.6944174898587739,1.7955306245607234
357,1789538947.506376,-0.5089877084585336,-1.5581444373497597,-0.909969247671274,1.874813752540047
358,1789538947.5307908,-0.45629727877103354,-1.4192333045372598,-0.9434995211087739,1.7642623743803205
359,1789538947.5507908,-0.5137777475210336,-1.3713329139122596,-0.8620688570462739,1.6993187602436293
360,1789538947.5912316,-0.46587735689603355,-1.3282225623497597,-0.6800473726712739,1.5632278515560354
361,1789538947.6112316,-0.5041976693960335,-1.2228417029747598,-0.6034067476712739,1.453842090288291
362,1789538947.6209126,-0.5760482553335335,-1.2803221717247597,-0.5219760836087739,1.4978369362992645
363,1789538947.6409125,-0.6047884897085336,-1.2084715857872597,-0.4884458101712739,1.4369244936366612
364,1789538947.651052,-0.7005892709585335,-1.2132616248497596,-0.4884458101712739,1.4837143951546605
365,1789538947.671052,-0.8395004037710335,-1.2276317420372598,-0.4453354586087739,1.5524703838345686
366,1789538947.6956286,-0.8490804818960336,-1.0839305701622597,-0.4405454195462739,1.445656740845587
367,1789538947.7156286,-0.8442904428335336,-0.9641795935997597,-0.4453354586087739,1.3567580150006593
368,1789538947.726179,-0.8730306772085336,-0.9545995154747597,-0.5028159273587739,1.3879000882979655
369,1789538947.7461789,-0.8155502084585335,-1.0120799842247596,-0.5602963961087739,1.4154010345049304
370,1789538947.7708852,-0.7580697397085335,-1.0887206092247597,-0.6225669039212739,1.4654596019920223
371,1789538947.7908852,-0.7341195443960336,-1.1030907264122598,-0.6465170992337739,1.4743557968694736
372,1789538947.8159544,-0.7245394662710336,-1.2084715857872597,-0.5842465914212739,1.5253540872292128
373,1789538947.8359544,-0.7149593881460335,-1.2803221717247597,-0.5746665132962739,1.5750026640016368
374,1789538947.8464134,-0.7101693490835336,-1.2659520545372598,-0.6081967867337739,1.5738101664934456
375,1789538947.8664134,-0.6910091928335336,-1.2036815467247597,-0.5602963961087739,1.4967548302907332
376,1789538947.8909507,-0.7149593881460335,-1.1653612342247597,-0.5171860445462739,1.4617507098015812
377,1789538947.9109507,-0.7436996225210336,-1.1845213904747598,-0.4022251070462739,1.455323019047171
378,1789538947.9362965,-0.8059701303335336,-1.1701512732872597,-0.4357553804837739,1.4861778510616444
379,1789538947.9562964,-0.8299203256460336,-1.1701512732872597,-0.4118051851712739,1.4925164186132631
380,1789538947.980853,-0.7868099740835336,-1.1462010779747598,-0.37827491173377387,1.4408118389696227
381,1789538948.000853,-0.7628597787710336,-1.1414110389122598,-0.3830649507962739,1.4253115302788744
382,1789538948.0106714,-0.7916000131460336,-1.1749413123497596,-0.4884458101712739,1.4985649728166104
383,1789538948.0306714,-0.8442904428335336,-1.0983006873497596,-0.6081967867337739,1.5129421942315862
384,1789538948.055732,-0.8203402475210335,-1.0599803748497598,-0.5794565523587739,1.4602350539694027
385,1789538948.075732,-0.8347103647085335,-1.0983006873497596,-0.5076059664212739,1.4699216339421917
386,1789538948.1014407,-0.9017709115835336,-1.0599803748497598,-0.4597055757962739,1.465632419286302
387,1789538948.1214406,-0.9400912240835336,-1.0264501014122598,-0.4836557711087739,1.4735312094472033
388,1789538948.1307323,-0.9592513803335336,-0.9737596717247597,-0.4501254976712739,1.4390914052286996
389,1789538948.1507323,-0.9017709115835336,-0.9162792029747597,-0.3734848726712739,1.3387491568238374
390,1789538948.1762502,-0.8778207162710335,-0.9066991248497597,-0.3495346773587739,1.309521669768856
391,1789538948.1962502,-0.8826107553335336,-0.8971190467247597,-0.3543247164212739,1.3074289021181185
392,1789538948.22062,-0.8442904428335336,-0.9306493201622597,-0.2728940523587739,1.2858482308543702
393,1789538948.24062,-0.8059701303335336,-0.9737596717247597,-0.2297837007962739,1.2847553457444716
394,1789538948.2512739,-0.8442904428335336,-0.9977098670372597,-0.2824741304837739,1.3371772377049032
395,1789538948.2712739,-0.8442904428335336,-1.0360301795372597,-0.3016342867337739,1.3700978533321784
396,1789538948.2962985,-0.8107601693960336,-1.1174608435997597,-0.3351645601712739,1.4206991488885237
397,1789538948.3162985,-0.8586605600210335,-1.1318309607872596,-0.4644956148587739,1.4946890838416116
398,1789538948.3410933,-0.8826107553335336,-1.0456102576622597,-0.5219760836087739,1.4645004568857334
399,1789538948.3610933,-0.8299203256460336,-0.9785497107872597,-0.4788657320462739,1.3695399493006628
400,1789538948.3712795,-0.7820199350210336,-0.8971190467247597,-0.4836557711087739,1.2846402872763512
401,1789538948.3912795,-0.9065609506460336,-1.0024999060997597,-0.4165952242337739,1.4143586531784134
402,1789538948.416239,-0.9544613412710335,-1.0216600623497598,-0.4022251070462739,1.4548438994338198
403,1789538948.436239,-0.9353011850210335,-1.0695604529747598,-0.3112143648587739,1.4545110003584618
404,1789538948.4613483,-0.8969808725210335,-1.0791405310997597,-0.27768409142127387,1.4304640597230411
405,1789538948.4813483,-0.9113509897085336,-1.0551903357872596,-0.3064243257962739,1.4275444436588496
406,1789538948.4908984,-0.9305111459585336,-1.0743504920372597,-0.2872641695462739,1.4500347153081803
407,1789538948.5108984,-0.9400912240835336,-1.0983006873497596,-0.2728940523587739,1.4712263840907096
408,1789538948.5364814,-0.9209310678335336,-1.1030907264122598,-0.16751319298377387,1.446714848275692
409,1789538948.5564814,-0.8874007943960336,-1.0360301795372597,-0.18188331017127388,1.3761977479001983
410,1789538948.5809243,-0.8203402475210335,-0.9306493201622597,-0.22020362267127389,1.2599825055368425
411,1789538948.6009243,-0.8299203256460336,-0.8348485389122597,-0.2920542086087739,1.2128625192537077
412,1789538948.626197,-0.7772298959585335,-0.7342577185997597,-0.3639047945462739,1.129445619757234
413,1789538948.646197,-0.7341195443960336,-0.6767772498497597,-0.4405454195462739,1.0913474323338312
414,1789538948.6562438,-0.7293295053335336,-0.7294676795372597,-0.4357553804837739,1.119788986577422
415,1789538948.6762438,-0.8011800912710336,-0.8013182654747597,-0.4213852632962739,1.20895245620157
416,1789538948.701505,-0.8059701303335336,-0.8204784217247597,-0.3830649507962739,1.2122340731205163
417,1789538948.721505,-0.8059701303335336,-0.8300584998497597,-0.3160044039212739,1.1993513861501666
418,1789538948.7458012,-0.8490804818960336,-0.9785497107872597,-0.3639047945462739,1.3457057258971576
419,1789538948.7658012,-0.8395004037710335,-0.9689696326622597,-0.39743506798377387,1.3422435361053633
420,1789538948.7755811,-0.7628597787710336,-0.9881297889122597,-0.3255844820462739,1.2901010723008168
421,1789538948.795581,-0.7820199350210336,-1.0935106482872596,-0.3255844820462739,1.3832302670333905
422,1789538948.821516,-0.8155502084585335,-1.1893114295372598,-0.3112143648587739,1.4752756352082712
423,1789538948.841516,-0.7820199350210336,-1.1462010779747598,-0.3207944429837739,1.4241633208905755
424,1789538948.865678,-0.7341195443960336,-1.0360301795372597,-0.2393637789212739,1.2921242421051153
425,1789538948.885678,-0.6622689584585335,-1.0072899451622597,-0.21062354454627388,1.2237628383310122
426,1789538948.8962367,-0.6910091928335336,-0.9641795935997597,-0.20583350548377388,1.2039532487909936
427,1789538948.9162366,-0.7628597787710336,-1.0312401404747598,-0.2441538179837739,1.3057650463345412
428,1789538948.9407623,-0.8155502084585335,-1.0743504920372597,-0.2633139742337739,1.3742944994739097
429,1789538948.9607623,-0.8203402475210335,-0.9785497107872597,-0.15793311485877387,1.2866470094605182
430,1789538948.9865313,-0.8107601693960336,-0.8587987342247597,-0.08129248985877388,1.1838394262283096
431,1789538949.0065312,-0.8059701303335336,-0.7486278357872597,-0.11961280235877388,1.1064984003574014
432,1789538949.0160737,-0.7724398568960336,-0.6480370154747597,-0.20583350548377388,1.029068869379857
433,1789538949.0360737,-0.7628597787710336,-0.6097167029747597,-0.2872641695462739,1.0179539297326337
434,1789538949.0611544,-0.7676498178335336,-0.6432469764122597,-0.3303745211087739,1.054609045893891
435,1789538949.0811543,-0.7868099740835336,-0.7007274451622597,-0.3255844820462739,1.1027665857606943
436,1789538949.1052253,-0.7389095834585335,-0.5857665076622597,-0.2537338961087739,0.9764684654714876
437,1789538949.1252253,-0.6910091928335336,-0.5618163123497597,-0.18188331017127388,0.9089624920323138
438,1789538949.1363578,-0.7101693490835336,-0.8061083045372597,-0.08129248985877388,1.0773855261368162
439,1789538949.1563578,-0.7293295053335336,-0.9641795935997597,0.01450829139122613,1.209038587714779
440,1789538949.1818578,-0.6718490365835336,-0.9162792029747597,-0.10045264610877387,1.1406311585576372
441,1789538949.2018578,-0.7053793100210336,-0.8683788123497597,-0.2728940523587739,1.1515697532310067
442,1789538949.22656,-0.7245394662710336,-0.8779588904747597,-0.2824741304837739,1.1728430781398462
443,1789538949.24656,-0.6910091928335336,-0.8731688514122597,-0.3064243257962739,1.154908401171607
444,1789538949.2567406,-0.6287386850210336,-0.7438377967247597,-0.4549155367337739,1.0749675099462779
445,1789538949.2767406,-0.5425179818960335,-0.6049266639122597,-0.5363462007962739,0.9736165962539659
446,1789538949.3014097,-0.5520980600210336,-0.48996572641225966,-0.5986167086087739,0.950379211032777
447,1789538949.3214097,-0.5041976693960335,-0.49954580453725966,-0.4405454195462739,0.8353691204122716
448,1789538949.346336,-0.46108731783353357,-0.34147451547475965,-0.3207944429837739,0.6573548767864384
449,1789538949.3663359,-0.3796566537710335,-0.24567373422475966,-0.2249936617337739,0.5050909881010828
450,1789538949.3907752,-0.46587735689603355,-0.2648338904747597,-0.2872641695462739,0.6080291146956218
451,1789538949.4107752,-0.5712582162710336,-0.5282860389122597,-0.16272315392127387,0.7949219542752956
452,1789538949.42082,-0.6766390756460335,-0.8396385779747597,0.03845848670372613,1.0790331021401225
453,1789538949.44082,-0.6622689584585335,-1.0360301795372597,0.21089989295372613,1.247572631592105
454,1789538949.4661005,-0.7389095834585335,-1.0264501014122598,0.13904930701622614,1.272368615220367
455,1789538949.4861004,-0.8347103647085335,-1.0599803748497598,0.22047997107872613,1.3670812725165122
456,1789538949.5115921,-0.8299203256460336,-0.9019090857872597,0.22047997107872613,1.2453189003596248
457,1789538949.5315921,-0.7724398568960336,-0.8923290076622598,0.34023094764122613,1.228279889996545
458,1789538949.5410693,-0.8682406381460336,-0.9641795935997597,0.23485008826622614,1.3185744796563763
459,1789538949.5610693,-1.0071517709585336,-0.9545995154747597,0.11988915076622614,1.3928346395609936
460,1789538949.5859132,-0.9927816537710336,-0.7725780310997596,0.14383934607872614,1.266168228823755
461,1789538949.6059132,-0.8395004037710335,-0.4755956092247597,0.30670067420372615,1.0124314371860539
462,1789538949.6317372,-0.7245394662710336,-0.48038564828725966,0.3929213773287262,0.9539994853387439
463,1789538949.6517372,-0.6814291147085335,-0.3462645545372597,0.21568993201622613,0.7942083648983476
464,1789538949.6619754,-0.6383187631460335,-0.3462645545372597,0.18694969764122613,0.7498667712076024
465,1789538949.6819754,-0.49461759127103355,-0.5522362342247596,0.19173973670372613,0.7657516220137682
466,1789538949.7056594,-0.32217618502103357,-0.7150975623497597,0.24443016639122614,0.821527920472164
467,1789538949.7256594,-0.27427579439603356,-0.3462645545372597,-0.17709327110877388,0.4759079530670483
468,1789538949.7658834,-0.46587735689603355,0.022568453275240343,-0.6656772554837739,0.8128205553626707
469,1789538949.7858834,-0.3700765756460335,-0.02054189828725966,-0.6752573336087739,0.7702928715881833
470,1789538949.78155,-0.20242520845853354,-0.03491201547475966,-0.4165952242337739,0.46448508554998724
471,1789538949.80155,-0.01561368502103353,0.07046884390024034,-0.3926450289212739,0.39922395200834393
472,1789538949.8264625,0.09934725247896647,0.2812305626502404,-0.3734848726712739,0.47796595700736677
473,1789538949.8464625,0.22867830716646648,0.49199228140024037,-0.4118051851712739,0.6811267750278808
474,1789538949.8707395,0.3580093618539665,0.8033448204627404,-0.4165952242337739,0.9731830170085096
475,1789538949.8907394,0.4059097524789665,0.7793946251502404,-0.5267661226712739,1.0245492945020982
476,1789538949.9011786,0.4825503774789665,0.6356934532752404,-0.6177768648587739,1.009261754004792
477,1789538949.9211786,0.4154898306039665,0.4393018517127404,-0.4357553804837739,0.7453191718144072
478,1789538949.9466364,0.5304507681039665,0.7171241173377404,-0.7806381929837739,1.1853442560684608
479,1789538949.9666364,0.6454117056039665,0.9470459923377403,-0.8668588961087739,1.4369748526319166
480,1789538949.9910378,0.7986929556039665,0.8320850548377404,-0.6225669039212739,1.3106736915318953
481,1789538950.0110378,0.9567642446664665,0.7362842735877404,-0.5076059664212739,1.309647345109093
482,1789538950.0516212,1.0573550649789665,0.6788038048377404,-0.38785498985877387,1.3149927117886309
483,1789538950.0716212,1.1052554556039664,0.6404834923377404,-0.4309653414212739,1.3481616563327392
484,1789538950.0666442,1.1771060415414665,0.5877930626502403,-0.4692856539212739,1.3968923875909294
485,1789538950.0866442,1.1435757681039664,0.31955087515024033,-0.5315561617337738,1.300934376623588
486,1789538950.1112156,1.0717251821664666,-0.010961820162259658,-0.5986167086087739,1.2276224954832888
487,1789538950.1312156,1.0525650259164665,-0.2839940467247597,-0.5938266695462739,1.2414410440379584
488,1789538950.156493,1.0765152212289666,-0.37979482797475966,-0.7087876070462739,1.3436923028716103
489,1789538950.176493,1.0334048696664666,-0.5043358435997597,-0.8141684664212739,1.4089537109162307
490,1789538950.1861992,1.0381949087289666,-0.7103075232872597,-0.771058114858774,1.4754375834439064
491,1789538950.2061992,1.1004654165414665,-0.8779588904747597,-0.6800473726712739,1.5634258458412913
492,1789538950.2314868,1.1723160024789665,-0.9162792029747597,-0.6656772554837739,1.6300363787169703
493,1789538950.2514868,1.2345865102914666,-0.8348485389122597,-0.632146982046274,1.618884103704712
494,1789538950.2760057,1.3160171743539666,-0.5282860389122597,-0.6034067476712739,1.5411317416883696
495,1789538950.2960057,1.3543374868539666,-0.38937490609975967,-0.5411362398587739,1.5095268384121587
496,1789538950.3065445,1.3112271352914666,-0.5809764685997597,-0.4932358492337739,1.5166185612607659
497,1789538950.3265445,1.1100454946664666,-0.7294676795372597,-0.4261753023587739,1.3949729330920322
498,1789538950.3816025,0.9376040884164665,-0.7773680701622597,-0.5028159273587739,1.3176594400408372
499,1789538950.4016025,0.9232339712289666,-0.7486278357872597,-0.5842465914212739,1.324442781600663
500,1789538950.3965354,0.8992837759164665,-0.6576170935997597,-0.6034067476712739,1.2669929970431553
501,1789538950.4165354,0.8370132681039665,-0.6097167029747597,-0.632146982046274,1.213241721908172
502,1789538950.4259813,0.7843228384164666,-0.6049266639122597,-0.6608872164212739,1.1907436736773949
503,1789538950.4459813,0.6549917837289665,-0.6192967810997597,-0.6992075289212739,1.140804062200504
504,1789538950.485985,0.5831411977914664,-0.4420653357872597,-0.7471079195462739,1.0457751484497662
505,1789538950.505985,0.5927212759164665,-0.4755956092247597,-0.651307138296274,1.000854975924882
