imu_index,t_imu,ax,ay,az,mag
0,1788069507.4336722,0.0013149126838235589,-0.0026298253676468454,0.006480641084558376,0.007116437711191245
1,1788069507.4536722,-0.0034751263786764416,0.002160213694853155,0.0016906020220583751,0.004427319928827352
2,1788069507.4641893,-0.0034751263786764416,0.002160213694853155,0.0016906020220583751,0.004427319928827352
3,1788069507.4841893,-0.0034751263786764416,-0.0026298253676468454,0.0016906020220583751,0.004674464676204065
4,1788069507.493975,-0.0034751263786764416,0.002160213694853155,0.0016906020220583751,0.004427319928827352
5,1788069507.513975,-0.0034751263786764416,0.002160213694853155,0.0016906020220583751,0.004427319928827352
6,1788069507.5560348,-0.0034751263786764416,-0.0026298253676468454,0.006480641084558376,0.007809685888623029
7,1788069507.5760348,0.0013149126838235589,-0.0026298253676468454,0.006480641084558376,0.007116437711191245
8,1788069507.5846062,0.0013149126838235589,0.002160213694853155,0.006480641084558376,0.006956595966446316
9,1788069507.6046062,-0.0034751263786764416,0.002160213694853155,0.0016906020220583751,0.004427319928827352
10,1788069507.6164057,0.0013149126838235589,0.002160213694853155,0.0016906020220583751,0.0030419818820136093
11,1788069507.6364057,0.0013149126838235589,0.002160213694853155,0.006480641084558376,0.006956595966446316
12,1788069507.6759894,0.0013149126838235589,0.002160213694853155,0.0016906020220583751,0.0030419818820136093
13,1788069507.6959894,-0.008265165441176442,0.006950252757353155,0.0016906020220583751,0.010930558465060254
14,1788069507.7052674,-0.008265165441176442,0.002160213694853155,0.006480641084558376,0.010722788436051251
15,1788069507.7252674,-0.0034751263786764416,0.002160213694853155,0.006480641084558376,0.007664315717796985
16,1788069507.7352428,-0.0034751263786764416,0.006950252757353155,0.0016906020220583751,0.007952399130819318
17,1788069507.7552428,-0.008265165441176442,0.002160213694853155,0.011270680147058376,0.014142408350586696
18,1788069507.796133,-0.0034751263786764416,-0.0026298253676468454,0.006480641084558376,0.007809685888623029
19,1788069507.816133,0.0013149126838235589,0.002160213694853155,0.0016906020220583751,0.0030419818820136093
20,1788069507.8258595,-0.008265165441176442,-0.0026298253676468454,0.006480641084558376,0.01082717184223111
21,1788069507.8458595,-0.0034751263786764416,0.002160213694853155,0.006480641084558376,0.007664315717796985
22,1788069507.8565207,0.0013149126838235589,-0.0026298253676468454,0.006480641084558376,0.007116437711191245
23,1788069507.8765206,0.0013149126838235589,0.011740291819853156,0.006480641084558376,0.01347450022257809
24,1788069507.914261,0.0013149126838235589,0.002160213694853155,0.006480641084558376,0.006956595966446316
25,1788069507.934261,-0.0034751263786764416,0.002160213694853155,0.006480641084558376,0.007664315717796985
26,1788069507.9452686,0.0013149126838235589,0.002160213694853155,0.0016906020220583751,0.0030419818820136093
27,1788069507.9652686,0.0013149126838235589,0.006950252757353155,0.0016906020220583751,0.00727276728310229
28,1788069507.9734435,0.0013149126838235589,0.002160213694853155,0.006480641084558376,0.006956595966446316
29,1788069507.9934435,0.0013149126838235589,-0.0026298253676468454,0.006480641084558376,0.007116437711191245
30,1788069508.0339453,0.0013149126838235589,0.002160213694853155,0.006480641084558376,0.006956595966446316
31,1788069508.0539453,-0.0034751263786764416,0.006950252757353155,0.006480641084558376,0.01011836081614675
32,1788069508.063375,-0.0034751263786764416,-0.0026298253676468454,0.006480641084558376,0.007809685888623029
33,1788069508.083375,-0.0034751263786764416,-0.0026298253676468454,0.006480641084558376,0.007809685888623029
34,1788069508.0944383,0.0013149126838235589,0.002160213694853155,0.006480641084558376,0.006956595966446316
35,1788069508.1144383,0.0013149126838235589,0.006950252757353155,0.0016906020220583751,0.00727276728310229
36,1788069508.1559923,0.0013149126838235589,0.002160213694853155,0.006480641084558376,0.006956595966446316
37,1788069508.1759923,-0.0034751263786764416,0.002160213694853155,0.0016906020220583751,0.004427319928827352
38,1788069508.1847057,0.0013149126838235589,-0.0026298253676468454,0.006480641084558376,0.007116437711191245
39,1788069508.2047057,0.0013149126838235589,-0.0026298253676468454,0.011270680147058376,0.011647884263148169
40,1788069508.2153938,-0.0034751263786764416,0.002160213694853155,0.006480641084558376,0.007664315717796985
41,1788069508.2353938,-0.0034751263786764416,0.002160213694853155,0.0016906020220583751,0.004427319928827352
42,1788069508.2748847,-0.0034751263786764416,-0.0026298253676468454,0.006480641084558376,0.007809685888623029
43,1788069508.2948847,-0.008265165441176442,0.002160213694853155,0.006480641084558376,0.010722788436051251
44,1788069508.3036485,0.0013149126838235589,0.002160213694853155,0.0016906020220583751,0.0030419818820136093
45,1788069508.3236485,0.0013149126838235589,0.002160213694853155,0.006480641084558376,0.006956595966446316
46,1788069508.3336413,-0.0034751263786764416,-0.0026298253676468454,0.011270680147058376,0.012083903168653229
47,1788069508.3536413,-0.0034751263786764416,0.002160213694853155,0.011270680147058376,0.011990465275897337
48,1788069508.393277,-0.0034751263786764416,0.002160213694853155,0.006480641084558376,0.007664315717796985
49,1788069508.413277,-0.008265165441176442,0.002160213694853155,0.006480641084558376,0.010722788436051251
50,1788069508.4243455,-0.008265165441176442,-0.0026298253676468454,0.006480641084558376,0.01082717184223111
51,1788069508.4443455,-0.0034751263786764416,-0.0026298253676468454,0.006480641084558376,0.007809685888623029
52,1788069508.4564574,0.0013149126838235589,0.002160213694853155,0.0016906020220583751,0.0030419818820136093
53,1788069508.4764574,-0.0034751263786764416,0.002160213694853155,0.006480641084558376,0.007664315717796985
54,1788069508.5155144,-0.0034751263786764416,0.002160213694853155,0.011270680147058376,0.011990465275897337
55,1788069508.5355144,-0.0034751263786764416,0.002160213694853155,0.006480641084558376,0.007664315717796985
56,1788069508.5445397,-0.0034751263786764416,0.002160213694853155,0.006480641084558376,0.007664315717796985
57,1788069508.5645397,-0.0034751263786764416,-0.0026298253676468454,0.0016906020220583751,0.004674464676204065
58,1788069508.5756142,-0.008265165441176442,-0.0026298253676468454,0.0016906020220583751,0.008836689223420959
59,1788069508.5956142,-0.008265165441176442,0.002160213694853155,0.0016906020220583751,0.008708479670667915
60,1788069508.6349843,-0.0034751263786764416,0.002160213694853155,0.006480641084558376,0.007664315717796985
61,1788069508.6549842,-0.0034751263786764416,-0.0026298253676468454,0.006480641084558376,0.007809685888623029
62,1788069508.6643543,-0.0034751263786764416,0.006950252757353155,0.006480641084558376,0.01011836081614675
63,1788069508.6843543,-0.0034751263786764416,0.002160213694853155,0.006480641084558376,0.007664315717796985
64,1788069508.6953,0.0013149126838235589,0.002160213694853155,0.006480641084558376,0.006956595966446316
65,1788069508.7153,0.0013149126838235589,-0.0026298253676468454,0.011270680147058376,0.011647884263148169
66,1788069508.7542202,0.0013149126838235589,0.002160213694853155,0.006480641084558376,0.006956595966446316
67,1788069508.7742202,0.0013149126838235589,-0.0026298253676468454,0.006480641084558376,0.007116437711191245
68,1788069508.7846384,0.0013149126838235589,-0.0026298253676468454,0.011270680147058376,0.011647884263148169
69,1788069508.8046384,-0.0034751263786764416,-0.007419864430146846,0.011270680147058376,0.013934099270739643
70,1788069508.8453393,-0.0034751263786764416,0.006950252757353155,0.011270680147058376,0.01368980451709095
71,1788069508.8653393,0.0013149126838235589,0.002160213694853155,0.006480641084558376,0.006956595966446316
72,1788069508.8749163,-0.0034751263786764416,0.002160213694853155,0.011270680147058376,0.011990465275897337
73,1788069508.8949163,0.0013149126838235589,-0.0026298253676468454,0.0016906020220583751,0.0033916238039303245
74,1788069508.9065905,0.0013149126838235589,0.002160213694853155,0.006480641084558376,0.006956595966446316
75,1788069508.9265904,0.0013149126838235589,-0.0026298253676468454,0.011270680147058376,0.011647884263148169
76,1788069508.9657083,0.0013149126838235589,0.006950252757353155,0.006480641084558376,0.009593420538266898
77,1788069508.9857082,0.0013149126838235589,-0.0026298253676468454,0.006480641084558376,0.007116437711191245
78,1788069508.9959788,0.0013149126838235589,0.002160213694853155,0.006480641084558376,0.006956595966446316
79,1788069509.0159788,0.0013149126838235589,0.006950252757353155,0.0016906020220583751,0.00727276728310229
80,1788069509.0245051,-0.0034751263786764416,-0.0026298253676468454,0.011270680147058376,0.012083903168653229
81,1788069509.0445051,0.010894990808823559,0.006950252757353155,0.006480641084558376,0.014457024139922812
82,1788069509.086407,0.0013149126838235589,0.002160213694853155,0.011270680147058376,0.011550919857344999
83,1788069509.106407,0.0013149126838235589,0.002160213694853155,0.006480641084558376,0.006956595966446316
84,1788069509.1174035,0.006104951746323559,0.006950252757353155,0.006480641084558376,0.011294917356178406
85,1788069509.1374035,-0.008265165441176442,-0.0026298253676468454,0.006480641084558376,0.01082717184223111
86,1788069509.1463668,-0.0034751263786764416,0.002160213694853155,0.011270680147058376,0.011990465275897337
87,1788069509.1663668,0.0013149126838235589,0.006950252757353155,0.006480641084558376,0.009593420538266898
88,1788069509.2057645,-0.0034751263786764416,0.002160213694853155,0.011270680147058376,0.011990465275897337
89,1788069509.2257645,-0.0034751263786764416,0.006950252757353155,0.006480641084558376,0.01011836081614675
90,1788069509.2342677,0.0013149126838235589,-0.0026298253676468454,0.011270680147058376,0.011647884263148169
91,1788069509.2542677,-0.0034751263786764416,-0.0026298253676468454,0.006480641084558376,0.007809685888623029
92,1788069509.2653522,-0.0034751263786764416,0.002160213694853155,0.011270680147058376,0.011990465275897337
93,1788069509.2853522,-0.008265165441176442,-0.0026298253676468454,0.011270680147058376,0.014221714812624815
94,1788069509.3256137,-0.0034751263786764416,0.002160213694853155,0.006480641084558376,0.007664315717796985
95,1788069509.3456137,0.0013149126838235589,0.002160213694853155,0.006480641084558376,0.006956595966446316
96,1788069509.3553567,-0.008265165441176442,0.002160213694853155,0.006480641084558376,0.010722788436051251
97,1788069509.3753567,-0.0034751263786764416,0.002160213694853155,0.006480641084558376,0.007664315717796985
98,1788069509.3856902,-0.0034751263786764416,0.002160213694853155,0.006480641084558376,0.007664315717796985
99,1788069509.4056902,-0.0034751263786764416,0.002160213694853155,0.006480641084558376,0.007664315717796985
100,1788069509.4464395,-0.0034751263786764416,0.002160213694853155,0.006480641084558376,0.007664315717796985
101,1788069509.4664395,-0.008265165441176442,0.002160213694853155,0.006480641084558376,0.010722788436051251
102,1788069509.4757757,-0.0034751263786764416,-0.0026298253676468454,0.006480641084558376,0.007809685888623029
103,1788069509.4957757,0.0013149126838235589,-0.0026298253676468454,0.006480641084558376,0.007116437711191245
104,1788069509.50543,-0.0034751263786764416,0.002160213694853155,0.006480641084558376,0.007664315717796985
105,1788069509.52543,-0.008265165441176442,-0.0026298253676468454,0.006480641084558376,0.01082717184223111
106,1788069509.565432,0.0013149126838235589,0.002160213694853155,0.006480641084558376,0.006956595966446316
107,1788069509.585432,0.0013149126838235589,-0.0026298253676468454,0.011270680147058376,0.011647884263148169
108,1788069509.5933893,0.006104951746323559,-0.0026298253676468454,0.006480641084558376,0.00928359446314432
109,1788069509.6133893,0.006104951746323559,0.006950252757353155,0.0016906020220583751,0.009403966419177711
110,1788069509.626814,0.006104951746323559,-0.012209903492646846,0.016060719209558375,0.021078398436621463
111,1788069509.6468139,0.010894990808823559,0.006950252757353155,0.006480641084558376,0.014457024139922812
112,1788069509.6853335,0.0013149126838235589,0.002160213694853155,0.006480641084558376,0.006956595966446316
113,1788069509.7053335,0.0013149126838235589,-0.007419864430146846,0.011270680147058376,0.013557714206500086
114,1788069509.7158523,0.010894990808823559,0.006950252757353155,0.011270680147058376,0.017147450804499798
115,1788069509.7358522,-0.0034751263786764416,-0.007419864430146846,0.006480641084558376,0.010446511397418623
116,1788069509.7435164,0.0013149126838235589,0.002160213694853155,0.011270680147058376,0.011550919857344999
117,1788069509.7635164,0.010894990808823559,-0.0026298253676468454,0.011270680147058376,0.01589481164298478
118,1788069509.8060005,-0.0034751263786764416,-0.0026298253676468454,0.011270680147058376,0.012083903168653229
119,1788069509.8260005,0.006104951746323559,0.006950252757353155,0.0016906020220583751,0.009403966419177711
120,1788069509.8355823,0.0013149126838235589,-0.0026298253676468454,0.011270680147058376,0.011647884263148169
121,1788069509.8555822,-0.0034751263786764416,-0.0026298253676468454,0.011270680147058376,0.012083903168653229
122,1788069509.866759,0.010894990808823559,0.011740291819853156,0.0016906020220583751,0.016105695015634955
123,1788069509.886759,-0.0034751263786764416,-0.007419864430146846,0.006480641084558376,0.010446511397418623
124,1788069509.9253466,0.0013149126838235589,-0.0026298253676468454,0.011270680147058376,0.011647884263148169
125,1788069509.9453466,0.006104951746323559,0.002160213694853155,0.006480641084558376,0.009161641113863616
126,1788069509.9567595,-0.008265165441176442,0.002160213694853155,0.006480641084558376,0.010722788436051251
127,1788069509.9767594,0.0013149126838235589,0.002160213694853155,0.006480641084558376,0.006956595966446316
128,1788069509.9877827,-0.0034751263786764416,0.002160213694853155,0.0016906020220583751,0.004427319928827352
129,1788069510.0077827,-0.0034751263786764416,-0.0026298253676468454,0.006480641084558376,0.007809685888623029
130,1788069510.0447967,-0.0034751263786764416,0.002160213694853155,0.006480641084558376,0.007664315717796985
131,1788069510.0647967,-0.0034751263786764416,0.002160213694853155,0.006480641084558376,0.007664315717796985
132,1788069510.0743854,-0.0034751263786764416,0.002160213694853155,0.0016906020220583751,0.004427319928827352
133,1788069510.0943854,-0.0034751263786764416,-0.0026298253676468454,0.006480641084558376,0.007809685888623029
134,1788069510.1363797,-0.0034751263786764416,-0.0026298253676468454,0.006480641084558376,0.007809685888623029
135,1788069510.1563797,-0.0034751263786764416,0.002160213694853155,0.006480641084558376,0.007664315717796985
136,1788069510.164862,0.0013149126838235589,0.002160213694853155,0.006480641084558376,0.006956595966446316
137,1788069510.184862,-0.008265165441176442,-0.0026298253676468454,0.006480641084558376,0.01082717184223111
138,1788069510.1961396,-0.0034751263786764416,-0.0026298253676468454,0.006480641084558376,0.007809685888623029
139,1788069510.2161396,0.0013149126838235589,0.006950252757353155,0.006480641084558376,0.009593420538266898
140,1788069510.2565467,0.0013149126838235589,-0.0026298253676468454,0.0016906020220583751,0.0033916238039303245
141,1788069510.2765467,0.0013149126838235589,0.002160213694853155,0.006480641084558376,0.006956595966446316
142,1788069510.2859597,0.006104951746323559,-0.0026298253676468454,0.0016906020220583751,0.00685890315475046
143,1788069510.3059597,-0.0034751263786764416,0.002160213694853155,0.006480641084558376,0.007664315717796985
144,1788069510.3151028,0.006104951746323559,-0.0026298253676468454,0.006480641084558376,0.00928359446314432
145,1788069510.3351028,0.0013149126838235589,0.006950252757353155,0.006480641084558376,0.009593420538266898
146,1788069510.37538,-0.0034751263786764416,-0.0026298253676468454,0.006480641084558376,0.007809685888623029
147,1788069510.39538,-0.0034751263786764416,0.002160213694853155,0.006480641084558376,0.007664315717796985
148,1788069510.4035563,-0.0034751263786764416,-0.0026298253676468454,0.0016906020220583751,0.004674464676204065
149,1788069510.4235563,-0.008265165441176442,0.002160213694853155,0.006480641084558376,0.010722788436051251
150,1788069510.4353538,-0.017845243566176443,-0.007419864430146846,-0.003099437040441625,0.019573288330415554
151,1788069510.4553537,-0.017845243566176443,-0.021789981617646847,0.06396110983455838,0.06988762113637859
152,1788069510.4946516,0.08274557674632356,0.026110409007353157,-0.05578986672794163,0.10315567439135125
153,1788069510.5146515,-0.056165556066176445,0.05006060431985316,-0.007889476102941625,0.07564970341164992
154,1788069510.5252185,0.06358542049632356,-0.060110294117646845,0.020850758272058376,0.08995058242793152
155,1788069510.5452185,-0.04179543887867644,0.059640682444853155,0.04001091452205838,0.08309478319630213
156,1788069510.5542133,-0.04179543887867644,-0.09364056755514685,0.0016906020220583751,0.10255863073534177
157,1788069510.5742133,0.03005514705882356,0.07401079963235316,-0.012679515165441626,0.08088065548558877
158,1788069510.6438591,-0.032215360753676446,-0.007419864430146846,0.006480641084558376,0.03368801812986542
159,1788069510.6638591,-0.04179543887867644,-0.05532025505514685,0.020850758272058376,0.07240126691534818
160,1788069510.6448572,0.06358542049632356,0.06922076056985316,-0.007889476102941625,0.09432318499044712
161,1788069510.6648571,-0.08011575137867645,-0.060110294117646845,0.035220875459558376,0.10617104664652048
162,1788069510.6747935,0.02047506893382356,0.006950252757353155,-0.007889476102941625,0.02301691322516572
163,1788069510.6947935,0.04442526424632356,0.059640682444853155,-0.012679515165441626,0.075441269943408
164,1788069510.7343717,-0.10406594669117644,-0.08885052849264685,0.04480095358455838,0.14398355154752637
165,1788069510.7543716,0.10190573299632356,0.04527056525735316,-0.022259593290441627,0.11370880348369748
166,1788069510.7633717,-0.017845243566176443,0.026110409007353157,0.025640797334558377,0.04071432996402282
167,1788069510.7833717,-0.04658547794117644,-0.05532025505514685,0.011270680147058376,0.07319539333422312
168,1788069510.794212,0.11148581112132357,0.07880083869485316,-0.017469554227941626,0.1376366360578269
169,1788069510.814212,-0.09927590762867644,-0.04095013786764685,0.025640797334558377,0.11040865054346366
170,1788069510.8543084,0.015685029871323558,-0.016999942555146846,0.006480641084558376,0.024021176445159192
171,1788069510.8743083,0.05879538143382356,0.07880083869485316,-0.022259593290441627,0.10080654021648072
172,1788069510.8831778,-0.09448586856617644,-0.09364056755514685,0.035220875459558376,0.137610484044249
173,1788069510.9031777,0.04921530330882356,0.05485064338235316,-0.012679515165441626,0.07477639509944463
174,1788069510.913205,0.006104951746323559,0.011740291819853156,-0.003099437040441625,0.013590857140295145
175,1788069510.933205,-0.07053567325367645,-0.06490033318014685,0.030430836397058375,0.10056525370160417
176,1788069510.9732594,0.07316549862132356,0.06443072150735316,-0.012679515165441626,0.09831214659082399
177,1788069510.9932594,-0.04658547794117644,-0.03616009880514685,0.016060719209558375,0.061120423772533655
178,1788069511.003384,-0.017845243566176443,-0.016999942555146846,0.020850758272058376,0.0322831981893719
179,1788069511.023384,0.05879538143382356,0.04048052619485316,-0.012679515165441626,0.07250062057521757
180,1788069511.033786,-0.04658547794117644,-0.04095013786764685,0.025640797334558377,0.06711610115567662
181,1788069511.053786,0.03484518612132356,0.030900448069853155,-0.007889476102941625,0.047236305104508956
182,1788069511.0932593,0.010894990808823559,0.002160213694853155,0.011270680147058376,0.01582389265980646
183,1788069511.1132593,-0.03700539981617644,-0.021789981617646847,0.016060719209558375,0.04584920518374049
184,1788069511.1234982,0.039635225183823564,0.030900448069853155,-0.003099437040441625,0.05035270872810871
185,1788069511.1434982,0.006104951746323559,-0.021789981617646847,0.020850758272058376,0.030770568003241953
186,1788069511.1546564,-0.008265165441176442,0.04048052619485316,-0.031839671415441625,0.052160815145332044
187,1788069511.1746564,0.0013149126838235589,-0.031370059742646846,0.059171070772058375,0.06698526151277796
188,1788069511.2451138,0.0013149126838235589,-0.03616009880514685,0.025640797334558377,0.04434785484007043
189,1788069511.2651138,0.04921530330882356,0.08838091681985316,-0.08932014016544162,0.13494969424519435
190,1788069511.2451138,-0.017845243566176443,-0.026580020680146848,0.035220875459558376,0.047596851633599856
191,1788069511.2651138,-0.0034751263786764416,-0.04574017693014685,0.04001091452205838,0.06086964407519049
192,1788069511.2751489,-0.0034751263786764416,0.04527056525735316,-0.017469554227941626,0.04864859614614832
193,1788069511.2951488,-0.03700539981617644,-0.026580020680146848,-0.003099437040441625,0.04566731462304048
194,1788069511.3333857,0.0013149126838235589,0.021320369944853156,0.0016906020220583751,0.021427676149047656
195,1788069511.3533857,-0.0034751263786764416,-0.007419864430146846,0.011270680147058376,0.013934099270739643
196,1788069511.3633122,-0.02742532169117644,-0.012209903492646846,0.025640797334558377,0.03948012792679576
197,1788069511.3833122,0.03005514705882356,0.026110409007353157,-0.007889476102941625,0.04058705651359392
198,1788069511.3942416,-0.017845243566176443,-0.016999942555146846,0.006480641084558376,0.02548429857149928
199,1788069511.4142416,-0.008265165441176442,-0.0026298253676468454,0.016060719209558375,0.018253099538506155
200,1788069511.4541063,0.02526510799632356,-0.0026298253676468454,0.0016906020220583751,0.025457804279379624
201,1788069511.4741063,-0.032215360753676446,0.011740291819853156,0.006480641084558376,0.03489502298855373
202,1788069511.4843895,0.015685029871323558,-0.007419864430146846,0.0016906020220583751,0.017433665289406545
203,1788069511.5043895,-0.032215360753676446,0.006950252757353155,0.025640797334558377,0.041756268629183184
204,1788069511.5433445,0.0013149126838235589,-0.03616009880514685,0.016060719209558375,0.039588236162935324
205,1788069511.5633445,-0.022635282628676444,0.04048052619485316,0.0016906020220583751,0.0464099898285837
206,1788069511.5745103,0.03484518612132356,-0.021789981617646847,0.0016906020220583751,0.04113208516382382
207,1788069511.5945103,-0.008265165441176442,0.030900448069853155,0.011270680147058376,0.033914287279331184
208,1788069511.6045215,0.03484518612132356,-0.031370059742646846,0.011270680147058376,0.04822132178885403
209,1788069511.6245215,-0.013055204503676442,0.016530330882353155,0.020850758272058376,0.02963856144000081
210,1788069511.673518,0.03005514705882356,-0.026580020680146848,0.006480641084558376,0.04064244176905973
211,1788069511.693518,-0.013055204503676442,0.04048052619485316,0.0016906020220583751,0.042567235062216505
212,1788069511.694585,0.03484518612132356,-0.031370059742646846,0.006480641084558376,0.047331452047806206
213,1788069511.714585,-0.022635282628676444,0.021320369944853156,0.020850758272058376,0.037438861024145356
214,1788069511.7251806,0.015685029871323558,-0.021789981617646847,-0.003099437040441625,0.027026467969924618
215,1788069511.7451806,-0.022635282628676444,0.030900448069853155,0.0016906020220583751,0.038341255141097576
216,1788069511.7854383,0.006104951746323559,-0.026580020680146848,0.011270680147058376,0.02950925560157811
217,1788069511.8054383,-0.008265165441176442,0.002160213694853155,0.030430836397058375,0.03160720308413861
218,1788069511.8169255,0.04442526424632356,0.021320369944853156,-0.031839671415441625,0.058667938039310384
219,1788069511.8369255,-0.022635282628676444,0.021320369944853156,0.011270680147058376,0.03307480045658258
220,1788069511.8753653,0.02047506893382356,-0.026580020680146848,0.016060719209558375,0.037197750586966116
221,1788069511.8953652,-0.0034751263786764416,0.006950252757353155,0.025640797334558377,0.026792405727943953
222,1788069511.9050052,-0.022635282628676444,-0.012209903492646846,-0.003099437040441625,0.025904522248971756
223,1788069511.9250052,0.02526510799632356,0.016530330882353155,0.0016906020220583751,0.03023963717280614
224,1788069511.9357545,-0.022635282628676444,0.002160213694853155,0.011270680147058376,0.025378155446461992
225,1788069511.9557545,0.006104951746323559,-0.03616009880514685,0.030430836397058375,0.04765353066927418
226,1788069511.9657955,0.02047506893382356,0.04048052619485316,-0.012679515165441626,0.047102776496589706
227,1788069511.9857955,-0.013055204503676442,-0.016999942555146846,0.011270680147058376,0.024217032074315012
228,1788069512.0269392,0.010894990808823559,0.011740291819853156,0.006480641084558376,0.01727813605706723
229,1788069512.0469391,0.015685029871323558,-0.0026298253676468454,0.006480641084558376,0.017173667412509686
230,1788069512.0560825,-0.03700539981617644,-0.007419864430146846,0.011270680147058376,0.03938885927129809
231,1788069512.0760825,0.02526510799632356,-0.0026298253676468454,0.006480641084558376,0.026215269832620024
232,1788069512.0867903,-0.017845243566176443,0.011740291819853156,0.006480641084558376,0.022322317953526658
233,1788069512.1067903,0.0013149126838235589,-0.016999942555146846,0.011270680147058376,0.020439062434996096
234,1788069512.146174,0.015685029871323558,0.030900448069853155,0.0016906020220583751,0.03469461036211521
235,1788069512.166174,-0.0034751263786764416,-0.031370059742646846,0.020850758272058376,0.03782738785754068
236,1788069512.176283,0.0013149126838235589,0.016530330882353155,0.006480641084558376,0.017803919324492136
237,1788069512.1962829,0.006104951746323559,0.002160213694853155,0.011270680147058376,0.012998661085268206
238,1788069512.2050233,-0.017845243566176443,-0.021789981617646847,0.020850758272058376,0.03504297557790092
239,1788069512.2250233,0.0013149126838235589,0.030900448069853155,-0.007889476102941625,0.03191881137296091
240,1788069512.2657526,0.015685029871323558,-0.016999942555146846,0.0016906020220583751,0.02319216126495314
241,1788069512.2857525,-0.022635282628676444,0.006950252757353155,0.011270680147058376,0.026223849146310547
242,1788069512.295876,0.02047506893382356,-0.012209903492646846,0.0016906020220583751,0.023899128150239375
243,1788069512.315876,-0.022635282628676444,0.016530330882353155,0.011270680147058376,0.030209867423367415
244,1788069512.3256564,0.015685029871323558,-0.021789981617646847,0.006480641084558376,0.027619235504057055
245,1788069512.3456564,-0.0034751263786764416,0.04527056525735316,-0.003099437040441625,0.045509417619166534
246,1788069512.3842793,0.010894990808823559,-0.016999942555146846,-0.007889476102941625,0.021678161932726894
247,1788069512.4042792,-0.06574563419117645,-0.0026298253676468454,0.05438103170955838,0.08536217550215261
248,1788069512.4148793,0.04921530330882356,-0.026580020680146848,-0.007889476102941625,0.05648794041488342
249,1788069512.4348793,-0.04179543887867644,0.059640682444853155,-0.007889476102941625,0.07325376131454193
250,1788069512.4440172,0.05400534237132356,-0.05532025505514685,0.04001091452205838,0.0870504503429008
251,1788069512.4640172,0.05400534237132356,0.06443072150735316,-0.007889476102941625,0.08444014869587134
252,1788069512.5042226,0.03005514705882356,0.002160213694853155,-0.012679515165441626,0.03269171902432795
253,1788069512.5242226,0.04442526424632356,-0.021789981617646847,0.06396110983455838,0.08086674825613742
254,1788069512.5334046,0.03484518612132356,0.006950252757353155,-0.003099437040441625,0.03566650416270758
255,1788069512.5534046,0.02047506893382356,0.006950252757353155,-0.003099437040441625,0.021843556743433135
256,1788069512.5653746,0.015685029871323558,0.011740291819853156,0.006480641084558376,0.020636213871407932
257,1788069512.5853746,0.0013149126838235589,-0.012209903492646846,0.016060719209558375,0.020217750621523332
258,1788069512.6263757,-0.017845243566176443,0.016530330882353155,0.006480641084558376,0.025173463525766694
259,1788069512.6463757,-0.0034751263786764416,0.002160213694853155,0.0016906020220583751,0.004427319928827352
260,1788069512.6544216,-0.02742532169117644,-0.0026298253676468454,0.020850758272058376,0.03455167683121389
261,1788069512.6744215,-0.0034751263786764416,0.011740291819853156,-0.007889476102941625,0.014565534269019133
262,1788069512.68438,-0.013055204503676442,0.006950252757353155,0.006480641084558376,0.016147541202634372
263,1788069512.70438,-0.008265165441176442,0.002160213694853155,0.016060719209558375,0.018191376652296712
264,1788069512.7477279,0.010894990808823559,0.002160213694853155,-0.003099437040441625,0.011531429135169781
265,1788069512.7677279,-0.022635282628676444,0.006950252757353155,0.030430836397058375,0.03855772084674727
266,1788069512.7747712,0.03484518612132356,-0.016999942555146846,-0.017469554227941626,0.04252493818491646
267,1788069512.7947712,-0.032215360753676446,0.04048052619485316,0.011270680147058376,0.052948377694496035
268,1788069512.8070712,-0.02742532169117644,-0.05053021599264685,0.030430836397058375,0.0650498793384937
269,1788069512.8270712,0.0013149126838235589,-0.0026298253676468454,0.016060719209558375,0.016327635418476136
270,1788069512.8644676,-0.03700539981617644,0.030900448069853155,-0.017469554227941626,0.0512778961287976
271,1788069512.8844676,-0.022635282628676444,-0.031370059742646846,0.030430836397058375,0.049218619157406544
272,1788069512.8941495,0.010894990808823559,0.006950252757353155,0.020850758272058376,0.02453081650975474
273,1788069512.9141495,-0.022635282628676444,-0.0026298253676468454,0.006480641084558376,0.023691152568232014
274,1788069512.9568508,0.006104951746323559,0.016530330882353155,-0.003099437040441625,0.017892143104521578
275,1788069512.9768507,0.03005514705882356,0.011740291819853156,0.006480641084558376,0.032911168706226276
276,1788069512.9859233,-0.056165556066176445,-0.031370059742646846,0.011270680147058376,0.06531216247727017
277,1788069513.0059233,0.04442526424632356,0.030900448069853155,0.0016906020220583751,0.05414148067305099
278,1788069513.0140815,0.0013149126838235589,-0.0026298253676468454,0.016060719209558375,0.016327635418476136
279,1788069513.0340815,-0.06574563419117645,-0.04574017693014685,0.020850758272058376,0.08276114016445725
280,1788069513.075528,0.08753561580882356,0.08838091681985316,-0.022259593290441627,0.12636914174909805
281,1788069513.095528,-0.08011575137867645,-0.060110294117646845,0.035220875459558376,0.10617104664652048
282,1788069513.1063974,-0.008265165441176442,-0.007419864430146846,0.006480641084558376,0.012859473426180473
283,1788069513.1263974,0.09232565487132356,0.08359087775735316,-0.03662971047794163,0.12981986397066259
284,1788069513.134426,-0.13759622012867645,-0.08885052849264685,0.059171070772058375,0.17415037129858144
285,1788069513.154426,0.06837545955882356,0.026110409007353157,-0.017469554227941626,0.07524720761154248
286,1788069513.1949203,-0.022635282628676444,0.06443072150735316,-0.022259593290441627,0.07182731644085025
287,1788069513.2149203,-0.09927590762867644,-0.11759076286764684,0.04480095358455838,0.16028230965823523
288,1788069513.2265382,0.09232565487132356,0.11712115119485315,-0.022259593290441627,0.1507875329663639
289,1788069513.2465382,-0.04658547794117644,-0.06490033318014685,0.020850758272058376,0.0825652113327503
290,1788069513.255473,-0.056165556066176445,-0.012209903492646846,0.025640797334558377,0.06293728560618464
291,1788069513.2754729,0.13543600643382356,0.07401079963235316,-0.03662971047794163,0.15862612013997204
292,1788069513.3154602,-0.12801614200367645,-0.04574017693014685,0.035220875459558376,0.1404307888863561
293,1788069513.3354602,0.039635225183823564,-0.021789981617646847,0.016060719209558375,0.04799688610522631
294,1788069513.3443623,0.04921530330882356,0.08838091681985316,-0.027049632352941628,0.10471396825699335
295,1788069513.3643622,-0.08969582950367645,-0.09364056755514685,0.04001091452205838,0.13570103538033187
296,1788069513.3754332,0.04921530330882356,0.06443072150735316,-0.003099437040441625,0.08113612305074269
297,1788069513.3954332,0.010894990808823559,-0.0026298253676468454,0.0016906020220583751,0.011334678706767852
298,1788069513.4349592,-0.06574563419117645,-0.03616009880514685,0.025640797334558377,0.07929370497555192
299,1788069513.4549592,0.07795553768382356,0.05006060431985316,-0.012679515165441626,0.09350882346213965
300,1788069513.4665303,-0.051375517003676444,-0.021789981617646847,0.016060719209558375,0.05807059279722149
301,1788069513.4865303,-0.0034751263786764416,-0.021789981617646847,0.016060719209558375,0.027291509737891705
302,1788069513.4964797,0.03484518612132356,0.05485064338235316,-0.007889476102941625,0.06546009401510702
303,1788069513.5164797,-0.056165556066176445,-0.05053021599264685,0.025640797334558377,0.0797829737753504
304,1788069513.5547512,0.015685029871323558,0.026110409007353157,0.0016906020220583751,0.030506257649744076
305,1788069513.5747511,0.006104951746323559,0.006950252757353155,0.006480641084558376,0.011294917356178406
306,1788069513.587073,-0.04179543887867644,-0.026580020680146848,0.020850758272058376,0.05374114188345855
307,1788069513.607073,0.03484518612132356,0.026110409007353157,-0.003099437040441625,0.04365257110788104
308,1788069513.6174388,-0.013055204503676442,-0.012209903492646846,0.011270680147058376,0.02113169039404702
309,1788069513.6374388,0.0013149126838235589,-0.007419864430146846,0.011270680147058376,0.013557714206500086
310,1788069513.6767457,0.02047506893382356,0.016530330882353155,0.0016906020220583751,0.026369270413151232
311,1788069513.6967456,-0.017845243566176443,-0.016999942555146846,0.016060719209558375,0.029417638694204058
312,1788069513.7063298,0.0013149126838235589,0.016530330882353155,0.011270680147058376,0.020050163725602203
313,1788069513.7263298,0.0013149126838235589,0.002160213694853155,0.011270680147058376,0.011550919857344999
314,1788069513.7343063,-0.017845243566176443,-0.007419864430146846,0.006480641084558376,0.020383959746937935
315,1788069513.7543063,0.0013149126838235589,0.011740291819853156,0.006480641084558376,0.01347450022257809
316,1788069513.7973428,0.23602682674632358,0.030900448069853155,0.016060719209558375,0.23858216055771023
317,1788069513.8173428,0.07316549862132356,0.6296553308823531,-0.18512092141544165,0.6603701851558523
318,1788069513.8263464,-0.43936868106617644,0.13628130744485317,0.2890929457720584,0.5433158970211311
319,1788069513.8463464,0.6623403033088235,0.24645220588235317,-0.13243049172794163,0.7190070947569339
320,1788069513.855355,-0.18549661075367646,0.11233111213235317,-0.027049632352941628,0.21853822083201274
321,1788069513.875355,-0.6405503216911764,-1.118708926930147,0.4759044692095584,1.3741540821994824
322,1788069513.9172502,0.36056784237132355,-1.0803886144301469,-0.7934558823529416,1.3880997674458018
323,1788069513.9372501,-1.5171274701286765,-1.4923319738051468,0.4663243910845584,2.1785749742390292
324,1788069513.9468353,0.4659487017463236,-0.40978314568014684,0.3178331801470584,0.697171678673907
325,1788069513.9668353,1.0742836626838237,3.6473799402573532,-0.7982459214154417,3.885184984985592
326,1788069513.9755778,0.5377992876838236,0.43805376838235316,0.14060173483455837,0.7077344315954225
327,1788069513.9955778,-1.3830063763786766,-1.6025028722426469,0.2507726332720584,2.1315743023052733
328,1788069514.0353892,0.26955710018382356,-0.7355058019301469,-0.17075080422794164,0.801739142163403
329,1788069514.0553892,0.17375631893382357,1.8367451746323533,-0.12764045266544163,1.849355612115016
330,1788069514.0646646,0.25039694393382356,-0.29003216911764684,0.059171070772058375,0.38770930382284824
331,1788069514.0846646,-0.8369419232536764,-0.9510575597426469,0.11186150045955838,1.271807870760464
332,1788069514.0939593,0.5090590533088236,0.7302461511948531,-0.05099982766544163,0.8916285905647467
333,1788069514.1139593,0.39888815487132356,0.19376177619485316,-0.003099437040441625,0.44346926897001676
334,1788069514.1572425,-0.30524758731617646,0.04048052619485316,0.2220323988970584,0.37962237647870734
335,1788069514.1772425,0.7246108111213236,-0.05532025505514685,-0.23302131204044163,0.7631645235978399
336,1788069514.2153702,-0.23818704044117645,1.2906807215073532,0.3274132582720584,1.3526970218039198
337,1788069514.2353702,1.0647035845588235,1.8415352136948533,-0.15159064797794164,2.1325631035927
338,1788069514.2163525,0.7102406939338236,1.3290010340073533,-0.37672248391544166,1.5532563927438487
339,1788069514.2363524,-1.5985581341911768,-1.2863602941176469,0.2220323988970584,2.063833641752939
340,1788069514.2756407,-0.6405503216911764,-2.905393497242647,0.4375841567095584,3.0071740858556466
341,1788069514.2956407,-1.4931772748161767,-2.488660098805147,1.7165245863970584,3.3718635970510284
342,1788069514.3055122,-0.15675637637867645,-0.45768353630514685,-0.9658972886029417,1.080279756854988
343,1788069514.3255122,1.2275649126838235,0.6104951746323531,-1.6460828354779418,2.14224384101272
344,1788069514.3360755,-0.24776711856617645,-1.099548770680147,0.8686876723345585,1.4230299772713297
345,1788069514.3560755,-2.1350425091911767,-2.982034122242647,1.5967736098345584,4.000077497166388
346,1788069514.3953514,-2.432024931066177,-4.692078067555147,1.9368663832720585,5.6286582099119205
347,1788069514.4153514,-1.6225083295036766,-5.525544864430147,1.6446740004595584,5.989084395458694
348,1788069514.4258425,-0.33398782169117647,-5.065701114430147,2.0949376723345585,5.491961352444442
349,1788069514.4458425,0.4611586626838236,-3.935251895680147,2.1907384535845584,4.527494866549998
350,1788069514.4855626,1.1173940142463237,-2.814382755055147,1.4722325942095584,3.3670147737243923
351,1788069514.5055625,1.2706752642463235,-1.7605741613051469,0.8782677504595584,2.3421339086653603
352,1788069514.51583,1.0120131548713236,-1.2097196691176468,0.2028722426470584,1.5902042165455874
353,1788069514.53583,0.9066322954963236,-0.7977763097426469,-0.20907111672794162,1.2256181670787185
354,1788069514.5454195,1.1940346392463237,-0.22297162224264686,-0.9371570542279417,1.5341767852287458
355,1788069514.5654194,1.6059779986213234,0.09796099494485316,-0.9946375229779417,1.8915775137968924
356,1788069514.6061263,1.2131947954963236,-0.012209903492646846,-0.8605164292279417,1.4874404924345288
357,1788069514.6261263,0.8874721392463236,0.4236836511948532,-0.9515271714154416,1.3684000117546475
358,1788069514.635405,1.2275649126838235,1.6643037683823532,-1.3012000229779417,2.443346915217309
359,1788069514.655405,1.4622768267463235,2.4498701746323532,-1.5215418198529418,3.2334512367057364
360,1788069514.667017,1.6299281939338235,2.895343807444853,-1.8424744370404418,3.799262261523562
361,1788069514.687017,1.6969887408088236,3.0294649011948533,-2.0771863511029416,4.04624906687809
362,1788069514.7253075,1.9269106158088236,2.7995430261948533,-1.8472644761029418,3.8681793807300164
363,1788069514.7453074,2.0897719439338234,2.2678486902573534,-1.5742322495404417,3.462440127287128
364,1788069514.7543442,2.0562416704963233,1.2954707605698532,-1.0569080307904417,2.65017525543619
365,1788069514.7743442,1.7017787798713235,0.5769649011948532,-0.9611072495404417,2.037809279091228
366,1788069514.785685,1.3137856158088235,0.3709932215073532,-0.8174060776654417,1.5911697931129085
367,1788069514.805685,0.8970522173713236,0.3230928308823532,-0.5491638901654416,1.1003057013030617
368,1788069514.8455071,0.8491518267463236,0.3230928308823532,-0.6689148667279416,1.128226440553425
369,1788069514.8655071,1.1173940142463237,0.5003242761948532,-0.7742957261029416,1.4485950558678222
370,1788069514.875172,1.2419350298713234,1.1469795496323532,-0.7695056870404416,1.8574454791686088
371,1788069514.8951719,1.0024330767463236,1.5206025965073533,-0.26655158547794167,1.8406939119747232
372,1788069514.9061823,0.4372084673713236,2.085827205882353,-0.49647346047794166,2.1882212579396785
373,1788069514.9261823,0.21686667049632358,2.013976619944853,-0.6545447495404416,2.128746534373601
374,1788069514.965456,0.16417624080882356,1.9469160730698531,-0.49647346047794166,2.0159171437791774
375,1788069514.985456,-0.017845243566176443,2.0091865808823535,-0.24260139016544163,2.0238588399455786
376,1788069514.9973316,0.02526510799632356,2.5217207605698535,-0.23781135110294163,2.533035364673078
377,1788069515.0173316,0.006104951746323559,1.8750654871323533,-0.08932014016544162,1.8772016244692227
378,1788069515.025922,0.015685029871323558,1.1182393152573533,-0.32882209329044165,1.1656882753914988
379,1788069515.045922,0.21207663143382358,0.6152852136948532,-0.32882209329044165,0.7291614093105496
380,1788069515.0876915,-0.2525571576286765,0.9745381433823532,-0.7455554917279417,1.2527420732226937
381,1788069515.1076915,-0.02742532169117644,1.4104316980698532,-1.5215418198529418,2.0748877638926584
382,1788069515.1163566,0.13064596737132356,1.5780830652573532,-2.081976390165442,2.615729385630088
383,1788069515.1363566,-0.4824790326286765,3.1396357996323534,-2.0436560776654416,3.7771191581731025
384,1788069515.1474519,-1.3446860638786766,-2.431179630055147,3.5367394301470587,4.497481606492855
385,1788069515.1674519,0.2647670611213236,-1.4492216222426468,-0.2952918198529416,1.5025119519998813
386,1788069515.206334,1.9796010454963235,0.5817549402573532,-1.4161609604779417,2.5025528917139357
387,1788069515.226334,-0.5351694623161765,-4.414255801930147,5.572506031709558,7.129157321290445
388,1788069515.2340574,2.0322914751838237,-2.6994218175551468,1.0028087660845584,3.5245868141575984
389,1788069515.2540574,1.9173305376838234,-1.942595645680147,0.4136339613970584,2.7606027036448815
390,1788069515.2662725,0.8539418658088236,-1.736623965992647,1.1273497817095584,2.2396421677941487
391,1788069515.2862725,0.8204115923713236,0.8643672449448532,-0.7982459214154417,1.4343648301904206
392,1788069515.3258142,1.0790737017463237,-0.7881962316176468,1.3333214613970585,1.887696869934037
393,1788069515.3458142,1.1652944048713236,-2.440759708180147,1.0890294692095583,2.9156824566311914
394,1788069515.354108,2.9519789751838235,-1.271990176930147,-0.5587439682904417,3.2625655092633887
395,1788069515.374108,3.0573598345588238,-0.3618827550551469,-0.7695056870404416,3.1734125620170226
396,1788069515.386293,2.8897084673713236,-0.22297162224264686,-0.32882209329044165,2.9168913829210283
397,1788069515.406293,2.2717934283088237,0.26082232306985315,-0.5731140854779416,2.357442135046358
398,1788069515.443687,1.4718569048713235,-0.21818158318014685,0.2220323988970584,1.5044149486815033
399,1788069515.463687,0.7629311236213236,-0.0026298253676468454,0.37531364889705837,0.8502535800689016
400,1788069515.476412,0.7198207720588236,0.6919258386948531,0.035220875459558376,0.9990714790289403
401,1788069515.496412,0.7629311236213236,1.1757197840073532,-0.7311853745404416,1.5808266703969285
402,1788069515.5066204,0.6192299517463236,0.9889082605698533,-0.9179968979779417,1.4846223713995996
403,1788069515.5266204,0.010894990808823559,0.33746294806985316,-0.47252326516544163,0.5807565568009809
404,1788069515.5654018,-0.5016391888786764,-0.012209903492646846,0.09270134420955838,0.5102788421837762
405,1788069515.5854018,-1.2872055951286767,-0.016999942555146846,0.2603527113970584,1.3133814284164556
406,1788069515.5959115,-1.2488852826286767,0.09796099494485316,-0.07974006204044162,1.2552566602855804
407,1788069515.6159115,-0.8800522748161765,0.13628130744485317,-0.060579905790441625,0.8925998690082722
408,1788069515.6272364,-0.6357602826286765,-0.04095013786764685,-0.022259593290441627,0.6374665012790317
409,1788069515.6472363,-0.26692727481617645,0.40931353400735315,0.15018181295955838,0.5112165060971712
410,1788069515.685131,-0.5639096966911765,0.9410078699448532,0.2507726332720584,1.1253341152380865
411,1788069515.705131,-1.0429136029411765,1.3625313074448533,-0.5012634995404417,1.7875752971381813
412,1788069515.7168703,-1.1818247357536764,1.2906807215073532,-0.5779041245404416,1.842970322080864
413,1788069515.7368703,-1.1722446576286765,0.4811641199448532,0.14060173483455837,1.2749295256992699
414,1788069515.7455645,-1.0333335248161766,-0.46726361443014686,0.4711144301470584,1.2280318665132985
415,1788069515.7655644,-0.3723081341911765,-0.5582743566176469,0.3178331801470584,0.7424968245347283
416,1788069515.8066058,0.23602682674632358,-0.36667279411764686,0.059171070772058375,0.44006683186340373
417,1788069515.8266058,0.6479701861213236,-0.40978314568014684,0.07833122702205837,0.7706642392847877
418,1788069515.8361835,0.8491518267463236,-0.6444950597426469,0.17413200827205838,1.080164183448126
419,1788069515.8561835,0.9114223345588236,-0.6636552159926469,0.4184240004595584,1.202583702620106
420,1788069515.896348,0.8299916704963236,-0.40499310661764687,0.2699327895220584,0.9621690601761472
421,1788069515.916348,0.6623403033088235,-0.18944134880514685,-0.031839671415441625,0.6896350242702157
422,1788069515.9249415,0.4803188189338236,-0.21818158318014685,-0.17075080422794164,0.5544954537284029
423,1788069515.9449415,0.39888815487132356,-0.17986127068014685,-0.09411017922794163,0.4475696176257291
424,1788069515.954469,0.37014792049632356,-0.08406048943014685,-0.10369025735294163,0.39348102673560736
425,1788069515.974469,0.17375631893382357,-0.24213177849264686,-0.017469554227941626,0.29853683499757244
426,1788069516.0197253,0.09232565487132356,-0.27087201286764684,-0.06536994485294163,0.2935454029489578
427,1788069516.0397253,0.18812643612132357,-0.17507123161764684,-0.17075080422794164,0.30854064440899687
428,1788069516.044723,0.27913717830882356,-0.16070111443014684,-0.17075080422794164,0.36455212197680587
429,1788069516.064723,0.22165670955882358,-0.18465130974264685,-0.07495002297794164,0.29806930238874574
430,1788069516.0742311,0.2551869829963236,-0.15112103630514687,-0.22823127297794163,0.3742291782716029
431,1788069516.0942311,0.24081686580882358,-0.19423138786764685,-0.26176154641544164,0.40526251007560593
432,1788069516.1349218,0.14022604549632356,-0.23255170036764686,-0.22823127297794163,0.3547296874305173
433,1788069516.1549218,0.2839272173713236,-0.49600384880514686,-0.08453010110294162,0.5777368092706361
434,1788069516.1644664,0.3653578814338236,-0.7019755284926469,-0.04141974954044163,0.7924466037408046
435,1788069516.1844664,0.42762838924632357,-0.8360966222426469,-0.14201056985294164,0.9497845034348191
436,1788069516.19435,0.5617494829963235,-0.970217715992647,-0.022259593290441627,1.1213297407837186
437,1788069516.21435,0.6240199908088236,-0.9941679113051469,-0.07495002297794164,1.176175280620315
438,1788069516.2547772,0.6910805376838236,-1.104338809742647,-0.12285041360294163,1.3085292279470042
439,1788069516.2747772,0.7629311236213236,-1.0133280675551468,-0.15159064797794164,1.2774495670825976
440,1788069516.2843428,0.8204115923713236,-0.9366874425551469,-0.18033088235294165,1.2581644459560692
441,1788069516.3043427,0.8252016314338236,-0.9031571691176469,-0.24739142922794163,1.2481398655219251
442,1788069516.3154178,0.7964613970588236,-0.7355058019301469,-0.25697150735294166,1.1141606245371647
443,1788069516.3354177,0.6192299517463236,-0.5870145909926469,-0.25218146829044163,0.889734430112234
444,1788069516.3755474,0.4946889361213236,-0.47684369255514686,-0.31924201516544165,0.7576361362140579
445,1788069516.3955474,0.41804831112132357,-0.5870145909926469,-0.36714240579044166,0.8087917325240466
446,1788069516.4040983,0.3653578814338236,-0.8217265050551469,-0.3240320542279416,0.9558857686999728
447,1788069516.4240983,0.35098776424632355,-0.9414774816176469,-0.2761316636029416,1.042027329146346
448,1788069516.4352214,0.29829733455882357,-0.7259257238051469,-0.2761316636029416,0.8319844661597072
449,1788069516.4552214,0.27913717830882356,-0.5055839269301469,-0.37193244485294163,0.6869253343840265
450,1788069516.49334,0.21686667049632358,-0.5726444738051468,-0.44857306985294165,0.7590590524781498
451,1788069516.51334,0.39888815487132356,-0.5391142003676469,-0.4246228745404416,0.7937634828572576
452,1788069516.5243013,0.5186391314338236,-0.4912138097426469,-0.34798224954044166,0.7945874410859654
453,1788069516.5443013,0.5377992876838236,-0.5151640050551469,-0.39588264016544167,0.843412764144608
454,1788069516.5548992,0.3940981158088236,-0.7115556066176468,-0.27134162454044164,0.857467773972479
455,1788069516.5748992,0.3940981158088236,-0.7929862706801469,-0.21386115579044163,0.9109759296091724
456,1788069516.6166494,0.6000697954963236,-0.8313065831801469,-0.35756232766544166,1.0858200646843743
457,1788069516.6366494,0.8970522173713236,-0.8169364659926469,-0.49168342141544163,1.3091372949596074
458,1788069516.6469126,0.9784828814338236,-0.9989579503676469,-0.34319221047794163,1.4398356257554208
459,1788069516.6669126,0.9018422564338237,-1.2145097081801468,-0.29050178079044164,1.5403715692636935
460,1788069516.6754541,0.8491518267463236,-1.396531192555147,-0.26655158547794167,1.6560217221905404
461,1788069516.6954541,0.8156215533088236,-1.4444315831801469,-0.23302131204044163,1.6750880718861478
462,1788069516.735561,0.8060414751838236,-1.463591739430147,-0.3048718979779416,1.6984553316532496
463,1788069516.7555609,0.7341908892463236,-1.4061112706801469,-0.35277228860294163,1.6250026015339796
464,1788069516.7645957,0.7916713579963236,-1.1666093175551469,-0.4150427964154417,1.4696875047895652
465,1788069516.7845957,0.7437709673713236,-1.1330790441176468,-0.42941291360294165,1.4217801596913646
466,1788069516.7955492,0.6527602251838236,-1.027698184742647,-0.46773322610294166,1.3042368808257316
467,1788069516.8155491,0.5809096392463236,-0.7738261144301469,-0.40546271829044167,1.0491248163430444
468,1788069516.8577895,0.4659487017463236,-0.7594559972426469,-0.4150427964154417,0.9829252907842271
469,1788069516.8777895,0.5042690142463235,-0.8169364659926469,-0.5204236557904417,1.0920225316832077
470,1788069516.8862405,0.6479701861213236,-0.8696268956801468,-0.48210334329044163,1.18681925051973
471,1788069516.9062405,0.7198207720588236,-0.8600468175551469,-0.40067267922794164,1.1909496497139558
472,1788069516.916247,0.5473793658088236,-1.0037479894301469,-0.36714240579044166,1.2008029574113839
473,1788069516.9362469,0.4563686236213236,-1.1330790441176468,-0.38151252297794164,1.2797235037435142
474,1788069516.974284,0.5042690142463235,-1.109128848805147,-0.2952918198529416,1.253655176215873
475,1788069516.994284,0.5186391314338236,-0.970217715992647,-0.26655158547794167,1.131971162530753
476,1788069517.0062544,0.4803188189338236,-0.8839970128676469,-0.32882209329044165,1.0584332079147998
477,1788069517.0262544,0.39888815487132356,-0.9510575597426469,-0.3144519761029416,1.078193993358956
478,1788069517.0342422,0.4372084673713236,-0.9127372472426469,-0.25218146829044163,1.0429937772558326
479,1788069517.0542421,0.5234291704963235,-0.7738261144301469,-0.12764045266544163,0.942908816936806
480,1788069517.09424,0.5521694048713236,-0.7019755284926469,-0.13243049172794163,0.9028834528430494
481,1788069517.11424,0.5856996783088236,-0.6732352941176469,-0.18991096047794165,0.9123354905550854
482,1788069517.1299713,0.5425893267463235,-0.6349149816176469,-0.10848029641544163,0.8421924875537348
483,1788069517.1499712,0.4515785845588236,-0.5007938878676469,0.030430836397058375,0.6750139050134956
484,1788069517.1558168,0.3222475298713236,-0.40978314568014684,-0.04141974954044163,0.5229543886838306
485,1788069517.1758168,0.3222475298713236,-0.28524213005514687,-0.18033088235294165,0.46661094114557305
486,1788069517.2165642,0.35098776424632355,-0.24213177849264686,-0.23781135110294163,0.4882360571691235
487,1788069517.2365642,0.4324184283088236,-0.4528934972426469,-0.15159064797794164,0.6442654278634862
488,1788069517.2486482,0.5473793658088236,-0.7211356847426469,-0.07495002297794164,0.9084483209665314
489,1788069517.2686481,0.6288100298713236,-0.5199540441176469,-0.17554084329044164,0.8346070029206502
490,1788069517.305558,0.5713295611213236,-0.36667279411764686,-0.3048718979779416,0.7441863204425346
491,1788069517.325558,0.39888815487132356,-0.44810345818014685,-0.36235236672794163,0.7008621169695194
492,1788069517.3355956,0.29829733455882357,-0.7211356847426469,-0.26655158547794167,0.824662187404606
493,1788069517.3555956,0.26955710018382356,-0.9462675206801469,-0.23302131204044163,1.011129162282798
494,1788069517.3646264,0.5090590533088236,-0.989377872242647,-0.28092170266544164,1.1475742663843216
495,1788069517.3846264,0.6144399126838236,-0.9606376378676469,-0.3144519761029416,1.182895229029977
496,1788069517.4265652,0.5186391314338236,-0.9414774816176469,-0.30008185891544165,1.1159818632476446
497,1788069517.4465652,0.5521694048713236,-0.5391142003676469,-0.44857306985294165,0.8926102014380584
498,1788069517.4555888,0.4467885454963236,-0.6349149816176469,-0.6018543198529417,0.9823266567669353
499,1788069517.4755888,0.2935072954963236,-0.9127372472426469,-0.5204236557904417,1.0909063188559955
500,1788069517.4850237,0.35098776424632355,-0.9318974034926469,-0.5874842026654417,1.1561846174674786
501,1788069517.5050237,0.5234291704963235,-0.7929862706801469,-0.6832849839154417,1.1703348628738708
502,1788069517.5469599,0.4659487017463236,-1.0133280675551468,-0.5731140854779416,1.2539544330346897
503,1788069517.5669599,0.25997702205882356,-1.315100528492647,-0.5922742417279416,1.4655600395257171
504,1788069517.575372,0.14022604549632356,-1.506702090992647,-0.6880750229779417,1.6623061607547651
505,1788069517.595372,0.19770651424632357,-1.545022403492647,-0.8221961167279417,1.761303082218428
506,1788069517.6033475,0.2743471392463236,-1.7653642003676469,-0.7455554917279417,1.9358796718799534
507,1788069517.6233475,0.4228383501838236,-2.0240263097426467,-0.7742957261029416,2.2079421741472074
508,1788069517.6632264,0.5377992876838236,-1.947385684742647,-0.9179968979779417,2.2190667821566206
509,1788069517.6832263,0.5665395220588236,-1.6791434972426469,-1.0233777573529417,2.0464095261290307
510,1788069517.6943562,0.4372084673713236,-1.592922794117647,-0.9994275620404417,1.9306500780117701
511,1788069517.7143562,0.2935072954963236,-1.674353458180147,-1.0808582261029416,2.0144132000073323
512,1788069517.7254348,0.07316549862132356,-1.870745059742647,-1.1239685776654418,2.1836541924762956
513,1788069517.7454348,0.06358542049632356,-1.889905215992647,-0.9802674057904417,2.1299551680706874
514,1788069517.785759,0.19291647518382357,-1.592922794117647,-1.1000183823529417,1.945420323717038
515,1788069517.805759,0.09232565487132356,-1.746204044117647,-1.2197693589154417,2.1320389018939667
516,1788069517.8161614,-0.060955595128676446,-2.095876895680147,-1.1862390854779417,2.4090617913077454
517,1788069517.8361614,0.04442526424632356,-2.167727481617647,-1.0952283432904417,2.429102954304421
518,1788069517.8454723,0.18812643612132357,-2.043186465992647,-1.2006092026654416,2.3772809990213988
519,1788069517.8654723,0.17375631893382357,-2.086296817555147,-1.3634705307904418,2.498374983393033
520,1788069517.9069247,0.15938620174632356,-2.258738223805147,-1.4640613511029417,2.6964380142660285
521,1788069517.9269247,0.35098776424632355,-2.287478458180147,-1.3826306870404417,2.695814853441308
522,1788069517.9364274,0.37972799862132356,-2.282688419117647,-1.4449011948529418,2.728112760609106
523,1788069517.9564273,0.11627585018382357,-2.402439395680147,-1.3634705307904418,2.764830376639032
524,1788069517.9673522,-0.12322610294117645,-2.641941348805147,-1.3395203354779417,2.964684383223848
525,1788069517.9873521,0.15459616268382356,-2.598830997242647,-1.5071717026654416,3.0082202490943417
526,1788069518.0251803,0.3126674517463236,-2.641941348805147,-1.4592713120404417,3.034318339932732
527,1788069518.0451803,0.11627585018382357,-2.732952090992647,-1.2676697495404416,3.014885370772325
528,1788069518.054415,-0.051375517003676444,-2.843122989430147,-1.2724597886029416,3.115307639766104
529,1788069518.074415,0.10669577205882357,-2.766482364430147,-1.4640613511029417,3.1318180503138455
530,1788069518.086679,0.4324184283088236,-2.613201114430147,-1.5215418198529418,3.054651415654728
531,1788069518.106679,0.5138490923713236,-2.617991153492647,-1.5742322495404417,3.0977614086610594
532,1788069518.1454434,0.49947897518382356,-2.718581973805147,-1.6269226792279416,3.2073422952867374
533,1788069518.1654434,0.3940981158088236,-2.962873965992647,-1.5886023667279416,3.3849066372375294
534,1788069518.1748178,0.4036781939338236,-3.092205020680147,-1.6077625229779418,3.508502287938484
535,1788069518.1948178,0.6000697954963236,-3.096995059742647,-1.7275134995404418,3.596632459764526
536,1788069518.2050753,0.8922621783088236,-3.039514590992647,-1.9191150620404418,3.7037526058105033
537,1788069518.2250752,0.9018422564338237,-3.140105411305147,-1.8616345932904417,3.760221377596429
538,1788069518.2678173,0.8012514361213235,-3.005984317555147,-1.8664246323529416,3.627876305709413
539,1788069518.2878172,0.5856996783088236,-2.886233340992647,-2.0244959214154417,3.573789410087896
540,1788069518.2959611,0.15938620174632356,-3.173635684742647,-1.8951648667279417,3.6998671993544563
541,1788069518.3159611,-0.13759622012867645,-3.398767520680147,-1.6891931870404417,3.797884543080242
542,1788069518.325853,-0.10885598575367644,-3.341287051930147,-1.6556629136029417,3.7305855401680095
543,1788069518.345853,0.03005514705882356,-3.259856387867647,-1.5886023667279416,3.6264616999163035
544,1788069518.3860085,0.23123678768382358,-2.919763614430147,-1.6173426011029417,3.3457864703939126
545,1788069518.4060085,0.26955710018382356,-2.531770450367647,-1.7754138901654417,3.103967964558703
546,1788069518.414918,0.11148581112132357,-2.474289981617647,-1.8664246323529416,3.101303098290886
547,1788069518.434918,0.07316549862132356,-2.627571231617647,-1.6652429917279417,3.111674467053424
548,1788069518.446554,0.13543600643382356,-2.670681583180147,-1.7131433823529416,3.175805925914875
549,1788069518.466554,0.3366176470588236,-2.675471622242647,-1.7562537339154418,3.2180564040471777
550,1788069518.5062706,0.3940981158088236,-2.795222598805147,-2.029285960477942,3.476576507305419
551,1788069518.5262706,0.6958705767463236,-2.297058536305147,-2.216097483915442,3.2667723883077553
552,1788069518.5353003,0.7294008501838236,-3.010774356617647,-1.1239685776654418,3.2954655498570404
553,1788069518.5553002,1.5724477251838236,-2.991614200367647,-1.7514636948529416,3.8065696429548033
554,1788069518.5644658,1.0599135454963236,-2.766482364430147,-1.6412927964154418,3.386839742325406
555,1788069518.5844657,0.3222475298713236,-2.225207950367647,-1.8233142807904417,2.8948003142569125
556,1788069518.6261847,-0.060955595128676446,-1.588132755055147,-2.225677562040442,2.7348714489765014
557,1788069518.6461847,0.10190573299632356,-1.870745059742647,-1.8903748276654417,2.661501239158116
558,1788069518.6542757,0.03005514705882356,-2.488660098805147,-1.7562537339154418,3.0461056411657004
559,1788069518.6742756,-1.3303159466911767,-3.226326114430147,-1.1958191636029416,3.6890248286931886
560,1788069518.7152703,-2.532615751378677,-3.192795840992647,-1.1335486557904417,4.230014229460185
561,1788069518.7352703,-1.8524302045036767,-3.633479434742647,-0.8748865464154417,4.171222474809276
562,1788069518.7752347,-0.16154641544117646,-4.950740176930147,-0.7168152573529417,5.004972493129827
563,1788069518.7952347,0.12585592830882356,-3.532888614430147,-1.7035633042279417,3.924190312430408
564,1788069518.7752347,0.015685029871323558,-1.889905215992647,-2.158617015165442,2.8690791490929697
565,1788069518.7952347,-0.5064292279411765,-2.440759708180147,-1.3682605698529418,2.8435744236792937
566,1788069518.8363702,-1.2632553998161766,-2.617991153492647,-0.8269861557904417,3.022184307218794
567,1788069518.8563702,-1.2919956341911767,-2.330588809742647,-0.8269861557904417,2.790125986534615
568,1788069518.8653607,-0.9183725873161764,-2.182097598805147,-0.8653064682904417,2.5206573396458065
569,1788069518.8853607,-0.8465220013786765,-1.913855411305147,-0.8988367417279417,2.2775753604393105
570,1788069518.895376,-0.7315610638786765,-1.717463809742647,-1.0137976792279417,2.1242997110499706
571,1788069518.915376,-0.4106284466911765,-1.784524356617647,-1.3012000229779417,2.246389191656564
572,1788069518.9556808,-0.19507668887867646,-2.000076114430147,-1.4975916245404417,2.5062202720334743
573,1788069518.9756808,-0.38667825137867645,-2.057556583180147,-1.5071717026654416,2.57965612134499
574,1788069518.9868503,-0.5016391888786764,-2.244368106617647,-1.4449011948529418,2.715984082558069
575,1788069519.0068502,-0.6261802045036765,-2.249158145680147,-1.4975916245404417,2.7737329876333274
576,1788069519.0172296,-1.0093833295036765,-2.421599551930147,-1.1383386948529417,2.8598625980958796
577,1788069519.0372295,-0.6022300091911764,-2.641941348805147,-1.0042176011029418,2.8898076172751903
578,1788069519.076365,-0.45852883731617644,-2.335378848805147,-1.1862390854779417,2.65921158052768
579,1788069519.096365,-0.5974399701286764,-1.937805606617647,-1.2676697495404416,2.391445521195511
580,1788069519.1065187,-0.5639096966911765,-1.746204044117647,-1.3634705307904418,2.2861046778415743
581,1788069519.1265187,-0.7124009076286765,-2.416809512867647,-0.9227869370404417,2.6832851145284944
582,1788069519.137196,-0.8800522748161765,-2.742532169117647,-1.0808582261029416,3.076398740408771
583,1788069519.157196,-0.6070200482536765,-2.814382755055147,-1.4401111557904418,3.219183712055865
584,1788069519.196896,-0.6549204388786765,-3.034724551930147,-1.3778406479779417,3.396604000846867
585,1788069519.216896,-0.6022300091911764,-3.427507755055147,-1.3299402573529417,3.725484060234534
586,1788069519.2248223,-0.6884507123161765,-3.475408145680147,-1.5646521714154418,3.87305597427453
587,1788069519.2448223,-0.6213901654411764,-2.594040958180147,-2.369378733915442,3.5677906069658754
588,1788069519.2544665,-0.23818704044117645,-2.6994218175551468,-1.9430652573529417,3.334533522047561
589,1788069519.2744665,-0.45373879825367647,-3.130525333180147,-1.4880115464154418,3.495746861686217
590,1788069519.3154035,-0.8944223920036765,-3.5712089269301472,-1.3682605698529418,3.927551604004389
591,1788069519.3354034,-0.7124009076286765,-3.504148380055147,-1.7227234604779418,3.969174604866151
592,1788069519.345417,-0.3914682904411765,-3.643059512867647,-1.9813855698529417,4.165455414854162
593,1788069519.365417,-0.29087747012867643,-3.762810489430147,-2.072396312040442,4.305598559567859
594,1788069519.3747735,-0.22381692325367644,-3.8873515050551473,-2.053236155790442,4.401973926596383
595,1788069519.3947735,0.006104951746323559,-4.016682559742647,-2.2831580307904416,4.620236644344038
596,1788069519.4358497,0.3126674517463236,-4.035842715992647,-2.3310584214154417,4.671147688487734
597,1788069519.4558496,0.16896627987132357,-4.275344669117647,-2.2544177964154417,4.836271419624926
598,1788069519.4664102,0.2647670611213236,-4.4046757238051475,-2.1442468979779417,4.906023296726306
599,1788069519.4864101,0.4946889361213236,-4.351985294117647,-1.8376843979779418,4.749902850617963
600,1788069519.4958606,0.37972799862132356,-4.184333926930147,-1.6987732651654417,4.5319614265168315
601,1788069519.5158606,0.25039694393382356,-3.911301700367647,-1.7658338120404418,4.298738032559733
602,1788069519.5544198,0.3749379595588236,-3.3748173253676472,-1.8137342026654417,3.8496236453760284
603,1788069519.5744197,0.21686667049632358,-2.914973575367647,-1.7227234604779418,3.3929158874255783
604,1788069519.5847511,-0.08969582950367645,-2.555720645680147,-1.5790222886029417,3.0055057392211
605,1788069519.604751,0.0013149126838235589,-2.115037051930147,-1.5981824448529418,2.6509565419049896
606,1788069519.6153352,-0.06574563419117645,-1.746204044117647,-1.7706238511029417,2.4877017253285487
607,1788069519.6353352,-0.43936868106617644,-1.6120829503676468,-1.4928015854779417,2.2406054651306517
608,1788069519.6749601,-0.7028208295036765,-1.573762637867647,-1.3826306870404417,2.209604846002627
609,1788069519.69496,-0.6884507123161765,-1.343840762867647,-1.7849939682904417,2.3379640386598357
610,1788069519.7054384,-0.5112192670036765,-1.0803886144301469,-1.9143250229779418,2.2568174473682108
611,1788069519.7254384,-0.6884507123161765,-1.185769473805147,-1.6460828354779418,2.1423357182178258
612,1788069519.7508457,-0.7267710248161765,-1.506702090992647,-1.4928015854779417,2.2420534978272544
613,1788069519.7708457,-0.38667825137867645,-1.5258622472426469,-1.6460828354779418,2.2775786196978474
614,1788069519.7939377,-0.22381692325367644,-1.554602481617647,-1.5598621323529418,2.213606280018006
615,1788069519.8139377,-0.22381692325367644,-1.6791434972426469,-1.1910291245404416,2.0707890464676937
616,1788069519.8239493,0.006104951746323559,-1.669563419117647,-0.9898474839154416,1.9409475320846166
617,1788069519.8439493,0.28871725643382357,-1.545022403492647,-0.8940467026654416,1.8082509195362846
618,1788069519.8555698,0.3030873736213236,-1.4827518956801469,-0.8126160386029416,1.7177776242536398
619,1788069519.8755698,0.3174574908088236,-1.4923319738051468,-0.6066443589154417,1.6419047952654646
620,1788069519.917058,0.41804831112132357,-1.386951114430147,-0.4342029526654416,1.5122598944473153
621,1788069519.937058,0.34140768612132355,-1.0037479894301469,-0.41025275735294164,1.136827409655252
622,1788069519.9464402,0.25039694393382356,-0.8217265050551469,-0.46773322610294166,0.9781142312849814
623,1788069519.9664402,0.06837545955882356,-0.8217265050551469,-0.4437830307904416,0.9364043095787079
624,1788069519.9762635,-0.25734719669117645,-0.8073563878676469,-0.37672248391544166,0.9273466161920911
625,1788069519.9962635,-0.5399595013786764,-0.970217715992647,-0.2761316636029416,1.1441710428075103
626,1788069520.03674,-0.8417319623161765,-1.0803886144301469,-0.24260139016544163,1.390901753929852
627,1788069520.05674,-0.9040024701286765,-1.0181181066176468,-0.4437830307904416,1.4320364253185043
628,1788069520.0651188,-0.9662729779411765,-0.9366874425551469,-0.7024451401654417,1.5180566550303247
629,1788069520.0851188,-1.0381235638786765,-1.027698184742647,-0.6114343979779416,1.5835770002857912
630,1788069520.126125,-0.9902231732536765,-1.061228458180147,-0.5204236557904417,1.5419431101069458
631,1788069520.146125,-0.9662729779411765,-1.2049296300551469,-0.6880750229779417,1.6908536656169384
632,1788069520.155663,-0.7315610638786765,-1.2145097081801468,-0.8700965073529416,1.6635153601800357
633,1788069520.175663,-0.5399595013786764,-1.1234989659926469,-0.9084168198529416,1.5424095786487413
634,1788069520.1863134,-0.5160093060661765,-0.9750077550551469,-1.0808582261029416,1.5443963970752366
635,1788069520.2063134,-0.5686997357536765,-1.262410098805147,-1.0664881089154417,1.7477115132279577
636,1788069520.2439775,-0.5255893841911765,-1.669563419117647,-0.9850574448529417,2.008488083332952
637,1788069520.2639775,-0.4106284466911765,-1.8851151769301469,-0.9371570542279417,2.14488654614028
638,1788069520.2831845,-0.24776711856617645,-1.822844669117647,-1.1527088120404416,2.170918892572658
639,1788069520.3031845,-0.18549661075367646,-1.942595645680147,-1.2916199448529417,2.340164292770592
640,1788069520.3043778,-0.2525571576286765,-2.210837833180147,-1.4017908432904418,2.629944221998461
641,1788069520.3243778,-0.35793801700367645,-2.550930606617647,-1.3299402573529417,2.8989839033570384
642,1788069520.3662007,-0.12322610294117645,-2.641941348805147,-1.4736414292279416,3.027648893928984
643,1788069520.3862007,-0.10406594669117644,-2.627571231617647,-1.5838123276654417,3.069759239378625
644,1788069520.3954022,-0.15675637637867645,-2.689841739430147,-1.6508728745404417,3.159937086811918
645,1788069520.4154022,-0.23818704044117645,-2.891023380055147,-1.6556629136029417,3.34005522914514
646,1788069520.427413,-0.4010483685661765,-3.005984317555147,-1.5886023667279416,3.4235126684285384
647,1788069520.447413,-0.4297886029411765,-2.977244083180147,-1.5119617417279416,3.366708909676973
648,1788069520.4850826,-0.5064292279411765,-3.010774356617647,-1.4065808823529418,3.3615030221584337
649,1788069520.5050826,-0.5255893841911765,-3.068254825367647,-1.4688513901654416,3.442086036193352
650,1788069520.5159013,-0.4106284466911765,-2.905393497242647,-1.4880115464154418,3.290000829379461
651,1788069520.5359013,-0.4010483685661765,-2.828752872242647,-1.5646521714154418,3.2574252138254343
652,1788069520.5444994,-0.33398782169117647,-2.488660098805147,-1.5838123276654417,2.968743579645754
653,1788069520.5644994,-0.36751809512867645,-2.354539005055147,-1.6221326401654417,2.882748303071775
654,1788069520.6038547,-0.5591196576286764,-2.2635282628676467,-1.6365027573529418,2.8485638948725054
655,1788069520.6238546,-0.7986216107536764,-2.071926700367647,-1.7275134995404418,2.8133573573141444
656,1788069520.6352599,-0.9183725873161764,-2.182097598805147,-1.6987732651654417,2.913895802235532
657,1788069520.6552598,-0.9040024701286765,-2.550930606617647,-1.6508728745404417,3.1701496295397233
658,1788069520.6680048,-0.8992124310661764,-2.776062442555147,-1.6652429917279417,3.359782716582758
659,1788069520.6880047,-0.7219809857536765,-2.881443301930147,-1.5886023667279416,3.3686242778917297
660,1788069520.7259412,-0.6166001263786764,-2.914973575367647,-1.6365027573529418,3.3993246293588415
661,1788069520.7459412,-0.6261802045036765,-3.164055606617647,-1.5215418198529418,3.566292057563743
662,1788069520.7568657,-0.6836606732536765,-3.183215762867647,-1.5790222886029417,3.6185032675165014
663,1788069520.7768657,-0.7507212201286765,-3.274226505055147,-1.5454920151654417,3.6976596822446046
664,1788069520.786987,-0.8800522748161765,-3.307756778492647,-1.5263318589154418,3.747724090113018
665,1788069520.806987,-1.0477036420036765,-3.207165958180147,-1.6269226792279416,3.7457274071885656
666,1788069520.8457808,-0.9806430951286765,-2.977244083180147,-1.6556629136029417,3.5449771359396562
667,1788069520.8657808,-0.8800522748161765,-2.752112247242647,-1.6604529526654417,3.3325242438499205
668,1788069520.8754015,-0.9040024701286765,-2.771272403492647,-1.6365027573529418,3.342949666863449
669,1788069520.8954015,-0.8369419232536764,-2.766482364430147,-1.7035633042279417,3.354999908660893
670,1788069520.9053404,-0.6692905560661765,-2.627571231617647,-1.6508728745404417,3.174501799268268
671,1788069520.9253404,-0.46810891544117644,-2.474289981617647,-1.7323035386029417,3.05648694086941
672,1788069520.966763,-0.47768899356617645,-2.536560489430147,-1.7945740464154418,3.143695579915502
673,1788069520.986763,-0.48726907169117645,-2.594040958180147,-1.8568445542279417,3.2271274129648058
674,1788069520.996818,-0.46331887637867647,-2.800012637867647,-1.7227234604779418,3.320016758196927
675,1788069521.016818,-0.5160093060661765,-2.943713809742647,-1.6796131089154418,3.4282381471037073
676,1788069521.026247,-0.6213901654411764,-2.857493106617647,-1.7849939682904417,3.4260175216871906
677,1788069521.046247,-0.5830698529411765,-2.833542911305147,-1.7897840073529416,3.4018028568088488
678,1788069521.0838356,-0.5016391888786764,-2.804802676930147,-1.8185242417279417,3.3801760827042076
679,1788069521.1038356,-0.5734897748161765,-2.967664005055147,-1.7227234604779418,3.479036689947342
680,1788069521.1173186,-0.7650913373161765,-3.111365176930147,-1.5071717026654416,3.54083670337468
681,1788069521.1373186,-0.8082016888786765,-2.924553653492647,-1.5071717026654416,3.3878858574897386
682,1788069521.1460133,-0.9423227826286765,-2.709001895680147,-1.6125525620404417,3.290439068392374
683,1788069521.1660132,-0.8752622357536765,-2.560510684742647,-1.6556629136029417,3.172304939865959
684,1788069521.2055078,-0.7603012982536764,-2.426389590992647,-1.6365027573529418,3.023832962686179
685,1788069521.2255077,-0.7698813763786765,-2.392859317555147,-1.6029724839154418,2.9812772148016107
686,1788069521.235213,-0.8417319623161765,-2.392859317555147,-1.6173426011029417,3.008336001735437
687,1788069521.255213,-0.9614829388786765,-2.3401688878676468,-1.5886023667279416,2.9873897209892273
688,1788069521.2650955,-1.0237534466911764,-2.325798770680147,-1.6365027573529418,3.022507620525237
689,1788069521.2850955,-0.8896323529411765,-2.402439395680147,-1.7897840073529416,3.1251380075593462
690,1788069521.3365335,-0.8992124310661764,-2.474289981617647,-1.7370935776654417,3.154074825821975
691,1788069521.3565335,-0.9519028607536765,-2.368909122242647,-1.7370935776654417,3.087935165012696
692,1788069521.3575838,-0.9614829388786765,-2.311428653492647,-1.7993640854779418,3.08299577911639
693,1788069521.3775837,-0.9135825482536765,-2.402439395680147,-1.8089441636029417,3.1430283341743546
694,1788069521.3867023,-0.8752622357536765,-2.435969669117647,-1.7945740464154418,3.1496870032219957
695,1788069521.4067023,-1.0429136029411765,-2.584460880055147,-1.7131433823529416,3.2713861087060403
696,1788069521.4446244,-1.1818247357536764,-2.780852481617647,-1.7083533432904416,3.4710691978250594
697,1788069521.4646244,-1.0237534466911764,-2.670681583180147,-1.7610437729779418,3.3588519480164742
698,1788069521.475712,-1.1482944623161766,-2.958083926930147,-2.0340759995404416,3.7691253445401527
699,1788069521.495712,-1.0812339154411765,-2.819172794117647,-1.9143250229779418,3.5751143081855234
700,1788069521.53542,-1.0189634076286764,-2.838332950367647,-1.7562537339154418,3.4898205600175047
701,1788069521.55542,-1.0045932904411765,-2.982034122242647,-1.7227234604779418,3.587410111305926
702,1788069521.5646052,-0.8561020795036764,-2.948503848805147,-1.8664246323529416,3.593066465458592
703,1788069521.5846052,-0.9231626263786765,-3.092205020680147,-1.8951648667279417,3.7424071126404486
704,1788069521.5952713,-0.9135825482536765,-3.144895450367647,-1.7897840073529416,3.7320674242560465
705,1788069521.6152713,-0.9087925091911765,-3.298176700367647,-1.8760047104779418,3.9017005325044414
706,1788069521.6543636,-1.0285434857536766,-3.336497012867647,-1.9430652573529417,3.9956997651591775
707,1788069521.6743636,-1.2345151654411766,-3.250276309742647,-1.8999549057904417,3.962089401744451
708,1788069521.6887786,-1.1147641888786766,-3.322126895680147,-1.8568445542279417,3.9657405369456162
709,1788069521.7087786,-0.9040024701286765,-3.595159122242647,-1.8328943589154416,4.1354433028621385
710,1788069521.7164187,-0.7219809857536765,-3.7340702550551472,-1.8951648667279417,4.249257239278107
711,1788069521.7364187,-0.7363511029411764,-3.461038028492647,-1.9526453354779418,4.041512215450885
712,1788069521.7798982,-0.6884507123161765,-3.144895450367647,-1.8568445542279417,3.71647729383589
713,1788069521.7998981,-0.6405503216911764,-3.130525333180147,-1.9334851792279417,3.734817065747056
714,1788069521.8060186,-0.48726907169117645,-3.082624942555147,-2.0676062729779416,3.743661761530766
715,1788069521.8260186,-0.28608743106617646,-3.096995059742647,-1.9430652573529417,3.667250606737486
716,1788069521.8363879,-0.12322610294117645,-2.886233340992647,-1.8328943589154416,3.4212613612595715
717,1788069521.8563879,-0.15675637637867645,-2.790432559742647,-1.7179334214154418,3.280606906111039
718,1788069521.8952243,-0.07053567325367645,-2.747322208180147,-1.7993640854779418,3.284884428540684
719,1788069521.9152243,0.13543600643382356,-2.737742130055147,-1.7658338120404418,3.2606355107958502
720,1788069521.926049,0.23123678768382358,-2.972454044117647,-1.6987732651654417,3.431440528817386
721,1788069521.946049,0.4419985064338236,-3.360447208180147,-1.5694422104779417,3.735119405144281
722,1788069521.9560988,0.8299916704963236,-3.379607364430147,-1.5215418198529418,3.7981208011811796
723,1788069521.9760988,0.9880629595588236,-3.235906192555147,-1.3059900620404417,3.626701992336465
724,1788069522.0155149,0.9401625689338237,-3.144895450367647,-1.2053992417279418,3.496749974151093
725,1788069522.0355148,1.1413442095588235,-2.934133731617647,-1.2964099839154417,3.40477403157766
726,1788069522.0462332,1.4239565142463235,-2.397649356617647,-1.3347302964154417,3.0915820474188953
727,1788069522.0662332,1.4239565142463235,-2.301848575367647,-1.1095984604779416,2.9252978928446973
728,1788069522.075408,1.3042055376838235,-2.138987247242647,-0.9132068589154416,2.6664893203540183
729,1788069522.095408,1.1221840533088236,-1.655193301930147,-0.8988367417279417,2.192457389445721
730,1788069522.1349406,0.8970522173713236,-1.180979434742647,-0.8940467026654416,1.7316854831414448
731,1788069522.1549406,0.6527602251838236,-0.8696268956801468,-0.7695056870404416,1.3320982890387283
732,1788069522.1654062,0.6527602251838236,-0.5439042394301469,-0.7886658432904416,1.1592763025375554
733,1788069522.1854062,0.4755287798713236,-0.19423138786764685,-0.8461463120404417,0.989857077510962
734,1788069522.1953495,0.13543600643382356,-0.09364056755514685,-0.6545447495404416,0.674937254033108
735,1788069522.2153494,-0.09448586856617644,-0.09843060661764685,-0.38151252297794164,0.40517646632895293
736,1788069522.2548752,-0.11843606387867645,0.08359087775735316,-0.47731330422794166,0.49884118360888596
737,1788069522.2748752,-0.2812973920036765,0.12670122931985317,-0.5252136948529417,0.6091230167382538
738,1788069522.2853413,-0.4010483685661765,0.22729204963235317,-0.45815314797794165,0.6499275165414722
739,1788069522.3053412,-0.3723081341911765,0.09317095588235316,-0.41025275735294164,0.5617842101026319
740,1788069522.316289,-0.32440774356617647,-0.016999942555146846,-0.4150427964154417,0.5270577814518311
741,1788069522.336289,-0.31003762637867643,-0.12717084099264686,-0.3240320542279416,0.46614646275229904
742,1788069522.3740528,-0.28608743106617646,-0.37625287224264686,-0.14201056985294164,0.4935374798683916
743,1788069522.3940527,-0.18549661075367646,-0.4528934972426469,-0.22823127297794163,0.540010209543216
744,1788069522.4164214,0.07795553768382356,-0.43852338005514685,-0.24739142922794163,0.5094922373952409
745,1788069522.4364214,0.33182760799632355,-0.47684369255514686,-0.30966193704044165,0.6583160212313138
746,1788069522.4364345,0.4563686236213236,-0.6301249425551468,-0.26176154641544164,0.8208829825486406
747,1788069522.4564345,0.5952797564338236,-0.7259257238051469,-0.28092170266544164,0.9799199701661302
748,1788069522.4958932,0.4611586626838236,-0.9558475988051469,-0.17554084329044164,1.0756981602536173
749,1788069522.5158932,0.4563686236213236,-1.0947587316176468,-0.26176154641544164,1.2146143866515429
750,1788069522.5261586,0.6240199908088236,-1.0181181066176468,-0.26655158547794167,1.2235257151660324
751,1788069522.5461586,0.7485610064338236,-0.9175272863051469,-0.39588264016544167,1.2485683666712313
752,1788069522.5551455,0.7246108111213236,-0.9031571691176469,-0.47731330422794166,1.2524303134767618
753,1788069522.5751455,0.6288100298713236,-1.0037479894301469,-0.4246228745404416,1.2582593792755232
754,1788069522.6167626,0.6623403033088235,-1.109128848805147,-0.35756232766544166,1.3404149726128038
755,1788069522.6367626,0.7868813189338236,-0.9462675206801469,-0.40067267922794164,1.2942731653947257
756,1788069522.6433635,0.6910805376838236,-0.8600468175551469,-0.49168342141544163,1.207901247969756
757,1788069522.6633635,0.4467885454963236,-0.8313065831801469,-0.6114343979779416,1.124518858292745
758,1788069522.6760316,0.30787741268382357,-0.8504667394301468,-0.5731140854779416,1.0707669826302304
759,1788069522.6960316,0.3557778033088236,-0.9558475988051469,-0.4246228745404416,1.1047746661884517
760,1788069522.7353365,0.4036781939338236,-1.1330790441176468,-0.4342029526654416,1.2788105444433986
761,1788069522.7553365,0.4755287798713236,-1.1330790441176468,-0.49168342141544163,1.3235362962908364
762,1788069522.7644966,0.6000697954963236,-1.027698184742647,-0.5204236557904417,1.298879555577275
763,1788069522.7844965,0.6862904986213236,-1.061228458180147,-0.6018543198529417,1.399796096320805
764,1788069522.794962,0.7820912798713237,-1.339050723805147,-0.39588264016544167,1.6004520223231353
765,1788069522.814962,0.9832729204963236,-1.583342715992647,-0.44857306985294165,1.9170335394733273
766,1788069522.8564734,1.1269740923713236,-1.736623965992647,-0.41983283547794165,2.112390355469757
767,1788069522.8764734,1.1700844439338236,-1.554602481617647,-0.4533631089154416,1.9978549973191613
768,1788069522.8860931,1.1173940142463237,-1.382161075367647,-0.46773322610294166,1.8378555416940772
769,1788069522.9060931,1.0838637408088236,-1.396531192555147,-0.5060535386029417,1.8387904079454396
770,1788069522.9454622,1.0551235064338236,-1.276780215992647,-0.5252136948529417,1.7376140995746194
771,1788069522.9654622,1.0120131548713236,-1.195349551930147,-0.5156336167279416,1.6489115208622172
772,1788069522.9743834,1.0263832720588235,-1.1282890050551468,-0.5108435776654416,1.6085583175416855
773,1788069522.9943833,0.9066322954963236,-1.1713993566176468,-0.5204236557904417,1.5700316409000992
774,1788069523.007398,0.8443617876838236,-1.180979434742647,-0.49647346047794166,1.53432237510395
775,1788069523.0273979,0.8108315142463236,-1.2863602941176469,-0.48689338235294166,1.5966326179044799
776,1788069523.0658855,0.8922621783088236,-1.271990176930147,-0.4246228745404416,1.6107126964887875
777,1788069523.0858855,0.8012514361213235,-1.2863602941176469,-0.43899299172794165,1.577796411757604
778,1788069523.0943708,0.7533510454963236,-1.1761893956801468,-0.5826941636029417,1.513437075189373
779,1788069523.1143708,0.5809096392463236,-1.070808536305147,-0.5539539292279416,1.3382645052829953
780,1788069523.1262078,0.6192299517463236,-1.0037479894301469,-0.5587439682904417,1.3050481146401334
781,1788069523.1462078,0.6767104204963236,-0.9989579503676469,-0.5443738511029417,1.3237057337549343
782,1788069523.1863608,0.6910805376838236,-1.109128848805147,-0.5300037339154416,1.4101996563541999
783,1788069523.2063608,0.6527602251838236,-1.142659122242647,-0.5012634995404417,1.4082012914345388
784,1788069523.2174926,0.7102406939338236,-1.0947587316176468,-0.5491638901654416,1.4158105459539139
785,1788069523.2374926,0.7341908892463236,-1.066018497242647,-0.5779041245404416,1.4175347881010303
786,1788069523.2447207,0.6623403033088235,-1.137869083180147,-0.5539539292279416,1.4283926923474257
787,1788069523.2647207,0.6144399126838236,-1.185769473805147,-0.49168342141544163,1.4231437869034298
788,1788069523.3066566,0.7246108111213236,-1.0181181066176468,-0.5874842026654417,1.3808558921908014
789,1788069523.3266566,0.8156215533088236,-0.9366874425551469,-0.6545447495404416,1.4039411356653666
790,1788069523.3367574,0.8874721392463236,-0.9462675206801469,-0.5874842026654417,1.4241371798440092
791,1788069523.3567574,1.1173940142463237,-0.8121464269301469,-0.6210144761029417,1.5145329911818788
792,1788069523.364626,1.1700844439338236,-0.8744169347426469,-0.6497547104779416,1.5987131592280477
793,1788069523.384626,1.0168031939338236,-1.0947587316176468,-0.6545447495404416,1.6312002466889413
794,1788069523.4251664,0.9066322954963236,-1.2097196691176468,-0.6114343979779416,1.6307224840903158
795,1788069523.4451663,0.9449526079963236,-1.2815702550551469,-0.6737049057904416,1.7289407306461595
796,1788069523.4563026,0.9497426470588236,-1.549812442555147,-0.6784949448529417,1.940176562308711
797,1788069523.4763026,0.7868813189338236,-1.875535098805147,-0.5012634995404417,2.094774262995561
798,1788069523.488767,0.8826821001838236,-1.779734317555147,-0.5683240464154417,2.0662947884564855
799,1788069523.508767,1.0647035845588235,-1.578552676930147,-0.7455554917279417,2.0448166832411734
800,1788069523.5463488,0.9257924517463236,-1.731833926930147,-0.7551355698529416,2.103941573103657
801,1788069523.5663488,0.9305824908088236,-1.899485294117647,-0.40546271829044167,2.1537010402311254
802,1788069523.5765655,1.1796645220588236,-1.736623965992647,-0.17075080422794164,2.106330226011295
803,1788069523.5965655,1.2754653033088235,-1.6072929113051468,-0.29050178079044164,2.0723401089876297
804,1788069523.6075535,1.1844545611213235,-1.386951114430147,-0.3048718979779416,1.849192492780783
805,1788069523.6275535,0.9641127642463236,-1.2097196691176468,-0.3144519761029416,1.578548429826542
806,1788069523.6646383,0.7725112017463236,-1.027698184742647,-0.46294318704044163,1.3664748479844193
807,1788069523.6846383,0.5809096392463236,-0.9510575597426469,-0.5156336167279416,1.2279432061837672
808,1788069523.695015,0.39888815487132356,-1.0851786534926469,-0.5970642807904416,1.3012341163251795
809,1788069523.715015,0.2647670611213236,-1.157029239430147,-0.5731140854779416,1.3180584253075978
810,1788069523.7254064,0.25997702205882356,-1.0947587316176468,-0.5779041245404416,1.2649339546444736
811,1788069523.7454064,0.3749379595588236,-0.8983671300551469,-0.7168152573529417,1.2089111162759731
812,1788069523.7873764,0.36056784237132355,-0.8313065831801469,-0.7551355698529416,1.179537847230045
813,1788069523.8073764,0.3557778033088236,-0.8887870519301468,-0.7551355698529416,1.2193235820991326
814,1788069523.816342,0.4803188189338236,-0.9223173253676469,-0.7503455307904416,1.282339203203467
815,1788069523.836342,0.4515785845588236,-1.2097196691176468,-0.7599256089154417,1.4982762852584182
816,1788069523.8453755,0.4659487017463236,-1.454011661305147,-0.7551355698529416,1.703375423307371
817,1788069523.8653755,0.5761196001838236,-1.516282169117647,-0.8317761948529416,1.8228760375911808
818,1788069523.9055474,0.5569594439338236,-1.540232364430147,-0.7742957261029416,1.8116438474729066
819,1788069523.9255474,0.4515785845588236,-1.655193301930147,-0.7216052964154417,1.8612636268410208
820,1788069523.9354827,0.4515785845588236,-1.621663028492647,-0.8126160386029416,1.869240225922509
821,1788069523.9554827,0.48989889705882356,-1.463591739430147,-0.8126160386029416,1.7442610284192996
822,1788069523.9654598,0.41804831112132357,-1.382161075367647,-0.8700965073529416,1.6858830210903213
823,1788069523.9854598,0.24560690487132358,-1.5258622472426469,-0.7982459214154417,1.7394754670121793
824,1788069524.0245905,0.24560690487132358,-1.501912051930147,-0.7503455307904416,1.6967854840935803
825,1788069524.0445905,0.3557778033088236,-1.4444315831801469,-0.8174060776654417,1.6973842050696595
826,1788069524.0547183,0.2935072954963236,-1.4923319738051468,-0.7647156479779417,1.7023487524044696
827,1788069524.0747182,0.11148581112132357,-1.434851505055147,-0.8030359604779417,1.6480578513696447
828,1788069524.0860398,0.02047506893382356,-1.358210880055147,-0.8509363511029416,1.6028876120228799
829,1788069524.1060398,0.06358542049632356,-1.3294706456801468,-0.9371570542279417,1.6278202135721482
830,1788069524.146106,0.15459616268382356,-1.458801700367647,-1.0281677964154416,1.7914048654890626
831,1788069524.166106,0.20728659237132357,-1.717463809742647,-0.9611072495404417,1.9789837832260868
832,1788069524.1750948,0.2551869829963236,-1.7701542394301468,-1.0090076401654418,2.0534514470947496
833,1788069524.1950948,0.19770651424632357,-1.813264590992647,-1.0856482651654418,2.12265128986838
834,1788069524.206441,0.07316549862132356,-1.980915958180147,-1.0664881089154417,2.2509504903527557
835,1788069524.226441,-0.03700539981617644,-2.110247012867647,-1.0952283432904417,2.37782189805694
836,1788069524.265526,0.0013149126838235589,-2.297058536305147,-1.0473279526654418,2.5245545129075935
837,1788069524.285526,-0.056165556066176445,-2.373699161305147,-1.0952283432904417,2.614790125806602
838,1788069524.2935793,-0.12801614200367645,-2.306638614430147,-1.1287586167279418,2.5711993009160747
839,1788069524.3135793,-0.04658547794117644,-2.359329044117647,-1.1574988511029416,2.6283849290917662
840,1788069524.3560402,-0.013055204503676442,-2.412019473805147,-1.3251502182904418,2.752095834344272
841,1788069524.3760402,-0.11364602481617644,-2.388069278492647,-1.1958191636029416,2.6731580143861584
842,1788069524.38538,-0.15675637637867645,-2.182097598805147,-1.2341394761029416,2.5118166212369495
843,1788069524.40538,-0.19028664981617646,-2.033606387867647,-1.3443103745404417,2.44518595059178
844,1788069524.4143934,-0.5207993451286764,-1.995286075367647,-1.3012000229779417,2.4383436960855787
845,1788069524.4343934,-0.32440774356617647,-1.971335880055147,-1.2485095932904418,2.3558823698599136
846,1788069524.4745598,-0.33877786075367644,-2.287478458180147,-1.1479187729779416,2.58167496887781
847,1788069524.4945598,-0.09448586856617644,-2.244368106617647,-1.3682605698529418,2.6302571669659
848,1788069524.5067217,-0.10885598575367644,-2.388069278492647,-1.3491004136029416,2.7449583658952688
849,1788069524.5267217,-0.19507668887867646,-2.4599198644301468,-1.3155701401654416,2.7964236888670535
850,1788069524.5360882,-0.11843606387867645,-2.526980411305147,-1.4688513901654416,2.92526605742759
851,1788069524.5560882,0.06837545955882356,-2.742532169117647,-1.4401111557904418,3.098399271099048
852,1788069524.597889,0.12585592830882356,-2.785642520680147,-1.3299402573529417,3.0893988178672767
853,1788069524.617889,0.07795553768382356,-2.723372012867647,-1.3634705307904418,3.0466184655549378
854,1788069524.625765,0.11148581112132357,-2.675471622242647,-1.4449011948529418,3.0427482561649
855,1788069524.645765,0.17854635799632357,-2.689841739430147,-1.4880115464154418,3.0791728998872445
856,1788069524.6557322,0.10669577205882357,-2.651521426930147,-1.4209509995404417,3.010158070324529
857,1788069524.6757321,-0.051375517003676444,-2.756902286305147,-1.3155701401654416,3.0551390236250886
858,1788069524.7170901,-0.22381692325367644,-2.814382755055147,-1.3922107651654416,3.147871522430527
859,1788069524.73709,-0.35314797794117647,-2.914973575367647,-1.5119617417279416,3.3026977984466845
860,1788069524.756426,-0.43936868106617644,-2.972454044117647,-1.2245593979779417,3.244699308328783
861,1788069524.776426,-0.44415872012867647,-2.828752872242647,-1.2580896714154417,3.12760441907374
862,1788069524.7756276,-0.27650735294117645,-2.531770450367647,-1.5742322495404417,2.994081679760673
863,1788069524.7956276,-0.056165556066176445,-2.469499942555147,-1.6125525620404417,2.949900049376468
864,1788069524.8365514,0.03484518612132356,-2.5796708409926468,-1.5359119370404417,3.0024891861931593
865,1788069524.8565514,0.08274557674632356,-2.584460880055147,-1.6604529526654417,3.0730097427476357
866,1788069524.8654447,0.15938620174632356,-2.503030215992647,-1.9622254136029418,3.184476848285846
867,1788069524.8854446,0.10190573299632356,-2.713791934742647,-1.9909656479779416,3.367342521176006
868,1788069524.8939304,0.23123678768382358,-2.800012637867647,-2.072396312040442,3.491184283070101
869,1788069524.9139304,0.21686667049632358,-2.862283145680147,-2.0771863511029416,3.543218747978334
870,1788069524.9578454,-0.13759622012867645,-3.173635684742647,-1.9861756089154416,3.7464369377738436
871,1788069524.9778454,-0.43457864200367646,-3.508938419117647,-1.8089441636029417,3.971622642230598
872,1788069524.987057,-0.13280618106617645,-3.437087833180147,-1.8664246323529416,3.9134065931076205
873,1788069525.007057,0.42762838924632357,-3.034724551930147,-2.2400476792279416,3.7960812360369114
874,1788069525.0170007,0.2743471392463236,-2.991614200367647,-2.2065174057904415,3.7274308764496467
875,1788069525.0370007,0.18333639705882357,-3.341287051930147,-2.355008616727942,4.091928271945321
876,1788069525.0753431,0.6958705767463236,-3.403557559742647,-1.8760047104779418,3.9481430566530906
877,1788069525.095343,0.2647670611213236,-3.379607364430147,-1.8376843979779418,3.8560253475485426
878,1788069525.1063745,-0.11364602481617644,-3.082624942555147,-2.704681468290442,4.102535045594782
879,1788069525.1263745,-0.7938315716911765,-3.259856387867647,-2.541820140165442,4.20923768141998
880,1788069525.1364017,-0.5303794232536765,-3.8873515050551473,-1.8328943589154416,4.33039326013348
881,1788069525.1564016,-0.18070657169117646,-3.954412051930147,-2.0101258042279415,4.4396661237446455
882,1788069525.194968,-0.7315610638786765,-3.777180606617647,-1.9430652573529417,4.31019460344006
883,1788069525.214968,-0.7938315716911765,-3.513728458180147,-1.9430652573529417,4.092915688891083
884,1788069525.22682,-0.5878598920036765,-3.758020450367647,-1.4496912339154417,4.070614404693633
885,1788069525.24682,-0.46331887637867647,-3.437087833180147,-1.3826306870404417,3.7336181876230623
886,1788069525.2564452,-1.2393052045036765,-2.847913028492647,-1.2916199448529417,3.3637431664308104
887,1788069525.2764452,-1.1435044232536764,-2.732952090992647,-1.4161609604779417,3.2836171158714
888,1788069525.316949,-0.47289895450367647,-3.130525333180147,-1.6269226792279416,3.559592629366395
889,1788069525.3369489,-0.46331887637867647,-3.235906192555147,-1.7945740464154418,3.729108375509277
890,1788069525.3442643,-0.8082016888786765,-3.197585880055147,-1.7658338120404418,3.741111396627969
891,1788069525.3642642,-0.6692905560661765,-3.197585880055147,-1.6700330307904416,3.6689938174789187
892,1788069525.3750567,-0.6166001263786764,-3.077834903492647,-1.8424744370404418,3.6397768420818446
893,1788069525.3950567,-0.6213901654411764,-3.034724551930147,-1.8233142807904417,3.594461546647705
894,1788069525.4353676,-0.3627280560661765,-2.776062442555147,-1.9574353745404418,3.416086587474778
895,1788069525.4553676,-0.19028664981617646,-2.407229434742647,-2.1442468979779417,3.229358654605848
896,1788069525.466933,-0.32919778262867644,-2.469499942555147,-2.029285960477942,3.2132230946139417
897,1788069525.486933,-0.5207993451286764,-2.680261661305147,-1.9143250229779418,3.3346176429312226
898,1788069525.4960082,-0.31482766544117646,-2.752112247242647,-2.0484461167279417,3.4451951720458305
899,1788069525.5160081,-0.032215360753676446,-3.149685489430147,-1.9622254136029418,3.711049054591511
900,1788069525.5563931,-0.008265165441176442,-3.6143192784926472,-1.7466736557904416,4.014254727801379
901,1788069525.5763931,-0.35314797794117647,-3.427507755055147,-1.8089441636029417,3.8916322915096004
902,1788069525.5844226,-0.3818882123161765,-2.737742130055147,-1.9718054917279417,3.3954509972304723
903,1788069525.6044226,-0.32440774356617647,-2.479080020680147,-2.0244959214154417,3.217089036512501
904,1788069525.6200552,-0.11364602481617644,-3.298176700367647,-1.7754138901654417,3.747396355764483
905,1788069525.6400552,-0.23339700137867644,-3.6143192784926472,-1.8089441636029417,4.04846353499316
906,1788069525.6753867,-0.34835793887867644,-3.408347598805147,-2.0101258042279415,3.9722528062402622
907,1788069525.6953866,-0.47289895450367647,-3.619109317555147,-2.019705882352942,4.171426317795416
908,1788069525.7054033,-0.43936868106617644,-4.031052676930147,-1.6939832261029417,4.3945431722086505
909,1788069525.7254033,-0.30524758731617646,-4.117273380055147,-1.7035633042279417,4.4662337721155065
910,1788069525.765851,0.006104951746323559,-3.882561465992647,-1.9095349839154416,4.326736028745426
911,1788069525.785851,0.07316549862132356,-3.839451114430147,-1.9478552964154416,4.305912017919211
912,1788069525.7959056,-0.10885598575367644,-3.983152286305147,-1.9478552964154416,4.435255575195867
913,1788069525.8159056,-0.16154641544117646,-4.021472598805147,-2.019705882352942,4.503060177089974
914,1788069525.8266065,-0.23339700137867644,-4.064582950367647,-2.038866038602942,4.553271729651151
915,1788069525.8466065,-0.5974399701286764,-4.217864200367647,-1.8712146714154416,4.652822506519109
916,1788069525.8869758,-0.8129917279411765,-4.064582950367647,-1.8520545151654417,4.540032603105935
917,1788069525.9069757,-0.7171909466911764,-3.537678653492647,-2.0676062729779416,4.159871249143544
918,1788069525.916973,-0.7507212201286765,-3.111365176930147,-2.1298767807904415,3.844548180985031
919,1788069525.936973,-0.8896323529411765,-2.982034122242647,-2.105926585477942,3.7575124767646364
920,1788069525.9481924,-0.9519028607536765,-3.025144473805147,-2.1011365464154417,3.8042598400197987
921,1788069525.9681923,-0.8034116498161765,-3.140105411305147,-2.081976390165442,3.8523185177727113
922,1788069526.0067532,-0.5112192670036765,-3.365237247242647,-1.9622254136029418,3.928930572429892
923,1788069526.0267532,-0.26692727481617645,-3.441877872242647,-1.8281043198529416,3.9063715724108157
924,1788069526.0356095,-0.2812973920036765,-3.590369083180147,-1.7993640854779418,4.0258650608672655
925,1788069526.0556095,-0.22860696231617644,-3.446667911305147,-1.7275134995404418,3.862134607329796
926,1788069526.0671086,-0.04179543887867644,-3.188005801930147,-1.7706238511029417,3.6469489541184914
927,1788069526.0871086,0.14501608455882356,-2.982034122242647,-1.8712146714154416,3.523492800832811
928,1788069526.1261857,-0.0034751263786764416,-3.025144473805147,-1.7897840073529416,3.5149449436475564
929,1788069526.1461856,-0.2525571576286765,-3.010774356617647,-1.6987732651654417,3.466176272317485
930,1788069526.1564434,-0.30045754825367643,-2.953293887867647,-1.8760047104779418,3.511639674020448
931,1788069526.1764433,-0.26692727481617645,-3.144895450367647,-1.9286951401654417,3.6988488084107614
932,1788069526.184778,-0.5064292279411765,-3.350867130055147,-1.5886023667279416,3.7427848676848545
933,1788069526.204778,-0.7363511029411764,-3.096995059742647,-1.4880115464154418,3.5139393434063035
934,1788069526.2452962,-0.4920591107536765,-2.426389590992647,-1.8089441636029417,3.066230194030825
935,1788069526.2652962,-0.31003762637867643,-1.822844669117647,-1.7610437729779418,2.5534606297817737
936,1788069526.2768626,-0.3627280560661765,-1.588132755055147,-1.5071717026654416,2.219302555230369
937,1788069526.2968626,-0.08490579044117645,-1.6025028722426469,-1.4880115464154418,2.188470427276103
938,1788069526.3063278,0.11148581112132357,-1.7988944738051469,-1.4209509995404417,2.2951148461597857
939,1788069526.3263278,0.20728659237132357,-1.6504032628676468,-1.1383386948529417,2.0155926288961736
940,1788069526.366727,-0.38667825137867645,-1.5210722081801469,-0.4150427964154417,1.6234042181304225
941,1788069526.386727,-0.15196633731617645,-0.8217265050551469,-0.9994275620404417,1.3027600195559967
942,1788069526.3953462,0.03484518612132356,-0.5918046300551468,-1.1431287339154417,1.2877073461985296
943,1788069526.4153461,0.5569594439338236,-0.43852338005514685,-1.0090076401654418,1.2331273230912931
944,1788069526.4260998,0.7198207720588236,-0.3523026769301469,-0.7311853745404416,1.0848461513050383
945,1788069526.4460998,-0.051375517003676444,-0.4241532628676469,-0.04620978860294163,0.4297450159238554
946,1788069526.484275,-0.8704721966911765,-0.06969037224264685,-0.017469554227941626,0.8734321831262023
947,1788069526.504275,-0.8369419232536764,0.6775557215073532,-0.7407654526654417,1.3070145349266586
948,1788069526.515023,-0.26692727481617645,0.9601680261948532,-0.8557263901654417,1.3135602245018263
949,1788069526.535023,0.04442526424632356,0.8260469324448532,-0.6497547104779416,1.0519069932713545
950,1788069526.5465965,-0.10406594669117644,0.4955342371323532,-0.14201056985294164,0.5258810734196765
951,1788069526.5665965,-0.6549204388786765,0.19855181525735316,0.04480095358455838,0.6858212085121851
952,1788069526.606399,-0.9327427045036765,0.14107134650735317,-0.18991096047794165,0.962276597720159
953,1788069526.626399,-0.9950132123161765,0.20334185431985316,-0.30966193704044165,1.0617390063728616
954,1788069526.6343791,-1.0764438763786766,0.059640682444853155,-0.22344123391544163,1.1010060921762852
955,1788069526.6543791,-1.1722446576286765,-0.44810345818014685,-0.03662971047794163,1.2555062653215545
956,1788069526.665221,-0.9614829388786765,-0.7498759191176468,-0.11327033547794163,1.2245789091465678
957,1788069526.685221,-0.7842514935661765,-1.099548770680147,-0.18033088235294165,1.3625627073258653
958,1788069526.7271438,-0.7603012982536764,-1.1761893956801468,-0.18991096047794165,1.4133455810757356
959,1788069526.7471437,-0.5878598920036765,-0.6971854894301469,-0.40067267922794164,0.9960850642280631
960,1788069526.7561257,-0.4297886029411765,-0.22776166130514686,-0.5060535386029417,0.7019143833197662
961,1788069526.7761257,-0.39625832950367645,-0.14154095818014686,-0.48210334329044163,0.6399047899144213
962,1788069526.7862651,-0.31003762637867643,0.11233111213235317,-0.42941291360294165,0.5414213321364264
963,1788069526.806265,-0.31961770450367644,0.4236836511948532,-0.4533631089154416,0.6979981531834278
964,1788069526.8453004,-0.33877786075367644,0.5051143152573532,-0.5443738511029417,0.8162437137150826
965,1788069526.8653004,-0.44415872012867647,-0.03616009880514685,-0.41983283547794165,0.6122451560914062
966,1788069526.8743396,-0.27650735294117645,-0.4528934972426469,-0.22823127297794163,0.5776316733354772
967,1788069526.8943396,0.11148581112132357,-0.5582743566176469,-0.32882209329044165,0.6574369265367858
968,1788069526.9064977,-0.032215360753676446,-0.6061747472426469,-0.22823127297794163,0.6485176694804144
969,1788069526.9264977,-0.31961770450367644,-0.5630643956801469,-0.19949103860294162,0.677490712259385
970,1788069526.965865,-0.34356789981617647,-0.37625287224264686,-0.43899299172794165,0.6725473756109591
971,1788069526.9858649,-0.20465676700367647,-0.12238080193014685,-0.5874842026654417,0.6340340222282339
972,1788069526.9934587,0.010894990808823559,-0.04095013786764685,-0.6784949448529417,0.6798168906456356
973,1788069527.0134587,-0.08490579044117645,-0.40499310661764687,-0.48210334329044163,0.6353361655612524
974,1788069527.0242898,-0.19986672794117646,-0.9558475988051469,-0.41025275735294164,1.0591971799410953
975,1788069527.0442898,-0.15196633731617645,-1.152239200367647,-0.39109260110294164,1.2262554241179255
976,1788069527.085955,-0.22860696231617644,-1.1713993566176468,-0.42941291360294165,1.2683978265010682
977,1788069527.105955,-0.3818882123161765,-0.9414774816176469,-0.41983283547794165,1.099307993623534
978,1788069527.1139266,-0.41541848575367646,-0.7642460363051469,-0.5060535386029417,1.006347209588502
979,1788069527.1339266,-0.30524758731617646,-0.7402958409926469,-0.6497547104779416,1.0312105534475637
980,1788069527.1767764,-0.2525571576286765,-0.9318974034926469,-0.5874842026654417,1.13020156471634
981,1788069527.1967764,-0.30045754825367643,-1.027698184742647,-0.6497547104779416,1.2524454004124155
982,1788069527.2073333,-0.3914682904411765,-0.9989579503676469,-0.7359754136029416,1.3010857844322519
983,1788069527.2273333,-0.47289895450367647,-1.1282890050551468,-0.8317761948529416,1.4793651132911856
984,1788069527.2348542,-0.5926499310661765,-1.415691348805147,-0.8221961167279417,1.7410980415349928
985,1788069527.2548542,-0.5399595013786764,-1.5306522863051468,-0.7647156479779417,1.7942248206294007
986,1788069527.2944791,-0.47289895450367647,-1.5258622472426469,-0.8269861557904417,1.7988315987329395
987,1788069527.314479,-0.41541848575367646,-1.4396415441176469,-0.9515271714154416,1.7749772538816353
988,1788069527.3265197,-0.5112192670036765,-1.540232364430147,-0.9275769761029417,1.869240466604052
989,1788069527.3465197,-0.5160093060661765,-1.712673770680147,-0.8940467026654416,1.9997091176642663
990,1788069527.3556278,-0.38667825137867645,-1.7701542394301468,-0.9515271714154416,2.0465507712743563
991,1788069527.3756278,-0.41541848575367646,-1.837214786305147,-0.9611072495404417,2.1146294792334985
992,1788069527.4158947,-0.44894875919117644,-1.822844669117647,-0.9658972886029417,2.1112260059596735
993,1788069527.4358947,-0.5207993451286764,-1.746204044117647,-1.0521179917279417,2.1041418179621165
994,1788069527.4453382,-0.5830698529411765,-1.7653642003676469,-1.0664881089154417,2.143333408456692
995,1788069527.4653382,-0.6549204388786765,-1.750994083180147,-1.1048084214154417,2.171520828503241
996,1788069527.474654,-0.7267710248161765,-1.794104434742647,-1.2293494370404416,2.293099841617726
997,1788069527.494654,-0.9279526654411765,-1.952175723805147,-1.3203601792279418,2.532871336804216
998,1788069527.5359218,-1.1195542279411765,-1.990496036305147,-1.2772498276654416,2.616647332392897
999,1788069527.5559218,-1.1961948529411766,-2.057556583180147,-1.2245593979779417,2.6765587866450873
1000,1788069527.5661142,-0.9375327435661764,-2.0240263097426467,-1.3107801011029416,2.587236869951531
1001,1788069527.5861142,-0.6166001263786764,-2.052766544117647,-1.4449011948529418,2.5849150205347886
1002,1788069527.594534,-0.6213901654411764,-2.435969669117647,-1.3203601792279418,2.8396170462685624
1003,1788069527.614534,-0.6932407513786765,-2.800012637867647,-1.2101892807904417,3.1281322873131017
1004,1788069527.6555,-0.7411411420036765,-3.010774356617647,-1.3251502182904418,3.371954258271029
1005,1788069527.6755,-0.6788706341911764,-3.111365176930147,-1.3826306870404417,3.47176125603801
1006,1788069527.684949,-0.7746714154411765,-3.250276309742647,-1.3107801011029416,3.589227822947904
1007,1788069527.704949,-0.8369419232536764,-3.341287051930147,-1.4065808823529418,3.7206371396437463
1008,1788069527.7169998,-0.7555112591911765,-3.283806583180147,-1.5215418198529418,3.69719791843273
1009,1788069527.7369998,-0.7986216107536764,-3.288596622242647,-1.5933924057904416,3.740529852817538
1010,1788069527.776265,-0.6549204388786765,-3.149685489430147,-1.7706238511029417,3.6721313001692186
1011,1788069527.796265,-0.6501303998161765,-3.130525333180147,-1.8328943589154416,3.6854253661405028
1012,1788069527.836521,-0.5830698529411765,-3.001194278492647,-1.9334851792279417,3.61738890485388
1013,1788069527.856521,-0.5543296185661765,-3.125735294117647,-1.8472644761029418,3.6728583555024734
1014,1788069527.836521,-0.7411411420036765,-3.221536075367647,-1.7275134995404418,3.7298643096445425
1015,1788069527.856521,-0.7603012982536764,-3.073044864430147,-1.8999549057904417,3.6920849728796723
1016,1788069527.8974106,-0.6309702435661765,-2.795222598805147,-2.0915564682904417,3.547675476306217
1017,1788069527.9174106,-0.6501303998161765,-2.689841739430147,-1.9478552964154416,3.3840890023342216
1018,1788069527.9247692,-0.41541848575367646,-2.622781192555147,-2.1681970932904417,3.428211244611393
1019,1788069527.9447691,-0.23818704044117645,-2.929343692555147,-2.4029090073529416,3.7962822910005847
1020,1788069527.9565995,-0.3627280560661765,-3.3748173253676472,-2.398118968290442,4.155952142209244
1021,1788069527.9765995,-0.7363511029411764,-3.532888614430147,-2.216097483915442,4.234926559810595
1022,1788069528.016244,-1.1003940716911764,-3.408347598805147,-2.0053357651654418,4.104762112272228
1023,1788069528.036244,-1.0716538373161766,-3.015564395680147,-2.2065174057904415,3.887259913304542
1024,1788069528.045762,-0.8752622357536765,-2.613201114430147,-2.3071082261029416,3.5941135781646283
1025,1788069528.065762,-0.8273618451286765,-2.416809512867647,-2.2879480698529417,3.4293151232580072
1026,1788069528.0751398,-1.3255259076286767,-2.852703067555147,-2.1777771714154417,3.82591781560603
1027,1788069528.0951397,-1.4213266888786766,-3.216746036305147,-2.139456858915442,4.1164183788536395
1028,1788069528.1364577,-1.0572837201286764,-3.269436465992647,-2.172987132352942,4.06557950941598
1029,1788069528.1564577,-0.7986216107536764,-3.370027286305147,-2.192147288602942,4.098827896183646
1030,1788069528.165586,-0.9902231732536765,-3.532888614430147,-1.7754138901654417,4.0760199185248265
1031,1788069528.185586,-0.9040024701286765,-3.652639590992647,-2.1442468979779417,4.330911128985875
1032,1788069528.1962168,-0.7842514935661765,-3.729280215992647,-2.302318187040442,4.452330891671477
1033,1788069528.2162168,-0.8225718060661765,-4.064582950367647,-1.8807947495404418,4.553553318722998
1034,1788069528.2534394,-0.8273618451286765,-4.122063419117647,-1.7275134995404418,4.54535337956215
1035,1788069528.2734394,-1.2393052045036765,-4.0118925206801475,-1.5694422104779417,4.482667491508722
1036,1788069528.2839432,-1.3063657513786766,-3.877771426930147,-1.5502820542279416,4.375737327988536
1037,1788069528.3039432,-0.42499856387867646,-3.595159122242647,-2.3262683823529415,4.303175278823584
1038,1788069528.3152733,0.6671303423713236,-3.446667911305147,-3.130994944852942,4.70401019654802
1039,1788069528.3352733,0.4563686236213236,-4.064582950367647,-2.848382640165442,4.9842141352314755
1040,1788069528.3754642,-0.7315610638786765,-5.405793887867647,-2.0915564682904417,5.84229386528426
1041,1788069528.3954642,-0.6213901654411764,-6.066819278492647,-2.0340759995404416,6.428832480902229
1042,1788069528.4054587,0.35098776424632355,-5.817737247242647,-2.422069163602942,6.3115511660669705
1043,1788069528.4254587,0.5665395220588236,-5.3626835363051475,-2.3741687729779417,5.892030134274307
1044,1788069528.4343483,0.02047506893382356,-4.663337833180147,-2.1538269761029416,5.136741147634938
1045,1788069528.4543483,-0.20465676700367647,-3.738860294117647,-2.388538890165442,4.441405039066202
1046,1788069528.4954689,-0.30045754825367643,-3.092205020680147,-2.637620921415442,4.075420316152748
1047,1788069528.5154688,-0.4920591107536765,-2.732952090992647,-2.412489085477942,3.678485134900911
1048,1788069528.5252044,-0.7507212201286765,-2.565300723805147,-2.1298767807904415,3.41770760236404
1049,1788069528.5452044,-0.8034116498161765,-2.421599551930147,-2.1250867417279418,3.320483146898433
1050,1788069528.5877807,-0.8034116498161765,-2.349748965992647,-2.1634070542279416,3.293496707836078
1051,1788069528.6077807,-0.9279526654411765,-2.397649356617647,-2.0005457261029416,3.2576067578541683
1052,1788069528.6154537,-1.2201450482536764,-2.594040958180147,-1.8424744370404418,3.4077139672574686
1053,1788069528.6354537,-1.2297251263786766,-2.776062442555147,-2.0676062729779416,3.6733829464772705
1054,1788069528.645882,-1.2824155560661767,-3.020354434742647,-1.9430652573529417,3.8134804528464743
1055,1788069528.6658819,-1.4404868451286768,-3.245486270680147,-1.7562537339154418,3.961389991158915
1056,1788069528.7057765,-1.3782163373161767,-3.116155215992647,-1.7802039292279417,3.8443503524317344
1057,1788069528.7257764,-1.1770346966911764,-2.905393497242647,-1.8472644761029418,3.6385585189339236
1058,1788069528.7351635,-0.6740805951286765,-2.790432559742647,-1.8233142807904417,3.400790126681636
1059,1788069528.7551634,-0.5351694623161765,-2.938923770680147,-1.5790222886029417,3.3789037676692524
1060,1788069528.7654123,-0.5830698529411765,-2.914973575367647,-1.5502820542279416,3.3526729405299434
1061,1788069528.7854123,-0.8273618451286765,-3.058674747242647,-1.6460828354779418,3.5706592575391034
1062,1788069528.8255658,-1.1961948529411766,-3.192795840992647,-1.3491004136029416,3.666728696596809
1063,1788069528.8455658,-1.2153550091911764,-2.876653262867647,-1.4305310776654416,3.4349149854544896
1064,1788069528.8556077,-0.6980307904411764,-2.292268497242647,-1.8760047104779418,3.0432113829950134
1065,1788069528.8756077,-0.6740805951286765,-2.158147403492647,-1.6844031479779418,2.81943235933212
1066,1788069528.8858833,-0.8944223920036765,-2.167727481617647,-1.4640613511029417,2.76450890569579
1067,1788069528.9058833,-0.7603012982536764,-1.985705997242647,-1.6029724839154418,2.6628193997719185
1068,1788069528.9444075,-0.6405503216911764,-2.009656192555147,-1.7083533432904416,2.714312780875769
1069,1788069528.9644074,-0.7076108685661765,-2.062346622242647,-1.5359119370404417,2.6670230988748402
1070,1788069528.9744542,-1.0477036420036765,-2.2204179113051468,-1.3107801011029416,2.7831785957354436
1071,1788069528.9944541,-0.8704721966911765,-2.186887637867647,-1.5550720932904416,2.821072243173049
1072,1788069529.0058765,-0.32440774356617647,-2.047976505055147,-1.5838123276654417,2.609197125287512
1073,1788069529.0258765,-0.45852883731617644,-2.225207950367647,-1.2149793198529417,2.5764265688546657
1074,1788069529.0655026,-0.7267710248161765,-2.062346622242647,-1.0856482651654418,2.4413319865279983
1075,1788069529.0855026,-0.5207993451286764,-1.3294706456801468,-1.4496912339154417,2.034779798725877
1076,1788069529.0972018,-0.31482766544117646,-0.9989579503676469,-1.4880115464154418,1.8196735442918177
1077,1788069529.1172018,-0.4202085248161765,-1.147449161305147,-1.1383386948529417,1.6700388517359623
1078,1788069529.125382,-0.44415872012867647,-1.147449161305147,-0.8461463120404417,1.493278315594876
1079,1788069529.145382,-0.34835793887867644,-0.9510575597426469,-0.8653064682904417,1.332148272373881
1080,1788069529.1867554,-0.5016391888786764,-0.9271073644301469,-0.9036267807904417,1.3884204334282777
1081,1788069529.2067554,-0.7507212201286765,-0.9510575597426469,-0.8030359604779417,1.453602279207025
1082,1788069529.2163627,-0.7794614545036764,-0.9175272863051469,-0.5491638901654416,1.3232526056778104
1083,1788069529.2363627,-0.45852883731617644,-0.7881962316176468,-0.6545447495404416,1.1224664018747925
1084,1788069529.2446158,-0.29087747012867643,-0.8504667394301468,-0.6018543198529417,1.0817263978617935
1085,1788069529.2646158,-0.4202085248161765,-0.9271073644301469,-0.41983283547794165,1.101073512193554
1086,1788069529.305423,-0.5543296185661765,-0.9510575597426469,-0.40067267922794164,1.1714650672739064
1087,1788069529.325423,-0.43936868106617644,-0.7834061925551469,-0.5060535386029417,1.0309511551805655
1088,1788069529.3354275,-0.33398782169117647,-0.5486942784926468,-0.30966193704044165,0.7130945179569268
1089,1788069529.3554275,-0.45373879825367647,-0.3810429113051469,-0.003099437040441625,0.5925219015416732
1090,1788069529.3666751,-0.5974399701286764,0.011740291819853156,-0.25697150735294166,0.6504665309995681
1091,1788069529.3866751,-0.9087925091911765,0.31830279181985316,-0.4246228745404416,1.0523901736643568
1092,1788069529.424859,-1.1674546185661765,0.44763384650735316,-0.2761316636029416,1.2804589187453823
1093,1788069529.444859,-1.2105649701286765,0.4428438074448532,-0.13722053079044164,1.2963053879257418
1094,1788069529.4561436,-1.0572837201286764,0.4524238855698532,-0.060579905790441625,1.1516102474660581
1095,1788069529.4761436,-0.9614829388786765,0.8643672449448532,-0.14201056985294164,1.3006718178842385
1096,1788069529.4857433,-1.2345151654411766,1.3098408777573531,-0.4342029526654416,1.8515515177417552
1097,1788069529.5057433,-1.8763803998161768,0.9553779871323532,-0.3048718979779416,2.127556668408166
1098,1788069529.5467484,-2.0392417279411768,0.4715840418198532,0.11186150045955838,2.0960465950834037
1099,1788069529.5667484,-1.4931772748161767,0.4811641199448532,0.06875114889705838,1.570294241479741
1100,1788069529.5755024,-1.2105649701286765,0.5865449793198532,-0.11327033547794163,1.3499380461959192
1101,1788069529.5955024,-1.5698178998161767,0.4045234949448532,-0.08932014016544162,1.6235595412502877
1102,1788069529.6064525,-1.7135190716911766,0.16502154181985315,-0.07974006204044162,1.723292835187394
1103,1788069529.6264524,-1.3877964154411766,-0.14633099724264687,-0.09411017922794163,1.3986594929788028
1104,1788069529.6653683,-0.9758530560661764,-0.47684369255514686,-0.08453010110294162,1.0894101303713846
1105,1788069529.6853683,-0.7507212201286765,-0.7642460363051469,-0.08453010110294162,1.0746160674176104
1106,1788069529.6941195,-0.7986216107536764,-0.8313065831801469,-0.11806037454044163,1.1587947896146567
1107,1788069529.7141194,-0.9375327435661764,-0.6780253331801469,-0.19949103860294162,1.1740880172183223
1108,1788069529.7252738,-0.9327427045036765,-0.5486942784926468,-0.30008185891544165,1.1229975450131429
1109,1788069529.7452738,-0.8944223920036765,-0.5726444738051468,-0.2952918198529416,1.1023204468616257
1110,1788069529.7860131,-0.8704721966911765,-0.45768353630514685,-0.34798224954044166,1.0432102906952045
1111,1788069529.806013,-0.9950132123161765,-0.3618827550551469,-0.41983283547794165,1.1389776252567512
1112,1788069529.8155608,-1.0141733685661765,-0.13675091911764686,-0.5204236557904417,1.1480806665451146
1113,1788069529.8355608,-1.0333335248161766,-0.10322064568014686,-0.5587439682904417,1.179248700361633
1114,1788069529.844015,-1.1626645795036765,-0.41936322380514685,-0.49168342141544163,1.3301905971730146
1115,1788069529.8640149,-1.1435044232536764,-0.5630643956801469,-0.4246228745404416,1.343483704875634
1116,1788069529.9066687,-0.9471128216911765,-0.42894330193014685,-0.5012634995404417,1.1542444062043749
1117,1788069529.9266686,-0.9806430951286765,-0.37625287224264686,-0.48210334329044163,1.1557035681809646
1118,1788069529.9345949,-1.2009848920036765,-0.5199540441176469,-0.37672248391544166,1.3618504869121275
1119,1788069529.9545949,-1.2201450482536764,-0.5870145909926469,-0.30966193704044165,1.3889674524868714
1120,1788069529.9962678,-1.0429136029411765,-0.6013847081801469,-0.47252326516544163,1.2932944701634181
1121,1788069530.0162678,-1.0141733685661765,-0.7355058019301469,-0.45815314797794165,1.3339492918337907
1122,1788069530.0257623,-1.1003940716911764,-0.7498759191176468,-0.46294318704044163,1.4097862963984233
1123,1788069530.0457623,-1.1387143841911764,-0.7067655675551469,-0.5683240464154417,1.4557404432038907
1124,1788069530.0553656,-1.1387143841911764,-0.7067655675551469,-0.7072351792279417,1.5153777136354545
1125,1788069530.0753655,-1.2201450482536764,-0.9366874425551469,-0.7168152573529417,1.6970449071820204
1126,1788069530.116759,-1.1147641888786766,-1.0803886144301469,-0.8126160386029416,1.7522224690921424
1127,1788069530.136759,-1.0716538373161766,-1.190559512867647,-0.8030359604779417,1.791853971319891
1128,1788069530.1465745,-0.9950132123161765,-1.2815702550551469,-0.8078259995404417,1.812472470648695
1129,1788069530.1665745,-0.9279526654411765,-1.5210722081801469,-0.8365662339154417,1.9684003341609342
1130,1788069530.176387,-0.8321518841911765,-1.674353458180147,-0.8509363511029416,2.0542709010525195
1131,1788069530.196387,-0.7794614545036764,-1.6504032628676468,-0.9563172104779417,2.060566353262489
1132,1788069530.236298,-0.8944223920036765,-1.856374942555147,-1.0090076401654418,2.294387883636164
1133,1788069530.256298,-1.0381235638786765,-2.086296817555147,-1.0233777573529417,2.545120228803668
1134,1788069530.2662427,-1.0956040326286764,-2.172517520680147,-0.9658972886029417,2.6178499090102445
1135,1788069530.2862427,-1.0045932904411765,-1.8467948644301468,-1.1383386948529417,2.3907475681645045
1136,1788069530.296221,-1.1243442670036765,-1.5258622472426469,-1.2724597886029416,2.2828840404006194
1137,1788069530.316221,-1.3207358685661768,-1.267200137867647,-1.3012000229779417,2.245720580064856
1138,1788069530.3549047,-1.4692270795036766,-1.099548770680147,-1.3730506089154417,2.291921395880363
1139,1788069530.3749046,-1.4165366498161767,-1.0037479894301469,-1.4305310776654416,2.249556683154294
1140,1788069530.3841524,-1.3734262982536767,-1.0564384191176468,-1.4401111557904418,2.253060600861564
1141,1788069530.4041524,-1.6416684857536767,-1.473171817555147,-1.3826306870404417,2.6032629982200084
1142,1788069530.4170399,-1.6464585248161767,-1.794104434742647,-1.5023816636029417,2.8612562031096473
1143,1788069530.4370399,-1.4117466107536767,-2.062346622242647,-1.4592713120404417,2.8940930954954402
1144,1788069530.4757552,-1.3686362591911767,-2.301848575367647,-1.2101892807904417,2.938746360139808
1145,1788069530.4957552,-1.4117466107536767,-2.407229434742647,-1.3395203354779417,3.0954962079810135
1146,1788069530.5053532,-1.2488852826286767,-2.244368106617647,-1.6796131089154418,3.068876478910415
1147,1788069530.5253532,-1.2824155560661767,-2.292268497242647,-1.7370935776654417,3.1490599580602
1148,1788069530.5353844,-1.5841880170036766,-2.493450137867647,-1.7945740464154418,3.4565070911713924
1149,1788069530.5553844,-1.6560386029411767,-2.709001895680147,-1.9191150620404418,3.710007782549854
1150,1788069530.5953424,-1.4931772748161767,-2.862283145680147,-1.8568445542279417,3.724260312953173
1151,1788069530.6153424,-1.4165366498161767,-2.948503848805147,-1.8089441636029417,3.7379847530085444
1152,1788069530.6253588,-1.3925864545036766,-2.828752872242647,-2.019705882352942,3.7443760089899123
1153,1788069530.6453588,-1.5027573529411766,-2.809592715992647,-2.1873572495404416,3.8647927019045714
1154,1788069530.6563697,-1.5650278607536767,-2.838332950367647,-2.2065174057904415,3.9209903346137085
1155,1788069530.6763697,-1.6368784466911768,-3.101785098805147,-2.1011365464154417,4.088424713149844
1156,1788069530.7143774,-1.6033481732536767,-3.235906192555147,-2.139456858915442,4.197509964592458
1157,1788069530.7343774,-1.3734262982536767,-3.039514590992647,-2.2831580307904416,4.041999423448113
1158,1788069530.7472022,-1.3398960248161766,-3.020354434742647,-2.235257640165442,3.989265469570275
1159,1788069530.7672021,-1.6416684857536767,-3.034724551930147,-2.2544177964154417,4.121532254392662
1160,1788069530.7765706,-1.1818247357536764,-3.015564395680147,-2.824432444852942,4.297412822393373
1161,1788069530.7965705,-0.17591653262867646,-3.470618106617647,-2.9393933823529417,4.551501963599996
1162,1788069530.8343942,-0.33877786075367644,-4.280134708180147,-2.465179515165442,4.950902301711932
1163,1788069530.8543942,-1.1291343060661765,-4.677707950367647,-2.4699695542279416,5.408941259514768
1164,1788069530.8654299,-1.2728354779411766,-4.500476505055147,-2.704681468290442,5.40274937151196
1165,1788069530.8854299,-0.6884507123161765,-4.050212833180147,-2.8723328354779416,5.012831963582118
1166,1788069530.8965237,-0.7555112591911765,-4.093323184742647,-2.575350413602942,4.894744294686001
