imu_index,t_imu,ax,ay,az,mag,vx,vy,vz,velocity
0,1790651170.7143478,-0.33779355468749994,-0.14317426757812501,0.12329560546874896,0.3870467191604328,0.0,0.0,0.0,0.0
1,1790651170.7343478,-0.3234234374999999,-0.104853955078125,0.10892548828124896,0.35701797408134833,-0.0014225109138943952,-0.0005545889962486981,0.0005055330554833009,0.0016083127572381836
2,1790651170.7449121,-0.30905332031249994,-0.095273876953125,0.13287568359374896,0.3496384042355273,-0.002562322889949049,-0.0009621569614738182,0.0009240944816696346,0.00288880515471737
3,1790651170.7649121,-0.3042632812499999,-0.100063916015625,0.11850556640624896,0.3415150082714733,-0.0053164681473855295,-0.001911016663781131,0.0019747098297787278,0.005984671850923727
4,1790651170.7888637,-0.33779355468749994,-0.095273876953125,0.09934541015624895,0.36476171363947935,-0.009273393856272795,-0.003227797804738503,0.003435514106313556,0.010402752974886608
5,1790651170.8088636,-0.35695371093749995,-0.037793408203125003,0.08497529296874896,0.36887002300374727,-0.013124005394485308,-0.004362005125552779,0.004748824216561602,0.014622514754638823
6,1790651170.8337855,-0.2851031249999999,-0.128804150390625,0.09455537109374897,0.32682567103165705,-0.01840259736524487,-0.005874731049379824,0.006475426314370633,0.02037398342599474
7,1790651170.8537855,-0.23241269531249992,-0.14796430664062502,0.09455537109374897,0.2912899160368213,-0.02277955887688093,-0.007321759812929829,0.007936860090163119,0.02520932798537762
8,1790651170.8645616,-0.31863339843749994,-0.133594189453125,0.12329560546874896,0.3668466387788955,-0.025229486836634386,-0.008212029801984528,0.008782238696856813,0.0279480259774668
9,1790651170.8845615,-0.33779355468749994,-0.037793408203125003,0.11850556640624896,0.35996721595346837,-0.030079064118947806,-0.009873575975124628,0.01047858574200464,0.03334723916549726
10,1790651170.909152,-0.3138433593749999,-0.023423291015625004,0.05623505859374896,0.31970093306218295,-0.03634914782294263,-0.011722953916104763,0.012573704658308513,0.04020928058057766
11,1790651170.929152,-0.22283261718749992,-0.133594189453125,0.06102509765624896,0.266881706533481,-0.0414888168796184,-0.013236998239354696,0.014197999549462615,0.04580527523840162
12,1790651170.9547336,-0.23241269531249992,-0.16233442382812502,0.06102509765624896,0.28998653183550605,-0.04795020524866176,-0.015450870457554179,0.01619813168798359,0.05291815427115886
13,1790651170.9747336,-0.26594296874999995,-0.15275434570312502,0.06581513671874896,0.31367369188387617,-0.05299158614518916,-0.01739470880676474,0.01771755876757688,0.05852004772159437
14,1790651170.9990232,-0.3234234374999999,-0.16712446289062502,0.10892548828124896,0.37999745791005596,-0.05926951157661977,-0.01998408107525088,0.01960440610607104,0.06554823596196178
15,1790651171.0190232,-0.3617437499999999,-0.16233442382812502,0.13287568359374896,0.41817096158649975,-0.06469110052680895,-0.022290537233344187,0.02128768766739213,0.07165872022123507
16,1790651171.0445542,-0.2611529296874999,-0.104853955078125,0.06581513671874896,0.2890100980955464,-0.07176664907863654,-0.025304825546521206,0.023494626303135743,0.0796415945410439
17,1790651171.0645542,-0.15577207031249993,-0.17670454101562502,0.041864941406248954,0.23925322573360172,-0.07710332650793207,-0.02773424232033342,0.025125647748643502,0.08570536348712761
18,1790651171.0743206,-0.26594296874999995,-0.138384228515625,0.06102509765624896,0.30594103986451854,-0.07962731638600229,-0.02897341480257953,0.025878000021102614,0.08859818940165216
19,1790651171.0943205,-0.2755230468749999,-0.085693798828125,0.10892548828124896,0.3084171501622227,-0.08483295023955917,-0.03146652294015325,0.027442523325969064,0.09455085191994342
20,1790651171.1044745,-0.2707330078124999,-0.12401411132812501,0.11850556640624896,0.32049872167759674,-0.08749542126631285,-0.03270211645519353,0.02829088703984767,0.09759739470252272
21,1790651171.1244745,-0.2515728515624999,-0.14796430664062502,0.09455537109374897,0.30679480746193394,-0.09273642557292051,-0.035178731652933504,0.0300308205472628,0.10363125962513836
22,1790651171.149448,-0.25636289062499995,-0.15754438476562502,0.08018525390624896,0.3114030182975024,-0.09925043722328437,-0.03837955633744139,0.03220482407548833,0.11117909123304212
23,1790651171.169448,-0.2611529296874999,-0.138384228515625,0.051445019531248956,0.2999960623421574,-0.10446095327863718,-0.04100232652446545,0.03388216534085519,0.11722321727578351
24,1790651171.1941173,-0.28031308593749993,-0.18628461914062502,0.041864941406248954,0.339160815536112,-0.11092574687658108,-0.044352876358356205,0.0358134178740466,0.12471687881440928
25,1790651171.2141173,-0.3138433593749999,-0.19586469726562503,0.11371552734374896,0.3870295273203418,-0.11627194705612914,-0.04723500363240706,0.03737763750557599,0.13094807759518676
26,1790651171.2390072,-0.33779355468749994,-0.104853955078125,0.10413544921874895,0.3687045284071422,-0.12314372495062814,-0.05084515153315847,0.0394389785522966,0.138942576118317
27,1790651171.2590072,-0.28989316406249993,-0.009053173828125004,0.027494824218748957,0.2913348106309125,-0.1287787200336453,-0.05348176493515815,0.041044332188158825,0.14535781753609073
28,1790651171.2691765,-0.22762265624999992,-0.109643994140625,-0.010825488281251046,0.25288548848429904,-0.13160883948544516,-0.054711823931127036,0.04175087047938013,0.14851735755245005
29,1790651171.2891765,-0.30905332031249994,-0.17670454101562502,0.10892548828124896,0.37229452266858815,-0.1371449686716806,-0.05719763825201347,0.043079141724008896,0.15471303986814328
30,1790651171.314618,-0.40485410156249996,-0.07132368164062501,0.14724580078124896,0.4366637573264623,-0.14449324819565657,-0.060358745693690465,0.04500416937005779,0.16293204784982007
31,1790651171.334618,-0.40485410156249996,0.024477099609374997,0.11850556640624896,0.42255122911492304,-0.1506178937739281,-0.06254125202886379,0.04668909009699005,0.16963793580539996
32,1790651171.359486,-0.3617437499999999,0.048427294921875,0.09455537109374897,0.3770205057555746,-0.15852076191185463,-0.06471195036462273,0.048867248621937476,0.17805750886998994
33,1790651171.379486,-0.3138433593749999,-0.042583447265625005,0.13766572265624896,0.3453445459237439,-0.1649366093683924,-0.06618709241428042,0.050704587591820394,0.1848128012748434
34,1790651171.389073,-0.24678281249999992,-0.05695356445312501,0.13766572265624896,0.28826605114684184,-0.16795377763964403,-0.0668596922721898,0.051651159013378974,0.18800673419211417
35,1790651171.4090729,-0.17493222656249993,-0.06653364257812501,0.09455537109374897,0.2096872139342408,-0.1739365970697739,-0.06823762260587538,0.0536780149855378,0.19440072590374344
36,1790651171.4341753,-0.29947324218749993,-0.047373486328125006,0.13287568359374896,0.3310353716503421,-0.18121253303488447,-0.06992212086603836,0.05626854991338687,0.20222075765034428
37,1790651171.4541752,-0.3425835937499999,0.0005269042968749973,0.10892548828124896,0.3594837386198596,-0.18710307080440003,-0.07113317678901032,0.05838562908337,0.20850987896978354
38,1790651171.4788604,-0.3138433593749999,-0.12401411132812501,0.09934541015624895,0.35177644115461065,-0.19449824922070993,-0.07263234180670136,0.060992288207529735,0.2163910470584152
39,1790651171.4988604,-0.2132525390624999,-0.128804150390625,0.027494824218748957,0.2506454067667583,-0.20038174941988648,-0.07404400278077977,0.06297768322022262,0.22271405081889425
40,1790651171.5094674,-0.14619199218749993,-0.18149458007812502,0.041864941406248954,0.23678060413900803,-0.20331996739496438,-0.07492722737005694,0.06392787298272029,0.22592005552174513
41,1790651171.5294673,-0.32821347656249994,-0.18149458007812502,0.07539521484374896,0.38255562630330336,-0.2087406951536346,-0.07688726614884746,0.06562664456285883,0.23192926935953154
42,1790651171.569134,-0.40964414062499993,-0.07132368164062501,0.09934541015624895,0.42751011687477203,-0.22007426982993017,-0.08094370090622278,0.06901034521577162,0.24443198379993755
43,1790651171.589134,-0.32821347656249994,-0.11443403320312501,0.11371552734374896,0.3657190934466555,-0.22603829857056423,-0.0829608082067169,0.07078009286828739,0.25096937993594076
44,1790651171.5994494,-0.23241269531249992,-0.16712446289062502,0.11850556640624896,0.3098222333987132,-0.22908669473438642,-0.08406294905507454,0.07173561964312729,0.25434876102262705
45,1790651171.6194494,-0.2707330078124999,-0.128804150390625,0.12808564453124896,0.3260257704722732,-0.2348652210218821,-0.08632318831643691,0.07368023039789016,0.2608488858290538
46,1790651171.628705,-0.34737363281249994,-0.05695356445312501,0.11850556640624896,0.37142390680533166,-0.23756736662631586,-0.08734123633597084,0.07461635008889451,0.2638832032378089
47,1790651171.648705,-0.31863339843749994,-0.037793408203125003,0.12329560546874896,0.343740295326783,-0.24352944667839532,-0.08935322038630941,0.07669843626523033,0.2705055258556123
48,1790651171.6746569,-0.2611529296874999,-0.06653364257812501,0.13287568359374896,0.30047217104015483,-0.2512338440040983,-0.09177540975365166,0.07949349319467001,0.27903473917922356
49,1790651171.6946568,-0.33779355468749994,-0.05216352539062501,0.11850556640624896,0.36175832849965084,-0.25717909257486543,-0.09354013067506795,0.08170149005453599,0.2855975755875239
50,1790651171.718745,-0.28989316406249993,-0.042583447265625005,0.05623505859374896,0.29835176950411096,-0.2643995092318418,-0.09551792952307989,0.08427760876117102,0.2934850774416237
51,1790651171.738745,-0.24199277343749992,-0.109643994140625,0.10892548828124896,0.2871359779693083,-0.27029307927278223,-0.09714208360808001,0.08634342116087441,0.2999168542917285
52,1790651171.7496026,-0.3138433593749999,-0.104853955078125,0.14724580078124896,0.3621785912599226,-0.2734652812222967,-0.09806621542285039,0.08750529055800353,0.30340965462059927
53,1790651171.7696025,-0.34737363281249994,-0.018633251953125003,0.12808564453124896,0.3707041558799788,-0.2794239005127544,-0.09969838200759838,0.08973745487296031,0.30995208397391244
54,1790651171.7939641,-0.3330035156249999,-0.009053173828125004,0.08497529296874896,0.3437936907363143,-0.286836403997539,-0.10143886383791208,0.09243785763378476,0.3179775515329498
55,1790651171.8139641,-0.2946832031249999,-0.047373486328125006,0.06581513671874896,0.30563715355335747,-0.29295051565207025,-0.1027380442641141,0.09454843421640913,0.32452198195623605
56,1790651171.8688543,-0.29947324218749993,-0.037793408203125003,0.046654980468748955,0.3054328922896818,-0.30965972274619114,-0.10611942814251994,0.09993507137186997,0.3422535542702868
57,1790651171.8888543,-0.3617437499999999,-0.018633251953125003,0.06581513671874896,0.3681540044108154,-0.3158265417043107,-0.10725131359693625,0.10177206723036526,0.3487216689302732
58,1790651171.883882,-0.39527402343749996,-0.013843212890625003,0.10413544921874895,0.4089955744645596,-0.3158265417043107,-0.10725131359693625,0.10177206723036526,0.3487216689302732
59,1790651171.903882,-0.2851031249999999,-0.06174360351562501,0.11371552734374896,0.31309309417316633,-0.32226782989156955,-0.10822388840742012,0.10364275968175503,0.3554022873301371
60,1790651171.9144146,-0.28989316406249993,-0.11443403320312501,0.13287568359374896,0.3388054630843598,-0.3256054029105099,-0.10879841943577587,0.10467494404703842,0.3589050269743921
61,1790651171.9344146,-0.34737363281249994,-0.05216352539062501,0.10892548828124896,0.36776927026580186,-0.3319482524788962,-0.10997562710851726,0.10670362424918715,0.36560900468891133
62,1790651171.9592907,-0.28989316406249993,-0.013843212890625003,0.09455537109374897,0.30523826646732755,-0.3398430957422359,-0.11134336280661888,0.10922805404890756,0.37392705432485623
63,1790651171.9792907,-0.1988824218749999,-0.100063916015625,0.10892548828124896,0.24785432620100864,-0.34597148162624297,-0.11244891439163716,0.1112584343412245,0.3804201146871391
64,1790651172.0039735,-0.2755230468749999,-0.085693798828125,0.14245576171874896,0.32179189014601894,-0.3532784933658498,-0.11395253423294233,0.11385369917944203,0.38826993026733037
65,1790651172.0239735,-0.3330035156249999,0.005316943359374998,0.14724580078124896,0.36414411591155443,-0.35922390753610084,-0.11510870128189767,0.1160757116580564,0.3946712552153178
66,1790651172.034422,-0.23241269531249992,-0.033003369140625,0.10892548828124896,0.25878494027736965,-0.3623071064084198,-0.11564380461487193,0.11726316264429514,0.3979831381015873
67,1790651172.054422,-0.18451230468749993,-0.109643994140625,0.12329560546874896,0.24752454900495754,-0.3679489600314462,-0.11672840630781156,0.11954351605059119,0.40410717669588886
68,1790651172.0789504,-0.2946832031249999,-0.06653364257812501,0.21430634765624895,0.37039455509562325,-0.37471192638898326,-0.1181831658125487,0.12254176401085634,0.4115735321743997
69,1790651172.0989504,-0.3234234374999999,0.139438037109375,0.310107128906249,0.46926763953602074,-0.3803262983981392,-0.11908206032078718,0.1254063808913019,0.4177982655681188
70,1790651172.1240592,-0.2132525390624999,0.163388232421875,0.348427441406249,0.43997050109689484,-0.3873281859306021,-0.11947102304164718,0.12970341362884882,0.42558127833574294
71,1790651172.1440592,-0.3042632812499999,0.081957568359375,0.29094697265624897,0.4288861483263761,-0.3928451039149279,-0.11936635284821223,0.13357179080784543,0.4317603793330616
72,1790651172.1541412,-0.5102349609375,0.101117724609375,0.310107128906249,0.605583141270913,-0.3958249075253411,-0.11918307069749134,0.1356838223951564,0.4350770752614856
73,1790651172.1741412,-0.5389751953124999,0.192128466796875,0.511288769531249,0.7673485614534271,-0.4024231787708967,-0.11843415683918972,0.14047716082827102,0.44238546204939283
74,1790651172.1997604,-0.5437652343749999,0.503481005859375,0.5256588867187489,0.9085653628454373,-0.4116879344400369,-0.11628214905782437,0.14768868134825358,0.4525709227860272
75,1790651172.2197604,-0.4719146484374999,0.7190327636718751,0.477758496093749,0.9838519864457582,-0.4193591965175376,-0.11302038865790355,0.15397910000585563,0.46080940441231405
76,1790651172.2438607,-0.37611386718749995,0.608861865234375,0.477758496093749,0.8604810239727425,-0.4287494240471547,-0.10727928550586015,0.1621492673631645,0.47077308613155205
77,1790651172.2638607,-0.5533453125,0.6328120605468751,0.511288769531249,0.9838995602641984,-0.4367673336643528,-0.10136709046725204,0.16939594733006877,0.47930781107542525
78,1790651172.274303,-0.6539361328125,0.7717231933593751,0.635829785156249,1.1947672027045273,-0.4412711583558886,-0.09764329108317621,0.1735103853963512,0.4841077373175231
79,1790651172.294303,-0.47670468749999995,0.7860933105468751,0.841801464843749,1.246523067650214,-0.45029934004218625,-0.08924422689948962,0.1824251311960763,0.4939766757340084
80,1790651172.319537,-0.2036724609374999,0.493900927734375,0.674150097656249,0.8601737917020861,-0.4612692183982898,-0.07781423807538698,0.19485472111819335,0.506747185321311
81,1790651172.339537,-0.2036724609374999,0.302299365234375,0.38195771484374896,0.5279763948266079,-0.4692705765037044,-0.06891962380477484,0.2048126215653597,0.5166362341822204
82,1790651172.364418,-0.12703183593749992,0.479530810546875,0.32447724609374895,0.5927667069243837,-0.47834872513578974,-0.058055063576352456,0.21666085865524712,0.5283273804367125
83,1790651172.384418,-0.016860937499999912,0.608861865234375,0.33405732421874895,0.6946879572975564,-0.4847671928976685,-0.048999284785654906,0.2257439463579688,0.5369920767913253
84,1790651172.393997,-0.06955136718749992,0.517851123046875,0.266996777343749,0.5867661011259151,-0.4874422666663589,-0.04450317366292022,0.22987353083988887,0.5407608861407296
85,1790651172.413997,-0.031231054687499916,0.345409716796875,0.257416699218749,0.43191041695155596,-0.4923409586963633,-0.035228925771731034,0.23798902441841915,0.5479776204962344
86,1790651172.4395075,-0.040811132812499915,0.201708544921875,0.26220673828124896,0.333323055392259,-0.49778995528988457,-0.024126995304457707,0.2477820285614955,0.5565724437734736
87,1790651172.4595075,-0.13182187499999992,0.043637255859375,0.24304658203124896,0.2799158049566419,-0.5016800632477919,-0.016360757734440335,0.255065871180666,0.5630356639637543
88,1790651172.484341,0.04540957031250009,0.172968310546875,0.13766572265624896,0.22568100656429493,-0.5059467133152638,-0.007760668271243646,0.2634624804069277,0.5704864444215171
89,1790651172.504341,0.2609613281250001,0.149018115234375,0.17598603515624897,0.34825033814023204,-0.5084079359888675,-0.0013904106150497636,0.26968094161286993,0.5755070572002945
90,1790651172.5289123,0.32802187500000013,-0.018633251953125003,0.10413544921874895,0.34465887532581396,-0.5098927456220861,0.00550224272081608,0.27669101908793586,0.5801541232783824
91,1790651172.5489123,0.2992816406250001,-0.12401411132812501,0.051445019531248956,0.3280176676007969,-0.5099790717598729,0.010057023578697082,0.28177438234176316,0.5827320137939962
92,1790651172.5589938,0.2657513671875001,-0.138384228515625,-0.14973662109375105,0.33495527994116436,-0.5095888297493016,0.011810186412316443,0.2838781079729453,0.5834441156568945
93,1790651172.5789938,0.2609613281250001,-0.15275434570312502,-0.09704619140625105,0.3175730910741849,-0.5081407156964347,0.014329750573042891,0.2870553423856352,0.5837919991676014
94,1790651172.604148,0.2513812500000001,-0.296455517578125,-0.010825488281251046,0.388838781438534,-0.5056260438680339,0.016175832092065245,0.2902484613124506,0.5832353925095379
95,1790651172.624148,0.3711322265625001,-0.282085400390625,-0.12099638671875106,0.481613359766703,-0.5029927759763723,0.016555664619372693,0.29220874429125504,0.5819465378844334
96,1790651172.649936,0.3950824218750001,-0.215024853515625,-0.28385771484375105,0.5318843953157,-0.4986247905474071,0.01601049527205216,0.2935741722055964,0.578851286854839
97,1790651172.669936,0.3040716796875001,0.0005269042968749973,-0.25511748046875105,0.39691912634293564,-0.494696601598395,0.01532936268676861,0.29366582614860803,0.5754992045528197
98,1790651172.6796622,0.12684023437500008,0.259189013671875,-0.10183623046875105,0.306003280538933,-0.4927584778339654,0.015237259927186903,0.29344332537480605,0.5737177675254267
99,1790651172.6996622,0.3136517578125001,-0.05216352539062501,-0.006035449218751046,0.31801711464529975,-0.48871021179368285,0.015386817050201621,0.2928926224359995,0.5699653616912168
100,1790651172.7238948,0.8405560546875002,-0.25813520507812504,-0.25032744140625107,0.9142385318359435,-0.4824432413907175,0.014976892594143726,0.29185953436309064,0.5640547635416252
101,1790651172.7438948,0.8022357421875002,-0.004263134765625003,-0.34133818359375107,0.871844089238575,-0.4755825702738372,0.014295719977075424,0.29024729152486106,0.5573388906181319
102,1790651172.7691498,0.6585345703125001,0.216078662109375,-0.34133818359375107,0.7725733130873262,-0.46545188020664874,0.013965796711144101,0.2872237390139394,0.547117878083717
103,1790651172.7891498,0.46693300781250013,-0.12401411132812501,-0.3988186523437511,0.6264680766412752,-0.4569443651952734,0.013881810729594152,0.28407824783014096,0.5382297914860219
104,1790651172.7990358,0.44777285156250013,-0.603018017578125,-0.6000002929687511,0.9613176414083182,-0.4526916668083398,0.013307464061149871,0.2820160729111945,0.533516540678641
105,1790651172.8190358,0.5435736328125002,-0.900000439453125,-0.7484915039062511,1.2906248938884755,-0.44389172004571065,0.010065293573686471,0.27644722682384587,0.523033687708984
106,1790651172.843947,0.5723138671875001,-1.0245414550781249,-0.518569628906251,1.2830209724601853,-0.4324901373830827,0.003037031313060372,0.26818404959248204,0.5089004096566018
107,1790651172.863947,0.6537445312500001,-0.981431103515625,-0.23595732421875107,1.2026074928835477,-0.4228703347976639,-0.004768181407865766,0.2614132675403723,0.49717094851968263
108,1790651172.8890536,0.8884564453125001,-0.842519970703125,-0.47066923828125107,1.311763808052033,-0.40970170960386404,-0.01653111221618249,0.2528580320756027,0.48173224192343556
109,1790651172.9090536,1.0273675781250002,-0.8185697753906249,-0.8778225585937511,1.57990919427085,-0.39791136457144954,-0.026987546051807712,0.24504245826869822,0.46808929495490303
110,1790651172.9189413,1.0321576171875002,-1.158662548828125,-0.8203420898437511,1.7552234596040124,-0.3914294411042094,-0.03284789690355612,0.24049881950792354,0.4605818861818658
111,1790651172.9389412,0.9267767578125001,-1.235303173828125,-0.5664700195312511,1.6449247317488496,-0.3773466259382929,-0.04651458431837769,0.23060669339032278,0.44467238468083864
112,1790651172.9645653,0.9794671875000002,-1.211352978515625,-0.5664700195312511,1.6575947312221926,-0.35834669704761923,-0.06609990635330878,0.2176566571723585,0.4244478452251819
113,1790651172.9845653,1.2141791015625,-1.225723095703125,-0.6431106445312511,1.841254816455499,-0.3424509380822818,-0.08274918225484425,0.20725072961439367,0.40874556521505984
114,1790651173.0096753,0.9986273437500002,-0.952690869140625,-0.633530566406251,1.5186301203387629,-0.32132009226368136,-0.10461939382432996,0.1937415353148803,0.38952227376964976
115,1790651173.0296752,0.8549261718750001,-1.058071728515625,-0.614370410156251,1.492603612120929,-0.30423375326217195,-0.12244211183962127,0.18272368698291075,0.37541735862951675
116,1790651173.038981,0.9986273437500002,-1.206562939453125,-0.753281542968751,1.7379539066167229,-0.2961825727273579,-0.1310714306528984,0.17741167840913097,0.36929492273349646
117,1790651173.058981,0.8405560546875002,-1.431694775390625,-0.7772317382812511,1.8331321790706538,-0.2787156418534623,-0.15079313366516622,0.16541176067956592,0.357466122514375
118,1790651173.0847535,0.7830755859375002,-1.287993603515625,-0.652690722656251,1.6426016179920386,-0.2564451080560842,-0.17765201411484124,0.1495038683390335,0.34594181333468715
119,1790651173.1047535,0.9555169921875001,-1.177822705078125,-0.5281497070312511,1.6059953798170763,-0.23914723575201707,-0.1990672648528587,0.1372395194250944,0.3400791995930652
120,1790651173.128946,1.1854388671875002,-1.038911572265625,-0.5712600585937511,1.6765860005889206,-0.21747717605528946,-0.22510824803843515,0.12263468024745246,0.336168574139987
121,1790651173.148946,0.9076166015625001,-0.967060986328125,-0.41318876953125105,1.389136352550223,-0.1991101669891753,-0.24641605617318565,0.11089527020884796,0.3356538280626295
122,1790651173.1589775,0.7351751953125001,-1.034121533203125,-0.11141630859375105,1.2736967877237553,-0.1900436514932535,-0.25700598338981756,0.10549562745337063,0.3365976713865334
123,1790651173.1789775,0.7591253906250002,-1.053281689453125,-0.08267607421875105,1.3009646456675956,-0.17243748115820592,-0.2780834818941999,0.09605389456718767,0.3410153346583007
124,1790651173.2044544,0.8501361328125001,-0.933530712890625,-0.18805693359375106,1.276548646349271,-0.15029910785364878,-0.3047019203789441,0.085313354678797,0.35030194203111314
125,1790651173.2244544,0.8501361328125001,-0.871260205078125,-0.20242705078125106,1.2340188410855664,-0.1329764373347726,-0.3251707802406934,0.07756079299479186,0.3597699901583941
126,1790651173.2642982,0.8836664062500001,-0.732349072265625,-0.13057646484375104,1.1550981319152946,-0.09846177191228644,-0.3646240317907499,0.0634377824033188,0.3829748781887655
127,1790651173.2842982,0.8022357421875002,-0.7946195800781249,-0.03477568359375105,1.1296954506662746,-0.08120669552233059,-0.38374783371376225,0.057163949522995645,0.3963895109645681
128,1790651173.294453,0.6968548828125001,-0.789829541015625,0.11371552734374896,1.0594190165933604,-0.07261810157252085,-0.3932079345016145,0.0545164335774852,0.40355657591102545
129,1790651173.314453,0.5914740234375001,-0.713188916015625,0.21430634765624895,0.9510032392030259,-0.056307478640293424,-0.4112995776292604,0.050576269869508216,0.4182054922914672
130,1790651173.3242338,0.6297943359375001,-0.579067822265625,0.27178681640624897,0.8976795207281129,-0.04863146781622338,-0.419768011781904,0.049294972821783745,0.425441180097547
131,1790651173.3442338,0.6872748046875001,-0.5311674316406251,0.18556611328124897,0.8882118440959053,-0.033314325247613595,-0.436152201004292,0.04775400147617512,0.44002162601919764
132,1790651173.3698428,0.8166058593750001,-0.641338330078125,0.013124707031248956,1.0384277736692316,-0.01375492089292293,-0.4562364982171541,0.04645845329184297,0.4588020575765677
133,1790651173.3898427,0.7112250000000001,-0.708398876953125,-0.010825488281251046,1.0038860297314514,0.0015209047344394884,-0.47159362223056267,0.04560188087378004,0.473795725201252
134,1790651173.4144793,0.5771039062500001,-0.665288525390625,0.017914746093748955,0.88089651988928,0.019895991184909846,-0.4902115525024595,0.04471810363257219,0.49264888659632133
135,1790651173.4344792,0.6776947265625001,-0.540747509765625,-0.14015654296875105,0.8782493201052295,0.03445758914383896,-0.5048675766973072,0.04392490633516837,0.5079448718575376
136,1790651173.4445224,0.7399652343750002,-0.6173881347656249,-0.28385771484375105,1.0046351871745995,0.04174080703983896,-0.5119956159142637,0.0432669600049585,0.515513176859558
137,1790651173.4645224,0.6202142578125002,-0.588647900390625,-0.23595732421875107,0.8870444944199104,0.05610934358410742,-0.5258702672610871,0.0413735354794546,0.5304710791973077
138,1790651173.4898834,0.5771039062500001,-0.516797314453125,-0.14015654296875105,0.7872561459727846,0.07387380944639452,-0.5429276512164922,0.03861731668523758,0.5492896060599974
139,1790651173.5098834,0.5627337890625002,-0.48805708007812504,-0.17368681640625105,0.7648765527589158,0.08749141121536524,-0.5558688082736898,0.03629900815212089,0.5638816338921635
140,1790651173.5339677,0.5579437500000001,-0.516797314453125,-0.24074736328125107,0.7977092110016654,0.10345449145178504,-0.5709302756512137,0.033177419644713296,0.5811754921114617
141,1790651173.5539677,0.6106341796875001,-0.535957470703125,-0.23116728515625107,0.8447264797149601,0.11647493645236742,-0.5831405804279854,0.030266167356782912,0.5954287432178091
142,1790651173.5640094,0.6010541015625002,-0.521587353515625,-0.20721708984375106,0.8223492704902527,0.12294427096222985,-0.5891480789347942,0.028693563006471932,0.6025230893774935
143,1790651173.5840094,0.6297943359375001,-0.521587353515625,-0.20242705078125106,0.8424197195070788,0.13574271445591765,-0.6008831530692587,0.025416778058427163,0.6165489930063841
144,1790651173.6096456,0.6202142578125002,-0.440156689453125,-0.20721708984375106,0.7882528523180606,0.1520905324904107,-0.6155181378246255,0.021058963019423,0.6343796875592446
145,1790651173.6296456,0.6441644531250001,-0.36830610351562504,-0.19284697265625106,0.7666728007562116,0.1648277336094005,-0.626435644405081,0.017569094591810556,0.6479957341162028
146,1790651173.6541243,0.6824847656250002,-0.306035595703125,-0.16889677734375105,0.7667916030739268,0.18051440847450756,-0.6390316380901113,0.013274303150616324,0.6641709819550737
147,1790651173.6741242,0.6154242187500001,-0.282085400390625,-0.19284697265625106,0.7039240704793863,0.19335537404365385,-0.6486615020938656,0.009749035262751709,0.6769365469959395
148,1790651173.6848462,0.6345843750000001,-0.411416455078125,-0.10183623046875105,0.7631064449598602,0.2002119594990087,-0.6536073343578346,0.007905665959273589,0.6836299260616423
149,1790651173.7048461,0.45735292968750013,-0.440156689453125,0.05623505859374896,0.6372377855864454,0.21272122095482165,-0.6627264836216284,0.004914537492043071,0.6960465951477381
150,1790651173.7290914,0.47651308593750014,-0.243765087890625,0.10413544921874895,0.5452800481660723,0.22730920896247847,-0.6733667192804387,0.0021240219413574722,0.7107015735052625
151,1790651173.7490914,0.5866839843750001,-0.18628461914062502,0.12808564453124896,0.628733639298454,0.2391326224832582,-0.6814723780033947,0.0005157351346743418,0.7222113811759348
152,1790651173.7739382,0.6441644531250001,-0.25813520507812504,0.09455537109374897,0.7003730041722288,0.2539117227554506,-0.6908600504631367,-0.000767705500844835,0.7360430433407442
153,1790651173.7939382,0.6297943359375001,-0.33956586914062503,0.08497529296874896,0.7205322237619284,0.26593440564657617,-0.6981795743822756,-0.001376529955195401,0.7471129238782654
154,1790651173.8042147,0.5531537109375001,-0.334775830078125,0.03228486328124896,0.6473763949400024,0.27209710844697965,-0.7018961493456345,-0.0015520592073400912,0.7527930989184344
155,1790651173.8242147,0.5435736328125002,-0.224604931640625,-0.044355761718751045,0.5898195513917109,0.2839368436039398,-0.7088833605661383,-0.0018605346493590215,0.7636355227675644
156,1790651173.849597,0.6393744140625002,-0.286875439453125,-0.09225615234375105,0.7068297933480608,0.29896087748009775,-0.7173944906649562,-0.0024533660407382906,0.777199125388746
157,1790651173.869597,0.7112250000000001,-0.315615673828125,-0.15931669921875105,0.794251890045557,0.31104924064142525,-0.7239986234310394,-0.003227778489381386,0.7879949589861751
158,1790651173.894786,0.6824847656250002,-0.35872602539062504,-0.11620634765625106,0.7797267032995422,0.326623152584613,-0.7323424928680639,-0.004577320095036857,0.8018909916714203
159,1790651173.9147859,0.6489544921875001,-0.37788618164062504,-0.06351591796875104,0.7536406113265663,0.33913113020726343,-0.739078680894922,-0.005757707780271813,0.8131914726728982
160,1790651173.9248626,0.7064349609375001,-0.473686962890625,-0.12099638671875106,0.859109898933952,0.3455121764366104,-0.7426071218249426,-0.006402670352926301,0.8190756959150581
161,1790651173.9448626,0.7687054687500001,-0.579067822265625,-0.19284697265625106,0.9815383819964921,0.35849001870797054,-0.7501389030699241,-0.007961518009736174,0.8314366200626536
162,1790651173.9690394,0.6872748046875001,-0.689238720703125,-0.16410673828125105,0.9870803882278447,0.37446504063575464,-0.7601777056004779,-0.010210510564505056,0.8474659080318996
163,1790651173.9890394,0.5866839843750001,-0.708398876953125,-0.09225615234375105,0.9244123885127501,0.3876088411162492,-0.769332961247232,-0.012176437513170529,0.861546333404901
164,1790651174.0141585,0.5771039062500001,-0.761089306640625,-0.19284697265625106,0.9744207541685456,0.4038331491644244,-0.7818751709981334,-0.014812299428660098,0.8801303310315927
165,1790651174.0341585,0.7064349609375001,-0.832939892578125,-0.3173879882812511,1.137354102198627,0.41673867962170263,-0.7927544803687446,-0.017361539498288392,0.8957858093826386
166,1790651174.0591097,0.6681146484375001,-1.010171337890625,-0.22158720703125107,1.231228738160546,0.4329963151237942,-0.8077402934067285,-0.0210734312780826,0.9167193027363415
167,1790651174.0791097,0.4717230468750001,-1.129922314453125,0.12329560546874896,1.230629463315439,0.4457828648721861,-0.8211606964218268,-0.023749887208790302,0.9346610664321391
168,1790651174.0902283,0.2705414062500001,-1.019751416015625,0.19035615234374897,1.0720639289224856,0.4524440340783489,-0.8292950254950873,-0.024753074156733907,0.9450124644491185
169,1790651174.1102283,0.2657513671875001,-0.808989697265625,-0.025195605468751048,0.851893736318615,0.46343314093973453,-0.8444752071198672,-0.026039167372790918,0.9636320302889889
170,1790651174.1346402,0.4286126953125001,-0.847310009765625,-0.09704619140625105,0.9544951851625698,0.47610572800942585,-0.8632572674467951,-0.02759731040909379,0.986230898717389
171,1790651174.1546402,0.2465912109375001,-1.014961376953125,0.19993623046874898,1.0634511358178422,0.4859434759456511,-0.8791301331992886,-0.028528035988664196,1.004900344188672
172,1790651174.179316,0.05977968750000009,-0.8760502441406249,0.329267285156249,0.9377924004653764,0.4968275599170872,-0.8992760691346044,-0.0285247198309055,1.0277882721907194
173,1790651174.199316,0.1699505859375001,-0.502427197265625,0.13287568359374896,0.5467835380689482,0.5046705504055152,-0.9152229663485104,-0.027829221431176016,1.0455141836167685
174,1790651174.2098885,0.4334027343750001,-0.262925244140625,-0.08746611328125105,0.5144102790017544,0.5086730507734724,-0.9229952401842897,-0.027480707209728672,1.0542408051554413
175,1790651174.2298884,0.5052533203125001,-0.301245556640625,-0.18326689453125106,0.6161303090366961,0.5165168688903947,-0.9363389522476301,-0.027326411593422837,1.0697041843963686
176,1790651174.254496,0.4908832031250001,-0.44973676757812503,-0.21200712890625106,0.698696287330162,0.5265585856175155,-0.9516801533854918,-0.027894552762656132,1.0879968586853457
177,1790651174.274496,0.6681146484375001,-0.646128369140625,-0.34612822265625104,0.9917982654674606,0.5352343121825217,-0.9639222830389191,-0.029124250308055287,1.1029370601409971
178,1790651174.2992017,0.8166058593750001,-0.631758251953125,-0.518569628906251,1.1553692390315822,0.5470948212240123,-0.9791442360405621,-0.032017640819773895,1.1220790113469077
179,1790651174.3192017,0.9603070312500002,-0.535957470703125,-0.6239504882812511,1.2644185290073424,0.5579214173034103,-0.9913700505167847,-0.035722364547043924,1.138141894614345
180,1790651174.3298004,1.0465277343750001,-0.420996533203125,-0.4658791992187511,1.2204514771386143,0.5643934185692306,-0.997637770902749,-0.03825743815138836,1.1468586157107492
181,1790651174.3498003,0.9555169921875001,-0.344355908203125,-0.37007841796875107,1.080995721230986,0.5777774103484832,-1.0088390646204706,-0.043577567800675954,1.163392452540727
182,1790651174.3744128,0.8261859375000001,-0.320405712890625,-0.45150908203125106,0.9945368144681256,0.5950663581537962,-1.021783048949708,-0.05065917307729417,1.1835163376752593
183,1790651174.3944128,1.0752679687500002,-0.200654736328125,-0.5425198242187511,1.2209796425415969,0.6098601394225466,-1.0315051438477947,-0.05704153174981291,1.1996607802980443
184,1790651174.4194715,1.2860296875000001,0.048427294921875,-0.5520999023437511,1.4003684737213908,0.6300533198908836,-1.0421452500569095,-0.06589596413496773,1.219580332003997
185,1790651174.4394715,1.3099798828125002,0.144228076171875,-0.614370410156251,1.4540632834251928,0.6476464891399379,-1.0490745706424267,-0.07365256089634438,1.2350822358816718
186,1790651174.449439,1.1758587890625,0.034057177734375,-0.633530566406251,1.3361005806980943,0.6569576736062611,-1.0518767026204474,-0.07787131556627687,1.2426189778905836
187,1790651174.469439,1.1566986328125002,0.0005269042968749973,-0.7293313476562511,1.3674341737182556,0.6763370124687882,-1.0566039471879625,-0.08711081987562667,1.2575499793597837
188,1790651174.4947305,1.0656878906250002,-0.07132368164062501,-0.9400930664062511,1.422867780678389,0.7013831707421776,-1.0618194940090209,-0.10020890756604182,1.276495521031509
189,1790651174.5147305,0.9698871093750001,-0.243765087890625,-0.8826125976562511,1.333831856175145,0.7212716427735458,-1.0657978267176382,-0.11174701941625796,1.2917604988749687
190,1790651174.539846,0.9219867187500002,-0.085693798828125,-0.652690722656251,1.132876037415624,0.7460644339631438,-1.0706649253155265,-0.12695489992003473,1.3111266409235052
191,1790651174.559846,1.2285492187500002,0.206498583984375,-0.6622708007812511,1.410878258974256,0.7660717926661552,-1.0737781233725467,-0.13922113600247438,1.3263664555702637
192,1790651174.5699112,1.3626703125000001,0.431630419921875,-0.954463183593751,1.7187714126103857,0.7765865767653825,-1.0746281531786908,-0.14568881267889713,1.333843172549234
193,1790651174.5899112,1.2716595703125002,0.22565874023437502,-0.954463183593751,1.6059389461145328,0.7982971862356777,-1.075077892270856,-0.15947588893273504,1.3485189769344117
194,1790651174.6290867,1.0465277343750001,-0.109643994140625,-0.48024931640625107,1.1566682800941035,0.8412557123318485,-1.075485819953624,-0.18664624975326632,1.3781210922844347
195,1790651174.6490867,0.7016449218750002,0.45558061523437504,-0.24553740234375107,0.8718646163940958,0.8625195701524428,-1.0751439333507358,-0.1995253480795262,1.392725691169335
196,1790651174.6598454,0.7878656250000001,0.565751513671875,-0.06351591796875104,0.9720294697765454,0.8734441939933953,-1.0741634975144996,-0.2056635945312023,1.3996533476289224
197,1790651174.6798453,1.0369476562500002,0.503481005859375,0.046654980468748955,1.1536595044752485,0.8934436727163514,-1.071010439971683,-0.21538807706166507,1.4112749493226127
198,1790651174.7047982,0.8692962890625001,0.6615522949218751,0.10413544921874895,1.0973475606562508,0.9182205672905324,-1.0654863053660222,-0.2254186795866609,1.4245011962874854
199,1790651174.7247982,0.3328119140625001,0.6471821777343751,0.30052705078124897,0.7873531923922253,0.9369038099653312,-1.059759705412621,-0.23164536742929437,1.4333663030067547
200,1790651174.733891,0.2849115234375001,0.546591357421875,0.33405732421874895,0.7010927071792684,0.9445451130880188,-1.0567325847230358,-0.2336188764067316,1.4364633673322231
201,1790651174.753891,0.09330996093750009,0.6376020996093751,0.49212861328124896,0.8108228895674853,0.9593986842377744,-1.0492967679593854,-0.23606928634214094,1.44124885100432
202,1790651174.7794538,-0.61082578125,1.0399653808593752,0.6070895507812489,1.3502569574319685,0.9745436932422058,-1.0380021147469054,-0.23662402793798715,1.4433207304181574
203,1790651174.7994537,-0.7784771484374999,1.5141792480468752,0.559189160156249,1.792054123817535,0.9825316139491538,-1.0266596273477568,-0.23524353089568711,1.440395043612562
204,1790651174.8240635,-0.8982281249999999,1.6866206542968751,0.616669628906249,2.0079303840664413,0.9877915672647748,-1.0088884899051946,-0.23162932055194005,1.4308180553662082
205,1790651174.8440635,-0.9509185546875,1.9213325683593752,0.38195771484374896,2.1775345305680127,0.9886513254163704,-0.9912006021030194,-0.22763475332551403,1.4183538549242574
206,1790651174.8545165,-0.7114166015625,1.9261226074218751,0.06102509765624896,2.054211756938494,0.9877300475394819,-0.9803264123719861,-0.22551287059583727,1.4097895503978073
207,1790651174.8745165,-0.6347759765625,1.6339302246093752,-0.11141630859375105,1.7564401820539113,0.9842124605596385,-0.9573013386086975,-0.22213757997176622,1.3908433142732415
208,1790651174.8996153,-0.9030181640624999,1.4279585449218752,-0.15452666015625105,1.6965806492298716,0.9775654912246142,-0.926976761192343,-0.2190377710271229,1.3648801231464973
209,1790651174.9196153,-0.8982281249999999,1.5093892089843752,-0.24553740234375107,1.773515763868258,0.9703614821153476,-0.9020312235113218,-0.2175382960344723,1.3426036810630335
210,1790651174.9442334,-0.5246050781249999,1.3896382324218752,-0.10183623046875105,1.4888504031094647,0.9601970628133643,-0.8705787462088468,-0.21661081403591945,1.3140799053114247
211,1790651174.9642334,-0.4335943359374999,1.2411470214843752,0.34363740234374895,1.3588732985036454,0.9517407578776286,-0.8449131646540534,-0.2156076429012685,1.290804160858126
212,1790651174.9742954,-0.3521636718749999,1.226776904296875,0.678940136718749,1.4456695797976729,0.9475315788490624,-0.8320752608468648,-0.21440696573495968,1.2791151940248568
213,1790651174.9942954,-0.3809039062499999,1.3225776855468752,1.014242871093749,1.7096748584650616,0.939320457709937,-0.8065612499311052,-0.20983861738165624,1.2557452836891236
214,1790651175.0198395,0.011879296875000087,1.5668696777343751,0.966342480468749,1.8409344079179366,0.9296992517943716,-0.7733268830166131,-0.20108465981445567,1.2258915968371347
215,1790651175.0398395,-0.026441015624999915,1.341737841796875,1.076513378906249,1.7204187334428693,0.923274368285816,-0.7468460611366723,-0.19219450334748056,1.2029768598297805
216,1790651175.063991,-0.4910748046874999,0.9729048339843751,1.306435253906249,1.701314595375622,0.9157421840002015,-0.7154723538853882,-0.1787528743393363,1.175770822403895
217,1790651175.083991,-0.8167974609374999,0.8244136230468752,1.186684277343749,1.6598299576023074,0.9084785670961258,-0.6906928183655021,-0.165551803952182,1.1531683641197117
218,1790651175.0948596,-0.8407476562499999,1.016015185546875,0.851381542968749,1.56971144178144,0.9037722689815619,-0.677746599905161,-0.15779273610664488,1.1406328574221893
219,1790651175.1148596,-0.8742779296875,1.260307177734375,0.549609082031249,1.6293576107284364,0.8938384018338774,-0.654082360710311,-0.1435549473758157,1.1168611579338708
220,1790651175.1389694,-1.22395078125,1.533339404296875,0.573559277343749,2.044053690175252,0.8798653772416262,-0.6247827658195693,-0.1269349681330623,1.0865675647048558
221,1790651175.1589694,-1.511353125,1.7201509277343752,0.6262497070312489,2.3738778776907252,0.8659099672257966,-0.5992432261622007,-0.11341641572231255,1.059129736527853
222,1790651175.184088,-1.271851171875,1.5908198730468752,0.520868847656249,2.102288664370199,0.8457687314716783,-0.565741200024529,-0.0968237558510705,1.0221363374019699
223,1790651175.204088,-1.28143125,1.495019091796875,0.722050488281249,2.097261319182926,0.828307445660608,-0.538438644844071,-0.0837296497460027,0.9914736774342066
224,1790651175.2140582,-1.5161431640625,1.6722505371093752,0.846591503906249,2.4107735537130583,0.818816589910458,-0.5245012697493151,-0.07700826546087196,0.975444751295801
225,1790651175.2340581,-1.731694921875,1.6387202636718752,0.698100292968749,2.4842534943237045,0.7977621544528614,-0.4957704572409818,-0.06323072168167457,0.9413877657557425
226,1790651175.259418,-1.1808404296875,1.384848193359375,0.635829785156249,1.9278143465404354,0.7695301658694167,-0.45905372044339254,-0.04584422563647351,0.8972227635655151
227,1790651175.279418,-0.9221783203124999,1.1501362792968752,0.6454098632812489,1.6092794061411348,0.7474503321029063,-0.43063818921720887,-0.03226733338853773,0.8632337051905635
228,1790651175.3042119,-0.9892388671875,1.102235888671875,0.468178417968749,1.553289580755117,0.7206295675299188,-0.3965072262292352,-0.015890054632299973,0.8226648454179728
229,1790651175.3242118,-0.8742779296875,0.8148335449218751,0.15682587890624897,1.2053671476207273,0.6994445605141808,-0.3702296317348941,-0.003723420727386637,0.7913953103913012
230,1790651175.3341997,-0.2946832031249999,0.30708940429687503,-0.08267607421875105,0.43356363510290385,0.6895762263889494,-0.35823481534928814,0.0014966559766678364,0.7770777277134345
231,1790651175.3541996,0.01666933593750009,-0.272505322265625,-0.07309599609375105,0.28263057525438934,0.6723626143940441,-0.33776692685748394,0.010147932001147936,0.752503131314045
232,1790651175.3792171,0.08851992187500009,-0.19586469726562503,-0.2694875976562511,0.3447061378830503,0.6542576995456314,-0.3168833601746166,0.01870356203066241,0.7271987517886237
233,1790651175.3992171,0.2753314453125001,0.043637255859375,-0.3892385742187511,0.4787674618608213,0.6425007575854076,-0.30292082288902933,0.02352922697738017,0.7107192645199245
234,1790651175.424334,0.8118158203125001,-0.109643994140625,-0.10183623046875105,0.8254921861512994,0.6319985074839847,-0.28814057273503013,0.027755408693103792,0.6951384508353545
235,1790651175.444334,1.0417376953125002,-0.109643994140625,-0.08746611328125105,1.0511372661354166,0.6276705559814026,-0.2784657297259699,0.030331878593419903,0.6873379898833077
236,1790651175.469243,0.9219867187500002,-0.310825634765625,-0.4658791992187511,1.0787564660494742,0.6267574216363688,-0.26900912017373363,0.032025671411127526,0.6828004217501984
237,1790651175.489243,0.8118158203125001,-0.555117626953125,-0.5856301757812511,1.1446236100348908,0.6287349242442916,-0.2638540580191158,0.031604393755196435,0.6825872886322037
238,1790651175.4993293,1.1087982421875002,-0.928740673828125,-0.47066923828125107,1.52102672986541,0.6310355079089522,-0.26276674523198285,0.030624744174908812,0.6842441447301524
239,1790651175.5193293,1.2333392578125002,-0.981431103515625,-0.6431106445312511,1.7023290037236596,0.6384262370370679,-0.2637993852879857,0.027302922369016224,0.6913202046703959
240,1790651175.5439267,1.3147699218750002,-1.345474072265625,-0.8874026367187511,2.0800009293896076,0.6508532028154254,-0.269171585087146,0.02100682123177888,0.7046307688227131
241,1790651175.5639267,1.5303216796875,-1.786157666015625,-1.1460647460937512,2.616430402939641,0.6637094740486635,-0.277581911924951,0.013605204239111693,0.7195464441940164
242,1790651175.588521,1.9087347656250002,-1.752627392578125,-1.1556448242187511,2.8373378618811524,0.6834911985385338,-0.2929004295445916,0.0016229257764330037,0.7436084413151343
243,1790651175.608521,2.1386566406250003,-1.743047314453125,-1.284975878906251,3.0435553512762925,0.7032357286101888,-0.3087323443916251,-0.010320346967540401,0.7680902681514605
244,1790651175.619421,2.0380658203125,-1.944228955078125,-1.3041360351562512,3.1039505981705493,0.7157968852392935,-0.31908085384633145,-0.017969686788428925,0.783900938800849
245,1790651175.639421,2.0859662109375003,-2.289111767578125,-1.3137161132812512,3.3640953827043014,0.7415736664225374,-0.34157069011162,-0.03382659036597696,0.8171574372729411
246,1790651175.6639965,2.6990912109375,-2.624414501953125,-1.443047167968751,4.031752717120008,0.7773160742517711,-0.37411680890644783,-0.05546962578515346,0.8644423320160075
247,1790651175.6839964,3.058344140625,-2.859126416015625,-1.725659472656251,4.528352168374481,0.8106768858425042,-0.4048557591599287,-0.07519416387954768,0.9092630869257847
248,1790651175.7090995,3.0248138671875004,-3.208799267578125,-2.065752246093751,4.869622573976456,0.857721905491283,-0.44907488261624856,-0.10337613896846343,0.9736743518571401
249,1790651175.7290995,3.3122162109375,-3.481831494140625,-2.242983691406251,5.3032916779582395,0.8990866469808186,-0.48905630861432287,-0.12892426081551403,1.0315785655011962
250,1790651175.7391577,3.9588714843750004,-3.774023876953125,-2.104072558593751,5.860293592085388,0.9222539671884412,-0.5116208089328578,-0.1431246333996756,1.0643274368415585
251,1790651175.7591577,4.207953515625,-3.6734330566406252,-2.0944924804687512,5.965557975748876,0.9736608467022491,-0.5609297707386823,-0.1734234844196812,1.1369843257715362
252,1790651175.784222,4.0786224609375,-3.711753369140625,-2.2717239257812514,5.964310844276783,1.0439982859901293,-0.6273379958662051,-0.21390644231608538,1.2366249828756006
253,1790651175.8042219,4.3420746093750004,-3.821924267578125,-2.175923144531251,6.180239360363676,1.104336164292602,-0.6836803301619454,-0.2480357470300325,1.3223081673420873
254,1790651175.8288863,4.284594140625,-3.8171342285156253,-1.5101077148437512,5.933690755239463,1.1835424982515899,-0.756871471497981,-0.290629915066179,1.434605526640166
255,1790651175.8488863,4.073832421875,-3.453091259765625,-1.3185061523437511,5.500764339940224,1.2506732353788348,-0.818223926152857,-0.32423093934015257,1.529313452843254
256,1790651175.8592246,3.91097109375,-3.256699658203125,-1.490947558593751,5.303273723122831,1.2863602349924244,-0.8503834626953458,-0.3411728795427297,1.579326952068814
257,1790651175.8792245,3.8870208984375,-3.218379345703125,-1.6250686523437512,5.301673811407929,1.356739784173445,-0.9129781956884205,-0.3737056895049178,1.6774766675366415
258,1790651175.9038458,3.4463373046875003,-3.146528759765625,-1.6202786132812512,4.939958181844207,1.4439269618168868,-0.9902309763870608,-0.41374099110376816,1.7990731128494322
259,1790651175.9238458,2.9960736328125,-3.127368603515625,-1.7783499023437512,4.681818019814054,1.5137898160825807,-1.0529817581397567,-0.44648169803065085,1.8972812382266262
260,1790651175.948964,2.9673333984375003,-2.772905712890625,-1.888520800781251,4.478904375519483,1.5996048955221949,-1.1310855459341744,-0.48834134640331917,2.0190511644351137
261,1790651175.968964,3.0775042968750004,-2.1166703613281252,-1.3855666992187512,3.983857576996569,1.6667513923386477,-1.1912801854463,-0.521582889412181,2.1140618237476763
262,1790651175.978812,3.0248138671875004,-1.814897900390625,-1.165224902343751,3.714983498350175,1.6993616867910424,-1.2193775861515532,-0.5373796393325296,2.159511221760898
263,1790651175.998812,2.6990912109375,-1.728677197265625,-1.2274954101562512,3.4322242349911902,1.764241328409164,-1.2731963155295845,-0.5682379873927645,2.2486597637395525
264,1790651176.0395536,1.9710052734375,-2.011289501953125,-0.7628616210937511,2.9175512166066717,1.890851998050567,-1.3778126307957657,-0.6277517180767193,2.422346206399994
265,1790651176.0595536,1.3291400390625001,-1.182612744140625,-0.513779589843751,1.8517979406465752,1.9486321197065597,-1.4262559645655684,-0.6544995373350948,2.501947812961492
266,1790651176.0695806,1.5111615234375002,-0.18149458007812502,-0.8586624023437511,1.7475269822564754,1.975390793261163,-1.4479256851702407,-0.6669300906072447,2.538395816580634
267,1790651176.0895805,1.5686419921875001,-0.262925244140625,-1.1604348632812511,1.9688515575276244,2.025378013063927,-1.485331858099217,-0.6910338949027559,2.6049749842161107
268,1790651176.114538,1.1087982421875002,-0.5311674316406251,-0.9113528320312511,1.5304039880911087,2.083410671707595,-1.526494647855894,-0.7204785757359096,2.681394285630561
269,1790651176.134538,0.6154242187500001,0.062797412109375,-0.7293313476562511,0.9563549020451383,2.125526502283214,-1.5552356293524239,-0.7429961250542948,2.7365423469336703
270,1790651176.14446,0.5196234375000001,0.8579438964843751,-0.7772317382812511,1.2689229374969166,2.1441308306785554,-1.5666701438415127,-0.7536125853332023,2.760377562480048
271,1790651176.16446,0.33760195312500013,1.2746772949218752,-0.4994094726562511,1.4100308884283204,2.1772925395106815,-1.5830626301874895,-0.7737173408085799,2.800951377152575
272,1790651176.1889856,-0.09829160156249991,1.303417529296875,0.31489716796874895,1.3445143067334129,2.2122985344940282,-1.5954069800722408,-0.7950127438411618,2.8410620374531605
273,1790651176.2089856,-0.2611529296874999,1.5524995605468752,0.05623505859374896,1.575315244640782,2.2360238232498104,-1.5996796121417818,-0.809216984827309,2.865939554173427
274,1790651176.233697,-0.05039121093749992,1.576449755859375,-0.5425198242187511,1.6679510983716443,2.2603635328079847,-1.5983678297337802,-0.825036022380906,2.888720730323749
275,1790651176.253697,0.031039453125000088,1.2315669433593752,-0.5233596679687511,1.3385163150601547,2.277078807924522,-1.5932533787982759,-0.837517416691807,2.902581549209807
276,1790651176.2639952,-0.21804257812499991,1.5620796386718752,-0.2599075195312511,1.5984953181468942,2.2842502494816244,-1.5888571799363647,-0.8435851962966626,2.9075595133897223
277,1790651176.2839952,-0.016860937499999912,2.280585498046875,-0.19763701171875106,2.289195250195188,2.295736252058926,-1.5758361009321633,-0.8542879845403016,2.9126400938922368
278,1790651176.309972,0.2561712890625001,2.031503466796875,0.14724580078124896,2.0528788056764036,2.3088832593178354,-1.5530594788363898,-0.8662022432110016,2.914316725427331
279,1790651176.329972,-0.31863339843749994,1.8638520996093753,0.34363740234374895,1.9218633031794083,2.317393323512482,-1.5323108132916388,-0.8732629323472302,2.9121944291895066
280,1790651176.3688712,-0.61082578125,2.400336474609375,0.10892548828124896,2.479231350313469,2.328750664944477,-1.4855682605067875,-0.8836154581991513,2.9001325821543062
281,1790651176.3888712,-0.9125982421875,2.5152974121093754,0.017914746093748955,2.6757947531780983,2.331428993145289,-1.4577670706053436,-0.8879495287947005,2.8894809824441605
282,1790651176.3835955,-0.9173882812499999,2.151254443359375,0.17598603515624897,2.3453076606744583,2.331428993145289,-1.4577670706053436,-0.8879495287947005,2.8894809824441605
283,1790651176.4035954,-0.9030181640624999,1.9548628417968752,0.06581513671874896,2.154358876112861,2.3283002476142807,-1.425571692906164,-0.8904709701277486,2.8716154414016373
284,1790651176.4292254,-0.9413384765624999,2.486557177734375,0.20472626953124898,2.666645377817517,2.3213468662685073,-1.381964524458384,-0.8926974672983529,2.8452391794921215
285,1790651176.4492254,-0.9173882812499999,2.6350483886718754,0.573559277343749,2.8485174238266753,2.3139467076703855,-1.3453581579232075,-0.893006841490506,2.8216660252372163
286,1790651176.474381,-0.6251958984374999,2.400336474609375,0.35321748046874896,2.5054436116727765,2.303124771042037,-1.296721776422866,-0.8915890790112867,2.7894089270397235
287,1790651176.494381,-0.28989316406249993,1.4806489746093752,0.027494824218748957,1.5090113975516493,2.2944387312167693,-1.258032094401183,-0.8900598947133885,2.763928446618735
288,1790651176.504189,0.2513812500000001,1.1501362792968752,-0.18805693359375106,1.1922128182833411,2.2907896859315398,-1.23996934937815,-0.8895405750478245,2.7525486021547394
289,1790651176.524189,0.1555804687500001,0.383730029296875,0.10413544921874895,0.42696394393981435,2.285075361510144,-1.2063610088489396,-0.8887663379933249,2.7325412888009235
290,1790651176.5493796,-0.12224179687499992,0.6280220214843751,0.29573701171874894,0.7048511165295016,2.279020585647185,-1.1684683825856195,-0.8871819620990525,2.7104141795636725
291,1790651176.5693796,0.3807123046875001,1.4087983886718751,0.12808564453124896,1.464943920837902,2.275322198410803,-1.1398411462172038,-0.8854770055476083,2.6945126595628155
292,1790651176.5940073,0.7064349609375001,0.6950825683593751,-0.21679716796875106,1.014490582958316,2.2734592232839352,-1.1059916292912684,-0.8838563226211564,2.6782524755957087
293,1790651176.6140072,0.1651605468750001,-0.009053173828125004,-0.11620634765625106,0.20214816703600563,2.2734806419623124,-1.0815969622426311,-0.8832371033943256,2.6680843312988167
294,1790651176.6240742,0.011879296875000087,-0.023423291015625004,-0.039565722656251044,0.04748910049220161,2.273623475209632,-1.0711842899155837,-0.8830897837545494,2.6639532758961697
295,1790651176.6440742,0.6202142578125002,0.163388232421875,0.05623505859374896,0.6438352443777037,2.2748128152180858,-1.053390603214242,-0.8828160030833433,2.6577752355157025
296,1790651176.684562,0.9411468750000002,-0.16712446289062502,-0.07788603515625105,0.9590381957414973,2.281600552126558,-1.0227837876891221,-0.8824106449774352,2.6514969926804395
297,1790651176.704562,1.2429193359375001,-0.301245556640625,0.013124707031248956,1.27897209468295,2.287726680020563,-1.0106351670959957,-0.8823375853108254,2.6520928373458568
298,1790651176.714617,0.8501361328125001,-0.8568900878906249,0.13766572265624896,1.2148843229843174,2.291923059343278,-1.0063169520538857,-0.8821926483738172,2.6540250539106225
299,1790651176.734617,0.47651308593750014,-0.923950634765625,-0.10662626953125105,1.0450448114351996,2.3010078018546722,-1.001687453750383,-0.8819010460149062,2.6600308483472856
300,1790651176.7442367,0.45735292968750013,-1.297573681640625,-0.11141630859375105,1.3803198018578169,2.3053957557125124,-1.0013975200133793,-0.8819391408596657,2.663731073461902
301,1790651176.7642367,0.44777285156250013,-1.680776806640625,0.13766572265624896,1.7448389758175213,2.314507847588479,-1.0053526697631454,-0.8819670880937928,2.673115506600712
302,1790651176.7894785,0.5483636718750001,-1.426904736328125,0.11371552734374896,1.5328702046640923,2.326168939791904,-1.0154789469962366,-0.8815211697004701,2.686882766492662
303,1790651176.8094785,0.8357660156250001,-0.670078564453125,0.041864941406248954,1.0720367478459856,2.336098691579672,-1.025444304830403,-0.8809874803084747,2.699079854241004
304,1790651176.834281,0.8932464843750001,-0.780249462890625,0.09934541015624895,1.1901882274281324,2.3497819728323432,-1.0386467143423075,-0.8801622385020258,2.7156855272926625
305,1790651176.854281,0.5531537109375001,-1.340684033203125,0.319687207031249,1.485130504416755,2.361330305558016,-1.0508772490589726,-0.8789680565634193,2.7299832689954973
306,1790651176.8792865,0.10768007812500009,-1.101182080078125,0.42027802734374897,1.1835668941712356,2.374842498840684,-1.0684546252392015,-0.8763112094599965,2.7476159695852966
307,1790651176.8992865,0.2274310546875001,-0.15275434570312502,-0.015615527343751046,0.2744132275632535,2.384531397732345,-1.0822854657421772,-0.873897965064149,2.760621210791403
308,1790651176.9088633,-0.016860937499999912,0.584911669921875,-0.4179788085937511,0.7191051642545943,2.38862616200385,-1.0876044141108951,-0.8732271735167595,2.7660339838785086
309,1790651176.9288633,-0.30905332031249994,1.3561079589843752,-0.518569628906251,1.4844046655952399,2.3954059971759545,-1.0941346696446828,-0.8734412580083643,2.774527022361873
310,1790651176.9540956,-0.05997128906249992,1.221986865234375,-0.46108916015625107,1.3074600062452195,2.4019781680474117,-1.0962587010236586,-0.8755247661808832,2.78169478475669
311,1790651176.9740956,0.2801214843750001,0.8771040527343751,-0.32217802734375106,0.9754887219412789,2.4067363180090555,-1.094541109506557,-0.8781034056516984,2.785940691371721
312,1790651176.9992115,0.2513812500000001,0.5226411621093751,-0.18326689453125106,0.6082212359115138,2.41281649852911,-1.0900710048932252,-0.8818080271088915,2.7906134895318044
313,1790651177.0192115,0.2705414062500001,0.584911669921875,-0.36049833984375107,0.7384262773876785,2.4177148104542114,-1.0853840439115123,-0.8851311828610582,2.794075990079792
314,1790651177.0287755,0.2801214843750001,0.6950825683593751,-0.576050097656251,0.9452203647061859,2.420100800453399,-1.0825608159621718,-0.8871537171535075,2.795687307706488
315,1790651177.0487754,0.2513812500000001,0.9154243652343751,-0.5664700195312511,1.105478441374619,2.4251391786765035,-1.0751267374589233,-0.8924625738448718,2.798872448552207
316,1790651177.0739117,0.2322210937500001,0.8004634277343751,-0.26469755859375105,0.8744902132375203,2.4314333278234925,-1.0639501575106272,-0.899700908714021,2.802377506771446
317,1790651177.0939116,0.2226410156250001,0.259189013671875,0.10892548828124896,0.35862616837598377,2.4363724410033147,-1.0548018037961382,-0.9048299532076305,2.8048591338592677
318,1790651177.1343877,0.05498964843750009,-0.14796430664062502,0.28136689453124897,0.3226214915548556,2.445711682503659,-1.0387268381712167,-0.9124683030504976,2.80945857459118
319,1790651177.1543877,0.10768007812500009,-0.16233442382812502,0.20472626953124898,0.2825956649009271,2.4498781748923224,-1.0324407888980927,-0.9149472763328828,2.8115770615196043
320,1790651177.1492708,0.2657513671875001,-0.15275434570312502,-0.029985644531251045,0.3079883409662935,2.4498781748923224,-1.0324407888980927,-0.9149472763328828,2.8115770615196043
321,1790651177.1692708,0.14121035156250009,-0.296455517578125,-0.09704619140625105,0.34240940489037036,2.4539750322777985,-1.0289746702486076,-0.91670608801719,2.8144506360680466
322,1790651177.193917,-0.22283261718749992,-0.5934379394531251,0.20951630859374898,0.667622682981752,2.4581154828535956,-1.026988964300824,-0.9183404891924296,2.817869286168263
323,1790651177.213917,-0.08871152343749991,-0.516797314453125,0.24304658203124896,0.5779453604395808,2.4605040782599077,-1.0272846579448887,-0.9187889876831428,2.8202069589784364
324,1790651177.254602,0.5387835937500001,-0.19107465820312503,-0.039565722656251044,0.5730294340702906,2.4660075627082585,-1.0299559248067036,-0.9189435961279983,2.8260325262182344
325,1790651177.274602,0.7687054687500001,-0.15275434570312502,-0.32217802734375106,0.8473728040953745,2.470268395955081,-1.031587842382959,-0.9195508135467763,2.830542902572112
326,1790651177.2691586,0.3998724609375001,-0.373096142578125,-0.28385771484375105,0.6161768568351179,2.470268395955081,-1.031587842382959,-0.9195508135467763,2.830542902572112
327,1790651177.2891586,0.1124701171875001,-0.684448681640625,-0.06351591796875104,0.6965298248425352,2.475605296549623,-1.0350236772884602,-0.9212832829185292,2.837015770882745
328,1790651177.3142786,0.07414980468750008,-0.46889692382812503,0.022704785156248956,0.47526626850604947,2.481654573786181,-1.0408646858826363,-0.9232097586850577,2.8450527194487543
329,1790651177.3342786,0.0645697265625001,0.062797412109375,-0.13536650390625105,0.16259414176344666,2.4859565037376457,-1.0454267395330887,-0.9246824943678227,2.850953265417829
330,1790651177.3591588,-0.05518124999999992,0.22086870117187501,-0.029985644531251045,0.22962380622850945,2.4905229190557954,-1.0497213681821815,-0.9265483264833133,2.8571158818762497
331,1790651177.3791587,-0.14140195312499992,0.158598193359375,0.29094697265624897,0.36027495081154126,2.4933481592184568,-1.0520865781961541,-0.9274317601834321,2.8607343254653164
332,1790651177.38924,-0.031231054687499916,0.23523881835937502,0.23825654296874896,0.336272004049442,2.49442812102461,-1.05280218600572,-0.9274101429149695,2.8619318068392814
333,1790651177.40924,0.02145937500000009,0.263979052734375,0.10892548828124896,0.28637424300246883,2.49623459266153,-1.0532600824372502,-0.9268529173741332,2.863494416495471
334,1790651177.4344563,-0.17972226562499993,0.302299365234375,0.266996777343749,0.44155665332371175,2.4978712693868648,-1.052679847761986,-0.9255447874574964,2.864285058073356
335,1790651177.4544563,-0.36653378906249995,0.273559130859375,0.544819042968749,0.7113433813443641,2.498155276850824,-1.0514248867190457,-0.9234451690035104,2.863393975656458
336,1790651177.479497,-0.2036724609374999,0.441210498046875,0.520868847656249,0.712357727121604,2.4973866513134095,-1.0487469515374572,-0.9192092850718728,2.8603768919986505
337,1790651177.499497,-0.08392148437499991,0.412470263671875,0.46338837890624895,0.6260218236280671,2.4964334439241416,-1.0456483918548125,-0.9148571755422755,2.8570131520475535
338,1790651177.5239687,-0.24678281249999992,0.206498583984375,0.5064987304687489,0.6000703172957453,2.494835091123625,-1.0412896881579827,-0.9085506472896705,2.8520081741216052
339,1790651177.5439687,-0.3042632812499999,0.081957568359375,0.358007519531249,0.47693036322854915,2.4928981828561305,-1.0378291104432602,-0.9028728851310889,2.847246048250095
340,1790651177.5539794,-0.16056210937499993,0.010106982421874997,0.07060517578124896,0.17569130003425495,2.491725120920669,-1.0362876645460852,-0.9001354431870315,2.844789977836504
341,1790651177.5739794,-0.06955136718749992,-0.253345166015625,-0.05872587890625105,0.26920233036592883,2.4893878830038907,-1.0340348718843322,-0.8954689604337789,2.8404479941410283
342,1790651177.5991817,-0.29947324218749993,-0.631758251953125,0.07060517578124896,0.7027003646962637,2.4861869534353973,-1.0332949073261486,-0.8904482476847515,2.8357930133815095
343,1790651177.6191816,-0.35695371093749995,-0.7179789550781249,0.16640595703124897,0.8189021151655516,2.4830431536216206,-1.0348203742894464,-0.8867060514462837,2.832420189778207
344,1790651177.6444566,-0.18930234374999994,-0.722768994140625,0.13766572265624896,0.759725113073644,2.4786306247034458,-1.0391901298420634,-0.8821098227697304,2.8287176669130134
345,1790651177.6644566,0.007089257812500088,-0.660498486328125,0.041864941406248954,0.6618619050353519,2.475389434164229,-1.0442041308483676,-0.8787490992262941,2.826679164150703
346,1790651177.6740377,-0.031231054687499916,-0.689238720703125,0.046654980468748955,0.6915215687857561,2.4740522843115285,-1.0472157117949423,-0.8773170149911291,2.8261777363305063
347,1790651177.6940377,-0.11745175781249992,-0.751509228515625,0.07060517578124896,0.7639019091509701,2.4714567193792263,-1.0547203606825912,-0.8746001393716072,2.8258554030225924
348,1790651177.7191093,-0.007280859374999913,-0.885630322265625,-0.029985644531251045,0.8861677140967774,2.468456484719662,-1.0657953317458844,-0.871628806582722,2.8264702161159754
349,1790651177.7391093,0.1124701171875001,-0.880840283203125,-0.029985644531251045,0.8884977606339174,2.4665799388570706,-1.0759544948850486,-0.8697040309424685,2.8280876526856566
350,1790651177.7643726,0.1220501953125001,-0.785039501953125,0.008334667968748955,0.7945141512224809,2.4650094641258042,-1.090018726533328,-0.8676784385069282,2.8314798878100733
351,1790651177.7843726,0.05498964843750009,-0.631758251953125,0.08497529296874896,0.6398149347751056,2.4642182323657256,-1.1016079112059614,-0.8661754282677108,2.834814166623621
352,1790651177.8094912,0.0645697265625001,-0.502427197265625,0.05623505859374896,0.5096711880767734,2.463598797181548,-1.1161165271797389,-0.8643048777492559,2.8393763500845193
353,1790651177.8294911,0.2657513671875001,-0.483267041015625,-0.029985644531251045,0.5523313869154801,2.463675051460737,-1.1274143381217496,-0.862999535741338,2.8435059429658893
354,1790651177.8395603,0.2705414062500001,-0.665288525390625,0.008334667968748955,0.7182415618733777,2.4641126838019844,-1.1331164783304992,-0.8624572801154216,2.8459860913156305
355,1790651177.8595603,0.05498964843750009,-0.660498486328125,0.11371552734374896,0.67246809071962,2.465339846269089,-1.144732232307726,-0.8613587003651174,2.8513595444946978
356,1790651177.8993611,0.01666933593750009,-0.420996533203125,0.08497529296874896,0.4298101303421918,2.467629546390144,-1.1676090686843366,-0.8589073045020724,2.8618574865318758
357,1790651177.919361,0.33760195312500013,-0.353935986328125,-0.020405566406251047,0.4895530086846953,2.469138942817377,-1.178542753438505,-0.8577633955806983,2.867292831822006
358,1790651177.9141085,0.5196234375000001,-0.454526806640625,0.013124707031248956,0.6904892415446433,2.469138942817377,-1.178542753438505,-0.8577633955806983,2.867292831822006
359,1790651177.9341085,0.2992816406250001,-0.42578657226562505,0.11850556640624896,0.5337670604356998,2.4725507995125042,-1.1887935985604496,-0.8567487592499979,2.8741531122444814
360,1790651177.9592419,0.1124701171875001,-0.234185009765625,0.03707490234374896,0.2624246452658256,2.476971393331895,-1.200987284945039,-0.8553716862424379,2.8826061929457927
361,1790651177.9792418,0.1603705078125001,-0.272505322265625,-0.049145800781251046,0.31998931259272034,2.4803707033318703,-1.209995018283472,-0.854458352915415,2.8890181458559208
362,1790651178.0192409,0.2034808593750001,-0.420996533203125,-0.006035449218751046,0.4676312305100148,2.4872409195896226,-1.2273882538437564,-0.8530712629232239,2.9018235469063383
363,1790651178.0392408,0.1747406250000001,-0.430576611328125,-0.010825488281251046,0.46480931084126254,2.4907281628008615,-1.2360579137018557,-0.8525070270032333,2.908321539665831
364,1790651178.0342891,0.1124701171875001,-0.526377392578125,-0.03477568359375105,0.5393811591508626,2.4907281628008615,-1.2360579137018557,-0.8525070270032333,2.908321539665831
365,1790651178.054289,0.13163027343750008,-0.464106884765625,-0.12578642578125104,0.4985418280173754,2.49398003960479,-1.2450275831398359,-0.8523983509241093,2.914895035740442
366,1790651178.0797777,0.3759222656250001,-0.39704633789062505,-0.09225615234375105,0.5545038700228005,2.4984729518401507,-1.2563903518101667,-0.8526974459453467,2.9236923130726717
367,1790651178.0997777,0.4429828125000001,-0.373096142578125,-0.015615527343751046,0.5793775526125519,2.5026979181468776,-1.2651241199098933,-0.853058738865383,2.93116787650061
368,1790651178.1241846,0.3136517578125001,-0.286875439453125,-0.049145800781251046,0.42789046808117287,2.508465486529425,-1.2753917009597142,-0.8535520528754322,2.9406758058232265
369,1790651178.1441846,0.2513812500000001,-0.19586469726562503,-0.14015654296875105,0.3481369974930399,2.513330281546598,-1.283267420890887,-0.8541796108695981,2.9484279176002235
370,1790651178.1542668,0.2082708984375001,-0.19586469726562503,-0.12099638671875106,0.3104510788673667,2.5157624002697103,-1.2869383473033855,-0.8546459924282204,2.952234837668643
371,1790651178.1742668,0.2609613281250001,-0.277295361328125,-0.10183623046875105,0.3941625933887486,2.5205671182685703,-1.2938377488663975,-0.8557666213538285,2.959664039770686
372,1790651178.2141285,0.3088617187500001,-0.32998579101562503,-0.09225615234375105,0.46129966532253774,2.5304104591825562,-1.3073417270581713,-0.8582453681853669,2.974677225390942
373,1790651178.2341285,0.1795306640625001,-0.301245556640625,0.008334667968748955,0.3507842804696236,2.5353409795041983,-1.3140476735367723,-0.8594283722427128,2.982162352672381
374,1790651178.244697,0.1843207031250001,-0.229394970703125,0.08497529296874896,0.306295567384686,2.5378440106551614,-1.3174803718710977,-0.8598857764969414,2.9859354147914234
375,1790651178.264697,0.2753314453125001,-0.138384228515625,0.051445019531248956,0.3124166921185639,2.542559699203411,-1.3235536525017415,-0.8604168965680382,2.9927781960853386
376,1790651178.3048463,0.2609613281250001,-0.16233442382812502,0.06102509765624896,0.3133326387089734,2.5522211618864272,-1.3348222744634237,-0.860984500661391,3.0061399957360195
377,1790651178.3248463,0.1555804687500001,-0.224604931640625,0.14724580078124896,0.3103771631764664,2.556936831596018,-1.34017404411483,-0.8609124296003784,3.0125010607021885
378,1790651178.3193858,0.1460003906250001,-0.296455517578125,0.15203583984374897,0.36375387910256113,2.556936831596018,-1.34017404411483,-0.8609124296003784,3.0125010607021885
379,1790651178.3393857,0.2561712890625001,-0.34914594726562503,0.09455537109374897,0.44324636494237624,2.561331675134418,-1.3456734504008747,-0.8601088880672522,3.0184506430440377
380,1790651178.3791296,0.2178509765625001,-0.382676220703125,0.07060517578124896,0.4459655017240267,2.570168043734129,-1.3571440031490294,-0.8582593027801313,3.030546592468779
381,1790651178.3991296,0.12684023437500008,-0.34914594726562503,0.03707490234374896,0.3733174064145872,2.574464732326236,-1.363148128770082,-0.8573066445628565,3.036612613056298
382,1790651178.4094048,0.1651605468750001,-0.34914594726562503,0.03707490234374896,0.38801475116270806,2.576566093083909,-1.3663082176672117,-0.8568334827582772,3.039680015210534
383,1790651178.4294047,0.2753314453125001,-0.32998579101562503,0.013124707031248956,0.42996544626834154,2.5807034885908986,-1.3725552163807881,-0.8559753469432295,3.0457564105840653
384,1790651178.439565,0.2322210937500001,-0.41620649414062505,0.06102509765624896,0.4804982254818755,2.582876817147964,-1.3758213383023399,-0.8555482926616522,3.048950620880028
385,1790651178.459565,0.10289003906250009,-0.363516064453125,0.15682587890624897,0.4090533529363728,2.5870158804917565,-1.3824557718516406,-0.8545069724712596,3.0551624004370783
386,1790651178.484573,0.1699505859375001,-0.19107465820312503,0.21909638671874895,0.3367431563390001,2.5919267794173324,-1.3905472983760527,-0.8526951375307915,3.0624818720198657
387,1790651178.5045729,0.2370111328125001,-0.08090375976562501,0.266996777343749,0.3660696307169252,2.5958755661443025,-1.396455746350348,-0.8507343442109261,3.067964721250866
388,1790651178.5291684,0.0693597656250001,0.014897021484374998,0.439438183593749,0.445127639601086,2.6005684221223957,-1.4027536645155456,-0.8473815738919547,3.0738785748990747
389,1790651178.5491683,0.011879296875000087,0.192128466796875,0.587929394531249,0.6186399909493755,2.603933901533149,-1.4067961387517531,-0.843523147104609,3.0775117285335813
390,1790651178.559745,0.1507904296875001,0.393310107421875,0.554399121093749,0.6962678936695769,2.6055757608334904,-1.4081488746536264,-0.8408825837961682,3.07879713822834
391,1790651178.579745,0.1603705078125001,0.6280220214843751,0.544819042968749,0.8467338122614116,2.6086814643724616,-1.4087911320866804,-0.8349895773002365,3.080116723536066
392,1790651178.603697,-0.09829160156249991,0.8627339355468752,0.650199902343749,1.0847723242642862,2.6119544689058802,-1.4067669304691308,-0.826843992172891,3.079767902243827
393,1790651178.623697,-0.031231054687499916,0.9681147949218751,0.621459667968749,1.150840455421752,2.6140832064436808,-1.4025839789553065,-0.8191551597410268,3.077610762257521
394,1790651178.6492574,0.08851992187500009,0.9872749511718751,0.559189160156249,1.1380861666044604,2.616505514914508,-1.3942914292810369,-0.808539311881629,3.073090548324701
395,1790651178.6692574,-0.045601171874999916,1.3225776855468752,0.635829785156249,1.4681861996609096,2.6181809490851777,-1.3853113516128481,-0.7996862779208592,3.0681357802670495
396,1790651178.6786098,0.04061953125000009,1.456698779296875,0.640619824218749,1.5918589884490513,2.6188434052260745,-1.3797924790768115,-0.7952720356120696,3.0650653626047846
397,1790651178.6986098,0.2944916015625001,1.097445849609375,0.48254853515624896,1.2344900910890826,2.6205502210484823,-1.365929585558662,-0.7855634959431825,3.0578026587568043
398,1790651178.7236385,0.1555804687500001,0.7094526855468751,0.329267285156249,0.7974618112237787,2.6232106509867505,-1.347791509709587,-0.7737124159581872,3.04900097994465
399,1790651178.7436385,-0.09350156249999991,0.460370654296875,0.26220673828124896,0.5379926162390759,2.6251107850314006,-1.3337170423711506,-0.7647757216745871,3.04218501857831
400,1790651178.768534,-0.16056210937499993,0.23523881835937502,0.266996777343749,0.39039053746474434,2.6266468578970392,-1.3175266447047544,-0.7543320856430927,3.0338370211726957
401,1790651178.788534,0.01666933593750009,0.192128466796875,0.17598603515624897,0.2610791050320413,2.6274799349172673,-1.3058298905045327,-0.7465361165991887,3.0275664624769054
402,1790651178.7991362,0.2944916015625001,0.206498583984375,-0.05872587890625105,0.3644388802415433,2.628102740755085,-1.3002424109218373,-0.7429300469251732,3.024813944319297
403,1790651178.8191361,0.2465912109375001,-0.009053173828125004,-0.15452666015625105,0.2911488862541473,2.6299129921638857,-1.290987089174349,-0.737467831237848,3.0210840459805013
404,1790651178.8438048,0.10289003906250009,-0.238975048828125,-0.25032744140625107,0.3610529906006701,2.632457490245639,-1.281742510263896,-0.732490174102231,3.018151446783988
405,1790651178.8638048,0.1891107421875001,-0.320405712890625,-0.4467190429687511,0.5813609868356955,2.6346489858114652,-1.2762108463260138,-0.7301054804847842,3.0171415968349016
406,1790651178.889339,0.2513812500000001,-0.253345166015625,-0.48982939453125107,0.6060603449673136,2.6378707716026097,-1.27130663879181,-0.7293111527527444,3.0176940757871753
407,1790651178.909339,0.4621429687500001,-0.11922407226562501,-0.37486845703125105,0.6068911459641289,2.6410860392107693,-1.2686003965941093,-0.7300793552735533,3.0195526651723443
408,1790651178.933512,0.5292035156250001,-0.291665478515625,-0.22158720703125107,0.6436039175047948,2.6461865464666707,-1.2665650599437304,-0.7319499316635538,3.0236138960247145
409,1790651178.953512,0.7112250000000001,-0.334775830078125,-0.37007841796875107,0.8688347900928872,2.6516341838747217,-1.2660733447002819,-0.7341529358223823,3.028710301833132
410,1790651178.9640791,0.8309759765625001,-0.526377392578125,-0.4371389648437511,1.0764221790849595,2.6553030047407082,-1.266535010085864,-0.735782069406769,3.032510549432391
411,1790651178.9840791,0.8645062500000001,-0.5311674316406251,-0.518569628906251,1.139484250329388,2.6637484480523637,-1.2688640308577512,-0.7398365026165578,3.041862878880285
412,1790651179.0091958,1.0177875,-0.454526806640625,-0.46108916015625107,1.2062707932818282,2.676309394037749,-1.2732069700419264,-0.746009881286315,3.0561771388705314
413,1790651179.0291958,1.1040082031250003,-0.420996533203125,-0.34612822265625104,1.231209543520321,2.687993839592358,-1.277459730262203,-0.7513990979647258,3.0694974912109396
414,1790651179.0540738,0.9794671875000002,-0.310825634765625,-0.2886477539062511,1.067373445637345,2.7042354598404774,-1.283321718018489,-0.7582816067185154,3.0878463448306777
415,1790651179.0740738,0.9890472656250001,-0.325195751953125,-0.32217802734375106,1.0898465268246529,2.718286669207064,-1.2882814408221934,-0.76390089216502,3.103594055253724
416,1790651179.0840812,1.0225775390625,-0.301245556640625,-0.37486845703125105,1.1300177294484497,2.7257726791634513,-1.2908610587302405,-0.7668140243453709,3.1119387396529516
417,1790651179.1040812,0.9698871093750001,-0.41620649414062505,-0.4371389648437511,1.1423656705631913,2.741478191233195,-1.2963193474125105,-0.7729807014717122,3.129480098727411
418,1790651179.129177,1.0513177734375,-0.6748686035156249,-0.47066923828125107,1.3350079492725748,2.7620336546596915,-1.3041946571134262,-0.7812666189033275,3.152797352023853
419,1790651179.149177,1.142328515625,-0.741929150390625,-0.4275588867187511,1.4276483822781953,2.7792483871935714,-1.3116545847133159,-0.7882268383848322,3.1726898518556266
420,1790651179.1743062,1.0465277343750001,-0.626968212890625,-0.45150908203125106,1.3008343053394764,2.801758791969155,-1.3222016245784851,-0.7973170243738871,3.19902858720751
421,1790651179.1943061,0.8549261718750001,-0.5934379394531251,-0.513779589843751,1.160619151263336,2.8198394034214505,-1.3311673722258097,-0.8049145251674972,3.2204639769437615
422,1790651179.2040775,0.7782855468750002,-0.746719189453125,-0.6047903320312511,1.2365634986083494,2.8285448684652783,-1.3358728271578253,-0.8088893805138493,3.231025272752904
423,1790651179.2240775,0.7160150390625001,-0.923950634765625,-0.6718508789062511,1.3482380780613552,2.8459319019363813,-1.346565280889245,-0.8177197101176715,3.252880565048537
424,1790651179.248744,0.8357660156250001,-0.986221142578125,-0.7628616210937511,1.501031254797706,2.8670300193343583,-1.361308293968583,-0.8296310085271724,3.2804434171772936
425,1790651179.268744,0.9890472656250001,-1.091602001953125,-0.8203420898437511,1.686051769275657,2.8843078872865506,-1.3745857902274496,-0.8402149816605324,3.3037371715627497
426,1790651179.2938623,0.8980365234375002,-1.187402783203125,-0.8586624023437511,1.7186320397877441,2.906307578284652,-1.3930532913773688,-0.8546767372041291,3.3343205510763383
427,1790651179.3138623,0.7639154296875001,-1.307153759765625,-0.7916018554687511,1.7084645834683307,2.9236897929688412,-1.4092938420003145,-0.8669397805049576,3.359413002539607
428,1790651179.3238945,0.7974457031250002,-1.4221146972656251,-0.6718508789062511,1.7634379674654077,2.9322758006661416,-1.418271829729672,-0.8732694701284498,3.372289418427107
429,1790651179.3438945,0.8453460937500001,-1.321523876953125,-0.7389114257812511,1.734077700313825,2.949289369666571,-1.4376008954553743,-0.886111560809083,3.398558197065609
430,1790651179.3686585,0.7160150390625001,-1.120342236328125,-0.7293313476562511,1.5164987561282275,2.9700956249703965,-1.4624795158489559,-0.9023544961740164,3.4314075818112233
431,1790651179.3886585,0.8453460937500001,-1.201772900390625,-0.5808401367187511,1.579950438069225,2.9867207015847033,-1.4830413115443253,-0.9154701697939666,3.4580337928950793
432,1790651179.413759,0.9603070312500002,-1.426904736328125,-0.23595732421875107,1.7360652578968043,3.0078550563737005,-1.509924616614883,-0.9309992397150807,3.491965631612444
433,1790651179.433759,0.9890472656250001,-1.350264111328125,0.16161591796874897,1.6815312571944365,3.0250929084230944,-1.5322978240940157,-0.9416282416780463,3.519344750353486
434,1790651179.4437056,1.1471185546875002,-1.048491650390625,0.468178417968749,1.6230855647497198,3.0339734365505824,-1.5435451128034166,-0.9456516196635667,3.532956738303795
435,1790651179.4637055,1.1519085937500002,-0.626968212890625,0.429858105468749,1.3801306239510625,3.052599930913601,-1.5652813532847083,-0.9511810330687732,3.5599462651596734
436,1790651179.489544,0.9555169921875001,-0.45931684570312503,0.03707490234374896,1.0608295034969164,3.0771382141675887,-1.5912557023302534,-0.9563481995426211,3.5938108155629807
437,1790651179.509544,0.7255951171875001,-0.641338330078125,-0.15931669921875105,0.9814198583499817,3.0958044871636603,-1.6099961293960139,-0.9599312242311261,3.619055251673656
438,1790651179.5336561,0.7926556640625001,-0.986221142578125,-0.15452666015625105,1.2746817769692602,3.117678763769089,-1.632144072584809,-0.964170561928429,3.648758695805995
439,1790651179.553656,0.9650970703125001,-0.866470166015625,-0.21200712890625106,1.3142031526472562,3.135737540495828,-1.6505382018010462,-0.9677092473267269,3.6733618751548445
440,1790651179.5635734,0.9459369140625001,-0.703608837890625,-0.31259794921875106,1.2196636913508783,3.144770440931233,-1.6594588474986744,-0.9695909446562232,3.685578840922522
441,1790651179.5835733,0.8692962890625001,-0.598227978515625,-0.26469755859375105,1.0879418872266189,3.162977320330663,-1.6767032080405895,-0.9736824581291081,3.7099618200256574
442,1790651179.6088858,0.8836664062500001,-0.579067822265625,-0.11620634765625106,1.062868653952053,3.1858917795394746,-1.6974893453170918,-0.9788071426182885,3.740245971970671
443,1790651179.6288857,0.9986273437500002,-0.507217236328125,-0.08746611328125105,1.1234661621455497,3.204104713142955,-1.713078872557054,-0.9825544215198128,3.763819792130646
444,1790651179.6537087,0.9746771484375001,-0.5120072753906251,-0.12578642578125104,1.1081377254881317,3.2269926711659163,-1.731422967788151,-0.9869047291015638,3.7927942387461377
445,1790651179.6737087,0.8884564453125001,-0.473686962890625,-0.049145800781251046,1.0080424116892595,3.2454621742479515,-1.7454644511795294,-0.9901464329255198,3.8157647770061542
446,1790651179.7136626,0.8645062500000001,-0.38746625976562504,-0.025195605468751048,0.9477003626045326,3.2820770433737496,-1.7718879982656666,-0.995873757297919,3.8604897794857016
447,1790651179.7336626,0.8405560546875002,-0.229394970703125,-0.09704619140625105,0.8766838066955281,3.3002138756734753,-1.7840562302909941,-0.998494036033746,3.8821718918696546
448,1790651179.7286952,0.8118158203125001,-0.248555126953125,-0.17847685546875106,0.8675704957998255,3.3002138756734753,-1.7840562302909941,-0.998494036033746,3.8821718918696546
449,1790651179.7486951,0.8549261718750001,-0.32998579101562503,-0.19763701171875106,0.9374698768654744,3.3179246197454635,-1.7943249742719927,-1.0013026492328745,3.902669969517028
450,1790651179.7743268,0.9124066406250001,-0.382676220703125,-0.17847685546875106,1.0053760270099135,3.3406152393925703,-1.806881201807349,-1.0050852350607355,3.928705408253938
451,1790651179.7943268,0.9842572265625001,-0.33956586914062503,-0.23595732421875107,1.0675875263313102,3.3585095922591397,-1.8162923746336013,-1.0082156534971185,3.949050958826113
452,1790651179.8192465,0.9698871093750001,-0.344355908203125,-0.30301787109375106,1.0728848151821246,3.3811135869137394,-1.827537893499711,-1.0125383838046542,3.9745512725926426
453,1790651179.8392465,0.8166058593750001,-0.38746625976562504,-0.36049833984375107,0.9731054850592744,3.3992135254095706,-1.8363071975062606,-1.0164825772108443,3.9949860506281945
454,1790651179.8493245,0.7160150390625001,-0.492847119140625,-0.2790676757812511,0.9129373399499203,3.4081243982080984,-1.8407285899300538,-1.0186553419336266,4.005153225670288
455,1790651179.8693244,0.9219867187500002,-0.598227978515625,-0.22637724609375107,1.122133183440929,3.4256126938468157,-1.8498234216481766,-1.023078634221618,4.025339601986816
456,1790651179.8939776,1.0608978515625,-0.660498486328125,-0.19284697265625106,1.264496918443993,3.447602595920703,-1.8616800115952865,-1.028488332376408,4.05087698835783
457,1790651179.9139776,0.9555169921875001,-0.626968212890625,-0.16889677734375105,1.1552610024282026,3.4657906843168864,-1.871787100430869,-1.0327612865311602,4.072086429804089
458,1790651179.9391587,0.8597162109375002,-0.579067822265625,-0.14494658203125105,1.0466331820531622,3.4886837127827035,-1.8848813595562015,-1.0379269024006892,4.09890034547863
459,1790651179.9591587,0.9938373046875001,-0.6125980957031251,-0.16410673828125105,1.1789486997307903,3.5069193543976334,-1.8955089228905342,-1.041877841217452,4.120309074696494
460,1790651179.9687364,0.9842572265625001,-0.689238720703125,-0.21200712890625106,1.2201472554015997,3.515763187365013,-1.9007700738716011,-1.0437562642537155,4.130731751460717
461,1790651179.9887364,0.9219867187500002,-0.6796586425781249,-0.25511748046875105,1.173490651357417,3.5343198697449747,-1.9121616728253243,-1.0477910485179962,4.152787652415028
462,1790651180.0289714,0.8549261718750001,-0.708398876953125,-0.13536650390625105,1.1185042774192202,3.571413690927831,-1.9358298453335834,-1.0558688285352418,4.197295787159082
463,1790651180.0489714,1.0656878906250002,-0.732349072265625,-0.11620634765625106,1.2982795381229304,3.58996737406858,-1.9479911670900851,-1.0596591856889257,4.219646066171044
464,1790651180.07445,1.2477093750000001,-0.904790478515625,-0.18805693359375106,1.5526718599717422,3.6144787334258557,-1.9642883540932974,-1.0643449572891583,4.249201741565255
465,1790651180.09445,0.9746771484375001,-1.091602001953125,-0.06351591796875104,1.4647951208922496,3.634166924801785,-1.978156845863802,-1.0678487845637903,4.273239376732299
466,1790651180.0893888,0.8692962890625001,-1.254463330078125,0.18556611328124897,1.5374618912632736,3.634166924801785,-1.978156845863802,-1.0678487845637903,4.273239376732299
467,1790651180.1093888,0.9650970703125001,-1.522705517578125,0.34363740234374895,1.8352468805798843,3.6534942943764968,-1.9953338109123813,-1.0694308814026876,4.298029779574529
468,1790651180.1340115,1.6309125000000002,-1.834058056640625,0.06581513671874896,2.4551937133362705,3.678513760413033,-2.019507839318305,-1.0703303537510527,4.330760033155494
469,1790651180.1540115,1.5830121093750003,-2.274741650390625,-0.24074736328125107,2.7817865136233273,3.700608576292839,-2.042361259724289,-1.0712137653173202,4.360417672787781
470,1790651180.1796234,1.180648828125,-2.4759232910156252,-0.652690722656251,2.8195980170563533,3.7299676030677618,-2.076362849674892,-1.0738915609637971,4.401952304166228
471,1790651180.1996233,0.9219867187500002,-2.5956742675781252,-1.294555957031251,3.0435931953537625,3.752608722188271,-2.1065389270249217,-1.0785898255276058,4.436545332197842
472,1790651180.2092636,1.0465277343750001,-2.892656689453125,-1.529267871093751,3.435308318537595,3.763308274141826,-2.122870508316891,-1.0825564201993394,4.454323378945533
473,1790651180.2292635,1.3530902343750002,-3.002827587890625,-1.2370754882812511,3.518264127188907,3.785775759760987,-2.160513557481508,-1.0937007993757415,4.494006939670923
474,1790651180.2541199,1.5686419921875001,-2.772905712890625,-0.8251321289062511,3.2909704985594743,3.814957064274505,-2.211046750488527,-1.109318084006333,4.546780371494461
475,1790651180.2741199,1.6788128906250002,-2.1597807128906252,-0.8778225585937511,2.8729145295116396,3.8397862053492777,-2.253006929027951,-1.1225536397608415,4.591309725903805
476,1790651180.2992425,1.5590619140625002,-1.7813676269531251,-1.093374316406251,2.607568229215426,3.87239740797125,-2.305234275347056,-1.1403995445883237,4.648664095285287
477,1790651180.3192425,0.9794671875000002,-1.695146923828125,-0.8586624023437511,2.137797975944373,3.898272538857654,-2.345790230535889,-1.1554035595254484,4.694061991309169
478,1790651180.344059,0.5435736328125002,-1.431694775390625,-0.31259794921875106,1.5629906276192318,3.9283978543182325,-2.3943845085648756,-1.1734083310912602,4.747870468761962
479,1790651180.364059,0.7591253906250002,-0.8952104003906249,-0.19763701171875106,1.1902661080868513,3.95098855824927,-2.4311632599882835,-1.186507439118908,4.788388589830405
480,1790651180.3741655,0.9938373046875001,-0.641338330078125,-0.42276884765625106,1.2560895431315824,3.9620206610479975,-2.4481255056522087,-1.1926041534674947,4.807622164528325
481,1790651180.3941655,0.5914740234375001,-0.6988187988281249,-0.4467190429687511,1.0186987471023239,3.9829554346675886,-2.4786674850948747,-1.2041635063259255,4.8433187223413015
482,1790651180.4189088,0.2370111328125001,-0.411416455078125,-0.2694875976562511,0.5459499444790272,4.006507736408843,-2.5128455054529972,-1.2176483294773306,4.883560609888872
483,1790651180.4389088,0.2226410156250001,0.034057177734375,-0.18326689453125106,0.29037160299328696,4.023378905480952,-2.536893672575279,-1.227592255604094,4.912269340034271
484,1790651180.4638143,0.46693300781250013,0.024477099609374997,-0.23595732421875107,0.5237379316438598,4.042524801084793,-2.5622388962469897,-1.2389007982224705,4.9438800669780525
485,1790651180.4838142,0.8549261718750001,-0.18149458007812502,-0.21200712890625106,0.8993253386075858,4.057576213659393,-2.579774591856487,-1.2472917412570832,4.96738345230675
486,1790651180.493765,1.0465277343750001,-0.200654736328125,-0.13536650390625105,1.0741539519113548,4.065360731274169,-2.5874758632810093,-1.2510996275581263,4.978698574579901
487,1790651180.513765,0.9171966796875002,0.048427294921875,-0.20242705078125106,0.9405167000171875,4.081605312089707,-2.6008609842169665,-1.2581116747088998,5.000682430322865
488,1790651180.5389814,0.5339935546875001,0.263979052734375,-0.11141630859375105,0.6060096125895925,4.101759084585805,-2.614614927421428,-1.2662200027819859,5.026325884990184
489,1790651180.5589814,0.2513812500000001,0.340619677734375,0.11371552734374896,0.43834406448644764,4.11652412109285,-2.6229804623534436,-1.271682907925174,5.044102969184528
490,1790651180.5842743,0.6441644531250001,0.43642045898437504,0.14245576171874896,0.7910147304170966,4.134094588986663,-2.6304989602670843,-1.2770692995708102,5.063710975812235
491,1790651180.6042743,1.0704779296875002,0.163388232421875,-0.07788603515625105,1.0856725781350205,4.148476108666966,-2.634652621846903,-1.2805927759572204,5.078500400691054
492,1790651180.6145804,0.8836664062500001,-0.18149458007812502,-0.34133818359375107,0.9645301217233221,4.156285838937975,-2.636485964755848,-1.2824601387915964,5.086302608467204
493,1790651180.6345804,0.3040716796875001,-0.286875439453125,-0.15931669921875105,0.44736888000771713,4.170949623989035,-2.6402126251778006,-1.286291342457961,5.101185047583045
494,1790651180.6596131,0.33760195312500013,0.048427294921875,0.16640595703124897,0.37948810809134836,4.187755040661176,-2.6446250701977205,-1.2903540244398912,5.118236761902444
495,1790651180.679613,0.7878656250000001,0.22086870117187501,0.30531708984374895,0.873346295328862,4.200855958219362,-2.6472176598380117,-1.2924054463982415,5.130815135838086
496,1790651180.7047186,0.8118158203125001,0.029267138671874998,0.12808564453124896,0.82237912415788,4.217846481898737,-2.6495129274336726,-1.2937782216619602,5.146261729095255
497,1790651180.7247186,0.4381927734375001,0.038847216796875,-0.08746611328125105,0.4485223895395194,4.231226497834665,-2.6509649791213663,-1.2946468568287612,5.158197696909527
498,1790651180.7342956,0.3998724609375001,0.115487841796875,-0.08267607421875105,0.42434745182142547,4.237274454544403,-2.651445144178968,-1.2951226218864673,5.163525807183196
499,1790651180.7542956,0.7112250000000001,0.134647998046875,0.11850556640624896,0.7334948215715618,4.249676692814876,-2.651922271109338,-1.295913397689635,5.174150680041236
500,1790651180.7790003,0.7926556640625001,-0.023423291015625004,0.19035615234374897,0.8155287346669535,4.265484897892274,-2.6522171478491767,-1.2961713980757001,5.187357468565454
501,1790651180.7990003,0.5339935546875001,-0.028213330078125005,0.20951630859374898,0.5743188940028358,4.278352932991087,-2.65249751554792,-1.2957491271582542,5.197981597673533
502,1790651180.8240774,0.4094525390625001,-0.009053173828125004,0.13766572265624896,0.43207081930576813,4.293841818421263,-2.6528664154632464,-1.294646106113406,5.210651237608466
503,1790651180.8440773,0.5914740234375001,-0.07132368164062501,-0.07309599609375105,0.6002263011640321,4.305843254814431,-2.6532370610409783,-1.2938015042103823,5.220524434327394
504,1790651180.8542218,0.4238226562500001,-0.12401411132812501,-0.21679716796875106,0.4919412117302038,4.311790033482708,-2.653545481261561,-1.2936579231276708,5.225551428895851
505,1790651180.8742218,0.1603705078125001,-0.14796430664062502,-0.15452666015625105,0.2673773074042103,4.322631862219238,-2.6544702953778745,-1.293974296895429,5.235048065332588
506,1790651180.8993127,0.3855023437500001,-0.38746625976562504,-0.09225615234375105,0.5543043903296991,4.335220450536749,-2.6564640693250055,-1.2947760678412163,5.246654436135582
507,1790651180.9193127,0.5818939453125002,-0.6988187988281249,-0.17368681640625105,0.9258052642863234,4.34520075207061,-2.6594443468791087,-1.295718209746978,5.256643367112911
508,1790651180.9439132,0.47651308593750014,-0.847310009765625,-0.17368681640625105,0.9875049791834175,4.357588182954911,-2.665412960410312,-1.2973441578336686,5.270303870330125
509,1790651180.9639132,0.2274310546875001,-0.770669384765625,0.0035446289062489545,0.8035351576909243,4.367204333694953,-2.6719644900713755,-1.2987229693578934,5.281907731074459
510,1790651180.9739895,0.46693300781250013,-0.866470166015625,0.24783662109374896,1.0149975237088706,4.371847123820813,-2.676007354764292,-1.2991234608734725,5.2878903547071365
511,1790651180.9939895,0.5339935546875001,-1.249673291015625,0.554399121093749,1.4677161974288955,4.381181494477793,-2.686002398039381,-1.2985957889459643,5.30053876439897
512,1790651181.0195434,0.5675238281250001,-1.1442924316406249,0.554399121093749,1.3924248094849467,4.3934301359340555,-2.701445594954309,-1.2958976518227043,5.317836720493698
513,1790651181.0395434,0.6633246093750002,-0.928740673828125,0.29573701171874894,1.1789907364884389,4.403424922952943,-2.714828863798747,-1.2928274894614276,5.3321524480555755
514,1790651181.079353,0.6729046875000001,-0.9766410644531249,0.16161591796874897,1.1969745996371381,4.424324860240371,-2.74316115527363,-1.2862675073490966,5.362281948313161
515,1790651181.099353,0.7064349609375001,-1.110762158203125,0.11850556640624896,1.321698337518852,4.4353187920897605,-2.7583910282611552,-1.2830460087879885,5.378380882098533
516,1790651181.1095805,0.7399652343750002,-1.201772900390625,0.23825654296874896,1.4312836310334731,4.441206961097359,-2.7667847955765454,-1.2813720733920262,5.387145047871105
517,1790651181.1295805,0.7303851562500001,-1.287993603515625,0.38195771484374896,1.529144105405426,4.453199758831422,-2.7844715043920676,-1.2776593489264767,5.405245883651075
518,1790651181.1396644,0.6968548828125001,-1.1442924316406249,0.44422822265624895,1.4115065039219505,4.459418885538657,-2.7938909618292236,-1.2754433596024826,5.414702140177604
519,1790651181.1596644,0.6681146484375001,-0.741929150390625,0.48254853515624896,1.1089134936673648,4.471950863560162,-2.8126001003605468,-1.270317366299445,5.433485995359387
520,1790651181.1842098,0.6729046875000001,-0.34914594726562503,0.477758496093749,0.896078563263983,4.487492687510332,-2.834125701660886,-1.2632021870276438,5.455780318028296
521,1790651181.2042098,0.6154242187500001,-0.243765087890625,0.45380830078124895,0.8025648640180659,4.500189331170003,-2.849923539377171,-1.2568769177063304,5.472979790108437
522,1790651181.2289698,0.6010541015625002,-0.334775830078125,0.48254853515624896,0.8403534840714612,4.515809027232988,-2.8676219759617347,-1.2484820131430807,5.493131557190255
523,1790651181.2489698,0.5196234375000001,-0.25813520507812504,0.544819042968749,0.795908343015341,4.5282143753617925,-2.880662918383261,-1.241177102333634,5.508490253956965
524,1790651181.27424,0.3950824218750001,-0.009053173828125004,0.530448925781249,0.6614742193717446,4.543271151342465,-2.8951750950714032,-1.2312938141896819,5.52624972676807
525,1790651181.29424,0.4429828125000001,0.206498583984375,0.439438183593749,0.6572528847849477,4.554657360876707,-2.9046416729963913,-1.2231902215005281,5.538776150149973
526,1790651181.3039808,0.3998724609375001,0.129857958984375,0.487338574218749,0.6436302979578908,4.559986846411099,-2.9083149710059146,-1.219158382360121,5.544197252199665
527,1790651181.3239808,0.1220501953125001,0.158598193359375,0.544819042968749,0.5804114288106847,4.570070905486124,-2.914293035557545,-1.2105736624536287,5.553750135763794
528,1790651181.3487191,0.0022992187500000872,0.23523881835937502,0.45380830078124895,0.5111600159714568,4.580903790574558,-2.919847533890388,-1.1996950394601837,5.563223647074735
529,1790651181.368719,0.1939007812500001,0.158598193359375,0.21909638671874895,0.3327974257403889,4.588642368327326,-2.9230737888636904,-1.1912099746100753,5.569468588937465
530,1790651181.37915,0.46693300781250013,0.034057177734375,0.08018525390624896,0.47499052630980837,4.592589934503208,-2.924353303444776,-1.1872143294720436,5.572540032514106
531,1790651181.39915,0.4429828125000001,-0.095273876953125,0.08018525390624896,0.4601527558801523,4.600388491635931,-2.9265304622603554,-1.1804617308576435,5.578677685485473
532,1790651181.4242682,0.4286126953125001,0.005316943359374998,-0.15452666015625105,0.45564855005670585,4.610355670763242,-2.929024114383396,-1.1733931729613176,5.586717570446035
533,1790651181.4442682,0.4717230468750001,-0.109643994140625,-0.4083987304687511,0.6335092433837336,4.618451913829632,-2.9308682970355333,-1.1694535929456542,5.593541701013595
534,1790651181.469778,0.47651308593750014,-0.40662641601562505,-0.4562991210937511,0.7749959039777703,4.629043810503991,-2.933855450627058,-1.1668367948719154,5.603308175587559
535,1790651181.489778,0.5339935546875001,-0.5934379394531251,-0.3078079101562511,0.8556070441417145,4.637618104551197,-2.937346211841025,-1.1662390964737357,5.612095694303664
536,1790651181.499162,0.8166058593750001,-0.6748686035156249,-0.14973662109375105,1.0699129951885273,4.641988220910983,-2.939631012456794,-1.1663227412712107,5.616920318936389
537,1790651181.519162,1.0034173828125001,-0.526377392578125,-0.20721708984375106,1.1518934524820195,4.652635193230496,-2.9455720440097366,-1.1670097029553053,5.628971536127225
538,1790651181.5446932,1.1327484375,-0.310825634765625,-0.4179788085937511,1.246770982305731,4.668278450489785,-2.9536216597498672,-1.168952266413633,5.6465169796436845
539,1790651181.5646932,1.142328515625,-0.291665478515625,-0.5281497070312511,1.2918689182749776,4.682107108989256,-2.9598852236967987,-1.1716649116606914,5.6617882495483025
540,1790651181.588794,1.1758587890625,-0.420996533203125,-0.5904202148437511,1.3814767471371787,4.700461843923782,-2.967589071257646,-1.1764653117961261,5.681988830672825
541,1790651181.608794,1.0848480468750001,-0.555117626953125,-0.576050097656251,1.3479186101439313,4.716799792704301,-2.9744873092515864,-1.1816010770775094,5.700171588882637
542,1790651181.619598,0.9794671875000002,-0.7946195800781249,-0.513779589843751,1.3618904931648173,4.725974357710298,-2.9787484437829885,-1.1848423390396232,5.710659094137535
543,1790651181.639598,1.0656878906250002,-1.0245414550781249,-0.4562991210937511,1.5471214436201488,4.743478254809548,-2.988182072981787,-1.1913975776605208,5.73142619626181
544,1790651181.6644206,1.0752679687500002,-1.005381298828125,-0.3796584960937511,1.5202412092524158,4.765930100526964,-3.0019133476153885,-1.1998694383910251,5.758928731881059
545,1790651181.6844206,1.0561078125,-0.919160595703125,-0.48503935546875104,1.481716264562956,4.7845034429215305,-3.014204103843215,-1.2069684887804513,5.782185789808403
546,1790651181.7088363,0.9555169921875001,-0.957480908203125,-0.6239504882812511,1.4896632585114462,4.807460082060111,-3.0303943157604345,-1.216365717247395,5.811583924171562
547,1790651181.7288363,0.8261859375000001,-1.244883251953125,-0.6287405273437511,1.6209972748405963,4.826116692965942,-3.044970645860373,-1.224787776587526,5.836381898569873
548,1790651181.7547593,0.8166058593750001,-1.489175244140625,-0.556889941406251,1.7873484394953127,4.849865183280298,-3.0663454410610407,-1.2363717383324957,5.8696066082198035
549,1790651181.7747593,0.9746771484375001,-1.570605908203125,-0.537729785156251,1.9250848771971087,4.868126064152516,-3.0849524281677927,-1.245610281635725,5.896365646248209
550,1790651181.7838395,0.9698871093750001,-1.695146923828125,-0.46108916015625107,2.006690636822065,4.876497351250626,-3.094357026734381,-1.249855714822784,5.909095627380722
551,1790651181.8038394,0.8309759765625001,-1.608926220703125,-0.5281497070312511,1.8862944548312806,4.8948714467978025,-3.116920510799189,-1.2592879121858056,5.938077634815359
552,1790651181.8293078,0.7734955078125001,-1.417324658203125,-0.7053811523437511,1.7620065429613252,4.917824418968794,-3.147123879838044,-1.2718535777366728,5.975533219224389
553,1790651181.8493078,0.8022357421875002,-1.345474072265625,-0.6479006835937511,1.6951867038717072,4.935508996814173,-3.1714286574092374,-1.282271011495287,6.005116795999172
554,1790651181.8744166,0.8645062500000001,-1.565815869140625,-0.595210253906251,1.8850532190622145,4.957519406592627,-3.2028473361888006,-1.2957287001043047,6.042693322513413
555,1790651181.8944166,0.8309759765625001,-1.766997509765625,-0.6622708007812511,2.0618932772355993,4.974964829013739,-3.229118644420074,-1.3067264807118644,6.073303579194659
556,1790651181.9040456,0.8022357421875002,-1.762207470703125,-0.7053811523437511,2.0607085980135165,4.983283543962523,-3.2424184468320227,-1.31221482466341,6.088374168031289
557,1790651181.9240456,0.8166058593750001,-1.671196728515625,-0.695801074218751,1.9859211388801112,5.000398464703877,-3.2710493004752363,-1.3240062470650673,6.120191244905648
558,1790651181.9494193,0.9028265625000002,-1.805317822265625,-0.6622708007812511,2.124351867020364,5.0221270338976725,-3.308540233067806,-1.3393063662973754,6.161326152805001
559,1790651181.9694192,0.7687054687500001,-1.776577587890625,-0.652690722656251,2.0428267677223557,5.0391921340362025,-3.3390314146413513,-1.3515296493759597,6.194289349460232
560,1790651181.9950266,0.5483636718750001,-1.738257275390625,-0.6910110351562511,1.949291492514238,5.060293808124076,-3.3789657930963153,-1.3674130588327462,6.236489535701971
561,1790651182.0150266,0.5627337890625002,-1.872378369140625,-0.9161428710937511,2.159117374029084,5.075969249128959,-3.4108930302618163,-1.3803683275247036,6.269375710676845
562,1790651182.0241926,0.6824847656250002,-1.905908642578125,-1.016733691406251,2.2653963468684206,5.082931728595595,-3.4259278441325587,-1.3867438796072968,6.284603021543593
563,1790651182.0441926,0.6489544921875001,-2.059189892578125,-0.6862209960937511,2.265458938516906,5.097842043846825,-3.4597602264610394,-1.4011229060993255,6.318313044366379
564,1790651182.0691004,0.7543353515625001,-2.030449658203125,-0.3796584960937511,2.199065303889422,5.11624732772139,-3.503214436712848,-1.4183354644583062,6.3608312033687655
565,1790651182.0891004,0.9603070312500002,-1.743047314453125,-0.23595732421875107,2.0040158166898068,5.131381184456279,-3.5385328584606404,-1.4310067290051192,6.39531609141061
566,1790651182.1145778,0.9315667968750001,-1.570605908203125,-0.12578642578125104,1.830421219510234,5.151382990571681,-3.5831070726834366,-1.445418281355229,6.43930407869835
567,1790651182.1345778,0.7974457031250002,-1.537075634765625,-0.039565722656251044,1.7320758074726366,5.16732285516973,-3.617511054094796,-1.4552825208178128,6.473442587329816
568,1790651182.1447191,0.8501361328125001,-1.613716259765625,-0.020405566406251047,1.8240690772242454,5.17544623189134,-3.6347359727300286,-1.459579708677427,6.490525573221237
569,1790651182.164719,0.9938373046875001,-1.637666455078125,-0.05393583984375105,1.9163958570964188,5.191829406419323,-3.668487174555231,-1.466894597012806,6.524160520249483
570,1790651182.189514,0.9219867187500002,-1.474805126953125,0.027494824218748957,1.739501548547007,5.21265636792198,-3.709841527765767,-1.4746520553658278,6.565767986729936
571,1790651182.209514,0.8405560546875002,-1.307153759765625,0.10413544921874895,1.5575717076671673,5.229579696457633,-3.7423681029174576,-1.479773329229053,6.598753816080242
572,1790651182.234678,0.9363568359375002,-1.192192822265625,-0.029985644531251045,1.5162410720418167,5.251032382152797,-3.781871549141781,-1.485110467294522,6.6393860102190985
573,1790651182.254678,0.8932464843750001,-1.249673291015625,-0.15931669921875105,1.544329766201532,5.268269451157943,-3.8122214592187293,-1.4889999999947126,6.671193031543612
574,1790651182.2642617,0.7495453125000001,-1.264043408203125,-0.09225615234375105,1.4724588656250364,5.27647105275659,-3.826390029608925,-1.4907650634196286,6.686163915398827
575,1790651182.2842617,0.7160150390625001,-1.264043408203125,-0.06830595703125104,1.4543551759289752,5.293217731087139,-3.8553149519826606,-1.4941368488097388,6.716699505757827
576,1790651182.3095891,0.7926556640625001,-1.283203564453125,-0.14015654296875105,1.5147799332353593,5.314109954995819,-3.891288885857425,-1.4981622839453705,6.754730493218777
577,1790651182.3295891,0.7926556640625001,-1.182612744140625,-0.2886477539062511,1.4526504845313981,5.330510948126061,-3.9191336000008117,-1.5015073941556516,6.784429202036913
578,1790651182.3547008,0.8022357421875002,-1.168242626953125,-0.38444853515625105,1.4683915341819616,5.351018642021945,-3.9532783374135696,-1.5063451468736748,6.8213551308988185
579,1790651182.3747008,0.8788763671875002,-1.259253369140625,-0.40360869140625105,1.5877791698694685,5.367423509921442,-3.980034721643404,-1.5108022706632351,6.850725145660545
580,1790651182.3847728,0.9076166015625001,-1.264043408203125,-0.29343779296875105,1.5835653985851061,5.3757952952370855,-3.9933941593335014,-1.513236736084059,6.865584999657818
581,1790651182.4047728,0.9315667968750001,-1.173032666015625,-0.19763701171875106,1.5109211498224486,5.392684361124053,-4.019598457887569,-1.5180823529465746,6.895128019963942
582,1790651182.429614,0.9938373046875001,-1.192192822265625,-0.16889677734375105,1.5612694946892722,5.414102321084099,-4.051670466831664,-1.5238810334595596,6.931864894752487
583,1790651182.449614,1.1135882812500002,-1.292783642578125,-0.21200712890625106,1.71939391337819,5.4319206944399685,-4.077346193301055,-1.528420677092588,6.961794608926348
584,1790651182.4740503,1.1087982421875002,-1.436484814453125,-0.23595732421875107,1.8299174907314788,5.454498812676482,-4.109013466336658,-1.5339562754762257,6.99918358232573
585,1790651182.4940503,1.0177875,-1.556235791015625,-0.18326689453125106,1.8685149148522757,5.47339600311238,-4.135533069301977,-1.5384361578625476,7.0304682195424
586,1790651182.5191708,1.0848480468750001,-1.7813676269531251,-0.23116728515625107,2.0984766429225803,5.497532505523813,-4.170134153493467,-1.5439997888729236,7.070842796687199
587,1790651182.5391707,1.257289453125,-2.054399853515625,-0.4179788085937511,2.4445944063377536,5.517379786278893,-4.199303652669106,-1.5487386251842319,7.104521250759728
588,1790651182.5498834,1.1566986328125002,-2.408862744140625,-0.5233596679687511,2.72295368842648,5.528355504872094,-4.21617013852006,-1.551652470811713,7.1236528982941
589,1790651182.5698833,1.0800580078125002,-2.451973095703125,-0.5664700195312511,2.7385371360125115,5.549128128853189,-4.250227002865719,-1.5579112284318803,7.161308536991877
590,1790651182.5943725,1.0800580078125002,-2.461553173828125,-0.576050097656251,2.7491094999713996,5.5747155357960185,-4.294697674399326,-1.5665237359836932,7.209429799570613
591,1790651182.6143725,1.2668695312500002,-2.451973095703125,-0.6718508789062511,2.8405129949973236,5.595998289867008,-4.332938781283631,-1.5743742498041553,7.250393756272315
592,1790651182.6391897,1.3962005859375002,-2.4328129394531253,-1.011943652343751,2.9819431299174006,5.623402668806462,-4.382364960450681,-1.5857884809402054,7.30359536998102
593,1790651182.6591897,1.3291400390625001,-2.720215283203125,-1.3089260742187512,3.2984044473321696,5.646262876822916,-4.423951791392352,-1.5970886144252618,7.3486274887953735
594,1790651182.669068,1.1231683593750001,-3.060308056640625,-1.102954394531251,3.441438792344918,5.657677195593548,-4.445693957953413,-1.6036196886012017,7.371913057205177
595,1790651182.689068,1.2093890625000001,-2.9884574707031253,-0.7580715820312511,3.311823135703251,5.680819218907659,-4.492183743176519,-1.6176507160117466,7.420796158053618
596,1790651182.7146451,1.2333392578125002,-2.528613720703125,-0.8682424804687511,2.9442924580075465,5.710661047326945,-4.553302656946806,-1.6360225397389885,7.484703363109999
597,1790651182.7346451,1.2093890625000001,-2.198101025390625,-1.136484667968751,2.7542453454342057,5.734159723795708,-4.601015851188666,-1.651240593350174,7.535020245362163
598,1790651182.759738,1.2045990234375001,-1.9777592285156251,-1.021523730468751,2.53102767767484,5.763762846660546,-4.659758245494345,-1.6715311287805932,7.597915857225555
599,1790651182.779738,1.3770404296875,-1.738257275390625,-0.676640917968751,2.3185386846701452,5.787690927770169,-4.7051292645203,-1.6878248751420974,7.647506814667568
600,1790651182.789814,1.4488910156250001,-1.493965283203125,-0.532939746093751,2.148311480102806,5.800073272625616,-4.727001204944358,-1.6957164689280757,7.672082162122962
601,1790651182.809814,1.1566986328125002,-1.402954541015625,-0.5808401367187511,1.9088238356983411,5.8248727511292735,-4.768248221614897,-1.7107015827811147,7.7195747016990355
602,1790651182.833922,0.9938373046875001,-1.120342236328125,-0.595210253906251,1.6115689749571263,5.854170375701121,-4.815071785587759,-1.728181563389847,7.774499251021925
603,1790651182.853922,0.9459369140625001,-0.7946195800781249,-0.47066923828125107,1.3220236209288678,5.87773958817867,-4.8509623954404075,-1.7421065886802425,7.817582375309057
604,1790651182.8790393,1.1135882812500002,-0.727559033203125,-0.43234892578125106,1.398694605894009,5.90677923976467,-4.89214276441431,-1.7586725294984824,7.8686740230320105
605,1790651182.8990393,0.9171966796875002,-0.665288525390625,-0.6287405273437511,1.295829163883382,5.929480062435819,-4.922103775259319,-1.7714763399937485,7.907209862423254
606,1790651182.909124,0.7351751953125001,-0.804199658203125,-0.638320605468751,1.262803568819311,5.940459337000281,-4.936056422173975,-1.7779223547149887,7.92557367241224
607,1790651182.9291239,0.6537445312500001,-0.866470166015625,-0.35570830078125104,1.142226271795178,5.961050831114613,-4.962082850503189,-1.790279651138896,7.959993370328401
608,1790651182.9539483,0.7830755859375002,-0.6365482910156249,-0.24553740234375107,1.0385998825514997,5.985450736009352,-4.9923400630980685,-1.80443647490019,8.000316919395077
609,1790651182.9739482,0.6920648437500001,-0.32998579101562503,-0.22158720703125107,0.798088504206664,6.004372742943618,-5.014510304011477,-1.8148318953527072,8.030655043869775
610,1790651183.0148628,0.4190326171875001,-0.210234814453125,0.09455537109374897,0.47825487940827377,6.0406851448692525,-5.054719173562364,-1.833297982707342,8.087091222214688
611,1790651183.0348628,0.32802187500000013,-0.215024853515625,0.18077607421874897,0.4318726978148472,6.056893523460544,-5.072063842131016,-1.8405576426465395,8.111685596045726
612,1790651183.0289073,0.7399652343750002,0.048427294921875,-0.21200712890625106,0.7712592130303345,6.056893523460544,-5.072063842131016,-1.8405576426465395,8.111685596045726
613,1790651183.0489073,0.7447552734375001,-0.05695356445312501,-0.32217802734375106,0.8134511707041748,6.072192837896411,-5.0848205662486015,-1.8466438434795784,8.132467001851667
614,1790651183.075023,0.1651605468750001,-0.05216352539062501,0.20472626953124898,0.26816391453998634,6.09095602705543,-5.099193188821202,-1.8536290675329434,8.157049541375022
615,1790651183.095023,0.10768007812500009,-0.104853955078125,0.377167675781249,0.4060108456368634,6.103579183847043,-5.108784572149117,-1.8573032583976485,8.173306188549056
616,1790651183.1189277,0.5148333984375001,0.058007373046875,0.18077607421874897,0.5487242226150106,6.117519822466192,-5.118612975233346,-1.8600357558791136,8.190481095860166
617,1790651183.1389277,0.7974457031250002,0.153808154296875,0.15203583984374897,0.8262514716221274,6.129402173948927,-5.1252847560348815,-1.8614797637810339,8.203854079115477
618,1790651183.164636,0.4525628906250001,0.091537646484375,0.449018261718749,0.6440572257584579,6.144794985186628,-5.132101285379018,-1.8618985847005938,8.219710174517942
619,1790651183.1846359,0.1843207031250001,0.120277880859375,0.631039746093749,0.6683203209349389,6.155929068049563,-5.136291108422444,-1.860555451694398,8.230347236304599
620,1790651183.194724,0.1747406250000001,0.139438037109375,0.429858105468749,0.4845154724624263,6.16097446778473,-5.137890986367941,-1.8591768929261663,8.234808370550395
621,1790651183.214724,0.2274310546875001,0.144228076171875,0.03707490234374896,0.2718476981258207,6.170079902354184,-5.14016149727307,-1.8561534370146646,8.242357175057684
622,1790651183.239726,0.2274310546875001,-0.033003369140625,0.03228486328124896,0.23206985889595821,6.1806081456013775,-5.142365547634088,-1.8528106947234426,8.250863466659093
623,1790651183.259726,0.2944916015625001,-0.095273876953125,0.31489716796874895,0.4415457410226759,6.188549653951937,-5.14405659608246,-1.8500170416603205,8.257240951889543
624,1790651183.2845726,0.5387835937500001,-0.023423291015625004,0.32447724609374895,0.6293821531381003,6.19848852558893,-5.146063499819049,-1.8458755323651423,8.265015791092708
625,1790651183.3045726,0.2849115234375001,-0.085693798828125,0.23825654296874896,0.38116162400285214,6.2065242317305005,-5.147600296546502,-1.842197816547948,8.271180366027423
626,1790651183.3145542,0.09330996093750009,-0.19107465820312503,0.15203583984374897,0.2614023152433676,6.210216282259435,-5.148459431178983,-1.840345475146332,8.274073498273243
627,1790651183.3345542,-0.08871152343749991,-0.46889692382812503,0.496918652343749,0.6889573329410235,6.216511209529077,-5.1509126026897,-1.8362172723449488,8.27940856160669
628,1790651183.3594217,-0.08392148437499991,-0.6748686035156249,0.813061230468749,1.0599806658813118,6.22284216525772,-5.155638486246764,-1.8294110958142853,8.285597007582895
629,1790651183.3794217,0.2561712890625001,-0.6173881347656249,0.568769238281249,0.8776618282142347,6.227428517795612,-5.16080758557871,-1.8226855028061495,8.290777003499764
630,1790651183.4042594,0.4334027343750001,-0.545537548828125,0.12329560546874896,0.7075669252254737,6.233554451895268,-5.16843044352928,-1.814296736586609,8.298285787000374
631,1790651183.4242594,0.2322210937500001,-0.6796586425781249,-0.14494658203125105,0.7327155099055348,6.238745732435305,-5.175485639163603,-1.808587590237827,8.305334971374165
632,1790651183.43486,0.031039453125000088,-0.9143705566406249,-0.17368681640625105,0.9312379248585853,6.241293834943161,-5.179931498783171,-1.80626880690998,8.309515393150287
633,1790651183.45486,0.13163027343750008,-1.196982861328125,-0.05872587890625105,1.2056298055588242,6.245624196367639,-5.190228290026376,-1.8028988245790551,8.318457517864209
634,1790651183.4794524,0.3759222656250001,-1.340684033203125,0.05623505859374896,1.393525603816978,6.251086339886671,-5.205670818368325,-1.7993811873986336,8.331438156494555
635,1790651183.4994524,0.4046625000000001,-1.105972119140625,0.08976533203124896,1.1810943578128446,6.256033030917812,-5.220015752974976,-1.796730550580328,8.343545674150187
636,1790651183.539204,0.2561712890625001,-0.938320751953125,0.16640595703124897,0.9867930408253328,6.266360363191844,-5.25034546523847,-1.7914887143663283,8.369159546778512
637,1790651183.5592039,0.2274310546875001,-1.149082470703125,0.21430634765624895,1.1908159470544672,6.271502312563194,-5.266447253264624,-1.7886759432706174,8.382515705797335
638,1790651183.553665,0.3136517578125001,-1.364634228515625,0.06102509765624896,1.4015448852460135,6.271502312563194,-5.266447253264624,-1.7886759432706174,8.382515705797335
639,1790651183.573665,0.3615521484375001,-1.331103955078125,-0.11141630859375105,1.3838248765956829,6.2769200558054985,-5.285329384267614,-1.7863682556402989,8.397948775262645
640,1790651183.598895,0.1891107421875001,-1.259253369140625,-0.025195605468751048,1.2736234683130092,6.283771409808703,-5.310478012993627,-1.7841522665515903,8.418441611572725
641,1790651183.618895,0.1603705078125001,-1.297573681640625,0.10413544921874895,1.311586958934266,6.2889120451923075,-5.3312582920005624,-1.782540732610303,8.435056677438778
642,1790651183.643379,0.2465912109375001,-1.292783642578125,0.06581513671874896,1.3177360904409106,6.295008524925786,-5.3576382335851145,-1.7805517434453184,8.455872768789009
643,1790651183.663379,0.2034808593750001,-1.196982861328125,0.041864941406248954,1.214876579642641,6.299916617148643,-5.379689333800519,-1.779009203419167,8.473185968517555
644,1790651183.6741133,0.1651605468750001,-1.101182080078125,0.15203583984374897,1.1238304482110408,6.302452516703217,-5.391599437446757,-1.7781493782697884,8.482456450263458
645,1790651183.6941133,0.1651605468750001,-0.8760502441406249,0.377167675781249,0.9679863078355638,6.306964111847053,-5.413427360516136,-1.7759938653241651,8.499243866684875
646,1790651183.7333817,0.2034808593750001,-0.420996533203125,0.616669628906249,0.773901784670645,6.315579269155679,-5.45367623622914,-1.7694695156286921,8.529955941348037
647,1790651183.7533817,0.13642031250000008,-0.11922407226562501,0.693310253906249,0.7165919265814709,6.319818765263405,-5.471910973846167,-1.7646800482201666,8.54377051447778
648,1790651183.7638419,0.1939007812500001,-0.07611372070312501,0.6454098632812489,0.6781922316492236,6.3219626003027685,-5.4801705859051255,-1.761500620477695,8.549992117317418
649,1790651183.7838418,0.2992816406250001,-0.16233442382812502,0.678940136718749,0.7595272706246133,6.326186568160793,-5.493951911157638,-1.7543468406479155,8.560483452152805
650,1790651183.7943203,0.2322210937500001,0.043637255859375,0.784320996093749,0.8191399583678441,6.328485356559378,-5.5001825212887265,-1.7500110429203448,8.565294701644518
651,1790651183.8143203,0.1699505859375001,0.354989794921875,0.755580761718749,0.8519408686280165,6.332818095621076,-5.5096929275225675,-1.7406669303943516,8.57270217319991
652,1790651183.8391032,0.2418011718750001,0.565751513671875,0.664570019531249,0.9056466710599149,6.338146987472958,-5.517998594248552,-1.7281853601234638,8.579454549089155
653,1790651183.8591032,0.2274310546875001,0.5418013183593751,0.487338574218749,0.7633953360702361,6.342506222104184,-5.522034591039927,-1.7178956870613442,8.58320550806607
654,1790651183.8838322,0.10768007812500009,0.359779833984375,0.37237763671874896,0.5288682562747278,6.347709230852908,-5.524604218456139,-1.7054869095199539,8.586230246655543
655,1790651183.9038322,-0.07434140624999992,0.072377490234375,0.367587597656249,0.38194998066048774,6.351336052120953,-5.52572247589681,-1.695846536815952,8.587722282656395
656,1790651183.9288058,0.08372988281250009,-0.06174360351562501,0.39153779296874897,0.405123202462817,6.355203073685746,-5.526889454836234,-1.6841925760969865,8.589040562667341
657,1790651183.9488058,0.4286126953125001,0.072377490234375,0.257416699218749,0.5051838286330522,6.358603935482385,-5.527667886829617,-1.675286092058401,8.590316627788745
658,1790651183.959408,0.4429828125000001,0.110697802734375,0.11371552734374896,0.4705518004000152,6.360829412919141,-5.5278730691879145,-1.6709777585132253,8.591257076747043
659,1790651183.979408,0.3328119140625001,0.134647998046875,0.027494824218748957,0.3600691862389729,6.365561509759932,-5.527834047177004,-1.663857815332412,8.59335472428022
660,1790651184.0040283,0.3088617187500001,0.06758745117187501,-0.09225615234375105,0.3293551616574244,6.371697867793143,-5.527419783743488,-1.6565273497669408,8.596219287843027
661,1790651184.0240283,0.5627337890625002,-0.205444775390625,-0.17847685546875106,0.6250846830837853,6.377242332877108,-5.527340526177878,-1.651871860557849,8.599383333022843
662,1790651184.0493088,0.5531537109375001,-0.502427197265625,-0.13057646484375104,0.7585923342924117,6.385315186423679,-5.52859752067691,-1.6474558801963302,8.605332733416018
663,1790651184.0693088,0.4525628906250001,-0.694028759765625,-0.20242705078125106,0.8529160569719991,6.392252391116151,-5.53123747521417,-1.6449858366474432,8.61170465365101
664,1790651184.0793169,0.5435736328125002,-0.804199658203125,-0.36049833984375107,1.0354556666381727,6.395950800381338,-5.533484946512767,-1.6443577530522862,8.615773599288994
665,1790651184.0993168,0.6824847656250002,-0.808989697265625,-0.6239504882812511,1.2286431530019408,6.404072089471561,-5.539722334802617,-1.6447675476107038,8.625886804238329
666,1790651184.1385055,0.6776947265625001,-0.761089306640625,-0.8634524414062511,1.3356935253506863,6.421596010460831,-5.554725510409469,-1.649821763355831,8.64949609332259
667,1790651184.1585054,0.5579437500000001,-0.8952104003906249,-0.8969827148437511,1.3846591204553096,6.4310513249744155,-5.563718319460944,-1.6546549270671067,8.663213353625082
668,1790651184.1695955,0.5387835937500001,-1.326313916015625,-0.7101711914062511,1.5980423917450506,6.436420077770171,-5.569804634145404,-1.6582696834925998,8.671798280821646
669,1790651184.1895955,0.7639154296875001,-1.618506298828125,-0.7868118164062511,1.9550453338727105,6.446603915207598,-5.58355160559695,-1.6660562359205384,8.689677436659196
670,1790651184.198894,0.7926556640625001,-1.776577587890625,-0.9784133789062511,2.1775728845640003,6.45171399942082,-5.591351966791034,-1.6703644524862937,8.699307314435465
671,1790651184.218894,0.6297943359375001,-1.714307080078125,-0.853872363281251,2.0160822610103124,6.463190121186372,-5.6108492035003446,-1.6809893225852797,8.722395337845406
672,1790651184.2437756,0.6345843750000001,-1.743047314453125,-0.5856301757812511,1.9452182325389538,6.477685247467972,-5.637918766705072,-1.6949110786584756,8.753242699125202
673,1790651184.2637756,0.9746771484375001,-1.766997509765625,-0.5281497070312511,2.085957299716697,6.490002716745716,-5.661678705091828,-1.7060935795229002,8.779834641104939
674,1790651184.2888873,1.2237591796875003,-1.690356884765625,-0.5520999023437511,2.158635501864998,6.507288982983004,-5.693547930260065,-1.7200625882479998,8.81588981610541
675,1790651184.3088872,1.0369476562500002,-1.623296337890625,-0.518569628906251,1.994809740911511,6.522382415201318,-5.720093083487371,-1.7311252648262567,8.846340030566722
