imu_index,t_imu,ax,ay,az,mag
0,1790482345.2565622,0.05151735889668367,-0.08133290816326533,0.025074388153698182,0.09948771360960199
1,1790482345.2765622,0.013197046396683669,-0.02385243941326533,0.0059142319036981795,0.027894068160998604
2,1790482345.2866056,0.07067751514668368,0.028837990274234674,-0.01803596340880182,0.07843619576732538
3,1790482345.3066056,0.22395876514668367,0.019257912149234672,-0.061146314971301824,0.23295335906774278
4,1790482345.331399,0.14731814014668368,-0.00948232222576533,-0.05156623684630182,0.1563701558276389
5,1790482345.351399,0.02756716358418367,-0.014272361288265329,-0.0036658462213018206,0.03125839460589987
6,1790482345.3923013,0.08504763233418368,0.043208107461734674,-0.0036658462213018206,0.0954645418183816
7,1790482345.4123013,0.10899782764668367,-0.02385243941326533,0.06818473971619818,0.13076170703927564
8,1790482345.406816,0.05630739795918367,0.052788185586734676,0.05860466159119818,0.09691038108836578
9,1790482345.426816,0.07546755420918368,0.07673838089923468,0.01070427096619818,0.10816058551186701
10,1790482345.4520762,0.003616968271683668,9.775589923467166e-05,0.0059142319036981795,0.006933264361390161
11,1790482345.4720762,0.04672731983418367,0.014467873086734672,-0.05156623684630182,0.07107628685453997
12,1790482345.4964242,0.13294802295918368,-0.03343251753826533,-0.061146314971301824,0.15010590218999284
13,1790482345.5164242,0.10420778858418367,-0.052592673788265334,-0.032406080596301824,0.12114209259138138
14,1790482345.5266845,0.05151735889668367,-0.0046922831632653286,-0.0036658462213018206,0.051860333758010156
15,1790482345.5466845,0.11378786670918367,-0.0046922831632653286,0.01549431002869818,0.11493376255381457
16,1790482345.586884,0.14252810108418368,-0.02864247847576533,0.02028434909119818,0.14678591890897283
17,1790482345.606884,0.032357202646683667,0.028837990274234674,0.02028434909119818,0.047854707858569136
18,1790482345.617294,0.05151735889668367,0.07194834183673468,-0.00845588528380182,0.08889378019118185
19,1790482345.637294,0.12336794483418367,-0.01906240035076533,-0.013245924346301821,0.12553278229821482
20,1790482345.6467333,0.08983767139668367,-0.02385243941326533,-0.027616041533801823,0.09696593122297478
21,1790482345.6667333,0.04193728077168367,-0.03822255660076533,-0.027616041533801823,0.06310582462513588
22,1790482345.6923218,0.07546755420918368,-0.03343251753826533,-0.032406080596301824,0.08867490641030587
23,1790482345.7123218,0.09941774952168367,-0.03822255660076533,0.01070427096619818,0.10704874669968227
24,1790482345.7363777,0.04193728077168367,0.014467873086734672,0.04902458346619818,0.06611705267335441
25,1790482345.7563777,0.02756716358418367,0.024047951211734673,0.03944450534119818,0.05379703957627152
26,1790482345.7822366,0.04193728077168367,0.014467873086734672,-0.00845588528380182,0.045161453321496486
27,1790482345.8022366,0.003616968271683668,0.009677834024234671,-0.08030647122130183,0.08096834104078444
28,1790482345.8112931,0.01798708545918367,-0.02385243941326533,-0.013245924346301821,0.03267917717855548
29,1790482345.831293,0.10420778858418367,0.028837990274234674,0.06339470065369818,0.12533866504648425
30,1790482345.8563921,0.10899782764668367,0.07673838089923468,0.0059142319036981795,0.13343269342160077
31,1790482345.8763921,0.08504763233418368,9.775589923467166e-05,-0.022826002471301822,0.08805757043370091
32,1790482345.902067,0.07067751514668368,-0.0046922831632653286,-0.037196119658801825,0.08000549972511807
33,1790482345.922067,0.08983767139668367,9.775589923467166e-05,0.04902458346619818,0.10234366879406162
34,1790482345.9319854,0.14252810108418368,-0.014272361288265329,0.06818473971619818,0.15864147826332098
35,1790482345.9519854,0.09462771045918367,-0.052592673788265334,0.01549431002869818,0.10936391802697729
36,1790482345.9765916,0.07546755420918368,-0.05738271285076533,-0.04677619778380182,0.10571726515351602
37,1790482345.9965916,0.08983767139668367,-0.014272361288265329,-0.027616041533801823,0.09506394294746015
38,1790482346.0220509,0.10420778858418367,-0.04301259566326533,0.01070427096619818,0.11324278345314223
39,1790482346.0420508,0.09941774952168367,9.775589923467166e-05,-0.00845588528380182,0.09977675316477724
40,1790482346.0510783,0.10899782764668367,-0.00948232222576533,0.02986442721619818,0.11341219017125541
41,1790482346.0710783,0.07067751514668368,0.03841806839923467,0.03944450534119818,0.08959424160318444
42,1790482346.0966337,0.06109743702168367,-0.01906240035076533,0.01549431002869818,0.06585093439744708
43,1790482346.1166337,0.10899782764668367,-0.01906240035076533,-0.027616041533801823,0.1140462506565897
44,1790482346.1420925,0.15689821827168368,-0.05738271285076533,-0.037196119658801825,0.17115308337454568
45,1790482346.1620924,0.06109743702168367,-0.014272361288265329,0.0011241928411981795,0.06275237777889837
46,1790482346.1716425,0.02756716358418367,0.03362802933673467,0.0059142319036981795,0.04388360746520449
47,1790482346.1916425,0.11378786670918367,-0.00948232222576533,0.02028434909119818,0.11597003002100924
48,1790482346.2167063,0.13294802295918368,9.775589923467166e-05,0.025074388153698182,0.13529194841620762
49,1790482346.2367063,0.05630739795918367,0.07194834183673468,0.04902458346619818,0.10368460224172024
50,1790482346.2619505,0.09462771045918367,0.03841806839923467,0.01070427096619818,0.1026885241066068
51,1790482346.2819505,0.15210817920918368,9.775589923467166e-05,-0.06593635403380183,0.16578453040564378
52,1790482346.2914963,0.14731814014668368,-0.052592673788265334,-0.08030647122130183,0.17583444791193392
53,1790482346.3114963,0.08983767139668367,-0.07175283003826534,-0.037196119658801825,0.12084215795057042
54,1790482346.3370688,0.06109743702168367,0.019257912149234672,0.0011241928411981795,0.06407049087146473
55,1790482346.3570688,0.08504763233418368,0.014467873086734672,0.01070427096619818,0.08693101019902012
56,1790482346.3823047,0.14252810108418368,-0.01906240035076533,0.025074388153698182,0.14596698135906783
57,1790482346.4023046,0.09941774952168367,9.775589923467166e-05,0.03944450534119818,0.10695684867171378
58,1790482346.4123564,0.08025759327168368,0.024047951211734673,0.02028434909119818,0.08620348051731187
59,1790482346.4323564,0.14252810108418368,-0.03343251753826533,-0.037196119658801825,0.15104815174401043
60,1790482346.4566667,0.11857790577168367,-0.052592673788265334,-0.05156623684630182,0.13959149635950638
61,1790482346.4766667,0.06588747608418367,0.004887794961734672,-0.013245924346301821,0.06738326614315891
62,1790482346.5023973,0.14252810108418368,-0.03343251753826533,0.02028434909119818,0.1477952896599323
63,1790482346.5223973,0.21916872608418367,-0.07654286910076533,-0.01803596340880182,0.23284981700577836
64,1790482346.546997,0.14731814014668368,-0.05738271285076533,-0.05635627590880182,0.167843498488027
65,1790482346.566997,0.04193728077168367,-0.03822255660076533,-0.037196119658801825,0.06784725985103335
66,1790482346.5765204,0.12336794483418367,-0.02385243941326533,0.02028434909119818,0.12727939148435333
67,1790482346.5965204,0.22874880420918367,0.019257912149234672,0.09692497409119818,0.2491813259657684
68,1790482346.6224325,0.2622790776466837,-0.02864247847576533,0.20230583346619818,0.3324730912403031
69,1790482346.6424325,0.3868200932716837,-0.0046922831632653286,0.10171501315369819,0.3999971824661461
70,1790482346.6673028,0.16168825733418368,0.2395997090242347,0.1448253647161982,0.32330403552916404
71,1790482346.6873028,-0.005963109853316333,0.2827100605867347,0.4513878647161982,0.5326457936087797
72,1790482346.6966064,0.2622790776466837,0.17253916214923468,0.4034874740911982,0.5112359717340421
73,1790482346.7166064,0.13773806202168368,0.08631845902423467,0.12087516940369819,0.20256716583933437
74,1790482346.7416599,-0.015543187978316332,0.2252295918367347,0.04423454440369818,0.23005793759415066
75,1790482346.7616599,0.02756716358418367,0.2731299824617347,0.11129509127869819,0.29622041315607944
76,1790482346.7867382,0.21916872608418367,0.14858896683673467,0.07297477877869818,0.27466148236833665
77,1790482346.8067381,0.3724499760841837,-0.12444325972576534,0.07776481784119818,0.4003154711851117
78,1790482346.8167925,0.3772400151466837,-0.22024404097576533,0.02028434909119818,0.4372972918178872
79,1790482346.8367925,0.22874880420918367,-0.19150380660076533,0.09213493502869818,0.31223159613091245
80,1790482346.8624208,-0.06823361766581633,-0.04301259566326533,0.3220568100286982,0.33200376330896814
81,1790482346.8824208,-0.10655393016581634,-0.05738271285076533,0.4609679428411982,0.4765899286547516
82,1790482346.9074802,0.06109743702168367,-0.08133290816326533,0.5807189194036982,0.5895611945458349
83,1790482346.9274802,0.04672731983418367,-0.05738271285076533,0.4609679428411982,0.46687007023394167
84,1790482346.9371483,-0.039493383290816336,0.2252295918367347,0.22146598971619819,0.3183320294341627
85,1790482346.9571483,-0.21193478954081635,0.4264112324617347,0.20230583346619818,0.5173688669041642
86,1790482346.9823604,-0.43227658641581634,0.36893076371173467,0.3220568100286982,0.6532178384444928
87,1790482347.0023603,-0.18798459422831634,0.3976709980867347,0.2597863022161982,0.5108515960684182
88,1790482347.0274422,0.3484997807716837,0.5126319355867347,0.1496154037786982,0.6376741861085304
89,1790482347.0474422,0.04672731983418367,0.5078418965242347,0.21667595065369818,0.5541076627117707
90,1790482347.0566967,-0.32210568797831635,0.5605323262117347,0.2262560287786982,0.6849382114578147
91,1790482347.0766966,-0.06344357860331634,0.4168311543367347,0.06339470065369818,0.42637094995163766
92,1790482347.1019785,0.22395876514668367,0.4982618183992347,-0.18568733059630183,0.5769767351501441
93,1790482347.1219785,0.15689821827168368,0.5940625996492347,-0.14736701809630182,0.6318579438619345
94,1790482347.1465538,0.1952185307716837,0.5557422871492347,-0.08509651028380183,0.5951480324633515
95,1790482347.1665537,0.28622927295918366,0.3833008808992347,0.02986442721619818,0.4793105945103068
96,1790482347.1916943,0.32454958545918366,0.2395997090242347,0.07297477877869818,0.4099582568067459
97,1790482347.2116942,0.3964001713966837,0.15337900589923467,0.03944450534119818,0.4268654171229727
98,1790482347.2217426,0.6071618901466836,-0.06217275191326533,-0.19047736965880183,0.6393689390947122
99,1790482347.2417426,0.5353113042091837,-0.16755361128826535,-0.43955940090880186,0.712632354020768
100,1790482347.2674255,0.4969909917091837,-0.19150380660076533,-0.39165901028380185,0.661113102365358
101,1790482347.2874255,0.5736316167091837,-0.17234365035076535,-0.24316779934630184,0.6464411374158842
102,1790482347.3117664,0.5975818120216837,-0.3208348612882653,-0.2862781509088018,0.7362025604171327
103,1790482347.3317664,0.5401013432716837,-0.48848622847576534,-0.3677088149713018,0.8158051415760713
104,1790482347.3423896,0.6406921635841837,-0.4118456034757654,-0.31980842434630186,0.8260633618938464
105,1790482347.3623896,0.7269128667091838,-0.45974599410076533,-0.3150183852838018,0.9159723128707976
106,1790482347.3871872,0.6646423588966837,-0.47411611128826536,-0.43955940090880186,0.9272259806272469
107,1790482347.4071872,0.5880017338966836,-0.39268544722576537,-0.40123908840880185,0.8129825985810103
108,1790482347.4351578,0.7604431401466837,-0.39747548628826535,-0.31980842434630186,0.9157171833481701
109,1790482347.4551578,0.9089343510841837,-0.5699168925382654,-0.34854865872130186,1.1280306230230266
110,1790482347.4624867,0.9472546635841838,-0.5076463847257654,-0.29106818997130185,1.1134257679882817
111,1790482347.4824867,0.8370837651466837,-0.41663564253826535,-0.08988654934630183,0.939347688696154
112,1790482347.5060902,0.9855749760841838,-0.39268544722576537,-0.27190803372130185,1.095214076219085
113,1790482347.5260901,1.0765857182716838,-0.5986571269132653,-0.44434943997130183,1.309531820611249
114,1790482347.5506647,0.8897741948341837,-0.5603368144132653,-0.31022834622130185,1.0963197937549198
115,1790482347.5706646,1.0813757573341838,-0.5747069316007654,-0.34854865872130186,1.2732430063724933
116,1790482347.5815406,1.1388562260841837,-0.6705077128507654,-0.44434943997130183,1.3942813638164584
117,1790482347.6015406,1.0622156010841837,-0.6609276347257653,-0.3964490493463018,1.3123639625722792
118,1790482347.6260903,1.0095251713966837,-0.8237889628507654,-0.22400764309630183,1.3221001290234426
119,1790482347.6460903,1.0717956792091836,-1.0345506816007655,-0.27190803372130185,1.5142572666407343
120,1790482347.6717317,0.9616247807716837,-1.1399315409757653,-0.32459846340880183,1.5262798889957658
121,1790482347.6917317,0.8370837651466837,-1.2980028300382653,-0.21442756497130183,1.5593266999827253
122,1790482347.7019362,0.8179236088966837,-1.3698534159757654,-0.13778693997130181,1.6014002160851932
123,1790482347.7219362,1.0813757573341838,-1.3794334941007653,-0.31022834622130185,1.780014584208885
124,1790482347.7462723,0.9903650151466837,-1.3506932597257655,-0.4347693618463018,1.7303813288103134
125,1790482347.7662723,0.6933825932716837,-1.3842235331632653,-0.40123908840880185,1.599327051131908
126,1790482347.791008,0.6933825932716837,-1.6237254862882655,-0.24795783840880184,1.782904081857068
127,1790482347.811008,0.9664148198341838,-1.7626366191007654,-0.20484748684630183,2.0205959387906725
128,1790482347.8217275,0.8849841557716838,-1.7770067362882653,-0.07551643215880183,1.9866183902065306
129,1790482347.8417275,0.6933825932716837,-1.7961668925382654,0.07776481784119818,1.9269256066067024
130,1790482347.866817,0.7221228276466837,-1.8105370097257654,0.1639855209661982,1.9561178116058637
131,1790482347.886817,0.9185144292091837,-1.6716258769132655,0.05381462252869818,1.9081136870295288
132,1790482347.911786,0.8562439213966837,-1.6333055644132655,-0.10904670559630182,1.8473580875600466
133,1790482347.931786,0.6838025151466837,-1.6093553691007654,-0.12820686184630184,1.7532962052085974
134,1790482347.9564812,0.7796032963966837,-1.6812059550382654,-0.07551643215880183,1.8547068486784364
135,1790482347.9764812,0.9089343510841837,-1.6380956034757654,-0.10425666653380182,1.8762697868974492
136,1790482347.9855368,0.8322937260841837,-1.6189354472257653,-0.08030647122130183,1.8221179868722006
137,1790482348.0055368,0.7700232182716837,-1.5470848612882655,-0.13299690090880184,1.733232673461979
138,1790482348.0310748,0.8514538823341837,-1.5806151347257653,-0.20484748684630183,1.8070086913829022
139,1790482348.0510747,0.8418738042091837,-1.4943944316007653,-0.16652717434630182,1.7232810331483315
140,1790482348.0764687,0.8035534917091837,-1.4321239237882655,-0.05156623684630182,1.6429656794672272
141,1790482348.0964687,0.7173327885841837,-1.3985936503507654,-0.05156623684630182,1.5726695791430345
142,1790482348.1220675,0.6454822026466837,-1.3938036112882655,0.025074388153698182,1.5362175971245438
143,1790482348.1420674,0.8322937260841837,-1.2261522441007653,0.05381462252869818,1.4829221779278718
144,1790482348.151622,0.9041443120216837,-1.1495116191007655,0.06818473971619818,1.464070714869672
145,1790482348.171622,0.6023718510841837,-1.1495116191007655,0.1256652084661982,1.3038483631331914
146,1790482348.196886,0.4251404057716837,-1.1399315409757653,0.21188591159119818,1.2349428821860258
147,1790482348.216886,0.6502722417091837,-1.0441307597257654,0.1591954819036982,1.2403250514286737
148,1790482348.2264187,0.7796032963966837,-1.1064012675382653,0.09692497409119818,1.356944919724244
149,1790482348.2464187,0.5544714604591837,-1.1255614237882654,0.07776481784119818,1.2571294627355936
150,1790482348.2718248,0.5592614995216837,-1.0632909159757653,-0.06593635403380183,1.2032076294751024
151,1790482348.2918248,0.6263220463966837,-1.1111913066007655,-0.061146314971301824,1.2770138204037635
152,1790482348.3161354,0.6742224370216837,-1.1495116191007655,-0.00845588528380182,1.3326756390911685
153,1790482348.3361354,0.6502722417091837,-1.1064012675382653,-0.09946662747130182,1.2871951534745156
154,1790482348.345703,0.7125427495216837,-1.0824510722257654,-0.18568733059630183,1.3091589966091248
155,1790482348.3657029,0.7891833745216837,-1.1207713847257654,-0.18089729153380182,1.382628918229981
156,1790482348.3914926,0.7125427495216837,-1.1638817362882654,-0.10425666653380182,1.3686516424854238
157,1790482348.4114926,0.5544714604591837,-1.1734618144132654,-0.037196119658801825,1.2983970046436046
158,1790482348.4370143,0.6454822026466837,-1.0968211894132653,-0.07551643215880183,1.2748987124495574
159,1790482348.4570143,0.8131335698341837,-1.1495116191007655,-0.08030647122130183,1.4103234714628288
160,1790482348.4670222,0.6694323979591837,-1.2932127909757654,0.0059142319036981795,1.4562190893954527
161,1790482348.4870222,0.6023718510841837,-1.1782518534757653,0.01070427096619818,1.3233457063876317
162,1790482348.511095,0.6933825932716837,-1.0537108378507654,-0.07072639309630183,1.2633638324476206
163,1790482348.531095,0.7843933354591837,-1.0489207987882654,-0.14257697903380182,1.317511268184755
164,1790482348.557044,0.6311120854591837,-1.1207713847257654,-0.08509651028380183,1.2890587175513888
165,1790482348.577044,0.5496814213966837,-1.1686717753507654,-0.022826002471301822,1.2916905240493979
166,1790482348.6013281,0.6742224370216837,-1.1590916972257654,-0.04198615872130182,1.3415782849633988
167,1790482348.621328,0.7796032963966837,-1.1590916972257654,-0.07072639309630183,1.3986697555215433
168,1790482348.6313746,0.6406921635841837,-1.1878319316007653,-0.061146314971301824,1.3509885336460696
169,1790482348.6513746,0.47304079639668367,-1.1447215800382653,-0.04677619778380182,1.2394930832965632
170,1790482348.6765215,0.7125427495216837,-1.1399315409757653,-0.11383674465880182,1.3491181906867231
171,1790482348.6965215,0.8610339604591837,-1.1782518534757653,-0.12820686184630184,1.4649552589439652
172,1790482348.7216249,0.7269128667091838,-1.1543016581632655,0.0011241928411981795,1.3641172594888504
173,1790482348.7416248,0.6167419682716837,-1.0489207987882654,0.01070427096619818,1.2168484207061951
174,1790482348.751321,0.6885925542091837,-1.1207713847257654,-0.04198615872130182,1.3160741012787265
175,1790482348.771321,0.7460730229591837,-1.2117821269132654,-0.027616041533801823,1.4233072487849867
176,1790482348.796888,0.6694323979591837,-1.2165721659757653,0.06818473971619818,1.3902649852436455
177,1790482348.816888,0.7317029057716837,-1.1686717753507654,0.034654466278698184,1.3792692967108695
178,1790482348.8414643,0.7125427495216837,-1.1782518534757653,-0.032406080596301824,1.3773324777172036
179,1790482348.8614643,0.6646423588966837,-1.1638817362882654,-0.07072639309630183,1.3421521463625308
180,1790482348.871181,0.6071618901466836,-1.1974120097257654,-0.032406080596301824,1.342941263027391
181,1790482348.891181,0.6885925542091837,-1.2022020487882654,-0.022826002471301822,1.3856300004733768
182,1790482348.9164019,0.7796032963966837,-1.1926219706632655,-0.08509651028380183,1.427364662839804
183,1790482348.9364018,0.6215320073341837,-1.1303514628507654,-0.10904670559630182,1.29456079413488
184,1790482348.9621074,0.5832116948341837,-1.0872411112882654,-0.022826002471301822,1.2339976261952545
185,1790482348.9821074,0.6885925542091837,-1.1447215800382653,0.05381462252869818,1.3369529592007106
186,1790482348.9913414,0.7364929448341837,-1.1255614237882654,-0.00845588528380182,1.3451326620474011
187,1790482349.0113413,0.5880017338966836,-1.0776610331632654,-0.027616041533801823,1.227950319521934
188,1790482349.036423,0.4874109135841837,-1.0920311503507654,-0.027616041533801823,1.1961873088138752
189,1790482349.056423,0.6454822026466837,-1.1351415019132653,-0.022826002471301822,1.3060300646188578
190,1790482349.081525,0.6502722417091837,-1.1207713847257654,-0.013245924346301821,1.2958232671430872
191,1790482349.101525,0.5353113042091837,-1.0824510722257654,-0.09467658840880183,1.2112894668779945
192,1790482349.1111922,0.6311120854591837,-1.0824510722257654,-0.09946662747130182,1.2569392977212002
193,1790482349.1311922,0.7412829838966837,-1.1111913066007655,-0.08030647122130183,1.3381687903250117
194,1790482349.1566377,0.7077527104591838,-1.0345506816007655,-0.12820686184630184,1.2600182583547772
195,1790482349.1766376,0.5592614995216837,-0.9674901347257654,-0.15694709622130182,1.128469306915886
196,1790482349.2012231,0.6502722417091837,-1.0345506816007655,-0.19047736965880183,1.2367015523117255
197,1790482349.221223,0.7221228276466837,-1.1447215800382653,-0.13778693997130181,1.3604536430324994
198,1790482349.2313373,0.7173327885841837,-1.1926219706632655,-0.061146314971301824,1.3930729938956041
199,1790482349.2513373,0.6933825932716837,-1.1926219706632655,-0.013245924346301821,1.3796021310771756
200,1790482349.2769718,0.8131335698341837,-1.2644725566007653,-0.037196119658801825,1.5038153477423453
201,1790482349.2969718,0.8466638432716838,-1.4033836894132654,-0.027616041533801823,1.6392339945733079
202,1790482349.3219674,0.6933825932716837,-1.3363231425382653,-0.0036658462213018206,1.5055073564629398
203,1790482349.3419673,0.5736316167091837,-1.3219530253507654,0.09213493502869818,1.44398818526163
204,1790482349.3671145,0.5209411870216837,-1.4512840800382654,0.2358361069036982,1.5598794410554835
205,1790482349.3871145,0.4922009526466837,-1.7003661112882653,0.4370177475286982,1.8233187329315017
206,1790482349.3961709,0.5736316167091837,-1.7626366191007654,0.3651671615911982,1.8892559748715738
207,1790482349.4161708,0.4490906010841837,-1.5327147441007654,0.2885265365911982,1.6230047495566178
208,1790482349.4413126,0.1904284917091837,-1.5518749003507655,0.3364269272161982,1.599300407725036
209,1790482349.4613125,0.06588747608418367,-1.4560741191007653,0.17835563815369818,1.4684358118355145
210,1790482349.486392,-0.30773557079081637,-1.4656541972257655,0.11608513034119819,1.5021049114032567
211,1790482349.506392,-0.39874631297831636,-1.7434764628507655,0.2837364975286982,1.8108603476409413
212,1790482349.5169458,-0.6286681879783164,-1.7530565409757655,0.4705480209661982,1.920897281602809
213,1790482349.5369458,-0.005963109853316333,-0.49327626753826537,0.2406261459661982,0.5488697267277102
214,1790482349.5616393,0.21437868702168367,0.07194834183673468,0.12087516940369819,0.2564090324473172
215,1790482349.5816393,-0.26941525829081636,-0.16276357222576535,0.08255485690369818,0.3254103044496122
216,1790482349.606791,-1.0310314692283165,-0.23461415816326534,-0.01803596340880182,1.0575419564848678
217,1790482349.626791,-1.1220422114158164,-0.05738271285076533,-0.05635627590880182,1.1249211215757833
218,1790482349.63634,0.22395876514668367,0.2731299824617347,0.04902458346619818,0.35659630619176236
219,1790482349.65634,1.0861657963966838,0.5030518574617346,-0.15694709622130182,1.2072488142756828
220,1790482349.6817982,0.21437868702168367,0.4168311543367347,-0.18568733059630183,0.5041688382068213
221,1790482349.7017982,-1.0070812739158164,0.18690927933673468,-0.07551643215880183,1.0270591523861106
222,1790482349.7263706,-0.26462521922831633,0.7473438496492347,-0.07072639309630183,0.7959595209183599
223,1790482349.7463706,0.7939734135841837,1.1640772480867347,-0.23837776028380184,1.4290883729110766
224,1790482349.7568305,0.4586706792091837,0.8862549824617347,-0.13299690090880184,1.0067347523334085
225,1790482349.7768304,-0.4466467036033164,0.3928809590242347,-0.07551643215880183,0.5996260979389624
226,1790482349.8009923,-0.30773557079081637,0.4168311543367347,-0.23837776028380184,0.5703274054028669
227,1790482349.8209922,1.0861657963966838,0.4934717793367347,-0.32459846340880183,1.236379673365411
228,1790482349.846756,0.8418738042091837,0.2731299824617347,-0.39165901028380185,0.967857566933109
229,1790482349.866756,0.06109743702168367,0.3258204121492347,-0.6024207290338018,0.6876064081677344
230,1790482349.8773773,-0.4466467036033164,0.07194834183673468,-0.5209900649713018,0.6900003547329274
231,1790482349.8973773,0.21437868702168367,-0.11486318160076534,-0.29106818997130185,0.37930523744045674
232,1790482349.9214482,0.8754040776466837,0.028837990274234674,-0.26232795559630184,0.91431935620484
233,1790482349.9414482,0.8227136479591837,0.024047951211734673,-0.2671179946588018,0.8653254148390241
234,1790482349.9665303,0.21916872608418367,0.10068857621173467,-0.33896858059630186,0.41602021405742035
235,1790482349.9865303,0.8083435307716837,-0.07654286910076533,-0.0036658462213018206,0.8119676797626413
236,1790482350.012117,1.5460095463966836,-0.27772450972576535,0.02986442721619818,1.5710405166210857
237,1790482350.032117,1.5507995854591838,-0.30646474410076535,-0.3868689712213018,1.6274420402985026
238,1790482350.0565114,1.0574255620216837,-0.23461415816326534,-0.5976306899713019,1.2370752054839291
239,1790482350.0765114,1.3639880620216838,-0.09570302535076533,-0.33417854153380183,1.4075858055623525
240,1790482350.1016114,2.130394312021684,-0.22982411910076533,-0.22400764309630183,2.1544322859120792
241,1790482350.1216114,2.743519312021684,-0.48848622847576534,-0.49703986965880187,2.8306475659956063
242,1790482350.1325376,2.250145288584184,-0.7950487284757654,-0.5976306899713019,2.46016640534418
243,1790482350.1525376,2.139974390146684,-1.0680809550382653,-0.5449402602838018,2.4530077872435103
244,1790482350.1614406,2.781839624521684,-1.4943944316007653,-0.7173816665338019,3.2382839389462332
245,1790482350.1814406,3.078822046396684,-1.8632274394132655,-0.9520935805963019,3.7225319166628332
246,1790482350.2065263,3.026131616709184,-2.1075194316007653,-0.9856238540338018,3.817140958605301
247,1790482350.2265263,3.1171423588966842,-2.0739891581632652,-0.7700720962213019,3.8224362057705323
248,1790482350.2519827,3.160252710459184,-2.4476122050382654,-0.34854865872130186,4.0124168362364
249,1790482350.2719827,3.1842029057716843,-2.4236620097257653,-0.49703986965880187,4.032410484380677
250,1790482350.2820382,3.371014429209184,-2.4332420878507652,-0.8036023696588018,4.234404575444594
251,1790482350.3020382,3.409334741709184,-2.7302245097257654,-0.8419226821588018,4.4482044756582395
252,1790482350.3263085,3.318323999521684,-2.9697264628507654,-0.7078015884088018,4.509050068308371
253,1790482350.3463085,3.059661890146684,-2.9218260722257656,-0.7509119399713019,4.2967973212551795
254,1790482350.3718996,3.078822046396684,-2.8260252909757653,-1.0143640884088019,4.300523066147459
255,1790482350.3918996,3.165042749521684,-3.3433495097257655,-0.8323426040338019,4.678490756747636
256,1790482350.401463,3.428494897959184,-3.5924315409757654,-0.49703986965880187,4.990710397724968
257,1790482350.421463,3.198573022959184,-3.2619188456632653,-0.037196119658801825,4.5686286224876165
258,1790482350.4465392,3.059661890146684,-2.1841600566007653,-0.01803596340880182,3.7593099540796477
259,1790482350.4665391,2.8680603276466843,-1.0297606425382655,-0.5880506118463018,3.1035432244507946
260,1790482350.491528,2.2549353276466837,-1.2022020487882654,-0.5641004165338018,2.6169127570313395
261,1790482350.511528,2.3842663823341836,-1.8919676737882654,-0.3054383071588018,3.0590129813501528
262,1790482350.5220513,2.681248804209184,-2.2416405253507654,-0.20963752590880183,3.5011419975826743
263,1790482350.5420513,2.4513269292091837,-2.117099509725765,-0.2958582290338018,3.2524830729204757
264,1790482350.5665696,2.044173608896684,-1.7913768534757655,-0.4347693618463018,2.7525808203354662
265,1790482350.5865695,2.729149194834184,-1.8153270487882653,-0.5257801040338018,3.3196554549417
266,1790482350.6116412,2.978231226084184,-2.0452489237882654,-0.7700720962213019,3.6940378219041867
267,1790482350.6316411,2.499227319834184,-2.6535838847257653,-0.5401502212213019,3.685024679831502
268,1790482350.641886,2.614188257334184,-2.8308153300382655,-0.2862781509088018,3.8638647565942774
269,1790482350.661886,2.709989038584184,-2.3997118144132656,-0.2862781509088018,3.6310621808458197
