imu_index,t_imu,ax,ay,az,mag,vx,vy,vz,velocity
0,1791286144.7733848,-0.010331456801470585,-0.013336971507352928,0.020850758272059466,0.026821035199045783,0.0,0.0,0.0,0.0
1,1791286144.7933848,-0.024701573988970587,0.020193301930147074,0.04001091452205947,0.05117431466337599,-6.572209093000683e-05,-6.720136628855951e-06,0.0001178771135715713,0.00013512796667044058
2,1791286144.8178282,0.023198816636029417,-0.04207720588235293,-0.007889476102940536,0.048692095676371346,-0.00013675209125071615,-5.3820073451420405e-05,0.00029921991991729976,0.00033336210828928316
3,1791286144.8378282,0.013618738511029415,-0.03249712775735293,-0.007889476102940536,0.036107854883506776,-0.00013092603569273806,-0.00019843871687555076,0.00040167252366271394,0.00046675514720568917
4,1791286144.848227,-0.04386173023897059,-0.003756893382352928,0.011270680147059465,0.04544220349432798,-0.00015193815631498592,-0.0002906282902952988,0.0004495887258017398,0.000556489019507481
5,1791286144.868227,-0.034281652113970586,0.0010331456801470722,0.011270680147059465,0.036101624515207494,-0.00030350357059837367,-0.0004454247106967901,0.0005617337712482335,0.0007785001092010482
6,1791286144.8935547,-0.0007513786764705856,-0.003756893382352928,-0.012679515165440537,0.013245713368197973,-0.0005332006665761561,-0.0006172258058403342,0.0006797735963594237,0.0010617734167608134
7,1791286144.9135547,0.0040386603860294145,-0.02291704963235293,-0.007889476102940536,0.02457123877105671,-0.0006824428321939925,-0.0007725498709535019,0.0007281486712807375,0.0012620467542096582
8,1791286144.9386637,-0.010331456801470585,0.005823184742647073,0.020850758272059466,0.023987550952681822,-0.0008535549451203142,-0.0009704925410749621,0.0008041798571499585,0.0015222079553291025
9,1791286144.9586637,-0.04865176930147059,0.015403262867647073,0.030430836397059464,0.059416251707407046,-0.0010578804723354886,-0.0010726691940178119,0.0009325787864309296,0.001771844656408841
10,1791286144.9838512,-0.05344180836397059,0.020193301930147074,0.0016906020220594643,0.057154653872195135,-0.001469465797026098,-0.0011148020638322297,0.0011307053035897912,0.0021634712509576424
11,1791286145.0038512,-0.024701573988970587,-0.008546932444852929,-0.007889476102940536,0.027303143499024754,-0.0018644751395677766,-0.0011257695811816755,0.001255130022668335,0.002513757360960612
12,1791286145.0133975,-0.05344180836397059,-0.008546932444852929,0.030430836397059464,0.06208955418790535,-0.002080685651838114,-0.0011424580039417292,0.0013217502417426398,0.0027168891722118963
13,1791286145.0333974,-0.029491613051470588,0.0010331456801470722,0.04959099264705947,0.057706924905896545,-0.002590112632793173,-0.0011834473615745548,0.0015604199373370998,0.00324717438537133
14,1791286145.058454,-0.04865176930147059,0.029773380055147073,0.035220875459559466,0.06703699638415749,-0.0032794553202914398,-0.001169204185807124,0.0019739631397444127,0.004002298852280567
15,1791286145.078454,-0.03907169117647059,-0.018127010569852928,-0.003099437040440536,0.043183238340317925,-0.0038787340967417106,-0.0011420711762753898,0.0023027191352002433,0.0046531086577172405
16,1791286145.1033292,-0.05823184742647059,-0.03249712775735293,-0.007889476102940536,0.0671509880817575,-0.0046938220214858654,-0.001207832562116081,0.002629777161207672,0.005514213686927905
17,1791286145.1233292,-0.05823184742647059,-0.02291704963235293,0.016060719209559465,0.0646071661666087,-0.005425558206551942,-0.0013358958643548834,0.0028655493699993716,0.006279543996580278
18,1791286145.1332817,-0.03907169117647059,0.03456341911764707,0.011270680147059465,0.05336904742890715,-0.005807701932270692,-0.001381371211124702,0.0029856784152660757,0.0066747182529609895
19,1791286145.1532817,0.027988855698529415,0.005823184742647073,-0.012679515165440537,0.031273880934267445,-0.0064770674567477165,-0.0013984679920427713,0.0031887580865523524,0.007353658524746814
20,1791286145.177858,0.008828699448529416,0.03935345818014707,0.025640797334559467,0.04779216559898704,-0.0071083558399131575,-0.0013330545339059995,0.0034247652657734633,0.008002173096280986
21,1791286145.197858,-0.010331456801470585,0.03935345818014707,0.04001091452205947,0.05706406006646203,-0.007547284227182752,-0.0011697465313752979,0.0036864934211527528,0.008480568371149933
22,1791286145.2230115,0.018408777573529416,0.03935345818014707,0.011270680147059465,0.04488436246027768,-0.008001269746916713,-0.0008466859535118247,0.004063029152286811,0.009013623053973987
23,1791286145.2430115,0.04714901194852942,0.005823184742647073,-0.017469554227940536,0.05061742914444117,-0.008209760342054197,-0.0005605797992680076,0.00430821341314264,0.009288439987344233
24,1791286145.253278,-0.0007513786764705856,-0.02291704963235293,0.011270680147059465,0.02554963727226871,-0.00826500497904011,-0.0004489056555413434,0.0044104212111644395,0.009378893263654514
25,1791286145.273278,-0.034281652113970586,0.015403262867647073,0.04480095358455947,0.05847749670359523,-0.008409032004092072,-0.00027525928544803676,0.004663770653103392,0.009619685214434959
26,1791286145.2985134,-0.04386173023897059,0.03935345818014707,0.020850758272059466,0.06250840080191356,-0.008711400421020617,1.4613153984663362e-05,0.00505974559709203,0.01007421145037763
27,1791286145.3185134,-0.019911534926470586,-0.018127010569852928,-0.017469554227940536,0.032097399587047125,-0.00901075247062318,0.0002417270501831792,0.005331568222911242,0.010472712722556125
28,1791286145.3433614,-0.029491613051470588,-0.06123736213235293,-0.031839671415440536,0.07505687468280187,-0.00941894795945471,0.00033366513484891857,0.005526731266327615,0.010925780135776716
29,1791286145.3633614,-0.06302188648897059,0.010613223805147072,0.016060719209559465,0.06589647485029185,-0.009836988885862472,0.00032062931108653474,0.005636585505006637,0.011341968508639078
30,1791286145.3730016,-0.06302188648897059,0.020193301930147074,0.030430836397059464,0.07283929861891432,-0.010099395966662188,0.00033756202795436497,0.005715207992593366,0.011609278591400598
31,1791286145.3930016,-0.029491613051470588,0.015403262867647073,0.0016906020220594643,0.03331476973572678,-0.010700906310246705,0.00042081672441521425,0.0059020364685852915,0.012227858236532513
32,1791286145.417919,-0.029491613051470588,0.053723575367647075,0.006480641084559464,0.06162772508804626,-0.011448127127632619,0.0006381669258315231,0.0061151562047399785,0.012994691499379006
33,1791286145.437919,-0.03907169117647059,0.06330365349264708,0.006480641084559464,0.07467227267047319,-0.012060766750695246,0.0009619957546024092,0.006280000008381801,0.013631798507600693
34,1791286145.492912,-0.0007513786764705856,-0.02291704963235293,0.006480641084559464,0.023827598339615813,-0.0136568846604675,0.00188542612525462,0.0067187334276473465,0.015336450344681816
35,1791286145.512912,-0.015121495863970586,-0.03728716681985293,0.0016906020220594643,0.04027220607084509,-0.014174100442874826,0.002080579086300499,0.006866615547754988,0.015886608882317393
36,1791286145.4939134,-0.024701573988970587,0.010613223805147072,0.006480641084559464,0.027655143932686536,-0.014174100442874826,0.002080579086300499,0.006866615547754988,0.015886608882317393
37,1791286145.5139134,-0.010331456801470585,0.0010331456801470722,0.016060719209559465,0.019124672315241686,-0.014651112707374873,0.0022050373933138463,0.007017690712753503,0.016394062230270463
38,1791286145.5536165,-0.024701573988970587,-0.04686724494485293,0.020850758272059466,0.05693382585751011,-0.015560334962542282,0.0022785646393903417,0.007382525220589336,0.017372897271181725
39,1791286145.5736165,-0.034281652113970586,-0.02770708869485293,0.0016906020220594643,0.04411091215113039,-0.01603811815008173,0.002198185951596141,0.007572551124403383,0.017871675517574688
40,1791286145.583494,-0.005541417738970586,-0.02291704963235293,-0.012679515165440537,0.02677066639514493,-0.016268188844910325,0.0021269408630468427,0.0076441817519344825,0.018100037579661853
41,1791286145.603494,-0.024701573988970587,0.010613223805147072,-0.02704963235294054,0.038137788183112774,-0.016709526007876785,0.0019858658251639496,0.0077078709520995515,0.018508462850752486
42,1791286145.6132352,-0.04386173023897059,0.029773380055147073,-0.012679515165440537,0.05450757419198815,-0.01694233441395947,0.0019569662962452957,0.007705212622907749,0.0187147726153243
43,1791286145.6332352,-0.03907169117647059,0.053723575367647075,-0.003099437040440536,0.06650132413448923,-0.01747301865721081,0.002031777765880144,0.0076769050495122775,0.019192951128588567
44,1791286145.6733987,-0.05344180836397059,0.058513614430147076,0.025640797334559467,0.08329057835579738,-0.018657545773494332,0.0024975653073099255,0.007696485929008284,0.020336610887995495
45,1791286145.6933987,-0.05344180836397059,0.03456341911764707,0.030430836397059464,0.07054567758649773,-0.01931924501086078,0.0028343342918141176,0.007788881284582547,0.021022210881178574
46,1791286145.702692,-0.03907169117647059,0.03935345818014707,0.035220875459559466,0.06569476227420168,-0.019645075766608424,0.003018866696847478,0.007871133510629149,0.021377495193573768
47,1791286145.722692,-0.019911534926470586,0.0010331456801470722,0.020850758272059466,0.028849449451320917,-0.020329582819807596,0.003417006064845285,0.008105702378206858,0.022151078509153318
48,1791286145.7478426,-0.029491613051470588,-0.013336971507352928,0.0016906020220594643,0.032411235468007164,-0.021154440309915142,0.003819368195054979,0.008398952323533309,0.02307900167615891
49,1791286145.7678425,-0.06302188648897059,0.005823184742647073,-0.022259593290440537,0.06709066366217818,-0.021850755726421454,0.004080065856065856,0.008566315079845989,0.023821927236325174
50,1791286145.7932026,-0.015121495863970586,0.010613223805147072,0.0016906020220594643,0.01855150376382496,-0.02274987771984504,0.004392309434745104,0.008707577207601338,0.024752196251338808
51,1791286145.8132026,-0.019911534926470586,0.0010331456801470722,0.06396110983455947,0.0669967177135794,-0.023405147821824103,0.004619089433305976,0.008900748834050017,0.025462919344826886
52,1791286145.8236363,-0.024701573988970587,0.058513614430147076,0.05438103170955947,0.08361403854023927,-0.02373062616371728,0.004766247702846053,0.009079012978222712,0.02585127099284917
53,1791286145.8436363,0.018408777573529416,0.020193301930147074,-0.003099437040440536,0.027500164446079518,-0.024270379657638955,0.005124078560491228,0.00944638788354908,0.026543205418081733
54,1791286145.8679461,0.023198816636029417,-0.008546932444852929,-0.007889476102940536,0.02595147357488327,-0.024752176453908818,0.0055150130195949715,0.009805913407803428,0.027188996773935575
55,1791286145.8879461,0.023198816636029417,0.020193301930147074,0.025640797334559467,0.0400425401804899,-0.02501950233770642,0.00580586445874381,0.010083957882459678,0.027592929636322094
56,1791286145.8978689,-0.0007513786764705856,0.0010331456801470722,0.030430836397059464,0.030457638840469238,-0.025115532688657582,0.005944318290848535,0.010242942786856344,0.027767657069201146
57,1791286145.9178689,-0.015121495863970586,0.015403262867647073,-0.003099437040440536,0.021806573644237867,-0.025303864472701863,0.006206176739835941,0.010556318244560898,0.028111172900812827
58,1791286145.9432425,0.008828699448529416,0.029773380055147073,0.016060719209559465,0.03496207653142195,-0.025518933660994506,0.006574532866904328,0.010918922735564105,0.02852478450957101
59,1791286145.9632425,0.05193905101102942,0.015403262867647073,0.04001091452205947,0.06734833930979812,-0.025571875143984183,0.0068890906608509266,0.011245969493147512,0.028772420794117133
60,1791286145.9891334,0.05193905101102942,0.03456341911764707,0.035220875459559466,0.07164359726567507,-0.025428418148939463,0.0073322437584793215,0.011751925052705448,0.02895641536059805
61,1791286146.0091333,0.03756893382352942,0.07288373161764708,0.035220875459559466,0.08924109586556936,-0.025199962067420735,0.007784389795779323,0.01218979930142002,0.02905556779174995
62,1791286146.0186865,0.008828699448529416,0.005823184742647073,0.030430836397059464,0.03221631913059064,-0.02507396293511366,0.008024358804545195,0.0124146198874708,0.029106987794100595
63,1791286146.0386865,-0.03907169117647059,-0.018127010569852928,0.025640797334559467,0.050126201247860394,-0.024895110934539964,0.008432929818011302,0.012898797255342383,0.029278999716400553
64,1791286146.0636582,-0.05823184742647059,0.0010331456801470722,0.0016906020220594643,0.05826554367628563,-0.02488753321812367,0.008834531188462483,0.013463842750350166,0.02964309890361131
65,1791286146.0836582,-0.024701573988970587,-0.013336971507352928,-0.03662971047794054,0.0461495206499296,-0.02500677455459912,0.00908947336760235,0.01379609978688085,0.029971480928617327
66,1791286146.1080618,0.008828699448529416,-0.02770708869485293,-0.05099982766544054,0.058707845470614445,-0.025159497653762294,0.009278765737073761,0.013980315572208569,0.030241445720925804
67,1791286146.1280618,-0.005541417738970586,-0.013336971507352928,-0.017469554227940536,0.022666438724878613,-0.025260956497242647,0.009349064303062092,0.014005939751627143,0.030359302937066665
68,1791286146.138485,-0.034281652113970586,0.058513614430147076,0.020850758272059466,0.07094948108240874,-0.025337032553111687,0.009415521896573973,0.014019934115413612,0.030449561963726897
69,1791286146.158485,0.013618738511029415,0.06809369255514708,0.011270680147059465,0.07035090074337363,-0.025492105274012362,0.00971382355465999,0.014090940727767051,0.030704403754931317
70,1791286146.183926,0.0040386603860294145,0.010613223805147072,-0.007889476102940536,0.013827332730165046,-0.025626085902838117,0.010186542146123065,0.014174168314228896,0.031005950509450125
71,1791286146.203926,0.023198816636029417,0.0010331456801470722,0.016060719209559465,0.02823471595105632,-0.025674756604995786,0.010519885854314789,0.014242038475670056,0.03118808722983911
72,1791286146.2286801,-0.005541417738970586,0.010613223805147072,0.020850758272059466,0.02404375076014087,-0.025693178614027236,0.010892201550345215,0.0143819692791865,0.031394593838002006
73,1791286146.24868,-0.010331456801470585,0.015403262867647073,0.0016906020220594643,0.018624114524118444,-0.02572963932331698,0.011186916179238568,0.014511879567930357,0.031587277215730444
74,1791286146.2584004,-0.005541417738970586,0.029773380055147073,0.04001091452205947,0.05018002342922487,-0.02575627347403182,0.011341601860641164,0.014595948779877712,0.031702669868943656
75,1791286146.2784004,-0.029491613051470588,0.010613223805147072,0.06875114889705947,0.07555869397085588,-0.02585540372830285,0.011672713192828265,0.014906121285925876,0.032046007349220536
76,1791286146.303144,0.013618738511029415,0.005823184742647073,0.05438103170955947,0.056362009625056005,-0.025989105672408763,0.012051412730572048,0.015460803977203234,0.03255313536474984
77,1791286146.323144,0.056729090073529415,-0.013336971507352928,-0.022259593290440537,0.0623823209171828,-0.025975443534614805,0.012300326399591565,0.015890079105054366,0.032840772072552385
78,1791286146.3487113,0.023198816636029417,-0.04686724494485293,-0.05099982766544054,0.07304591818806573,-0.025807332588729946,0.012455354315477105,0.0162160557972708,0.032925897589733175
79,1791286146.3687112,-0.005541417738970586,-0.08039751838235293,-0.05099982766544054,0.09537007232094977,-0.025669067637219767,0.012367537175634437,0.01627980206741853,0.03281598641682416
80,1791286146.393461,-0.0007513786764705856,-0.03249712775735293,-0.017469554227940536,0.03690275338394315,-0.02553531237540679,0.012065606725024255,0.016219759541418858,0.03256856833411628
81,1791286146.413461,-0.019911534926470586,0.04414349724264707,0.020850758272059466,0.05272448854621071,-0.02547443359656462,0.011875687842500003,0.016183589644170156,0.032432812128601704
82,1791286146.4232867,0.013618738511029415,0.058513614430147076,0.04959099264705947,0.07790108897847589,-0.025453648387104465,0.011872029959643697,0.01622039584867242,0.0324335405570322
83,1791286146.4432867,0.027988855698529415,0.03456341911764707,0.025640797334559467,0.05133669713145934,-0.02535527544537486,0.012005316676752314,0.016396923822032027,0.03249425691172915
84,1791286146.468522,-0.024701573988970587,0.024983340992647072,0.011270680147059465,0.03689665724242222,-0.02524354816769024,0.012260969037172354,0.016656111889783675,0.03263424810088306
85,1791286146.488522,-0.024701573988970587,0.029773380055147073,-0.017469554227940536,0.042447700083323395,-0.025242387088403175,0.012515325740260553,0.016821417137189345,0.03281419751889324
86,1791286146.5128253,0.008828699448529416,0.024983340992647072,0.011270680147059465,0.028794817104553096,-0.025270119945617633,0.012877854702248621,0.01698085982601603,0.03305703713627303
87,1791286146.5328252,-0.015121495863970586,0.029773380055147073,0.030430836397059464,0.04517908366597211,-0.025298958147192654,0.013213577176226756,0.017154941525512613,0.03330056942259792
88,1791286146.5437102,-0.0007513786764705856,0.015403262867647073,0.006480641084559464,0.0167279342942328,-0.025325257290947627,0.013405767823242046,0.017265607582278762,0.033454214577069506
89,1791286146.5637102,0.018408777573529416,-0.003756893382352928,-0.003099437040440536,0.019042159793618518,-0.025339844714237787,0.013723397013053638,0.017443515500301484,0.03368553975712475
90,1791286146.6036792,-0.005541417738970586,0.010613223805147072,0.006480641084559464,0.013614203574311588,-0.025326051986877086,0.014283501267822013,0.01775586035183663,0.03406901663599638
91,1791286146.6236792,-0.0007513786764705856,-0.003756893382352928,0.0016906020220594643,0.0041877145316763726,-0.025329624717682277,0.014532014656239232,0.017900966706623847,0.03425221083870979
92,1791286146.6335168,0.03756893382352942,-0.05644732306985293,-0.012679515165440537,0.06898184670780944,-0.025303953670644377,0.014591497996756889,0.017953527747762908,0.03428601819612727
93,1791286146.6535168,0.07109920726102942,-0.05644732306985293,-0.003099437040440536,0.09083503764994444,-0.025096590574430557,0.014524946809403694,0.018020687832463814,0.03414027135556647
94,1791286146.67846,0.03756893382352942,-0.018127010569852928,0.011270680147059465,0.04320927599270338,-0.024673479281563663,0.014314888301129005,0.018107169336732523,0.03378707131908088
95,1791286146.6984599,0.023198816636029417,0.005823184742647073,0.04001091452205947,0.04661510329014259,-0.02429395615803936,0.014153267162413176,0.018243033141598936,0.033515959413164036
96,1791286146.709269,0.056729090073529415,0.015403262867647073,0.006480641084559464,0.059139232971077066,-0.024054810103280012,0.014096227952953348,0.018343137893197962,0.03337376573560977
97,1791286146.729269,0.0040386603860294145,0.010613223805147072,0.016060719209559465,0.019669722895357122,-0.023587545123905762,0.01404554506791662,0.018534388177277192,0.03312360436808108
98,1791286146.7834783,-0.03907169117647059,-0.003756893382352928,0.006480641084559464,0.0397832880509233,-0.02265344940251336,0.013956652774889259,0.019066654906300412,0.03273383961326575
99,1791286146.8034782,-0.03907169117647059,0.015403262867647073,-0.007889476102940536,0.042732907595180024,-0.0224777324883198,0.013946245740970111,0.019231460193001617,0.03270466769803662
100,1791286146.7834783,-0.034281652113970586,-0.003756893382352928,-0.02704963235294054,0.04382953946802223,-0.0224777324883198,0.013946245740970111,0.019231460193001617,0.03270466769803662
101,1791286146.8034782,-0.034281652113970586,-0.008546932444852929,0.0016906020220594643,0.03537145545601955,-0.02254714729957871,0.013935120044756007,0.019267946182625728,0.03276911918418347
102,1791286146.8278127,-0.034281652113970586,0.020193301930147074,0.035220875459559466,0.0531367216023268,-0.02274407076249694,0.013944869273567273,0.019373046998805637,0.03297070038571035
103,1791286146.8478127,0.0040386603860294145,0.053723575367647075,0.020850758272059466,0.05776926041171719,-0.022927005537482583,0.014062555275192857,0.019530577585602484,0.033239231408244835
104,1791286146.8884695,-0.0007513786764705856,0.010613223805147072,0.011270680147059465,0.015499461940045388,-0.023233077659024364,0.014462086436694914,0.019900723814731486,0.033837355835864495
105,1791286146.9084694,-0.010331456801470585,-0.008546932444852929,0.04001091452205947,0.04219789490897717,-0.023377680991131713,0.014632243347669948,0.02013241677726378,0.0341457569721628
106,1791286146.9035506,-0.0007513786764705856,-0.013336971507352928,0.04001091452205947,0.042181899670296355,-0.023377680991131713,0.014632243347669948,0.02013241677726378,0.0341457569721628
107,1791286146.9235506,0.013618738511029415,-0.02770708869485293,0.04959099264705947,0.05841591696016548,-0.023476986478992712,0.014665713733330438,0.020536245410000414,0.034467222530725726
108,1791286146.9481227,0.027988855698529415,0.0010331456801470722,0.030430836397059464,0.04135794043631898,-0.023504013803962314,0.01465150973806252,0.02110544342482641,0.03482161892646493
109,1791286146.9681227,0.04235897288602942,-0.02291704963235293,0.020850758272059466,0.05248073806960949,-0.023417190744673355,0.014608857022169115,0.021576159665353326,0.035033044283524876
110,1791286147.0087614,0.0040386603860294145,-0.09955767463235293,0.04480095358455947,0.1092481889918592,-0.023125819254113743,0.01416189868179731,0.022589255172654407,0.0352935877986742
111,1791286147.0287614,-0.05344180836397059,-0.08518755744485293,0.08312126608455947,0.13046873840170148,-0.02307803731906723,0.013697809386212465,0.02320493665573357,0.0354780900511552
112,1791286147.0378273,-0.07739200367647059,-0.003756893382352928,0.15497185202205946,0.17326255048362962,-0.023148586094421917,0.013458519034773282,0.02360404757302437,0.035695095385918446
113,1791286147.0578272,-0.034281652113970586,-0.003756893382352928,0.11665153952205946,0.1216426224331598,-0.02344838692155221,0.012998539782660691,0.024759880579385107,0.03649439096641627
114,1791286147.0683851,-0.06302188648897059,0.005823184742647073,0.07354118795955947,0.09702563570355488,-0.02365995977947427,0.012793778323078178,0.02542911781618232,0.03701505765841364
115,1791286147.088385,-0.07260196461397059,0.048933536305147074,0.09749138327205947,0.13103475131977388,-0.02420406335312284,0.012546212835640305,0.026763251271738443,0.03820360922679138
116,1791286147.1137717,-0.08697208180147059,0.10641400505514707,0.13581169577205948,0.19321723575613278,-0.025094941053596387,0.012574887536018702,0.02864689573059632,0.04010646454160044
117,1791286147.1337717,-0.07260196461397059,0.10641400505514707,-0.022259593290440537,0.13073054436948134,-0.025930873442056194,0.012913331108399269,0.03007859628562039,0.041759864371144984
118,1791286147.1573899,-0.07260196461397059,0.03935345818014707,-0.21386115579044054,0.22925168242036503,-0.02702717116759777,0.013511260042905647,0.03109744562063294,0.04335981150094947
119,1791286147.1773899,-0.1300824333639706,0.029773380055147073,-0.13243049172794055,0.18800459773394962,-0.02812029345849166,0.014045329020798088,0.031311358627763734,0.04436691729893566
120,1791286147.1873505,-0.12050235523897058,-0.013336971507352928,-0.05099982766544054,0.13152822833533354,-0.02877024190733979,0.014283694220316391,0.03126488260205279,0.044824587272015055
121,1791286147.2073505,-0.1061322380514706,0.015403262867647073,-0.08453010110294054,0.13655273872485021,-0.030219469629016893,0.014693614891841105,0.030982266616242076,0.04570579293622109
122,1791286147.2331188,-0.16361270680147058,-0.03249712775735293,-0.04141974954044054,0.17187430520986702,-0.032327910383009355,0.015109504760455538,0.03042934556031263,0.04689707874768993
123,1791286147.2531188,-0.15882266773897058,0.0010331456801470722,-0.04620978860294054,0.1654117642141825,-0.03420255448917947,0.015336681860576571,0.029933125422280868,0.04796895393505915
124,1791286147.2785058,-0.024701573988970587,-0.06602740119485292,0.006480641084559464,0.07079395577975237,-0.0365746382865837,0.015458043804121043,0.029322082971528437,0.04936030625749558
125,1791286147.2985058,-0.05344180836397059,-0.05644732306985293,0.10228142233455947,0.12846718070287144,-0.03828027680008564,0.015355599751010455,0.0290760522465659,0.050463757785656795
126,1791286147.3084757,-0.09176212086397059,0.010613223805147072,0.15018181295955949,0.17631648898730998,-0.03911157121438571,0.015277919547219201,0.0291605817361264,0.05112210241899853
127,1791286147.3284757,-0.015121495863970586,0.03456341911764707,0.16934196920955946,0.17349349300200742,-0.040689355145791646,0.01521323019777406,0.029784000071533392,0.05267022551206636
128,1791286147.3531332,0.008828699448529416,0.005823184742647073,0.18371208639705947,0.18401626586489606,-0.04235442206030156,0.015220126781639533,0.03109021467839257,0.054700555537031584
129,1791286147.3731332,-0.08218204273897059,-0.08518755744485293,0.19329216452205947,0.22665539693065553,-0.04361242416852327,0.015105835151958156,0.03255628375440164,0.05648133682368401
130,1791286147.3987103,-0.16361270680147058,-0.10913775275735293,0.26035271139705946,0.32628775832940715,-0.0454514089053385,0.014608826748269901,0.03502015755296786,0.05920861276432629
131,1791286147.4187102,-0.0965521599264706,0.13036420036764707,0.3657335707720595,0.4000977244544685,-0.047063950363245455,0.014310326152654956,0.037596917653208786,0.061913884350859094
132,1791286147.4278114,-0.05823184742647059,0.20221478630514708,0.3944738051470595,0.44709210550213957,-0.04779333380897571,0.014421880220977807,0.03911251401659939,0.06341909916092388
133,1791286147.4478114,-0.1492425896139706,0.2453251378676471,0.40884392233455946,0.4996109753141652,-0.04946695579224734,0.015301560590307668,0.043148462111024966,0.06740109238282097
134,1791286147.4738085,-0.1875629021139706,0.26927533318014707,0.40884392233455946,0.5242541369780513,-0.05197280699016651,0.017276863598278434,0.04920201943301483,0.07362405448301111
135,1791286147.4938085,-0.15882266773897058,0.3554960363051471,0.3944738051470595,0.5542667720183072,-0.054131003324770756,0.019505703800469926,0.05436551838100257,0.07915963359271655
136,1791286147.5186555,-0.08697208180147059,0.3363358800551471,0.2747228285845595,0.44289795638595264,-0.05686810346793637,0.023148606290613025,0.06106523847988835,0.08659562642445266
137,1791286147.5386555,-0.03907169117647059,0.38902630974264707,0.18371208639705947,0.431993283989152,-0.058929853805641474,0.02672907043589104,0.06633674308079389,0.09267002945121124
138,1791286147.5488167,-0.034281652113970586,0.4848270909926471,0.10707146139705948,0.4976915085449598,-0.0598761218566949,0.028941245471644044,0.06883484353504202,0.09571301553363287
139,1791286147.5688167,0.07588924632352942,0.5183573644301471,0.06875114889705947,0.5283751086502725,-0.06139685056739507,0.034147068088063504,0.07327798794298486,0.1015148217531712
140,1791286147.593294,0.1525298713235294,0.4752470128676471,0.06875114889705947,0.5038370821607513,-0.06255950979060272,0.04138665343301067,0.07815254504972163,0.10832528626951983
141,1791286147.613294,0.21001034007352942,0.36986615349264707,0.035220875459559466,0.4267854548896713,-0.06282319238834869,0.04768237318686669,0.08169399003475578,0.11355294017502968
142,1791286147.6388252,0.1668999885110294,0.3938163488051471,0.035220875459559466,0.42917063368704156,-0.062387583777027696,0.05597607378532171,0.08567162966752924,0.11985474365182926
143,1791286147.6588252,0.3201812385110294,0.4560868566176471,0.04480095358455947,0.5590513140275307,-0.0613669130994944,0.06277327916166217,0.08844016944507974,0.12461158120954602
144,1791286147.6688092,0.2722808478860294,0.4848270909926471,0.04959099264705947,0.5582592899698565,-0.06049018465252394,0.06636203436311747,0.08968560010123365,0.12691134271461485
145,1791286147.6888092,0.20043026194852942,0.37944623161764707,0.0016906020220594643,0.42913236970518337,-0.058288295659711956,0.07376908813419915,0.09188314202582952,0.13146069969235671
146,1791286147.7137346,0.18127010569852942,0.4752470128676471,0.04480095358455947,0.5106130627996737,-0.05524220629605622,0.08321340066630653,0.09429798359652358,0.13736186194602026
147,1791286147.7337346,0.06630916819852942,0.5614677159926471,0.07833122702205947,0.5707702541443117,-0.052793305437441714,0.09120980047363869,0.09612968240867978,0.14264388049070184
148,1791286147.7581902,0.22917049632352943,0.6381083409926471,0.059171070772059464,0.6805898815335659,-0.049706052779344735,0.10172117427198141,0.09828568214319007,0.14992652964877834
149,1791286147.7781901,0.10941951976102943,0.7051688878676471,0.04001091452205947,0.7147283854738946,-0.04705210115624418,0.11104294506854588,0.0999331726335268,0.15662399198499508
150,1791286147.8034637,0.22438045726102943,0.5375175206801471,0.06396110983455947,0.585971584814545,-0.043568695465613955,0.12341124772883294,0.10189986804051186,0.1658678702981277
151,1791286147.8234637,0.1668999885110294,0.4944071691176471,0.06875114889705947,0.5263276313424682,-0.04063870074417275,0.1332785363477402,0.10342181232266266,0.17352447525716477
152,1791286147.833103,0.04235897288602942,0.5183573644301471,0.020850758272059466,0.5205030201290359,-0.03928708985307055,0.13805303213483508,0.10411008305563772,0.17731617101831643
153,1791286147.853103,0.18127010569852942,0.4225565831801471,0.06875114889705947,0.4649082035020486,-0.0365679204475204,0.14788479128624066,0.10545833285475935,0.18527974597385533
154,1791286147.8780394,0.2531206916360294,0.2836454503676471,-0.04141974954044054,0.382413940253961,-0.03287373384862922,0.15962524801166778,0.10693832354480079,0.19492744091715114
155,1791286147.8980393,0.25791073069852943,0.19742474724264708,-0.2617615464154405,0.41714935336768205,-0.029588739812243015,0.16835070534087515,0.10749251001538317,0.20192100738123814
156,1791286147.9234688,0.2531206916360294,-0.018127010569852928,-0.30008185891544054,0.39299846704109137,-0.02506382355889384,0.17812273903984183,0.10701989516453234,0.2093063863704938
157,1791286147.9434688,0.34413143382352945,-0.02291704963235293,-0.19949103860294054,0.39843231469368784,-0.021142973591695792,0.1845939203248483,0.10595458659926334,0.21388855783939537
158,1791286147.9537768,0.4590923713235294,-0.008546932444852929,-0.19470099954044054,0.49874576156968486,-0.018804308281305276,0.18740456546798298,0.10518313321943673,0.21572566996544396
159,1791286147.9737768,0.39682186351102944,-0.10434771369485293,-0.27134162454044053,0.4919169786884312,-0.013663514677253224,0.19187053559979741,0.10321179014226686,0.21829720036926717
160,1791286147.99797,0.37766170726102943,-0.33905962775735293,-0.29529181985294056,0.5871857075732785,-0.006972372376775102,0.19565795501063452,0.10015666988080449,0.2199136372695344
161,1791286148.01797,0.5213628791360294,-0.32947954963235293,-0.29529181985294056,0.6837933052019518,-0.0009221477933040066,0.19731646679994166,0.09712404294021486,0.21992661990768164
162,1791286148.042936,0.37287166819852946,-0.28636919806985295,-0.3527722886029406,0.5877830264259775,0.0071718893422477005,0.19792309475386644,0.0926927879850461,0.21867084940184905
163,1791286148.062936,0.4207720588235294,-0.391750057444853,-0.48689338235294055,0.7533806466678873,0.013873789019542896,0.19731898520393776,0.08841593676491007,0.2166671221429019
164,1791286148.0734923,0.47825252757352943,-0.5881416590073529,-0.43899299172794054,0.8759856950753468,0.01759230075611747,0.19627216108953868,0.08576413141080602,0.21491332322892762
165,1791286148.0934923,0.35850155101102943,-0.554611385569853,-0.30008185891544054,0.725373195762824,0.024835808448354785,0.19287220326057858,0.08038499118441202,0.2104239790983701
166,1791286148.1183403,0.3106011603860294,-0.5498213465073529,-0.29050178079044053,0.6951027827240543,0.03373218380359651,0.18722349109714065,0.07360379113217555,0.20398042531524846
167,1791286148.1383402,0.29623104319852944,-0.784533260569853,-0.20907111672794054,0.8642661625591517,0.040728970691980386,0.18135734117343044,0.06821501026445925,0.19799651985957867
168,1791286148.1632178,0.21480037913602942,-0.832433651194853,-0.13243049172794055,0.8698406875157545,0.049080141796075956,0.17213811666280404,0.061880290251506126,0.18939261297249874
169,1791286148.1832178,0.25791073069852943,-0.784533260569853,-0.10369025735294055,0.8323232854004106,0.05549595075356217,0.16341274444199236,0.05719730115319564,0.1818104970988063
170,1791286148.1927228,0.3393413947610294,-0.7893232996323529,-0.09890021829044054,0.8648497596223074,0.0585134761930756,0.15876603853577378,0.05516111850519802,0.17796974710125574
171,1791286148.2127228,0.3393413947610294,-0.952184627757353,-0.06536994485294054,1.0129567499285674,0.06492841711202028,0.14784303250584893,0.05127295126183547,0.16941716896553474
172,1791286148.2378845,0.36808162913602943,-1.110255916819853,-0.14201056985294055,1.1782696162130646,0.07312339495902104,0.13227014684770358,0.04672368786677727,0.1581945815927906
173,1791286148.2578845,0.3920318244485294,-1.009665096507353,-0.16596076516544053,1.0957442831518416,0.07980032236127291,0.11856878731712059,0.04318812056738796,0.1493045964897226
174,1791286148.2833142,0.37766170726102943,-0.937814510569853,-0.2617615464154405,1.0443387996950468,0.088484489754106,0.1000465556980753,0.03855124082227444,0.13901444674216262
175,1791286148.3033142,0.36329159007352946,-1.067145565257353,-0.41983283547794054,1.202929776259627,0.09540135700532519,0.08465685206059137,0.03442905742347097,0.13211192797902477
176,1791286148.3133514,0.46388241038602945,-1.177316463694853,-0.3623523667279406,1.3162675199312057,0.09897464650298572,0.07640229541602503,0.03208179322913376,0.12908343368544792
177,1791286148.3333514,0.48304256663602946,-1.2443770105698528,-0.31445197610294057,1.3713804398824312,0.10644711504773395,0.05878901143301146,0.027091024995701984,0.12458354547280315
178,1791286148.3575172,0.47825252757352943,-1.311437557444853,-0.39109260110294053,1.449671469625051,0.11586400669998652,0.036067020085619066,0.02068649715234934,0.12309845308071554
179,1791286148.3775172,0.47346248851102946,-1.541359432444853,-0.32882209329044054,1.6456243790882787,0.12391608646249977,0.01580357053750104,0.015101227613909717,0.12582923508216443
180,1791286148.402981,0.4207720588235294,-1.464718807444853,-0.21865119485294054,1.5395644369041144,0.13433795179830127,-0.011866772831827688,0.008011217220248409,0.1350987978930787
181,1791286148.422981,0.5884234260110295,-1.503039119944853,-0.19949103860294054,1.6263964457800673,0.1428095191708239,-0.034791493876680124,0.0026506194500082085,0.1470103145886089
182,1791286148.447629,0.6650640510110295,-1.627580135569853,-0.3815125229779406,1.7991328730357232,0.1540010080780979,-0.06459328272450517,-0.0040388564130538875,0.16704764297446253
183,1791286148.467629,0.6698540900735295,-1.828761776194853,-0.45336310891544057,1.9996530310494025,0.16372228581580078,-0.09033243734687384,-0.009904979390146533,0.18725128764976992
184,1791286148.4774823,0.43514217601102945,-1.8383418543198529,-0.17554084329044053,1.8972780698545186,0.1686098437467041,-0.10382117785615205,-0.01282628732546262,0.19842537646753264
185,1791286148.4974823,0.5740533088235295,-1.7569111902573529,-0.18512092141544054,1.85756396588878,0.178556127591435,-0.132486144164576,-0.01840740508189641,0.22310020541876388
186,1791286148.5232887,0.5548931525735294,-1.790441463694853,-0.31445197610294057,1.9006491235801,0.1916500106174298,-0.17079097676916952,-0.02549554537170484,0.25797152391151357
187,1791286148.5432887,0.46388241038602945,-1.6946406824448528,-0.21865119485294054,1.7705372851971595,0.2018037679478731,-0.20125190348120506,-0.03096451178143976,0.2866808162445304
188,1791286148.5683475,0.3920318244485294,-1.3737080652573528,-0.08932014016544054,1.431342337588292,0.2142261068340797,-0.23945939440703795,-0.03736775178798277,0.32346557049052405
189,1791286148.5883474,0.42556209788602944,-1.4455586511948528,-0.27613166360294056,1.5319894284379278,0.2238798758279275,-0.26960845092057695,-0.04225992027956121,0.35298274245429656
190,1791286148.5979552,0.5548931525735294,-1.4886690027573528,-0.4629431870404406,1.6547985390888893,0.22852831498918727,-0.2840336204044594,-0.044790112801366515,0.36729612368853126
191,1791286148.6179552,0.46388241038602945,-1.4072383386948528,-0.3431922104779406,1.5209495474508472,0.23828140422647784,-0.31390130729600063,-0.050476226015527086,0.39731587901196563
192,1791286148.6426713,0.24833065257352943,-1.349757869944853,-0.16117072610294053,1.3818431254806787,0.24984664584540917,-0.35038610037858137,-0.0573840719947238,0.43415054704262007
193,1791286148.6626713,0.34413143382352945,-1.167736385569853,-0.16596076516544053,1.2286487233963503,0.2586900158906922,-0.3792569087533757,-0.06262604769176024,0.4633339497686129
194,1791286148.6882377,0.31539119944852945,-1.134206112132353,-0.2617615464154405,1.2059909703931337,0.26956357905602346,-0.4150409946789993,-0.0691419706977103,0.49970407495795865
195,1791286148.7082376,0.34413143382352945,-1.191686580882353,-0.37672248391544055,1.2963268031973767,0.27778308747567926,-0.4423239633276525,-0.07443236869813992,0.5275927498851924
196,1791286148.7179093,0.45430233226102945,-1.301857479319853,-0.33361213235294057,1.418633342485622,0.2817408580413071,-0.45534730796310585,-0.07712223175439625,0.5409869874496782
197,1791286148.7379093,0.45430233226102945,-1.220426815257353,-0.3623523667279406,1.3517142664669763,0.29006036065243657,-0.4820219412902379,-0.0828941658347644,0.5686401387841633
198,1791286148.7633636,0.5069927619485295,-1.3784981043198528,-0.47731330422794055,1.5443855330436829,0.30089564632682075,-0.5158403070613978,-0.09074127213728048,0.6040392295511314
199,1791286148.7833636,0.42556209788602944,-1.4838789636948528,-0.45815314797794054,1.61024972754395,0.30953096799532825,-0.5427199172599474,-0.09738526555994988,0.6323276197407093
200,1791286148.807858,0.37287166819852946,-1.4790889246323529,-0.28092170266544053,1.5510171923430425,0.31998724083364694,-0.5761451628132083,-0.10565949189332707,0.6674571230847302
201,1791286148.827858,0.41598201976102944,-1.5317793543198528,-0.22344123391544055,1.6029082993417514,0.32842754222353315,-0.6038597597478486,-0.11215864036048358,0.69648461615547
202,1791286148.8376215,0.5980035041360294,-1.632370174632353,-0.29050178079044053,1.7625640024210882,0.332672332620836,-0.6176768667250726,-0.11523179112500145,0.710966917841166
203,1791286148.8576214,0.5548931525735294,-1.6084199793198528,-0.28571174172794056,1.7252688022477771,0.3417926240208897,-0.6465961304073057,-0.12144702207084837,0.7413893261051604
204,1791286148.88253,0.4399322150735294,-1.474298885569853,-0.22344123391544055,1.5546779547114145,0.35330596658915225,-0.6829694224484866,-0.12897772240264924,0.7796842892500074
205,1791286148.90253,0.5069927619485295,-1.4886690027573528,-0.21865119485294054,1.5877611298458558,0.36258416437074437,-0.7122385008571805,-0.13478053419660643,0.810504010325697
206,1791286148.9276874,0.47346248851102946,-1.2922774011948528,-0.18033088235294054,1.3880442488610258,0.3743542775025278,-0.7487799005831001,-0.14173766121009188,0.8490594968593094
207,1791286148.9476874,0.45430233226102945,-1.105465877757353,-0.13722053079044055,1.2030273854131732,0.3836995005558743,-0.7770691245054002,-0.1469152210599814,0.8790027378600819
208,1791286148.9576156,0.42556209788602944,-1.172526424632353,-0.22823127297794055,1.2680736688313572,0.38829787967893004,-0.7907019950758433,-0.1493720142010036,0.8934746146402462
209,1791286148.9776156,0.42556209788602944,-1.263537166819853,-0.30487189797794056,1.3676900764679736,0.39744831448966783,-0.8176994886777234,-0.15437840579181153,0.922187783832181
210,1791286149.002718,0.38724178538602944,-1.172526424632353,-0.28571174172794056,1.2674405769783852,0.40874072271866513,-0.8510881437173712,-0.16083136384522256,0.957750872816711
211,1791286149.022718,0.23875057444852943,-1.167736385569853,-0.23781135110294055,1.2153864988951677,0.41732722347654116,-0.8772102018292672,-0.16598675908243565,0.9855005600397563
212,1791286149.0483944,0.13336971507352943,-1.2826973230698528,-0.22823127297794055,1.3096524033019188,0.42741386372393886,-0.9104348352719547,-0.17251006887624476,1.020457703211546
213,1791286149.0683944,0.18606014476102942,-1.3976582605698529,-0.14680060891544056,1.4176097522187077,0.4345712077709747,-0.9364528517979278,-0.17739159300050958,1.04750363031889
214,1791286149.078286,0.2722808478860294,-1.340177791819853,-0.10369025735294055,1.3714827900059816,0.4379201069413036,-0.9494216546960211,-0.1796295648272815,1.0608686436261807
215,1791286149.098286,0.28665096507352944,-1.2779072840073529,-0.11327033547794055,1.3145516236329102,0.44451406914348024,-0.9756375331423437,-0.1838012821358562,1.087770318154231
216,1791286149.137556,0.20522030101102942,-1.3258076746323528,-0.11327033547794055,1.34636976011807,0.45696797311204707,-1.0270600249752513,-0.19143103116994692,1.1403148087467274
217,1791286149.157556,0.21480037913602942,-1.344967830882353,-0.15159064797794056,1.3704223413020293,0.4629892764886703,-1.0533268899967345,-0.19513122710169933,1.1670187672543704
218,1791286149.1681497,0.2531206916360294,-1.2874873621323528,-0.16117072610294053,1.321994627499437,0.46607202644286927,-1.067244586948998,-0.19704566519962166,1.1811270619109788
219,1791286149.1881497,0.22917049632352943,-1.306647518382353,-0.20907111672794054,1.3429659658866275,0.47174245302076867,-1.0934699727070518,-0.2006731893665796,1.207678455601725
220,1791286149.2134118,0.21480037913602942,-1.4120283777573528,-0.26655158547794056,1.452932582809625,0.4786716288827725,-1.1267775856551607,-0.20546899082724804,1.2413588369298088
221,1791286149.2334118,0.25791073069852943,-1.388078182444853,-0.28092170266544053,1.4395124134988577,0.4840436404002093,-1.153391891161919,-0.20951750455390972,1.2682699575108025
222,1791286149.243458,0.2914410041360294,-1.2779072840073529,-0.26655158547794056,1.3375479928330312,0.48675122450096814,-1.1667640238916777,-0.21165858506053464,1.2818207357625788
223,1791286149.263458,0.26749080882352944,-1.263537166819853,-0.24739142922794055,1.3150209215049202,0.4921713225361354,-1.193204150889048,-0.21605257779159617,1.3086815780762777
224,1791286149.287532,0.29623104319852944,-1.3689180261948528,-0.21865119485294054,1.4175675428022183,0.4987347231769472,-1.2250093924271264,-0.22138975423690185,1.3410435335656106
225,1791286149.307532,0.29623104319852944,-1.3162275965073529,-0.19470099954044054,1.3631274320415017,0.5042581809653065,-1.2514964759458482,-0.22577864546440451,1.3680262201884357
226,1791286149.3328881,0.29623104319852944,-1.177316463694853,-0.21386115579044054,1.2327057558872134,0.5113371307692421,-1.2847818230069294,-0.23128522527284648,1.402006722331188
227,1791286149.352888,0.3010210822610294,-1.268327205882353,-0.25697150735294055,1.3286466606055127,0.516979094794906,-1.3107664684998213,-0.23568336375716264,1.4286086823725888
228,1791286149.3619254,0.3106011603860294,-1.4120283777573528,-0.22823127297794055,1.4636894255238508,0.5195606355517767,-1.322563478269691,-0.23770148494704005,1.440701011318385
229,1791286149.3819253,0.37287166819852946,-1.344967830882353,-0.18033088235294054,1.4072991772127652,0.5254419804411622,-1.3488903251173532,-0.2421106156054489,1.4677233847677087
230,1791286149.4077299,0.38724178538602944,-1.268327205882353,-0.26655158547794056,1.3526491966696688,0.5333630881746833,-1.3828204089553418,-0.24781094796967718,1.5026904981346902
231,1791286149.4277298,0.2818609260110294,-1.3305977136948528,-0.25697150735294055,1.3841857580877672,0.5395851566962727,-1.4090718874586305,-0.25235160336382256,1.529809483914079
232,1791286149.4533467,0.2818609260110294,-1.2779072840073529,-0.11806037454044054,1.313937159900531,0.5474422983456282,-1.4426639936492287,-0.25801563555253726,1.564463018667896
233,1791286149.4733467,0.34413143382352945,-1.191686580882353,-0.11806037454044054,1.2459861968886894,0.5535954751726183,-1.4686609148327054,-0.26212860505405494,1.591271264893708
234,1791286149.4834368,0.4016119025735294,-1.3210176355698529,-0.24260139016544055,1.401868448994234,0.5567984907828808,-1.4817106898463064,-0.2641653044188374,1.6047661623431646
235,1791286149.5034368,0.37766170726102943,-1.3737080652573528,-0.26655158547794056,1.4493971027310697,0.5633638921875042,-1.5077392449184652,-0.26836049693025865,1.6317701621247438
236,1791286149.5274887,0.4303521369485294,-1.2874873621323528,-0.24739142922794055,1.3798656415325854,0.571532661357041,-1.5391463255329196,-0.27357594989159845,1.664471325904547
237,1791286149.5474887,0.45430233226102945,-1.388078182444853,-0.32882209329044054,1.4970890483578871,0.5786333609790624,-1.565358321996075,-0.27812657265942664,1.6918976426189536
238,1791286149.5734513,0.42556209788602944,-1.4024482996323528,-0.32882209329044054,1.5020280627653877,0.5881816193434969,-1.5997146292324422,-0.28442834172052095,1.727988424118551
239,1791286149.5934513,0.38724178538602944,-1.354547909007353,-0.23302131204044055,1.4279548907476733,0.5956529055611699,-1.6263462049176671,-0.2893974265127879,1.7560054762516508
240,1791286149.6028736,0.3489214728860294,-1.301857479319853,-0.19949103860294054,1.3624888128659542,0.5991649953372509,-1.63888798127679,-0.2916929323664035,1.7691911354072265
241,1791286149.6228735,0.3393413947610294,-1.273117244944853,-0.25697150735294055,1.342391320429917,0.6065340002055927,-1.6653786667523327,-0.29651924201593877,1.7970234439107582
242,1791286149.64825,0.35371151194852946,-1.301857479319853,-0.2617615464154405,1.3742138979532112,0.6158005543185475,-1.6988497967560539,-0.3027117143978191,1.8321941318186736
243,1791286149.66825,0.36808162913602943,-1.3305977136948528,-0.25697150735294055,1.404282278243461,0.6230909906283655,-1.7252210856783343,-0.30763820597101643,1.859911676086914
244,1791286149.6929326,0.22438045726102943,-1.2539570886948528,-0.2521814682904405,1.298595573239745,0.6318354773149693,-1.7576692831888978,-0.3137486743763214,1.8939523780001724
245,1791286149.7129326,0.21959041819852942,-1.220426815257353,-0.22344123391544055,1.2599950587908926,0.6385241616666577,-1.7837294159819361,-0.31867066733573013,1.9211857611099368
246,1791286149.7234652,0.35850155101102943,-1.268327205882353,-0.21386115579044054,1.3352579740314878,0.6419749237028328,-1.7973608692130785,-0.3212193773039257,1.9354120453270856
247,1791286149.7434652,0.37287166819852946,-1.311437557444853,-0.22823127297794055,1.3823860755907547,0.6486416234873243,-1.823232116961447,-0.32599621524297656,1.9624435890982286
248,1791286149.7681358,0.29623104319852944,-1.3305977136948528,-0.2521814682904405,1.38630393478255,0.6568697059095262,-1.8552467048390398,-0.3318936424931119,1.995888658288615
249,1791286149.7881358,0.31539119944852945,-1.311437557444853,-0.21386115579044054,1.3656780988661008,0.6634569341363052,-1.8812703222226443,-0.3366564968344848,2.0230399713278295
250,1791286149.8282845,0.4207720588235294,-1.301857479319853,-0.20428107766544054,1.3833339367773012,0.6769135740586882,-1.9335440523919654,-0.3460425552388624,2.0776308717675263
251,1791286149.8482845,0.39682186351102944,-1.3353877527573528,-0.23781135110294055,1.4132523767141185,0.6838378434256308,-1.9596339280214048,-0.35067998635046116,2.104940802203325
252,1791286149.858317,0.35371151194852946,-1.4120283777573528,-0.2521814682904405,1.4773393199350306,0.6873549246640831,-1.9728253200865178,-0.353025971097132,2.1187552648438452
253,1791286149.8783169,0.3489214728860294,-1.3641279871323528,-0.25697150735294055,1.431302104766832,0.6943685868949377,-1.9993424380305262,-0.3577649840593053,2.1465119852437993
254,1791286149.887933,0.41598201976102944,-1.311437557444853,-0.2521814682904405,1.39875122905773,0.6977866300447411,-2.0121092632888873,-0.360068959566616,2.1598934057322206
255,1791286149.907933,0.33455135569852945,-1.3258076746323528,-0.26655158547794056,1.393104571607808,0.7049550510191286,-2.0386350878949626,-0.3649201646952337,2.1877297301438037
256,1791286149.9328837,0.2818609260110294,-1.306647518382353,-0.22344123391544055,1.3552487977933096,0.7137099947539848,-2.071689401710603,-0.3709813457288641,2.222364977372207
257,1791286149.9528837,0.26749080882352944,-1.234796932444853,-0.19949103860294054,1.2790900952095456,0.7204991306340401,-2.0980228501993676,-0.3757454794869857,2.249889673419119
258,1791286149.9785233,0.27707088694852944,-1.2443770105698528,-0.2617615464154405,1.3014459374138487,0.7289442977063898,-2.1314852796902004,-0.3818238392398366,2.284814813263106
259,1791286149.9985232,0.30581112132352944,-1.306647518382353,-0.29050178079044053,1.3730402266002015,0.7354180860582764,-2.157498673130321,-0.3866824165659147,2.3119609808865653
260,1791286150.0083697,0.28665096507352944,-1.2922774011948528,-0.27613166360294056,1.3521828105181029,0.7385647248291102,-2.1703038779579487,-0.38913405671677753,2.3253219324510885
261,1791286150.0283697,0.29623104319852944,-1.3210176355698529,-0.2617615464154405,1.3788979409741884,0.7448717475316979,-2.1963321196475722,-0.3941736748330464,2.352462876646072
262,1791286150.0527565,0.28665096507352944,-1.344967830882353,-0.26655158547794056,1.4007701416031009,0.7524747208990356,-2.228185052366822,-0.40036324758719344,2.385648248003377
263,1791286150.0727565,0.2531206916360294,-1.2970674402573528,-0.17554084329044053,1.3331423842835326,0.7585843753663704,-2.254352634342885,-0.4053411082877017,2.4128525584019
264,1791286150.0980802,0.28665096507352944,-1.2874873621323528,-0.12764045266544055,1.325173410759795,0.7661850965191612,-2.287424405573499,-0.4112743809329326,2.4471405006155895
265,1791286150.1180801,0.35371151194852946,-1.3162275965073529,-0.19470099954044054,1.3767626515541755,0.7722480728772755,-2.313531356494917,-0.4157409527899406,2.4741938006903506
266,1791286150.1278296,0.31539119944852945,-1.3593379480698529,-0.27613166360294056,1.4225048194633534,0.7752495216031907,-2.326305172201697,-0.41793595439056636,2.487444077146398
267,1791286150.1478295,0.2914410041360294,-1.3305977136948528,-0.27613166360294056,1.3898477723210962,0.7813933746026707,-2.3526136867031076,-0.4225917578310504,2.5147466191492285
268,1791286150.1735141,0.29623104319852944,-1.3353877527573528,-0.2521814682904405,1.3909021439763274,0.7892320409025309,-2.386467571457878,-0.42869172896062485,2.549880640831348
269,1791286150.193514,0.3106011603860294,-1.2779072840073529,-0.23781135110294055,1.3364409250189861,0.7953305032777322,-2.4127945402300077,-0.43346413407529405,2.5772115276665573
270,1791286150.217925,0.2914410041360294,-1.3258076746323528,-0.18991096047794054,1.3706823198376485,0.8027596884289862,-2.4448748386441825,-0.43919843002374026,2.610504042313924
271,1791286150.237925,0.3201812385110294,-1.340177791819853,-0.21865119485294054,1.3951347190118282,0.8088508630118287,-2.4712147813743197,-0.44380468079481544,2.6378219820475555
272,1791286150.2479458,0.3201812385110294,-1.3593379480698529,-0.2617615464154405,1.4208570616846077,0.8119262495056631,-2.484461311564341,-0.4461274546105986,2.6515659428069425
273,1791286150.2679458,0.3106011603860294,-1.3593379480698529,-0.32403205422794057,1.4315269854470383,0.8180897572173351,-2.511011809427902,-0.45094668601664767,2.6791424134561606
274,1791286150.2933047,0.2914410041360294,-1.426398494944853,-0.3527722886029406,1.4979982686501727,0.8258775432560169,-2.544924983470003,-0.457427863221807,2.7143981170779017
275,1791286150.3133047,0.2531206916360294,-1.469508846507353,-0.37672248391544055,1.5380007036360848,0.8319151223700779,-2.5720033856235456,-0.46286692374206384,2.74254078831682
276,1791286150.3379931,0.2531206916360294,-1.474298885569853,-0.7072351792279405,1.6546325535490922,0.8391874965307594,-2.605866571301953,-0.47058101574716327,2.7778089808595894
277,1791286150.3579931,0.08067928538602942,-1.5988399011948529,-0.5922742417279405,1.7069232420227847,0.8446958040768122,-2.6337937719207947,-0.4778420439480055,2.806904639170727
278,1791286150.3683228,0.056729090073529415,-1.8096016199448528,-0.07974006204044054,1.8122457587374343,0.8472204806286283,-2.6486948138667445,-0.4815503636627673,2.8222787800897584
279,1791286150.3883228,0.30581112132352944,-1.709010799632353,0.3322032973345595,1.7676530728469098,0.8519192381407604,-2.6784958887048185,-0.48727457946626535,2.852637924784177
280,1791286150.4136052,0.32497127757352945,-1.6419502527573528,0.23161247702205948,1.6897488876427766,0.8581641400614142,-2.716871233229969,-0.4923561670423866,2.8914096189340848
281,1791286150.4336052,0.2531206916360294,-1.7329609949448528,0.12623161764705948,1.7558924556556275,0.8632303762823803,-2.7477373431114285,-0.49523628290356886,2.9224110192048305
282,1791286150.458542,0.21480037913602942,-1.747331112132353,0.035220875459559466,1.7608366557891748,0.8694748121968646,-2.786958940803696,-0.4979867274088242,2.961607227072115
283,1791286150.478542,0.1716900275735294,-1.7569111902573529,0.0016906020220594643,1.7652810694489716,0.874311501719971,-2.8189534318384917,-0.499806392222713,2.993447090332569
284,1791286150.488033,0.032778894761029416,-1.661110409007353,0.09749138327205947,1.6642916861736197,0.8764080056980155,-2.834291961573364,-0.5004697840320341,3.0086162800563367
285,1791286150.508033,-0.029491613051470588,-1.6563203699448528,0.2555626723345595,1.6761799433907485,0.8801681424236774,-2.86674209615178,-0.5011284543710556,3.0404006204062277
286,1791286150.5336041,-0.06781192555147059,-1.5269893152573528,0.30825310202205947,1.559267392419703,0.8840679460010572,-2.908113086822977,-0.5007629750422542,3.0804969430386975
287,1791286150.5536041,-0.12050235523897058,-1.4072383386948528,0.23640251608455948,1.4320358616745248,0.8863781117401439,-2.940018362317301,-0.4997030172874319,3.1111215394486105
288,1791286150.578475,-0.3216839958639706,-1.172526424632353,0.3369933363970595,1.2616906587718568,0.8879951701376795,-2.9785547311667733,-0.49751306393126615,3.1476726255324095
289,1791286150.598475,-0.2881537224264706,-1.100675838694853,0.3705236098345595,1.196581637448813,0.8881857221191274,-3.0083052897909877,-0.49495489103146856,3.1754928653229073
290,1791286150.6228821,-0.2115130974264706,-0.980924862132353,0.24119255514705948,1.0320490415627945,0.887468724437855,-3.04297613217902,-0.49118151747756306,3.207579112193198
291,1791286150.642882,-0.3264740349264706,-0.9473945886948529,0.016060719209559465,1.002197460020224,0.8861623437277681,-3.070017425565237,-0.4881674206473835,3.23242913662416
292,1791286150.6535635,-0.4749652458639706,-0.7462129480698529,-0.11806037454044054,0.892392290801726,0.8849272632813429,-3.0836498349730985,-0.48688085499906536,3.2448490770747482
293,1791286150.6735635,-0.48933536305147063,-0.640832088694853,-0.29529181985294056,0.8586688082758008,0.8815151195758651,-3.107427082565662,-0.4854532471760676,3.2663185445845877
294,1791286150.6988218,-0.3168939568014706,-0.578561580882353,-0.38630256204044056,0.7644507519581547,0.8763249565303675,-3.1352614419515823,-0.4852119341083682,3.291388819302188
295,1791286150.7188218,-0.2115130974264706,-0.4300703699448529,-0.32403205422794057,0.5785283792992538,0.8720391314752199,-3.1555081752665983,-0.48611502037265286,3.3096815411804044
296,1791286150.7429278,-0.4270648552389706,-0.14745806525735294,-0.32403205422794057,0.5559901471761021,0.8664937551690406,-3.1772952403217993,-0.48821190738825776,3.3293193506232153
297,1791286150.7629278,-0.6713568474264706,-0.22409869025735293,-0.3431922104779406,0.7865882867766374,0.8609354294708239,-3.1932171877963005,-0.49069150360706787,3.3434449261006214
298,1791286150.773577,-0.7575775505514706,-0.12350786994485294,-0.3623523667279406,0.8488092699253589,0.8572785018104384,-3.200700957671229,-0.492377259681386,3.3499027472383767
299,1791286150.793577,-0.6282464958639706,0.14952435661764707,-0.47731330422794055,0.8030436994213166,0.8493619877863601,-3.2126087379703545,-0.4963278337328001,3.3598529741817225
300,1791286150.8181515,-0.7671576286764706,0.4465067784926471,-0.4916834214154406,1.014717555466141,0.8385219840819507,-3.223946899940829,-0.5022398315357564,3.3688570138561653
301,1791286150.8381515,-1.1120404411764706,0.513567325367647,-0.35756232766544055,1.276023572925973,0.8282043697209204,-3.230350222452023,-0.5076034583436271,3.3732397348310528
302,1791286150.8634644,-1.3180121208639706,0.5279374425551471,-0.19949103860294054,1.4337609872216814,0.8124913115121408,-3.2352616493257202,-0.5144311920382143,3.375159184723345
303,1791286150.8834643,-1.2126312614889707,0.5279374425551471,-0.17554084329044053,1.334169069966442,0.7981425596210652,-3.236976321710134,-0.5195792020579052,3.3741680159709984
304,1791286150.8924205,-1.0210296989889707,0.8440800206801471,-0.26655158547794056,1.351303990688146,0.7911804881668303,-3.2367073881290964,-0.5218356933234855,3.3726182369268813
305,1791286150.9124205,-1.0545599724264707,1.2272831456801472,-0.19470099954044054,1.62979419999481,0.7748522183789365,-3.2330898765430622,-0.5268106760895367,3.3661247152436147
306,1791286150.9377308,-1.2940619255514705,1.2464433019301473,0.016060719209559465,1.796795792178409,0.7528297766724945,-3.2245027605301866,-0.5325013121824832,3.353763314962405
307,1791286150.9577308,-1.3084320427389706,1.160222598805147,0.011270680147059465,1.748781838159129,0.7341343744570521,-3.215125114788124,-0.5362825063112251,3.341194653125771
308,1791286150.9983835,-0.8054779411764706,0.8632401769301471,-0.15638068704044053,1.1909799478024463,0.6953882934851331,-3.1927534975643064,-0.5432578743675918,3.3124566250726475
309,1791286151.0183835,-0.6905170036764706,0.9207206456801471,-0.16117072610294053,1.1621171381149782,0.6769416424481189,-3.1807222972550635,-0.5466511288734067,3.297585749640857
310,1791286151.0129123,-0.9348089958639706,1.2751835363051474,-0.06536994485294054,1.582477216171526,0.6769416424481189,-3.1807222972550635,-0.5466511288734067,3.297585749640857
311,1791286151.0329123,-1.0737201286764706,1.4667850988051472,0.09749138327205947,1.8203950149937627,0.6585288575871658,-3.1651170308394327,-0.5493434122221895,3.2792383658003277
312,1791286151.058412,-0.8437982536764707,1.2512333409926473,0.07354118795955947,1.510956211425595,0.6349068951448437,-3.1430067524253222,-0.5519340590765561,3.253648631438613
313,1791286151.078412,-0.2642035271139706,0.8297099034926471,-0.11806037454044054,0.8787265102009096,0.6174968233907059,-3.125145065344305,-0.5537279461918819,3.2333339828630994
314,1791286151.1028514,-0.2833636833639706,1.0308915441176472,-0.21865119485294054,1.0912564766330057,0.5984097933813121,-3.103182228557598,-0.556208383315733,3.208925363750467
315,1791286151.1228514,-0.3552142693014706,1.3614042394301473,-0.16596076516544053,1.4167362689745944,0.5841750029958891,-3.0843164548051147,-0.5585106909879489,3.188448309045432
316,1791286151.132811,-0.1157123161764706,1.4955253331801472,-0.022259593290440537,1.5001602753679255,0.5777978218672446,-3.074196745901958,-0.5596258255184757,3.1776905167205878
317,1791286151.152811,0.21001034007352942,1.2847636144301473,0.05438103170955947,1.3029501849691767,0.5670542018908593,-3.0527532131903707,-0.5614810414281407,3.1553309823867037
318,1791286151.177887,0.30581112132352944,0.9925712316176472,-0.04620978860294054,1.0396410131977556,0.5565745348544865,-3.025617286348976,-0.5634428280608281,3.1275554346478676
319,1791286151.197887,0.5932134650735295,0.7722294347426472,-0.15159064797794056,0.9855050682679739,0.5508184767511547,-3.004573536330261,-0.5650695036024513,3.1064717403266546
320,1791286151.223475,0.7704449103860295,0.8776102941176471,-0.11806037454044054,1.1737646443463994,0.5471758068774215,-2.9785224031465276,-0.5673559891312273,3.081053373130819
321,1791286151.243475,0.8279253791360295,1.006941348805147,-0.09411017922794054,1.3069996324350601,0.5471532708161517,-2.9583879253412952,-0.5691933224630231,3.061930250170059
322,1791286151.268009,1.0482671760110294,0.7339091222426471,-0.08932014016544054,1.282756703140656,0.5505820588559274,-2.9341905468523173,-0.5714466223378373,3.0395996464917636
323,1791286151.288009,1.3356695197610295,0.2932255284926471,-0.12764045266544055,1.3734214071926687,0.5565338214115539,-2.9158831038974364,-0.5733334096831287,3.0233781385444294
324,1791286151.2978823,1.4889507697610296,0.15910443474264707,-0.15159064797794056,1.5050808418424282,0.5611229403124866,-2.9078659918720633,-0.5743319142354945,3.0166870451772816
325,1791286151.3178823,1.6518120978860296,0.3363358800551471,-0.29050178079044053,1.7105543883716572,0.5737356160020867,-2.893318984420577,-0.5767142754169953,3.0055060569141365
326,1791286151.343036,1.9248443244485296,0.36986615349264707,-0.33840217141544054,1.989055724327463,0.5939663959060251,-2.8764355222581366,-0.5804475340203165,2.99392664120621
327,1791286151.363036,2.0972857306985295,0.18784466911764708,-0.37672248391544055,2.139114977226564,0.6136724760102743,-2.864188337204256,-0.5840433277083095,2.9868504059343275
328,1791286151.3880625,2.0781255744485296,0.03935345818014707,-0.3815125229779406,2.1132218063981743,0.642469663753776,-2.850735417063193,-0.5892911220874848,2.981060836935985
329,1791286151.4080625,2.16913631663603,-0.06123736213235293,-0.4821033432904406,2.222909356739962,0.6684018377270008,-2.841629974350341,-0.5941512543028746,2.9790330043141235
330,1791286151.4178867,2.32241756663603,-0.38696001838235294,-0.49647346047794055,2.4062101542893193,0.6825388233484772,-2.8381584005944225,-0.5969015512873359,2.9794787822993207
331,1791286151.4378867,2.4661187385110295,-0.6695723230698529,-0.5204236557904406,2.6078553467864505,0.714184342391532,-2.833735966350361,-0.6031860252675938,2.983949091888626
332,1791286151.4628077,2.5571294806985296,-0.6312520105698529,-0.5731140854779405,2.6955240746243074,0.7570902135608263,-2.831483317450841,-0.6118860683448077,2.994142269349682
333,1791286151.4828076,2.76789119944853,-0.7078926355698529,-0.6449646714154406,2.928875740425442,0.7943462598437009,-2.8319553732067275,-0.6196479764788552,3.00581450377705
334,1791286151.507744,2.8589019416360295,-0.904284237132353,-0.6210144761029406,3.0621412888607393,0.8443536163336041,-2.835470803812035,-0.6302417194361306,3.0249020370259783
335,1791286151.527744,2.9068023322610297,-1.134206112132353,-0.5683240464154405,3.171579342436599,0.8870938123489899,-2.8409251202558696,-0.6392478260191329,3.044080937471749
336,1791286151.5379114,3.1415142463235295,-1.306647518382353,-0.6066443589154406,3.456075357302323,0.9101745723325727,-2.8451432803987178,-0.6440354583145976,3.0558206278650015
337,1791286151.5579114,3.3953863166360296,-1.469508846507353,-0.7168152573529406,3.768544626554994,0.958571301730354,-2.8563603400163866,-0.6540256411401072,3.0830833384435588
338,1791286151.5836036,3.3522759650735297,-1.6084199793198528,-0.7263953354779406,3.788458678577483,1.0244188707606259,-2.8745393911699475,-0.6677150741838345,3.123820442094982
339,1791286151.6036036,3.2756353400735296,-1.6084199793198528,-0.7311853745404405,3.721751437556752,1.0779306264314028,-2.8913933275903156,-0.6789594420062162,3.159600565597175
340,1791286151.6286418,3.51034725413603,-1.512619198069853,-0.8557263901654406,3.9169914906488406,1.1476170745174028,-2.9151889449802226,-0.6939048807937753,3.20887137764171
341,1791286151.6486418,3.6253081916360297,-1.3689180261948528,-0.9227869370404406,3.983507471808857,1.2056349105068653,-2.9356675369144556,-0.70672001456249,3.2513308972956736
342,1791286151.658187,3.6684185431985297,-1.4120283777573528,-0.9275769761029405,4.038752009503821,1.2343922545367452,-2.945965846388397,-0.7132433280032149,3.2727901018990377
343,1791286151.678187,3.5726177619485298,-1.5605195886948529,-0.6305945542279405,3.949236451709673,1.2964711778566853,-2.9687661500418843,-0.7271987289569614,3.320124690436224
344,1791286151.7023914,3.48639705882353,-1.3784981043198528,-0.45815314797794054,3.7769201450902936,1.3731457547643846,-2.9975559454680467,-0.7435309810167741,3.3798978135100555
345,1791286151.7223914,3.43370662913603,-1.162946346507353,-0.24739142922794055,3.6337292055246717,1.4373781578088758,-3.0215885718833064,-0.7560602260588414,3.4304053013762066
346,1791286151.7486796,3.46723690257353,-1.062355526194853,0.025640797334559467,3.626429160081909,1.5227480163897695,-3.0528265361643547,-0.7704957654707102,3.4974526595704662
347,1791286151.7686796,3.43370662913603,-0.818063534007353,0.04959099264705947,3.5301598302622272,1.5883060276269325,-3.0758479918315955,-0.7797180292222812,3.548452777105084
348,1791286151.7779827,3.35706600413603,-0.640832088694853,-0.31924201516544054,3.4325607622114647,1.6189646131105324,-3.085968175169443,-0.7835524888597036,3.5718623292984004
349,1791286151.7979827,3.2516851447610295,-0.765373104319853,-0.6497547104779405,3.40315051874936,1.6849016203491194,-3.1065705728119775,-0.7920128728483506,3.6217341957788567
350,1791286151.8223572,3.2756353400735296,-0.803693416819853,-0.8317761948529406,3.4738396088049655,1.765139366425874,-3.1307813276830045,-0.8034854915378234,3.682811105634753
351,1791286151.8423572,3.1223540900735296,-0.6073018152573529,-0.8988367417279406,3.3054225216897577,1.8306981548299446,-3.1497836087159774,-0.8140829860016825,3.7330046375448056
352,1791286151.8680015,2.9594927619485296,-0.33426958869485296,-0.8461463120404406,3.096174598973966,1.913846976134423,-3.1723048343216633,-0.8289891899720058,3.7965183111648377
353,1791286151.8880014,2.9834429572610297,-0.35342974494485296,-0.8078259995404405,3.1110170859986823,1.9778819431749397,-3.1882660327798336,-0.8413516870952581,3.845117675480579
354,1791286151.8978107,3.0265533088235297,-0.45402056525735296,-0.7216052964154406,3.1443399639100855,2.0089992406077357,-3.1955141933142,-0.8476307286989756,3.8685742542530726
355,1791286151.9178107,3.08403377757353,-0.583351619944853,-0.45336310891544057,3.1712933579585814,2.072093114114334,-3.2096317141577595,-0.860275106840371,3.9160412246982954
356,1791286151.9432082,3.3953863166360296,-0.602511776194853,-0.5108435776654405,3.4860622255626317,2.152538516147241,-3.227128966838585,-0.875760039407027,3.9767749595279134
357,1791286151.9632082,3.26126522288603,-0.818063534007353,-0.7168152573529406,3.4378631317800346,2.21637006028419,-3.2409717109693563,-0.8879664514635108,4.025503483336275
358,1791286151.9882863,3.2421050666360296,-1.019245174632353,-1.0377478745404405,3.5534527772620748,2.296634792800247,-3.259181273751066,-0.9042763488823072,4.08833825188403
359,1791286152.0082862,3.3187456916360296,-1.2587471277573528,-1.2389295151654407,3.7594499120134808,2.360886139402695,-3.274942207949907,-0.9187475602805923,4.140425933180922
360,1791286152.033872,3.47681698069853,-1.4024482996323528,-1.1862390854779405,3.9322106655583524,2.4437926569815023,-3.2971871408270745,-0.9391371423981482,4.21017151244268
361,1791286152.0538719,3.6588384650735297,-1.2587471277573528,-1.1048084214154406,4.023946432691356,2.509582062007058,-3.3159592260540327,-0.9561212476333529,4.267054669789974
362,1791286152.0776222,3.8552300666360297,-1.062355526194853,-0.9898474839154406,4.119611167591539,2.5893737658776153,-3.3390420783521058,-0.9769959692621051,4.336885936288338
363,1791286152.0976222,3.96540096507353,-0.918654354319853,-1.0042176011029407,4.192467486681543,2.6582179746099537,-3.3585358249769777,-0.9949287638018671,4.397245607563165
364,1791286152.1076903,3.69715877757353,-1.110255916819853,-0.8988367417279406,3.963528568801112,2.693462373760521,-3.3684092170505515,-1.0040391921371081,4.428206737689886
365,1791286152.1276903,3.4528667853860298,-1.3210176355698529,-0.7263953354779406,3.767628805298198,2.7636970970405836,-3.388727213966322,-1.0218598739561013,4.490622604591492
366,1791286152.1533244,3.3618560431985296,-1.234796932444853,-0.6928650620404405,3.647857112574723,2.853315859585881,-3.415776309673621,-1.0440031877631062,4.571529486763854
367,1791286152.1733243,3.22773494944853,-1.158156307444853,-0.8461463120404406,3.5320762332862294,2.922633587538398,-3.4373041493484675,-1.0609967005179846,4.634928359818068
368,1791286152.182758,3.1798345588235297,-1.1964766199448529,-0.9179968979779406,3.5193213022201046,2.95495901709103,-3.4476013809061117,-1.069058173752236,4.6648283412339815
369,1791286152.202758,3.11756405101103,-1.0767256433823529,-0.8557263901654406,3.407464068497131,3.022656807774835,-3.469567199333679,-1.0862458495602096,4.728031384621562
370,1791286152.227765,2.9786529181985295,-0.918654354319853,-0.8221961167279406,3.223709894541683,3.1060395581136246,-3.4966548338750565,-1.1076598796106607,4.80634863204154
371,1791286152.247765,2.8828521369485296,-0.904284237132353,-0.7359754136029406,3.1096987369297953,3.1715161303035844,-3.517803650039236,-1.1245545796044805,4.868067387322674
372,1791286152.2733142,2.80142147288603,-0.765373104319853,-0.6210144761029406,2.9697503661238183,3.253505407473378,-3.543967277047617,-1.1454997836488787,4.945419218992708
373,1791286152.2933142,2.8205816291360297,-0.516291073069853,-0.5970642807904406,2.9289457069305818,3.31649266943215,-3.563298602239043,-1.1612634812466418,5.004473341720683
374,1791286152.3022964,2.7391509650735295,-0.28636919806985295,-0.5539539292279405,2.809238381265195,3.344283010370802,-3.5712189248768738,-1.1680565628077821,5.030128188900543
375,1791286152.3222964,2.7343609260110298,0.09683392693014707,-0.5252136948529406,2.7860286984095635,3.405090219440065,-3.586493500832977,-1.182532131032736,5.084875345076652
376,1791286152.3474271,2.7966314338235296,0.3938163488051471,-0.4629431870404406,2.861914584271031,3.4804606842889645,-3.601882850781489,-1.1998553593439214,5.150419354672135
377,1791286152.367427,2.5667095588235296,0.5949979894301471,-0.33361213235294057,2.655808280285885,3.53949090519162,-3.610809933311967,-1.2127686880489388,5.1996876957323614
378,1791286152.392908,2.2218267463235297,0.6764286534926471,-0.23302131204044055,2.3341741035770074,3.6125685119966264,-3.6180476638548202,-1.2278359643759835,5.258184221497944
379,1791286152.412908,1.9775347541360297,0.8584501378676471,-0.22344123391544055,2.167373140009464,3.6676222608087645,-3.6205740975679572,-1.2385729944839299,5.300384222546976
380,1791286152.4226584,1.8290435431985297,1.169802676930147,-0.18033088235294054,2.178613736530494,3.6932197015150385,-3.6201378132791473,-1.2433175921388329,5.318938633384884
381,1791286152.4426584,1.7236626838235296,1.3949345128676474,-0.007889476102940536,2.217412362784201,3.743178471990705,-3.615530039648434,-1.251872235617538,5.352628012022219
382,1791286152.46833,1.6087017463235296,1.5434257238051472,0.19808220358455947,2.2381512086775395,3.804101445461421,-3.604845374116411,-1.2608394958436078,5.390344535642348
383,1791286152.48833,1.4314703010110297,1.6583866613051472,0.2555626723345595,2.2055987442330083,3.8490056714485905,-3.592967137941881,-1.2660972635957608,5.4154648733103565
384,1791286152.5133388,1.2494488166360296,1.7254472081801473,0.2747228285845595,2.147967189264152,3.901761990514616,-3.5739950470226383,-1.2706909997287341,5.4416764736208405
385,1791286152.5333388,1.1344878791360296,2.0320097081801474,0.24119255514705948,2.3397222165683047,3.941199364038933,-3.5554624573180127,-1.2730397512232108,5.458479268138076
386,1791286152.542382,1.0338970588235294,2.1852909581801474,0.17892204733455946,2.4241395997694197,3.957827297001536,-3.5454793486829987,-1.2736575244516948,5.464158143247734
387,1791286152.562382,0.8854058478860295,2.156550723805147,0.13581169577205948,2.335187220871972,3.991964439146618,-3.520199743087836,-1.2743467516346922,5.472800558950484
388,1791286152.5878477,0.9572564338235294,2.146970645680147,0.059171070772059464,2.351451477093474,4.032430232796556,-3.4846203444494277,-1.2747202950307646,5.479779590265092
389,1791286152.6078477,1.0770074103860294,2.156550723805147,-0.007889476102940536,2.4105431400836004,4.062495103021277,-3.454413568995639,-1.274892736561578,5.482899876659295
390,1791286152.6480603,1.1823882697610295,2.079910098805147,-0.15638068704044053,2.3976077575073362,4.120691340834524,-3.3900120853274602,-1.2756828759312033,5.486314415437651
391,1791286152.6680603,1.3596197150735296,1.8116679113051473,-0.22823127297794055,2.276575477429754,4.149106944657675,-3.3569488462163113,-1.2765938265853178,5.487612030054176
392,1791286152.677614,1.6087017463235296,1.5146854894301474,-0.30487189797794056,2.2305022561502357,4.162771449526749,-3.3411407165371347,-1.2773456830726742,5.4884878994821245
393,1791286152.697614,1.8817339728860296,1.3135038488051474,-0.39588264016544056,2.32872028597763,4.192321978128678,-3.3087691497764253,-1.2797346816197996,5.491924772805386
394,1791286152.7078435,1.9296343635110296,1.0644218175551472,-0.4821033432904406,2.255860415926003,4.208093457922625,-3.292870965944441,-1.2814469251638254,5.494829931033616
395,1791286152.7278435,1.9248443244485296,0.7243290441176471,-0.45815314797794054,2.107031690439467,4.240084917350113,-3.263767532892941,-1.2857027910673111,5.50304736324014
396,1791286152.7533653,2.0733355353860294,0.4033964269301471,-0.42941291360294054,2.1554220862567615,4.2824383163757425,-3.230041133270385,-1.2920179433848296,5.5174046455022765
397,1791286152.7733653,2.43258846507353,0.2405350988051471,-0.44857306985294054,2.4852689136516566,4.317408699826779,-3.2066101579188793,-1.2975414298686059,5.532267197852429
398,1791286152.7981346,2.6098199103860296,0.11120404411764707,-0.42941291360294054,2.6472479586250377,4.3635891724447005,-3.18129102669387,-1.3049870176237595,5.555584053775635
399,1791286152.8181345,2.59544979319853,-0.17140826056985295,-0.34798224954044055,2.6242774370864637,4.403092236144724,-3.164003986261428,-1.3112632593022628,5.578311016810747
400,1791286152.8433743,2.8493218635110296,-0.43486040900735295,-0.36714240579044055,2.905603586749851,4.455773552167649,-3.146608029502663,-1.3193494269663952,5.612106819186882
401,1791286152.8633742,2.99781307444853,-0.44923052619485293,-0.40067267922794053,3.057651041384472,4.50002728697528,-3.1362172697448525,-1.325947516174275,5.6430701893753445
402,1791286152.8729515,2.83495174632353,-0.49234087775735297,-0.38630256204044056,2.9032017865337436,4.522229735026717,-3.132664198127282,-1.3291984472581104,5.65958613917852
403,1791286152.8929515,2.7966314338235296,-0.6504121668198529,-0.44857306985294054,2.906097238977808,4.570087193193629,-3.128071504529558,-1.3362212714400512,5.6970181303109
404,1791286152.9180892,2.88764217601103,-0.774953182444853,-0.5395838120404406,3.0381212059223732,4.6319324911133934,-3.1258521690786227,-1.3455871141277869,5.747726077926139
405,1791286152.9380891,3.07445369944853,-0.818063534007353,-0.6784949448529406,3.252975389688084,4.682700081864164,-3.126740809837278,-1.3537481198149832,5.791098524502508
406,1791286152.9480956,3.1415142463235295,-0.918654354319853,-0.7120252182904405,3.349629456230356,4.708955169781893,-3.12842210093632,-1.3582623404331287,5.814306512223218
407,1791286152.9680955,3.0984038947610295,-1.033615291819853,-0.5731140854779405,3.3161614890604127,4.762919973957325,-3.1342068587567953,-1.3678592856766,5.863420361632916
408,1791286152.993454,3.1367242072610297,-1.047985409007353,-0.5683240464154405,3.3556377026794277,4.832938197472306,-3.1444002535313254,-1.3803731278807065,5.9287413965503575
409,1791286153.013454,3.2085747931985296,-1.129416073069853,-0.7455554917279406,3.4822960616385283,4.8893954886612905,-3.154499878527401,-1.3907330704770597,5.982574379102137
410,1791286153.037862,3.16067440257353,-1.129416073069853,-0.8174060776654406,3.4545037329544845,4.95962079210298,-3.169111712722213,-1.4043410779146874,6.050890951941862
411,1791286153.057862,3.12714412913603,-0.937814510569853,-0.7455554917279406,3.3487877585584616,5.017963688769807,-3.1823895429398754,-1.4161633506593254,6.108443453170047
412,1791286153.067716,3.07445369944853,-0.9090742761948529,-0.7168152573529406,3.2851949261597717,5.04698024483494,-3.1893150677664663,-1.4221951311803298,6.137294125621601
413,1791286153.0877159,3.03134334788603,-0.933024471507353,-0.7551355698529406,3.260338461887291,5.10619870420402,-3.2040262265425663,-1.4348091683004278,6.196589918384658
414,1791286153.112703,2.9690728400735296,-0.9090742761948529,-0.9132068589154406,3.236627308862065,5.180331243972294,-3.2231010273588234,-1.4513312876542896,6.271409294278383
415,1791286153.132703,2.72478084788603,-1.057565487132353,-0.6114343979779405,2.9860889892316753,5.239307876596803,-3.239028470069694,-1.4648590237459678,6.331466213693422
416,1791286153.158088,2.8493218635110296,-1.071935604319853,-0.41983283547794054,3.0730995153811698,5.313547725574233,-3.2602662298178715,-1.4814169454471962,6.407629943083796
417,1791286153.178088,3.1415142463235295,-0.822853573069853,-0.5204236557904406,3.2889269593704578,5.372251562419519,-3.2773310995343095,-1.4939159826339912,6.46790313386518
418,1791286153.1881182,3.10798397288603,-0.6264619715073529,-0.6784949448529406,3.2422791933533888,5.401977548432529,-3.2856959062820787,-1.5001460687797359,6.498276483037885
419,1791286153.2081182,2.9163824103860296,-0.516291073069853,-0.7742957261029406,3.0612704400627413,5.461395714140742,-3.3015872781414126,-1.512884426833409,6.558669147820702
420,1791286153.2333837,2.9594927619485296,-0.535451229319853,-0.7359754136029406,3.096282486536701,5.536332172353274,-3.3206441171617853,-1.5294244841204705,6.634515093667529
421,1791286153.2533836,3.0026031135110296,-0.37258990119485297,-0.7790857651654406,3.124327659068738,5.595696666061846,-3.3348286638836595,-1.5428261312818232,6.694267388400449
422,1791286153.2781394,2.92117244944853,-0.23367876838235294,-0.8078259995404405,3.0398087261772457,5.669153722735369,-3.350878140386379,-1.5598726434940549,6.767635547785113
423,1791286153.2981393,2.8541119025735298,-0.23367876838235294,-0.6545447495404406,2.9375141443668906,5.728260294346083,-3.362600502846048,-1.5737721981702342,6.826185396929675
424,1791286153.3082092,2.7774712775735297,-0.2624190027573529,-0.2617615464154405,2.8020937775056534,5.757809258002803,-3.367991981685647,-1.5804128052598467,6.855176297898611
425,1791286153.3282092,2.84453182444853,-0.40612017463235295,-0.16596076516544053,2.8781657131093397,5.816127014309287,-3.37809672042747,-1.5922651057820711,6.911886794952032
426,1791286153.3527832,2.7391509650735295,-0.5929316980698529,-0.22344123391544055,2.8114839485675356,5.887324971908196,-3.3904913925286806,-1.6053613103908624,6.980917715069043
427,1791286153.3727832,2.7295708869485296,-0.822853573069853,-0.05099982766544054,2.85135866071119,5.944781814561841,-3.4011895320739733,-1.6148327457932903,7.036775245289639
428,1791286153.3981123,3.0792437385110296,-0.640832088694853,-0.30008185891544054,3.159502633186201,6.017668344278825,-3.41548649390574,-1.625695579545211,7.107796171046326
429,1791286153.4181123,3.03134334788603,-0.8899141199448529,-0.6258045151654406,3.2206553564222853,6.0757530165687355,-3.427378214289427,-1.6343751485835938,7.164696662695324
430,1791286153.458053,2.9930230353860297,-1.091095760569853,-0.5874842026654405,3.2394157710096985,6.19239736284664,-3.4534984948466025,-1.6527430870123947,7.280384376182691
431,1791286153.478053,3.2660552619485297,-0.899494198069853,-0.6162244370404406,3.4432454666010694,6.251433206881855,-3.467601930103092,-1.6623665785202204,7.3394920074308185
432,1791286153.4721582,3.3379058478860295,-0.7318428308823529,-0.5731140854779405,3.464919787446582,6.251433206881855,-3.467601930103092,-1.6623665785202204,7.3394920074308185
433,1791286153.4921582,3.5295074103860298,-0.7318428308823529,-0.6928650620404405,3.670569231506211,6.312807756645846,-3.482067141203048,-1.6727349232149573,7.400971251907204
434,1791286153.518333,3.6348882697610296,-0.784533260569853,-0.8174060776654406,3.807368890243116,6.395147096326151,-3.5011354780670376,-1.6872338008868897,7.483489421271585
435,1791286153.538333,3.6492583869485298,-0.813273494944853,-0.9036267807904406,3.846432361455963,6.459551013876393,-3.5159166786071343,-1.6992320706212976,7.54816924966626
436,1791286153.5623977,3.6684185431985297,-0.7893232996323529,-0.9371570542279406,3.867633543100292,6.5386277552881955,-3.533926672346633,-1.7148257043753103,7.627772797097091
437,1791286153.5823977,3.6444683478860296,-0.952184627757353,-0.9419470932904406,3.882791448254573,6.605458934781823,-3.5492616581011234,-1.7286601049429928,7.695298032901473
438,1791286153.592943,3.56303768382353,-0.942604549632353,-0.9132068589154406,3.797063028250171,6.641111286071628,-3.557632973040692,-1.7363275497862682,7.731490467238584
439,1791286153.612943,3.51034725413603,-0.8276436121323529,-0.8988367417279406,3.716912600748631,6.709196441970728,-3.5737837238558297,-1.751406286038551,7.800812200061277
440,1791286153.6379583,3.5247173713235296,-0.899494198069853,-0.9179968979779406,3.7517250252075116,6.794780265710082,-3.5941948244712516,-1.7708459535197534,7.888166497142183
441,1791286153.6579583,3.51992733226103,-0.880334041819853,-0.9275769761029405,3.7450334439336324,6.863508446668394,-3.6107355803568795,-1.7868251593145084,7.958511404697667
442,1791286153.6830316,3.40017635569853,-0.679152401194853,-0.7934558823529406,3.5569677354652165,6.949759517089759,-3.6312942809370234,-1.8070892507328873,8.046802287881812
443,1791286153.7030315,3.40017635569853,-0.43486040900735295,-0.6832849839154406,3.4953084548316617,7.018439270959006,-3.6469043380046946,-1.8230436509083732,8.116765932550623
444,1791286153.713293,3.4720269416360297,-0.27678911994485295,-0.7024451401654406,3.5531693564068028,7.053680540507111,-3.6542598249457474,-1.8310680939323858,8.152351464476883
445,1791286153.733293,3.3426958869485297,-0.07081744025735293,-0.6401746323529406,3.404181907944322,7.122285788019931,-3.6669668528042827,-1.8463758800205645,8.220870065638902
446,1791286153.7581608,3.2660552619485297,0.2261649816176471,-0.5395838120404406,3.318044343167807,7.207119264788233,-3.680106937669321,-1.864754741237127,8.304400364537459
447,1791286153.7781608,3.2133648322610298,0.4273466222426471,-0.5635340073529406,3.290274951762758,7.274831826667708,-3.6881094308998366,-1.8789734824189959,8.369938508031199
448,1791286153.818372,3.08403377757353,0.5183573644301471,-0.5683240464154405,3.1785139484053624,7.409543029192548,-3.6989334210945337,-1.9066864963078731,8.49816978827493
449,1791286153.838372,2.8397417853860296,0.6524784581801472,-0.45336310891544057,2.948796306051344,7.4753801855911926,-3.701753198961466,-1.9199351837255236,8.559815230182133
450,1791286153.8328342,2.63856014476103,0.8584501378676471,-0.31924201516544054,2.7930004906861763,7.4753801855911926,-3.701753198961466,-1.9199351837255236,8.559815230182133
451,1791286153.8528342,2.4948589728860298,1.040471622242647,-0.38630256204044056,2.73059190666075,7.537632480721949,-3.6990156764238185,-1.931550746835061,8.61565486056996
452,1791286153.8784845,2.3798980353860295,1.0644218175551472,-0.5587439682904406,2.6662901729974244,7.614873933941386,-3.691982070994838,-1.9460313562880445,8.68355196230342
453,1791286153.8984845,2.2505669806985296,0.9638309972426471,-0.5731140854779405,2.514454549366416,7.673012217331711,-3.6842780980643006,-1.9573263192732588,8.73385069206692
454,1791286153.923488,2.0877056525735296,0.9638309972426471,-0.5060535386029406,2.3544798293818063,7.742928063693657,-3.672476632317512,-1.971352594136396,8.793534594510973
455,1791286153.943488,2.0158550666360298,1.054841739430147,-0.5443738511029406,2.3393814641248265,7.7966196009841555,-3.6614247389588668,-1.9824647818836296,8.838748493588854
456,1791286153.9534006,2.0254351447610297,0.9973612706801471,-0.5922742417279405,2.334074936093582,7.822243899834447,-3.6552429514208273,-1.9879912973272251,8.86004571436613
457,1791286153.9734006,2.0589654181985297,0.9398808019301471,-0.6018543198529406,2.3419955460034396,7.872315270634076,-3.641735541788992,-1.9992602690450274,8.901271094622926
458,1791286153.9982297,2.1978765510110296,0.9063505284926471,-0.5635340073529406,2.4432976059879206,7.933079608754718,-3.6240439583909416,-2.0133219071154542,8.951028532680521
459,1791286154.0182297,2.3080474494485297,0.8344999425551471,-0.40067267922794053,2.4867673350979387,7.981442522047064,-3.609319639014283,-2.0243959165322805,8.990483402809204
460,1791286154.058479,2.47569881663603,0.8632401769301471,-0.3431922104779406,2.6442483104073573,8.078612768717841,-3.579007264440591,-2.0455846106916797,9.069602729188754
461,1791286154.078479,2.5667095588235296,0.8249198644301471,-0.3431922104779406,2.717769606758502,8.12721784959406,-3.5636720894558445,-2.0555635849747733,9.10915859933294
462,1791286154.0882366,2.6529302619485295,0.7530692784926472,-0.37672248391544055,2.7833562730737778,8.151193935857826,-3.556157875536678,-2.060228658733327,9.128678082941311
463,1791286154.1082366,2.74873104319853,0.6668485753676471,-0.3527722886029406,2.8503785113418347,8.20106862544622,-3.5409364026221226,-2.0694505991280714,9.169426535445082
464,1791286154.1177022,2.7822613166360295,0.6907987706801471,-0.37672248391544055,2.891383891064947,8.225059435128525,-3.533849089181282,-2.073678403728077,9.189114985600757
465,1791286154.1377022,2.8636919806985297,0.5662577550551471,-0.33361213235294057,2.93814170188067,8.276614828759005,-3.519234993294746,-2.0823368615194835,9.231657205859982
466,1791286154.163269,2.9307525275735298,0.4369267003676471,-0.29050178079044053,2.977348922114304,8.343745353959438,-3.501431834719295,-2.0929418069280916,9.287546330010573
467,1791286154.183269,2.99781307444853,0.4033964269301471,-0.31445197610294057,3.0411333334580384,8.397274875481992,-3.488333607991561,-2.1009007169327054,9.332549518617775
468,1791286154.208541,3.0265533088235297,0.3842362706801471,-0.3815125229779406,3.0746079828241255,8.466187139237014,-3.4727725003243037,-2.1107681611212357,9.391049768028816
469,1791286154.228541,3.07445369944853,0.3411259191176471,-0.43420295266544057,3.123646050187184,8.521694780135343,-3.461216758534715,-2.118629399536225,9.438638350309155
470,1791286154.2383711,3.1702544806985298,0.3123856847426471,-0.4629431870404406,3.2190704687608807,8.549489086536159,-3.4559071247682858,-2.122575147440995,9.462683707720513
471,1791286154.258371,3.3426958869485297,0.3123856847426471,-0.48689338235294055,3.392383494599901,8.607324768656351,-3.445787718664528,-2.1308235059284164,9.513143617576763
472,1791286154.2833726,3.2995855353860297,0.2309550206801471,-0.5587439682904406,3.3545193022260325,8.681234027967543,-3.434016357179788,-2.141548619780702,9.578231730366756
473,1791286154.3033726,3.1750445197610295,0.11120404411764707,-0.5779041245404406,3.2291248379481274,8.741201144856966,-3.425499089423342,-2.1505462156517656,9.631588160430397
474,1791286154.3286047,3.1750445197610295,-0.04207720588235293,-0.6210144761029406,3.235480980201989,8.817524683990465,-3.416234659691286,-2.162463756522301,9.700291248263103
475,1791286154.3486047,3.0984038947610295,-0.03249712775735293,-0.6641248276654406,3.168946914213686,8.878357445394712,-3.410104658496337,-2.172420846414404,9.755688445416347
476,1791286154.357918,3.0505035041360298,-0.11871783088235294,-0.6641248276654406,3.1242162759382164,8.906731136426677,-3.407783920295297,-2.17728982076404,9.781791336336015
477,1791286154.377918,3.11756405101103,-0.25283892463235297,-0.7072351792279405,3.206760785076293,8.967774748507399,-3.404105127922101,-2.18823437295516,9.838561141391303
478,1791286154.4032965,3.16067440257353,-0.45881060431985293,-0.7647156479779406,3.284076715301001,9.04556542725043,-3.4014917776224127,-2.2028407007554365,9.911856908006989
479,1791286154.4232965,3.11756405101103,-0.693522518382353,-0.6258045151654406,3.2545061663578325,9.10709153207243,-3.4014697004525005,-2.214710653483972,9.970659736210898
480,1791286154.4485095,3.0457134650735296,-0.8084834558823529,-0.3719324448529406,3.173066301434618,9.184674659804271,-3.404286299683363,-2.229316640612918,10.045758632416778
481,1791286154.4685094,3.5726177619485298,-0.832433651194853,-0.6305945542279405,3.722122102840482,9.246912929249964,-3.4086467780322125,-2.2406685839346205,10.106674392773872
482,1791286154.4783986,3.6013579963235296,-0.933024471507353,-1.4496912339154406,3.9927332437574985,9.278391768664699,-3.411788848652789,-2.2469825879016785,10.137938040398042
483,1791286154.4983985,3.27084530101103,-1.622790096507353,-1.2389295151654407,3.8557519401559475,9.34281402382316,-3.4210239694154962,-2.261869656079518,10.203314815497722
484,1791286154.5232823,3.6684185431985297,-1.349757869944853,-0.6880750229779405,3.9689530298060953,9.423895057253482,-3.436338276021871,-2.2812099597967705,10.286988756582538
485,1791286154.5432823,3.75942928538603,-0.44923052619485293,-0.6880750229779405,3.848189685388379,9.490429450686399,-3.449499125836465,-2.296487018098616,10.355730201289417
486,1791286154.5678341,3.54387752757353,-0.23367876838235294,-0.8940467026654406,3.6623753499307408,9.573303360152975,-3.4644893881303096,-2.31534125047192,10.44086342464648
487,1791286154.5878341,3.6444683478860296,-0.36779986213235294,-1.0712781479779405,3.816420200615067,9.641468675244615,-3.4757710277269167,-2.3313441128359873,10.510664480676947
488,1791286154.597946,3.6588384650735297,-0.18577837775735292,-1.1048084214154406,3.8265146239331496,9.676301598161976,-3.4810391638958227,-2.33987169231461,10.546252690679461
489,1791286154.617946,3.6348882697610296,-0.08518755744485293,-0.8126160386029406,3.7255891453278216,9.745803325290357,-3.490302408602299,-2.3570844020497757,10.616908224013333
490,1791286154.642739,3.5247173713235296,0.07767377068014708,-0.6689148667279405,3.588469431567055,9.832351163241121,-3.500077152080153,-2.3779764890539603,10.704225411037267
491,1791286154.662739,3.4145464728860295,0.21658490349264709,-0.6497547104779405,3.4825590906268364,9.902103535417764,-3.506338038859252,-2.3942796244199065,10.773979570650607
492,1791286154.6882765,3.22773494944853,0.21658490349264709,-0.6593347886029406,3.30150030861342,9.990530921740836,-3.5123036019902174,-2.4144814556083385,10.861708216956016
493,1791286154.7082765,3.0457134650735296,0.053723575367647075,-0.6305945542279405,3.110772609128225,10.058806075022899,-3.5158693393793055,-2.429864450598783,10.92909685723339
494,1791286154.7331893,3.0265533088235297,-0.14745806525735294,-0.6593347886029406,3.101046787074033,10.142441368888141,-3.519819868895991,-2.4485620959529797,11.011526014524335
495,1791286154.7531893,3.08403377757353,-0.31989947150735293,-0.6545447495404406,3.16891603584508,10.208678171776,-3.5232166611568285,-2.4632917856049104,11.076911666948394
496,1791286154.7630978,3.0792437385110296,-0.24325884650735294,-0.5443738511029406,3.1364406191299268,10.241151219800221,-3.525065582400664,-2.470385546331583,11.10900852527197
497,1791286154.7830977,3.1127740119485297,-0.17140826056985295,-0.5347937729779406,3.1630281726329454,10.3061534989935,-3.5288597910472532,-2.484175116755476,11.173216966495957
498,1791286154.8080385,3.1415142463235295,-0.24804888556985294,-0.5826941636029406,3.2047109850629383,10.386753733063616,-3.5336662014446474,-2.5008821354798516,11.252815709417153
499,1791286154.8280385,3.23731502757353,-0.38696001838235294,-0.6401746323529406,3.32261496467588,10.451260324491107,-3.537894836990645,-2.5141041973160685,11.316636521637042
500,1791286154.8530262,3.31395565257353,-0.30552935431985295,-0.6928650620404405,3.3993693897209023,10.532042503616653,-3.543683334218425,-2.5306439576854256,11.396743820573265
501,1791286154.8730261,3.2852154181985296,-0.18098833869485292,-0.6737049057904406,3.358463253155968,10.596900125240253,-3.5483512223521347,-2.543946374348407,11.461097321681079
502,1791286154.883372,3.1702544806985298,-0.15224810431985294,-0.45815314797794054,3.206804837320193,10.630427286843933,-3.550662278543269,-2.5506737425706305,11.494308307079004
503,1791286154.903372,3.11756405101103,-0.07081744025735293,-0.19470099954044054,3.1244406221310963,10.694949353541416,-3.554794301777292,-2.5627071365392857,11.557939784859308
504,1791286154.9285939,3.4720269416360297,0.13515423943014707,-0.6401746323529406,3.533137601593038,10.776577513350091,-3.5591018336725844,-2.5771853568342133,11.638028747480181
505,1791286154.9485939,3.4145464728860295,-0.07081744025735293,-0.5922742417279405,3.4662561219213783,10.841926277312595,-3.5619086860117255,-2.5887926209401657,11.701982999662981
506,1791286154.9731586,3.31395565257353,-0.008546932444852929,-0.7024451401654406,3.3875956506378255,10.922546849590198,-3.5649852644878766,-2.60329596822417,11.780844601117556
507,1791286154.9931586,3.10798397288603,0.03456341911764707,-0.8221961167279406,3.2150840517815453,10.98797306383318,-3.567075380088807,-2.6156199418826636,11.84487427114081
508,1791286155.0028834,3.0984038947610295,-0.11392779181985294,-0.8940467026654406,3.226825954923229,11.019540876636345,-3.567997124502962,-2.621965289374759,11.87584045830049
509,1791286155.0228834,3.1702544806985298,-0.04686724494485293,-0.9515271714154406,3.310304210941903,11.084127432007389,-3.5698496148284553,-2.635825926021915,11.939400550855092
510,1791286155.0484896,3.15109432444853,0.11120404411764707,-1.0090076401654406,3.3105676550875813,11.166554475389349,-3.5717420544888525,-2.6546750710098026,12.020673021436156
511,1791286155.0684896,3.16067440257353,-0.03728716681985293,-0.9323670151654406,3.2955365667613985,11.230745617746617,-3.572887574198098,-2.670101119694093,12.084064413010454
512,1791286155.0932336,3.1798345588235297,-0.17140826056985295,-0.6928650620404405,3.2589554472984616,11.310017196107507,-3.574479525933181,-2.689339608461172,12.162480848379623
513,1791286155.1132336,3.2516851447610295,-0.18098833869485292,-0.5347937729779406,3.3003359585077185,11.374126708031785,-3.5761018447340627,-2.704398584054181,12.225916508618345
514,1791286155.1227553,3.2995855353860297,-0.14266802619485294,-0.48689338235294055,3.338365473821902,11.40474858906694,-3.5769894867951275,-2.711222170630411,12.256176803024063
515,1791286155.1427553,3.2852154181985296,-0.18098833869485292,-0.5204236557904406,3.331101605207975,11.469297765594245,-3.579059757684794,-2.724915904493338,12.319887445569648
516,1791286155.168058,3.24689510569853,-0.25762896369485294,-0.5874842026654405,3.309658320540808,11.551107576973884,-3.582118415076832,-2.7417441225197523,12.400678184189266
517,1791286155.188058,3.19420467601103,-0.34863970588235293,-0.5635340073529406,3.262217609880084,11.615734430448706,-3.5850828244589246,-2.754776952076588,12.46462599810497
518,1791286155.2133873,3.0505035041360298,-0.35342974494485296,-0.18033088235294054,3.0761995124647186,11.697168219434287,-3.5896077288884403,-2.7702198941929344,12.545243969856521
519,1791286155.2333872,3.42412655101103,-0.41570025275735295,-0.41025275735294053,3.4735798050997633,11.761535052227064,-3.5937983462594403,-2.781470414992354,12.608952018618387
520,1791286155.2428856,3.32353573069853,-0.7078926355698529,-0.6928650620404405,3.4680057282132832,11.792325571572341,-3.596290438696917,-2.78679786744869,12.639560501039519
521,1791286155.2628856,3.0888238166360296,-0.880334041819853,-0.27134162454044053,3.2232664910945688,11.857052399617633,-3.603133077057974,-2.7977791512552406,12.704323191633076
522,1791286155.2886999,3.47681698069853,-0.13787798713235294,-0.6305945542279405,3.536229085965903,11.940776311797926,-3.6126115261983105,-2.8115730253758002,12.788199398063677
523,1791286155.3086998,3.6013579963235296,-0.08039751838235293,-0.9323670151654406,3.7209610895055034,12.006529881433982,-3.6191809644590354,-2.8230014105755226,12.853970888849139
524,1791286155.332916,3.6779986213235296,-0.48755083869485294,-1.0137976792279406,3.8461884266345816,12.087423557107595,-3.626973669522357,-2.8382980221825576,12.935094971087516
525,1791286155.352916,3.71631893382353,-0.559401424632353,-0.9467371323529405,3.8755989949363743,12.155303147760987,-3.63401464902773,-2.8519771875211033,13.003508409712245
526,1791286155.3635292,3.7115288947610297,-0.583351619944853,-0.8221961167279406,3.8460047196409963,12.191833516086811,-3.638100184482738,-2.8595553867559995,13.040461435326446
527,1791286155.3835292,3.7737994025735295,-0.5689815027573529,-0.8557263901654406,3.911210750671705,12.26157499902171,-3.64637279895332,-2.874210852814822,13.111191558055255
528,1791286155.4086637,3.8121197150735298,-0.602511776194853,-0.9802674057904406,3.981984599337482,12.350374400896714,-3.6574181438061055,-2.893327131949358,13.201507384137663
529,1791286155.4286637,3.79295955882353,-0.7318428308823529,-1.0233777573529406,3.9961779462668345,12.421842267999887,-3.666890290269112,-2.90926206091273,13.274488896790137
530,1791286155.4529705,3.6588384650735297,-0.760583065257353,-1.0760681870404405,3.88889550590118,12.509256041687065,-3.6793960903385963,-2.9295507690583706,13.364195075445949
531,1791286155.4729705,3.5582476447610296,-0.8899141199448529,-1.0664881089154405,3.81974741688278,12.581218227929304,-3.690618300777752,-2.9469543776397016,13.43846180352149
532,1791286155.498608,3.54387752757353,-0.956974666819853,-0.9898474839154406,3.8019293108617065,12.673284360930134,-3.7063972615868304,-2.969871319851842,13.53401835413907
533,1791286155.518608,3.4528667853860298,-0.856383846507353,-0.8748865464154406,3.6634831512209143,12.744827347909673,-3.7195801247625098,-2.987864350810316,13.608572070992524
534,1791286155.5286992,3.32353573069853,-0.6264619715073529,-0.8365662339154406,3.483990157664363,12.780638625474175,-3.7263561310736257,-2.9968763138886456,13.645941569979671
535,1791286155.5486991,3.3091656135110297,-0.2911592371323529,-0.8796765854779406,3.436448989007323,12.850917381063395,-3.739147806833271,-3.014632740744035,13.719158662900185
536,1791286155.5727062,3.3426958869485297,-0.04686724494485293,-0.6880750229779405,3.4131011658779515,12.934599816785822,-3.7528078058596352,-3.0355724434261253,13.805873348231355
537,1791286155.5927062,3.3379058478860295,0.17826459099264708,-0.31924201516544054,3.3578727161702275,13.003878226069464,-3.762283679118503,-3.0519113173398784,13.87695175784337
538,1791286155.618683,3.22773494944853,0.38902630974264707,-0.07974006204044054,3.252072085772039,13.093154539009108,-3.771639990345242,-3.070727070651862,13.967294968660912
539,1791286155.638683,3.0600835822610297,0.4944071691176471,-0.05099982766544054,3.1001856334291222,13.161011092552519,-3.7764378646115966,-3.0832367183653835,14.034957947391192
540,1791286155.648589,2.8972222541360297,0.3842362706801471,-0.15638068704044053,2.926771125463432,13.19400443272719,-3.777804981934901,-3.0886573198105953,14.067457747993291
541,1791286155.6685889,2.7008306525735297,0.13994427849264707,-0.36714240579044055,2.729260735271216,13.259023421712001,-3.77936490670106,-3.098745234078044,14.131083582699253
542,1791286155.69355,2.59544979319853,-0.08039751838235293,-0.6593347886029406,2.6790942039126615,13.337914165372386,-3.7809082811822323,-3.111368692672609,14.208301687932199
543,1791286155.71355,2.5379693244485297,-0.03728716681985293,-0.6353845932904406,2.616561141277237,13.399343257375394,-3.782135931638501,-3.1219080451262924,14.268611066834316
544,1791286155.73864,2.4517486213235298,0.010613223805147072,-0.5826941636029406,2.5200627831421776,13.47423603594726,-3.7834951998235953,-3.1354385393177777,14.342274837463796
545,1791286155.75864,2.48527889476103,-0.07081744025735293,-0.6353845932904406,2.5661917067865505,13.532385973444775,-3.7845064927617145,-3.146433386792363,14.399583417084056
546,1791286155.7684264,2.4709087775735297,0.005823184742647073,-0.6928650620404405,2.566220195300233,13.560209484803671,-3.7849748150686446,-3.1519812803152036,14.427068365191898
547,1791286155.7884264,2.4948589728860298,0.08246380974264708,-0.7359754136029406,2.6024567977077404,13.615990592423552,-3.785655911447756,-3.163761832980566,14.482257400994865
548,1791286155.828689,2.56191951976103,0.06330365349264708,-0.6832849839154406,2.652228750979528,13.726711312783605,-3.786381206285649,-3.1882060623023247,14.591913651043713
549,1791286155.848689,2.5427593635110295,0.18305463005514708,-0.5587439682904406,2.6098522947493774,13.781117560490989,-3.7863179080082725,-3.200390108535729,14.645746869429042
550,1791286155.8583903,2.6193999885110295,0.2884354894301471,-0.5204236557904406,2.6861295785722397,13.807305408068721,-3.785948756566208,-3.2061988304699223,14.67156438691988
551,1791286155.8783903,2.6433501838235296,0.3075956456801471,-0.5779041245404406,2.723212891553308,13.861089786664362,-3.784407828381725,-3.218025231381388,14.724375676927535
552,1791286155.887416,2.74873104319853,0.2453251378676471,-0.5779041245404406,2.8195176800782633,13.885370785509158,-3.783442465930548,-3.2233440754196496,14.748149232111153
553,1791286155.9074159,2.8301617072610297,0.17826459099264708,-0.5108435776654405,2.8814154012378133,13.939473227197562,-3.7809887880032105,-3.2349954241862173,14.801012987673154
554,1791286155.9333968,2.7535210822610297,0.2453251378676471,-0.45336310891544057,2.801356971585593,14.010092881672824,-3.7774540631826015,-3.2497395687084376,14.86985773358251
555,1791286155.9533968,2.7391509650735295,0.18305463005514708,-0.5012634995404406,2.7906490469099485,14.064540084773613,-3.7744986354517787,-3.2608189690923406,14.922837132878705
556,1791286155.978476,2.6337701056985297,0.16868451286764707,-0.5252136948529406,2.690919705196295,14.132679841618677,-3.7706869346400533,-3.2745589061150024,14.989111230969538
557,1791286155.998476,2.72478084788603,0.14473431755514707,-0.5922742417279405,2.7921617913543395,14.186906232456018,-3.7676330433277143,-3.2855487603733864,15.041881459925994
558,1791286156.0085216,2.64814022288603,0.010613223805147072,-0.6593347886029406,2.729007446682492,14.214105433747775,-3.7662121880161106,-3.2911836983643723,15.068411915767319
559,1791286156.0285215,2.35594784007353,-0.06602740119485292,-0.6114343979779405,2.434892577894623,14.267640593895901,-3.7638908048034176,-3.3026258200198733,15.120839243049039
560,1791286156.0537133,2.44216854319853,0.11120404411764707,-0.5395838120404406,2.5035383406356377,14.33402359478438,-3.7613200555853727,-3.3170510637410215,15.18599976082739
561,1791286156.0737133,2.5475494025735297,0.15910443474264707,-0.4821033432904406,2.5976423566995024,14.386304910326686,-3.7591797937177964,-3.3283180727267925,15.237286598591814
562,1791286156.0982883,2.4230083869485295,0.15431439568014707,-0.41504279641544056,2.4631368412642836,14.450070875361597,-3.756366752317497,-3.341739320417327,15.299740558797494
563,1791286156.1182883,2.3176275275735296,0.21658490349264709,-0.32403205422794057,2.350170876586358,14.501292528068928,-3.7538644560722974,-3.35213220586551,15.349780899569591
564,1791286156.128521,2.3272076056985296,0.3315458409926471,-0.31924201516544054,2.3722844156946055,14.527132978550732,-3.7523555696532727,-3.3571456454519715,15.374920870768126
565,1791286156.148521,2.35594784007353,0.3315458409926471,-0.3623523667279406,2.406597620604656,14.577087508248235,-3.7488541580089705,-3.3664970694423926,15.423316447499612
566,1791286156.173103,2.2074566291360296,0.2836454503676471,-0.41025275735294053,2.26310115459883,14.637690488130682,-3.7440618810276494,-3.377691319352703,15.481885571341312
567,1791286156.193103,2.1212359260110296,0.4273466222426471,-0.39588264016544056,2.1997704548716963,14.686094003627044,-3.739681255874356,-3.3866419957226395,15.528551670587326
568,1791286156.2328339,2.1835064338235295,0.5279374425551471,-0.40067267922794053,2.2818757384397848,14.780653557346989,-3.7294377430629546,-3.4041293331831923,15.61936368674265
569,1791286156.2528338,2.2074566291360296,0.5470975988051471,-0.5300037339154405,2.3351840420188017,14.827700076880731,-3.7234422043444555,-3.4130078172125105,15.664397012951888
570,1791286156.2780006,2.0972857306985295,0.5470975988051471,-0.5826941636029406,2.2444277014657774,14.886145692680232,-3.714964148448126,-3.4246043604713967,15.720248319721824
571,1791286156.2980006,1.9823247931985297,0.6860087316176471,-0.43420295266544057,2.1421371967473593,14.931744754267779,-3.7073876164458657,-3.433963097868667,15.763686970461677
572,1791286156.2927601,2.0014849494485296,0.8297099034926471,-0.2521814682904405,2.1812739442288955,14.931744754267779,-3.7073876164458657,-3.433963097868667,15.763686970461677
573,1791286156.31276,1.9583745978860296,0.9398808019301471,-0.17554084329044053,2.1793167679677143,14.975709212498982,-3.6973266491307677,-3.442241507795824,15.80478147162092
574,1791286156.338092,1.8769439338235296,0.9638309972426471,-0.14680060891544056,2.1150506236827162,15.030328498697628,-3.68287805354522,-3.451766541967181,15.855253318578395
575,1791286156.358092,1.7955132697610297,0.8728202550551472,-0.12285041360294054,2.000193821519527,15.072491526785988,-3.6704268001798095,-3.4585631542472073,15.893825619165137
576,1791286156.3833513,1.7955132697610297,0.7195390050551471,-0.27134162454044053,1.9532615183052013,15.124557355709202,-3.6540435020905413,-3.4666062243457447,15.941192798406902
577,1791286156.4033513,1.7380328010110297,0.4129765050551471,-0.13243049172794055,1.7913250532098057,15.16489901202586,-3.6413184437685078,-3.4726250286841864,15.97787491012855
578,1791286156.4288316,1.6757622931985297,0.2836454503676471,-0.04141974954044054,1.7001028205588782,15.215109328548865,-3.6262070600576055,-3.4794750986191936,16.02359748882932
579,1791286156.4488316,1.6949224494485295,0.19263470818014708,-0.14201056985294055,1.7117351554461369,15.253664782123982,-3.6154105937173218,-3.4843204888166355,16.058828485146737
580,1791286156.4583964,1.7476128791360297,-0.003756893382352928,-0.3815125229779406,1.7887751940249517,15.271807425526353,-3.6108862531770036,-3.486665734488887,16.075554096820532
581,1791286156.4783964,1.8098833869485296,-0.33426958869485296,-0.27134162454044053,1.8603871396800056,15.309389208402509,-3.6033520265015095,-3.49181330050069,16.11068911892962
582,1791286156.5033367,1.8673638556985297,-0.23846880744485294,-0.10848029641544055,1.8856519075385658,15.35610282068973,-3.5964373525396462,-3.4979799875857607,16.154879122540283
583,1791286156.5233366,1.9296343635110296,-0.16661822150735295,-0.02704963235294054,1.9370033792410684,15.393639636478,-3.592331744489214,-3.502386671215944,16.190605331948603
584,1791286156.5334077,1.8146734260110295,-0.19535845588235293,-0.14680060891544056,1.8310529725087938,15.412534308677257,-3.5908478749777575,-3.5044041320115022,16.208678249562645
585,1791286156.5534077,1.8482036994485296,-0.35342974494485296,-0.03662971047794054,1.8820497429549283,15.449922956411491,-3.589166274501045,-3.508084764997227,16.24465735629632
586,1791286156.5787358,2.0589654181985297,-0.46839068244485293,0.07354118795955947,2.112850380662366,15.497591989089013,-3.5889172592749903,-3.5119766567869886,16.290784652435086
587,1791286156.5987358,2.3703179572610296,-0.31989947150735293,-0.31445197610294057,2.4123894659983547,15.536230841678183,-3.589932557079478,-3.5149502178678573,16.328409584658907
588,1791286156.6380513,2.24577694163603,-0.521081112132353,-0.23302131204044055,2.3171833179250663,15.614404130721251,-3.5941087925683797,-3.5215330794456423,16.40513424510547
589,1791286156.6580513,2.1787163947610297,-0.38696001838235294,-0.19949103860294054,2.2217875368967777,15.654842950775457,-3.5972766548504937,-3.5250282730105122,16.445070126651935
590,1791286156.6530654,2.1978765510110296,-0.23367876838235294,-0.21386115579044054,2.2205863401887473,15.654842950775457,-3.5972766548504937,-3.5250282730105122,16.445070126651935
591,1791286156.6730654,2.12602596507353,-0.3007393152573529,-0.17554084329044053,2.1543549214489737,15.696125996537564,-3.601158375408758,-3.52866467634795,16.485999737415526
592,1791286156.713057,1.9919048713235297,-0.2719990808823529,-0.02704963235294054,2.010572107389755,15.778643736910325,-3.609473778815654,-3.53545291643483,16.567840126601435
593,1791286156.733057,1.9679546760110296,-0.2624190027573529,-0.07015998391544054,1.9866131387829022,15.819660877939096,-3.613810189038634,-3.5384843347415806,16.608496794189648
594,1791286156.7435908,1.9966949103860296,-0.19535845588235293,-0.21865119485294054,2.0181089753669967,15.841155947410227,-3.6161132055322627,-3.540069633481315,16.62981026576346
595,1791286156.7635908,1.9823247931985297,-0.28636919806985295,-0.28571174172794056,2.0231782182234905,15.881814279068758,-3.6205525184133154,-3.5433846107930704,16.67021295105214
596,1791286156.7736616,1.9392144416360297,-0.44923052619485293,-0.26655158547794056,2.008335246923642,15.902178406918802,-3.6230081921105026,-3.5452205824265093,16.690537900967573
597,1791286156.7936616,1.9104742072610297,-0.540241268382353,-0.28092170266544053,2.005165660912206,15.94232853676449,-3.628637690697474,-3.5491409977539723,16.730847333187395
598,1791286156.8183763,1.9775347541360297,-0.578561580882353,-0.32882209329044054,2.0865045352754072,15.991708099353229,-3.6366245979573457,-3.5543891313436315,16.780746362972113
599,1791286156.8383763,1.9919048713235297,-0.6312520105698529,-0.25697150735294055,2.1052787161898854,16.031627928624815,-3.64393310161538,-3.5588777435791394,16.82132436179311
600,1791286156.862518,1.9440044806985297,-0.6312520105698529,-0.23781135110294055,2.0577139647039986,16.079713242683848,-3.653717756495559,-3.564379051609493,16.870436551394448
601,1791286156.882518,1.9631646369485296,-0.6120918543198529,-0.28571174172794056,2.0761269299470064,16.11943434705781,-3.6624728554990362,-3.5690382053828955,16.911176919358898
602,1791286156.908565,2.0445953010110296,-0.5498213465073529,-0.38630256204044056,2.152185662862419,16.171234794258066,-3.6744345599634993,-3.5755086764744575,16.964509023311606
603,1791286156.928565,2.03980526194853,-0.47318072150735296,-0.3431922104779406,2.1219063116009305,16.211169776217634,-3.683776058550362,-3.5808259736111467,17.005720984897675
604,1791286156.938071,1.9871148322610297,-0.540241268382353,-0.30487189797794056,2.0816899045803687,16.230174691016156,-3.6882725874237154,-3.583436224071961,17.025361680505753
605,1791286156.958071,2.0350152228860297,-0.5929316980698529,-0.33840217141544054,2.146478741001774,16.270195223034605,-3.6980136897862392,-3.5890691623873754,17.06680917154418
606,1791286156.9825845,2.0110650275735296,-0.49713091681985294,-0.40546271829044056,2.110905424103823,16.319328338679956,-3.710166296596097,-3.596305296797153,17.117804273966087
607,1791286157.0025845,2.0014849494485296,-0.34863970588235293,-0.39109260110294053,2.068923650119593,16.359420739688385,-3.7198627262857284,-3.6025183533995326,17.159433677343106
608,1791286157.0280743,2.0685454963235297,-0.28636919806985295,-0.3719324448529406,2.1211368488378617,16.410634374623694,-3.7315810106016176,-3.6107077705278527,17.21251951401693
609,1791286157.0480742,2.0972857306985295,-0.38696001838235294,-0.3719324448529406,2.164873953733201,16.45103915910302,-3.7404063094942592,-3.6172853561993286,17.254335168954483
610,1791286157.0727022,2.0637554572610295,-0.48755083869485294,-0.31924201516544054,2.144459808887457,16.501016188184494,-3.751258945900062,-3.6254466990599026,17.306049309118656
611,1791286157.0927022,2.0733355353860294,-0.43486040900735295,-0.28092170266544053,2.136993406785563,16.541719597996714,-3.760133840181454,-3.6319804960218494,17.348151949942952
612,1791286157.102644,2.0589654181985297,-0.32947954963235293,-0.29050178079044053,2.1052996583873287,16.561999105215982,-3.764453647496777,-3.635167279600251,17.369092284169692
613,1791286157.122644,2.03980526194853,-0.37737994025735294,-0.32403205422794057,2.0995756471603335,16.602824147653404,-3.7729005793566253,-3.64153831202528,17.411184616147185
614,1791286157.1480758,1.9919048713235297,-0.38696001838235294,-0.20907111672794054,2.0398857330935836,16.654640167026116,-3.783488387337874,-3.6494413137293877,17.464542518273852
615,1791286157.1680758,1.8865240119485296,-0.36300982306985297,-0.05099982766544054,1.921809033625736,16.695094323481552,-3.79169078181383,-3.6551141965957767,17.506083321091385
616,1791286157.1780417,1.8529937385110296,-0.391750057444853,-0.02704963235294054,1.894145080261688,16.71502379583939,-3.7957290536960016,-3.6575752893254214,17.526478155682987
617,1791286157.1980417,1.9631646369485296,-0.5737715418198529,-0.07015998391544054,2.046497397337851,16.7547440365674,-3.8040658826525044,-3.6619192744483513,17.567071974094826
618,1791286157.222449,2.19308651194853,-0.621671932444853,-0.18033088235294054,2.286618391339158,16.80355467739542,-3.814902123620009,-3.6668838921201123,17.617007847171664
619,1791286157.242449,2.1356060431985298,-0.4204902918198529,-0.38630256204044056,2.210623198715655,16.844044799122997,-3.8240129133627607,-3.671191746277355,17.658498486404856
620,1791286157.2682137,2.0637554572610295,-0.35821978400735294,-0.39588264016544056,2.1316967574712207,16.8964961689042,-3.835493979400656,-3.6774203084388004,17.712312581273263
621,1791286157.2882137,2.1068658088235295,-0.40612017463235295,-0.33840217141544054,2.1721724522357158,16.937360388592314,-3.8442158882341757,-3.6826314444161032,17.75426560249143
622,1791286157.29823,2.0781255744485296,-0.48276079963235297,-0.21386115579044054,2.1441549586712996,16.957899667867967,-3.848596450064514,-3.6852646364538746,17.775354601853184
623,1791286157.31823,1.9679546760110296,-0.29594927619485295,-0.27134162454044053,2.008496417254006,16.99882904010535,-3.857199415357885,-3.6904616207445553,17.817342199069834
624,1791286157.3427458,1.8625738166360297,-0.19535845588235293,-0.2617615464154405,1.8909958370881323,17.048517545239854,-3.86706642562621,-3.6968567019181964,17.868209275276413
625,1791286157.3627458,1.8529937385110296,-0.3103193933823529,-0.05099982766544054,1.8794905967554554,17.088546281869373,-3.8746670008621904,-3.7017603705766757,17.909061623556216
626,1791286157.3880997,1.9248443244485296,-0.16182818244485295,0.10707146139705948,1.9346003028638301,17.138862654473826,-3.8837547499552585,-3.70693765756886,17.96010998974727
627,1791286157.4080997,1.8194634650735297,0.03935345818014707,0.20287224264705947,1.8311616919990323,17.17821661195333,-3.890031865059529,-3.709944151797095,17.999643315572154
628,1791286157.4176962,1.7571929572610296,0.15431439568014707,0.22203239889705947,1.7778746884755052,17.19684160911224,-3.89245262847685,-3.710864543861077,18.018131547325204
629,1791286157.4376962,1.7667730353860296,0.4081864659926471,0.17892204733455946,1.8221186154060118,17.235121019928577,-3.8958971673736555,-3.711893551943887,18.055624194452445
630,1791286157.4629211,1.6757622931985297,0.4417167394301471,0.10707146139705948,1.7363056295031982,17.2826716833484,-3.8979820149754585,-3.7124556483128037,18.10158366674514
631,1791286157.4829211,1.5129009650735297,0.4800370519301471,0.025640797334559467,1.5874389285368289,17.319500776347237,-3.8980044394064524,-3.7126353970784995,18.136791539386596
632,1791286157.5086176,1.4218902228860297,0.6237382238051471,0.15018181295955949,1.5599281248564958,17.365377981469194,-3.8959016907636483,-3.712492849100542,18.1801266656207
633,1791286157.5286176,1.3644097541360296,0.9255106847426471,0.05438103170955947,1.6495882217584303,17.399908302336687,-3.8921867091339943,-3.712091699995047,18.212236301389694
634,1791286157.537597,1.2829790900735296,0.9734110753676471,0.030430836397059464,1.6107422211571054,17.41486869618286,-3.8894901652875435,-3.7118814964060673,18.225911491459623
635,1791286157.557597,1.1871783088235295,0.9734110753676471,-0.16596076516544053,1.544171115571002,17.446897503131698,-3.881464737683791,-3.711686825847912,18.254769790053192
636,1791286157.5832243,1.2781890510110296,0.7147489659926471,-0.24739142922794055,1.485205660428036,17.486520708371327,-3.8694789939125447,-3.712269282460389,18.29022190663986
637,1791286157.6032243,1.4027300666360296,0.5710477941176471,-0.13243049172794055,1.520291109672965,17.51682623661931,-3.8595995271679735,-3.7132253888654585,18.317307463231185
638,1791286157.627479,1.7332427619485296,0.7865995519301471,-0.12285041360294054,1.9073441092435546,17.55377076163048,-3.8469457673467238,-3.7146753559961048,18.35027718289903
639,1791286157.647479,1.8577837775735297,0.8153397863051471,-0.18033088235294054,2.036825657359433,17.585051402005234,-3.8356739471926105,-3.716146397227889,18.378143853119887
640,1791286157.6728654,1.8913140510110296,0.6524784581801472,-0.22344123391544055,2.013137591659981,17.62593890538819,-3.820717863467155,-3.7185023053487734,18.4146372943802
641,1791286157.6928654,1.9679546760110296,0.6237382238051471,-0.24739142922794055,2.079205977753219,17.65910816080154,-3.808788183731525,-3.7207861899172023,18.444381755279817
642,1791286157.7033987,2.1403960822610295,0.6476884191176471,-0.24739142922794055,2.2498884853416454,17.67720254119446,-3.8024432319352246,-3.722199488273994,18.46068344468885
643,1791286157.7233987,2.31283748851103,0.7578593175551471,-0.34798224954044055,2.458588952928567,17.713085314437674,-3.79009465130812,-3.7253735020840555,18.49315053073575
644,1791286157.7626152,2.3080474494485297,0.8297099034926471,-0.47731330422794055,2.4986655525005013,17.78648238899479,-3.764843806937645,-3.7330910337665997,18.559875358715296
645,1791286157.7826152,2.2984673713235297,0.8249198644301471,-0.5635340073529406,2.506195446730684,17.8252090809817,-3.7514158663231894,-3.7379977790503456,18.59526356841976
646,1791286157.7931213,2.31283748851103,0.9255106847426471,-0.6784949448529406,2.5818874231898272,17.846134541690027,-3.7440408587536647,-3.74116737034616,18.61447537066413
647,1791286157.8131213,2.2745171760110297,0.9159306066176471,-0.7934558823529406,2.5771941132457687,17.886875010174332,-3.729345215535097,-3.748504003352669,18.65206679243307
648,1791286157.8229327,2.3511578010110297,0.7434892003676471,-0.8653064682904406,2.613326324893931,17.907266999157972,-3.7219962608653177,-3.7527838776820337,18.67101642593723
649,1791286157.8429327,2.4182183478860297,0.5806278722426471,-0.8413562729779406,2.6254121737656724,17.949753775009764,-3.707276726688992,-3.762759506679862,18.710850339223946
650,1791286157.8676507,2.5044390510110297,0.4848270909926471,-0.7503455307904405,2.65900182097843,18.003512781782582,-3.6898383942279693,-3.7761898660556024,18.761689416569837
651,1791286157.8876507,2.64814022288603,0.3219657628676471,-0.7263953354779406,2.764771016907174,18.04821472107349,-3.6766348888763085,-3.7876417850578403,18.804306129607454
652,1791286157.9133124,2.7439410041360297,0.12078412224264708,-0.7742957261029406,2.8536529063336085,18.107345460944092,-3.66138270570875,-3.803019790073667,18.86119408954077
653,1791286157.9333124,2.6912505744485298,-0.04686724494485293,-0.7359754136029406,2.7904634028322755,18.154670288682578,-3.6511677923168064,-3.8154725853806557,18.907165588427496
654,1791286157.9426572,2.8062115119485296,-0.24325884650735294,-0.7742957261029406,2.921220941260318,18.177318541802364,-3.6473142258233153,-3.8214767666093556,18.9293817941786
655,1791286157.9626572,2.98823299632353,-0.5067109949448529,-0.8174060776654406,3.139179059645866,18.227211645792412,-3.6414288150008014,-3.8347870555140937,18.978852440449796
656,1791286157.988024,3.0600835822610297,-0.683942440257353,-0.7168152573529406,3.2164752299967496,18.29250784305764,-3.637349045059786,-3.852055605210033,19.044276926403708
657,1791286158.008024,3.15109432444853,-0.6504121668198529,-0.6832849839154406,3.289271925147472,18.345583964948688,-3.636616447424452,-3.865728567639385,19.097886992003165
658,1791286158.0330076,3.18462459788603,-0.6504121668198529,-0.7599256089154406,3.33801688840748,18.413812205677864,-3.6382760208822753,-3.882950849389453,19.16723348970509
659,1791286158.0530076,3.2085747931985296,-0.837223690257353,-0.7503455307904405,3.3998403089931024,18.469827527607386,-3.641636720191955,-3.896935061044768,19.224519493901898
660,1791286158.0630622,3.28042537913603,-0.9282344324448529,-0.7072351792279405,3.4818086432763016,18.498657334898066,-3.644404137198545,-3.9040099531657515,19.254176129443323
661,1791286158.0830622,3.3283257697610296,-0.904284237132353,-0.7647156479779406,3.5327429050871664,18.55731498959112,-3.6518319747924792,-3.918179883854833,19.314811673875173
662,1791286158.10769,3.3858062385110297,-0.9282344324448529,-0.8126160386029406,3.603560443854267,18.631112874128007,-3.6629914363197864,-3.9359248573259276,19.39142536466999
663,1791286158.12769,3.36664608226103,-0.9665547449448529,-0.7359754136029406,3.57913309721879,18.69218220861204,-3.673536689112458,-3.9504966131942783,19.455050013224515
664,1791286158.1524956,3.4097564338235298,-0.880334041819853,-0.7359754136029406,3.5976501737406115,18.769170669629883,-3.6880898629703993,-3.9685971338212918,19.535443114340005
665,1791286158.1724956,3.4193365119485297,-0.942604549632353,-0.8940467026654406,3.6578251769977874,18.8321767984125,-3.700797994349977,-3.9834469937937036,19.6013937951875
