imu_index,t_imu,ax,ay,az,mag,vx,vy,vz,velocity
0,1790648638.0396583,-0.031422656250000014,-0.009340576171875014,0.029267138671875612,0.04394536488717623,0.0,0.0,0.0,0.0
1,1790648638.0596583,-0.02184257812500001,-0.014130615234375015,0.02447709960937561,0.03571975519703314,-0.0001199616238768213,-4.711597679517587e-05,0.00011793184675983764,0.00017469581263646053
2,1790648638.0698862,-0.02184257812500001,-0.014130615234375015,0.01489702148437561,0.02997822134741534,-0.0002056179937525071,-8.927569474278074e-05,0.00019939893024143346,0.00030001473698476925
3,1790648638.0898862,-0.05058281250000001,0.0002395019531249864,0.02447709960937561,0.056194365259187716,-0.0004566267704361085,-0.0001801866725116174,0.00039386777135908154,0.0006293703724716386
4,1790648638.1141121,-0.07453300781250001,0.03855981445312499,0.02447709960937561,0.0874137114503492,-0.0009423951003936716,-0.00020329269364062014,0.0006830407917920187,0.0011815164695363012
5,1790648638.1341121,-0.06974296875000001,0.014609619140624986,-0.018633251953124392,0.07365270354743407,-0.001499685218768647,-0.00013975271950693302,0.0008947268371030007,0.0017518911755685877
6,1790648638.159676,-0.05537285156250001,-0.009340576171875014,-0.00426313476562439,0.05631672372763826,-0.0023450478754629862,-6.061618024260016e-05,0.0010808180264926385,0.002582845614029633
7,1790648638.179676,-0.041002734375000016,0.005029541015624987,-0.01384321289062439,0.043567821292667494,-0.0030517757457945377,-1.4457072120057255e-05,0.0011774088334208957,0.0032710603434622917
8,1790648638.1896672,-0.06495292968750001,0.05292993164062499,-0.018633251953124392,0.0858350675238225,-0.003431266699583918,4.8574459535257055e-05,0.0011940878745614805,0.003633427650850834
9,1790648638.2096672,-0.07932304687500001,0.0002395019531249864,0.02447709960937561,0.0830140441853443,-0.004293384687198287,0.000235576746646716,0.0012312330425053146,0.004472648352015423
10,1790648638.2348537,-0.05058281250000001,-0.009340576171875014,0.03405717773437561,0.06169083107612999,-0.005461611631207221,0.00041855756017377137,0.0013815649924443318,0.005649169307930532
11,1790648638.2548537,-0.002682421875000011,0.009819580078124987,0.029267138671875612,0.030986851180218114,-0.006330019465370649,0.000542781359223361,0.0015780198927463883,0.006546289393068031
12,1790648638.2790458,-0.05058281250000001,0.04334985351562499,0.01968706054687561,0.06946517885395997,-0.007319530834545831,0.0007669749211312461,0.0018688307943497593,0.007593175271612095
13,1790648638.2990458,-0.05537285156250001,0.005029541015624987,0.00052690429687561,0.05560329667500462,-0.00817380194831294,0.0009970866017156397,0.0021035069226461086,0.00849882117444445
14,1790648638.3098538,-0.04579277343750001,-0.04766088867187502,-0.01384321289062439,0.06752905264570369,-0.008648207677734584,0.0010682291724096722,0.002200508877948759,0.008987482902567647
15,1790648638.3298538,-0.002682421875000011,-0.062031005859375016,-0.03300336914062439,0.0703154566910691,-0.009467117329919948,0.0010155922603257536,0.0022828142973453044,0.009791270565859586
16,1790648638.3544657,-0.041002734375000016,-0.033290771484375016,-0.02821333007812439,0.059878975328147385,-0.010404342355005192,0.0007845794726648379,0.0022559068208546675,0.010674971680218201
17,1790648638.3744657,-0.09848320312500002,-0.009340576171875014,0.01968706054687561,0.10086509809621443,-0.011260931806523334,0.0005610671929762443,0.002224531877200332,0.011492254940562515
18,1790648638.3997533,-0.10327324218750002,0.028979736328124988,0.06758745117187562,0.12678032664998284,-0.012564175743053064,0.0003580999919712461,0.002356334839010689,0.01278823918997875
19,1790648638.4197533,-0.060162890625000014,0.05771997070312499,0.03884721679687561,0.0919797514629648,-0.013685454809647172,0.00035170171173746774,0.0026045931882388404,0.0139355399291579
20,1790648638.4444091,-0.06495292968750001,0.096040283203125,-0.009053173828124391,0.1162952235867321,-0.01509177568604545,0.0006293284982143525,0.002919831224619101,0.015384510460097131
21,1790648638.464409,-0.10327324218750002,0.033769775390624986,0.01010698242187561,0.10912337685174243,-0.01631376134758849,0.0010154647797093266,0.0031387659618771274,0.01664397277660417
22,1790648638.474271,-0.09369316406250001,0.024189697265624987,0.01489702148437561,0.09790542219382478,-0.016971621403566974,0.0012201767696297533,0.0032490228694420165,0.017322843704811113
23,1790648638.494271,-0.06495292968750001,0.033769775390624986,0.01010698242187561,0.07390150132844855,-0.018343606886182213,0.001659997616244338,0.003476589261779036,0.01874380373819161
24,1790648638.519889,-0.05058281250000001,0.009819580078124987,-0.00426313476562439,0.05170318550486751,-0.020059367794786818,0.0022226117013246817,0.003735584669545151,0.02052493195907691
25,1790648638.539889,-0.031422656250000014,-0.004550537109375014,-0.01384321289062439,0.03463705034965612,-0.0213209433225967,0.0026038621951402618,0.0038802927910815952,0.021827033574015078
26,1790648638.5649955,-0.05537285156250001,-0.028500732421875015,0.02447709960937561,0.06691466837721961,-0.022830509461531652,0.002948430780474652,0.004054723292409661,0.023374477262996622
27,1790648638.5849955,-0.07932304687500001,0.014609619140624986,0.01968706054687561,0.08302509915648347,-0.02405470560226978,0.003160907283741774,0.004239079279913077,0.024629047679714886
28,1790648638.5946753,-0.031422656250000014,-0.014130615234375015,-0.009053173828124391,0.03562327285735903,-0.024638729345268746,0.0032486660925754177,0.004322641831617912,0.025225107483119066
29,1790648638.6146753,-0.031422656250000014,-0.004550537109375014,0.029267138671875612,0.04318166416233007,-0.025758679572625925,0.0033747693937919224,0.004499718143574743,0.026365623549578845
30,1790648638.638924,-0.05537285156250001,0.014609619140624986,0.053217333984375614,0.07817722365242549,-0.027070712956008144,0.0035230211286772484,0.004832217029437299,0.027723374600493306
31,1790648638.6589239,-0.06495292968750001,0.014609619140624986,0.01968706054687561,0.06942553132241612,-0.028171029661944562,0.0036707848967882485,0.005174678754673397,0.02887661465938688
32,1790648638.6849039,-0.060162890625000014,-0.023710693359375014,-0.018633251953124392,0.06729761114844002,-0.02962973344743052,0.0038162049499134857,0.0055548615127283315,0.030386526797433065
33,1790648638.7049038,-0.07453300781250001,-0.009340576171875014,0.00052690429687561,0.0751178623560259,-0.030786278441207567,0.0038617835567944345,0.005776474218304048,0.03156067120474185
34,1790648638.7149656,-0.07932304687500001,0.03855981445312499,0.01968706054687561,0.09036916182619611,-0.03139694977605243,0.003903323811299249,0.005886495293176831,0.03218159751865043
35,1790648638.7349656,-0.09369316406250001,0.04334985351562499,-0.009053173828124391,0.10363193884238067,-0.03268824388560856,0.004096373232831046,0.006088334068418436,0.033501781649881615
36,1790648638.7598715,-0.10327324218750002,0.009819580078124987,-0.03779340820312439,0.11040891453336879,-0.034423004288917106,0.0044000340740930986,0.006214474147022757,0.035255116125918515
37,1790648638.7798715,-0.09369316406250001,0.019399658203124986,-0.00426313476562439,0.09577541463481375,-0.03590254553915415,0.00465113205995471,0.006237488572716606,0.036735977859925634
38,1790648638.8044744,-0.07932304687500001,0.009819580078124987,0.029267138671875612,0.08511836067784057,-0.03776884152786137,0.004967601923761408,0.00630769081134267,0.038612814227936824
39,1790648638.8244743,-0.07932304687500001,0.024189697265624987,0.058007373046875615,0.10120347102315921,-0.03929637445340647,0.005237288579191293,0.0064871104512146446,0.040171094568735896
40,1790648638.8346472,-0.07932304687500001,-0.004550537109375014,0.058007373046875615,0.09837534488537583,-0.04007783877696439,0.005368870559633841,0.0066531968579242465,0.04097954319595018
41,1790648638.8546472,-0.08890312500000001,0.005029541015624987,0.058007373046875615,0.10627284340504338,-0.04163609390946171,0.005589477578675369,0.007104768161115121,0.042606153384965706
42,1790648638.8797705,-0.05058281250000001,-0.004550537109375014,0.01010698242187561,0.05178300302290375,-0.043562737680398846,0.00582593190263291,0.007715275185009325,0.04462262954965539
43,1790648638.8997705,-0.041002734375000016,0.0002395019531249864,-0.018633251953124392,0.04503864635799984,-0.04500379960363318,0.005979464656721055,0.00811559177986483,0.046118963629751694
44,1790648638.9247923,-0.060162890625000014,0.005029541015624987,0.01010698242187561,0.06121291354656851,-0.0467261148671266,0.006152623623082817,0.008525298625524053,0.047894313907577674
45,1790648638.9447923,-0.04579277343750001,0.03855981445312499,0.00052690429687561,0.05986747880022758,-0.04805520150005056,0.0063356530321378975,0.008819607196888431,0.04926690939831223
46,1790648638.9551127,-0.04579277343750001,0.014609619140624986,-0.00426313476562439,0.04825550112227825,-0.048709053594531516,0.006457087950251459,0.008945804414281777,0.04994290043130064
47,1790648638.9751127,-0.07932304687500001,-0.009340576171875014,0.00531694335937561,0.08004787327245401,-0.04997376369921179,0.006665021218390923,0.009155259379171039,0.05124078785895235
48,1790648638.9997253,-0.10806328125000002,0.0002395019531249864,0.02447709960937561,0.11080098610116,-0.05164260590226737,0.006865727454963638,0.009429355807522325,0.05294345765821871
49,1790648639.0197253,-0.09369316406250001,0.05292993164062499,0.04842729492187561,0.11800504035410564,-0.05309791067276254,0.0070841094569629465,0.009728030875718666,0.05444453424660585
50,1790648639.044933,-0.026632617187500013,0.04334985351562499,0.04842729492187561,0.07024036582715372,-0.05488450913922349,0.0075000936215573934,0.010231122185210047,0.056331488609429894
51,1790648639.064933,-0.036212695312500015,0.0002395019531249864,0.01489702148437561,0.039157858880274087,-0.05618364993954076,0.007846015197854227,0.010665390790287041,0.05772272547033237
52,1790648639.0893679,-0.07453300781250001,-0.04287084960937502,-0.01384321289062439,0.08709026089605534,-0.057735735660635557,0.008127121255607684,0.011118301358400563,0.05935555489820937
53,1790648639.1093678,-0.05537285156250001,-0.04287084960937502,-0.00426313476562439,0.07015865416626936,-0.05901042412892028,0.008194082251883724,0.011406244534661327,0.060658680781980286
54,1790648639.1199458,0.00689765624999999,-0.028500732421875015,0.01489702148437561,0.032890586182560355,-0.05962193300037172,0.008167563164113626,0.011544129145551786,0.06127602223112869
55,1790648639.1399457,-0.02184257812500001,-0.004550537109375014,0.01489702148437561,0.026827725513663594,-0.06062711859522182,0.008075366946599754,0.011810417304868889,0.06229241540827
56,1790648639.1647308,-0.041002734375000016,0.005029541015624987,-0.009053173828124391,0.04229042995072169,-0.06180276797959029,0.007979141061877549,0.012101779007392115,0.06347993286990912
57,1790648639.1847308,-0.036212695312500015,-0.023710693359375014,-0.02821333007812439,0.051667671473325266,-0.06272496530296488,0.007885118322329784,0.012245723398605492,0.06439374274547523
58,1790648639.2096808,-0.041002734375000016,0.005029541015624987,0.00052690429687561,0.04131341352627168,-0.06384733183065451,0.007750461610243182,0.012346550464753256,0.06549037139491774
59,1790648639.2296808,-0.036212695312500015,0.033769775390624986,0.03405717773437561,0.06009699149674692,-0.06472789200982898,0.007716910653503211,0.012467126201772668,0.06636776288079296
60,1790648639.2397602,-0.04579277343750001,0.024189697265624987,0.01489702148437561,0.053889152916025126,-0.0651670936364471,0.007746352971455916,0.01255578485170456,0.06681619422432067
61,1790648639.2597601,-0.060162890625000014,0.009819580078124987,-0.02821333007812439,0.06717134474881102,-0.06606678858336656,0.007847024529738032,0.012685342922338388,0.06772971484324207
62,1790648639.2843707,-0.05058281250000001,-0.023710693359375014,-0.03300336914062439,0.0648848231455152,-0.06721223597454863,0.007926681688590351,0.012707860829257955,0.06886077747271252
63,1790648639.3043706,-0.05537285156250001,-0.03808081054687502,0.01968706054687561,0.07002771719145208,-0.06816239955504573,0.007889018569440354,0.012703440874381014,0.06978342738171842
64,1790648639.3293717,-0.036212695312500015,0.0002395019531249864,0.02447709960937561,0.04370978229491434,-0.06934372179066996,0.007778044357099043,0.012781555745831497,0.07093953688238058
65,1790648639.3493717,-0.041002734375000016,0.014609619140624986,-0.018633251953124392,0.04734831861861135,-0.07026280947255638,0.007724858791467487,0.012843437342056075,0.07184350855215933
66,1790648639.3597152,-0.05058281250000001,-0.04287084960937502,-0.042583447265624394,0.0788027959381139,-0.0707378906584138,0.00767955423203551,0.01282315071944736,0.07229977816271738
67,1790648639.3797152,-0.08890312500000001,-0.03808081054687502,-0.052163525390624396,0.10988606439331118,-0.07172793167619407,0.00748366725195077,0.012647688632203483,0.07321793145002017
68,1790648639.4046752,-0.10806328125000002,0.033769775390624986,-0.08090375976562439,0.13915275357916468,-0.07314689163538196,0.007267799532504729,0.01221245559900546,0.07451464780645929
69,1790648639.4246752,-0.05058281250000001,0.05771997070312499,-0.08569379882812439,0.11503757254034361,-0.0743512971128786,0.007258009113074717,0.011666127514627775,0.07561013562903178
70,1790648639.4494693,-0.10327324218750002,0.019399658203124986,-0.06174360351562439,0.12187691276616229,-0.07590654397983125,0.007391100849640645,0.010816265770340372,0.07702871799495466
71,1790648639.4694693,-0.19428398437500002,0.014609619140624986,-0.052163525390624396,0.20169467255541898,-0.07741922863415494,0.007533368572050456,0.010062700690249558,0.07843307050939331
72,1790648639.4798434,-0.251764453125,-0.018920654296875016,-0.047373486328124395,0.256880474585425,-0.07843321912281596,0.007592739954553271,0.00965300979206141,0.07938891711083335
73,1790648639.4998434,-0.328405078125,-0.04766088867187502,-0.1096439941406244,0.349490001428352,-0.08096509846794736,0.007590159600204615,0.008746123456697088,0.08178907242535996
74,1790648639.5243385,-0.32361503906250005,-0.062031005859375016,-0.1623344238281244,0.3673241134950963,-0.08479874431782529,0.0073859545897186595,0.007302354165023591,0.08543245132520037
75,1790648639.5443385,-0.3619353515625,0.05292993164062499,-0.0665336425781244,0.3717869039770838,-0.08848767660653266,0.007230581653243665,0.005957054863309746,0.08898222701703422
76,1790648639.5697591,-0.328405078125,0.06730004882812499,0.01489702148437561,0.33556089337057937,-0.09378929127836473,0.007291944406032453,0.004405173516353207,0.094175416990995
77,1790648639.589759,-0.3331951171875,0.03855981445312499,-0.01384321289062439,0.3357044532790508,-0.09832712741194052,0.00749177018182324,0.003368938853140328,0.09866965265236034
78,1790648639.5996623,-0.40504570312500005,-0.009340576171875014,-0.03300336914062439,0.4064953755676448,-0.10078536006247366,0.00759757635062636,0.002898007300102205,0.1011128597935866
79,1790648639.6196623,-0.46252617187500006,0.148730712890625,-0.00426313476562439,0.48586979628736493,-0.10630655938865642,0.007988289972594044,0.0020336987182542334,0.10662566893678468
80,1790648639.6444702,-0.3810955078125,0.08646020507812499,-0.023423291015624393,0.39148154962784815,-0.11369740787822552,0.008837829190236582,0.0010709120921580239,0.11404540602642663
81,1790648639.6644702,-0.35714531250000003,0.009819580078124987,-0.0665336425781244,0.36342251442136464,-0.11986945118161199,0.009564407456546617,0.00027621371086046205,0.12025073600851585
82,1790648639.6901195,-0.37630546875000004,-0.10514135742187503,0.01010698242187561,0.3908486432691661,-0.12800851302625624,0.010173077681312542,-0.000698632219094382,0.12841401404706881
83,1790648639.7101195,-0.4002556640625,-0.09556127929687502,0.17775834960937562,0.44825727609355903,-0.13456780375555755,0.010275441660542622,-0.0010629479933665868,0.13496372982157118
84,1790648639.7193058,-0.31403496093750005,-0.07161108398437502,0.20649858398437562,0.38260654624298657,-0.13762078563968444,0.010200229515251102,-0.0009404414424233267,0.13800148460199405
85,1790648639.7393057,-0.270924609375,-0.12909155273437503,0.1346479980468756,0.32892986536707136,-0.14414803138862622,0.009759989262361227,-0.00020201308120154496,0.14447820995881266
86,1790648639.7649677,-0.4385759765625,-0.052450927734375014,0.07237749023437562,0.44759187674775147,-0.15263240307707918,0.008930443408054461,0.001001792544640898,0.15289671964058263
87,1790648639.7849677,-0.5439568359375,-0.018920654296875016,0.06279741210937562,0.5478964733321368,-0.15972674832827904,0.008273846112538674,0.0020020264415991224,0.15995342688073996
88,1790648639.8098624,-0.46252617187500006,-0.167411865234375,0.1394380371093756,0.5112730762356945,-0.1691119606994241,0.0072312467463252015,0.003437894810432381,0.16930140372081207
89,1790648639.8298624,-0.37630546875000004,-0.20573217773437502,0.19212846679687562,0.4699413607251482,-0.1767791360155385,0.005959565933814598,0.004915763034383183,0.17694785695998116
90,1790648639.854865,-0.38588554687500004,-0.13867163085937503,0.22565874023437563,0.46803775866524067,-0.1863556667486411,0.003962429538027011,0.007269606412386883,0.18653949328376931
91,1790648639.874865,-0.37630546875000004,-0.033290771484375016,0.1681782714843756,0.4135190591455906,-0.19401027896579556,0.0023465823562821933,0.009460799339343962,0.19425499097135177
92,1790648639.8847492,-0.318825,-0.10514135742187503,0.10111772460937561,0.3506121502396801,-0.19774110013289767,0.0015651836358285128,0.010580897241157095,0.19803016908544632
93,1790648639.9047492,-0.24697441406250004,-0.172201904296875,0.10590776367187561,0.3191650222862198,-0.20500654627392592,-0.000194781244848557,0.012817924134726296,0.20540696466775482
94,1790648639.9299805,-0.19907402343750003,-0.17699194335937501,0.1538081542968756,0.30759317799641467,-0.2136416110358647,-0.002742848929376136,0.015708237830826047,0.21423587449817755
95,1790648639.9499805,-0.18949394531250002,-0.26321264648437503,0.1585981933593756,0.3610294164140413,-0.2200424584854784,-0.0051199515418780105,0.018124236315625854,0.2208469727710781
96,1790648639.974471,-0.20865410156250003,-0.32069311523437505,0.10111772460937561,0.395734004714985,-0.2274361048987092,-0.008666676784028729,0.021115976216854557,0.22857860256280824
97,1790648639.994471,-0.19428398437500002,-0.378173583984375,0.06758745117187562,0.43049923317483746,-0.23317276200919734,-0.012176911606852725,0.02344573012407215,0.23466468924899997
98,1790648640.004493,-0.18949394531250002,-0.36380346679687503,0.10590776367187561,0.42364769817561804,-0.23590465361480403,-0.014229736584071217,0.024568454074049586,0.23760702838081496
99,1790648640.024493,-0.19907402343750003,-0.28237280273437504,0.10111772460937561,0.3599856396605816,-0.24112155616810843,-0.018681164561046272,0.02678344539625076,0.24332271514509513
100,1790648640.0500426,-0.26134453125,-0.287162841796875,0.10590776367187561,0.4024672857874503,-0.24766865304785668,-0.024606155083372116,0.02958532562258579,0.25064021238165474
101,1790648640.0700426,-0.27571464843750004,-0.277582763671875,0.08674760742187561,0.40074418953261204,-0.2528304862412687,-0.02939558665132381,0.031738596879750156,0.25650476373640146
102,1790648640.094862,-0.22302421875000003,-0.296742919921875,0.01010698242187561,0.3713466221288195,-0.2592036928545304,-0.03551667625217432,0.034190210223705865,0.2638502589662718
103,1790648640.114862,-0.20865410156250003,-0.22968237304687503,0.00531694335937561,0.31035269690142014,-0.26421652564894865,-0.040498942294654595,0.035892574057896816,0.2697013415344627
104,1790648640.124731,-0.22781425781250003,-0.22489233398437503,0.01968706054687561,0.3207233672506203,-0.26664215986258366,-0.04292515767856712,0.0366251161196898,0.27254726142211416
105,1790648640.144731,-0.20865410156250003,-0.19615209960937502,0.00531694335937561,0.28642704161218274,-0.2714751300987264,-0.047735993141072505,0.037924460034560854,0.2782368343196097
106,1790648640.1697183,-0.17033378906250002,-0.22968237304687503,0.00531694335937561,0.28599975886619017,-0.2773177800552015,-0.05364292934146865,0.03932423690921532,0.28518259170498295
107,1790648640.1897182,-0.16554375000000002,-0.21531225585937502,0.02447709960937561,0.27269622126572046,-0.28179662597865407,-0.05832918770476803,0.04032126210217836,0.2905812050507811
108,1790648640.2142978,-0.15596367187500002,-0.24405249023437503,-0.00426313476562439,0.28966266458134066,-0.287068053895097,-0.06407142011190353,0.04140004905963415,0.29703060196621905
109,1790648640.2342978,-0.136803515625,-0.258422607421875,-0.05695356445312439,0.2978945357303426,-0.2911530920091932,-0.06879664319978729,0.04205434758088994,0.3021120144127454
110,1790648640.2448733,-0.1415935546875,-0.287162841796875,-0.03779340820312439,0.3223966100031251,-0.29320997040236385,-0.07135318396308776,0.042273278992497,0.30471362575671407
111,1790648640.2648733,-0.26134453125,-0.22489233398437503,0.01010698242187561,0.3449343082282451,-0.29712077291843286,-0.07623086045961244,0.0425836778001076,0.3096857558898104
112,1790648640.2901232,-0.270924609375,-0.22968237304687503,0.03405717773437561,0.3568109132421135,-0.3023255329063771,-0.08232606276394362,0.04300041002393982,0.31627099727854374
113,1790648640.3101232,-0.20386406250000003,-0.18657202148437502,0.01010698242187561,0.2765353978669749,-0.3065419125599511,-0.08705414722775455,0.043347228589994,0.3215981202244464
114,1790648640.3345802,-0.19428398437500002,-0.18657202148437502,-0.01384321289062439,0.2697165555328899,-0.3116548249968506,-0.09265307300546256,0.0437008663602536,0.3280595793477305
115,1790648640.3545802,-0.2805046875,-0.23447241210937503,0.03884721679687561,0.36765377463413146,-0.3159209799008233,-0.09717643827971403,0.04398418505501397,0.3334425501239774
116,1790648640.3648875,-0.2805046875,-0.23926245117187503,0.053217333984375614,0.3725070266272183,-0.31822350414494355,-0.09952416897997914,0.04417946633002449,0.3363377529309609
117,1790648640.3848875,-0.251764453125,-0.22010229492187502,0.01489702148437561,0.3347421116864628,-0.3228194902835584,-0.10408535822729283,0.04460371771305522,0.34210477450346444
118,1790648640.409909,-0.26613457031250004,-0.157831787109375,-0.03779340820312439,0.3117159351736226,-0.3286788380006959,-0.10964504182265501,0.04501190611721972,0.34939645882304654
119,1790648640.429909,-0.25655449218750004,-0.162621826171875,-0.07611372070312439,0.3131443186269468,-0.33344379145703384,-0.11390304651039511,0.04511837434581961,0.35523841820557733
120,1790648640.455091,-0.30445488281250005,-0.20573217773437502,-0.0665336425781244,0.37342366049624554,-0.33960296877734164,-0.11915581011659565,0.04496290948248362,0.362698148211507
121,1790648640.475091,-0.3906755859375,-0.24405249023437503,-0.018633251953124392,0.4610165176168391,-0.3448036286292529,-0.12337654576910491,0.044730207342948684,0.3689337417623373
122,1790648640.499701,-0.3810955078125,-0.172201904296875,0.01968706054687561,0.4186584076204773,-0.35166764234247755,-0.12855943343092024,0.04448876277508726,0.3770635339144504
123,1790648640.519701,-0.290084765625,-0.11951147460937502,0.029267138671875612,0.31510114125000765,-0.35741589574161653,-0.13257720843780738,0.04439541031274752,0.38378873248544065
124,1790648640.530013,-0.31403496093750005,-0.10514135742187503,0.03405717773437561,0.33291523408633994,-0.3604023771551797,-0.13451180177215274,0.04440347271274062,0.38724019246979824
125,1790648640.550013,-0.42420585937500005,-0.148251708984375,0.03405717773437561,0.4506540488002975,-0.3664331023272614,-0.13808116553943303,0.044518935420884656,0.39410856672865974
126,1790648640.57498,-0.47689628906250003,-0.14346166992187503,0.00052690429687561,0.49800762934567044,-0.3745196176187,-0.14241484493746498,0.044706211950729983,0.40316941529188827
127,1790648640.59498,-0.49605644531250004,-0.18178198242187502,-0.009053173828124391,0.5283925113262512,-0.3814851484088479,-0.1458535094759769,0.04482093902780196,0.4108686910173535
128,1790648640.619593,-0.44336601562500005,-0.21531225585937502,-0.047373486328124395,0.49515355046825804,-0.3905055813001379,-0.15018354561995398,0.04483678742198417,0.4207850328943077
129,1790648640.639593,-0.40504570312500005,-0.19615209960937502,-0.07611372070312439,0.45643287160377166,-0.39800855615590097,-0.15379147136459537,0.044662503178183585,0.429019074899862
130,1790648640.6495628,-0.45773613281250003,-0.21052221679687502,-0.03779340820312439,0.5052428255312698,-0.4018328830406097,-0.15562432263585307,0.044503481262847575,0.4332079818437202
131,1790648640.6695628,-0.49126640625,-0.21531225585937502,0.02447709960937561,0.5369368471601947,-0.40977733061666716,-0.15938830934510828,0.04421235500200833,0.4419013760761974
132,1790648640.6951923,-0.500846484375,-0.13388159179687503,0.058007373046875615,0.5216668830399929,-0.42033791839545875,-0.1641594784726837,0.0440537968863351,0.45340162883866364
133,1790648640.7151923,-0.4289958984375,-0.18657202148437502,0.053217333984375614,0.4708276592484436,-0.4287374867424311,-0.16780486056279467,0.04411546266665839,0.46251538116370633
134,1790648640.739793,-0.38588554687500004,-0.22010229492187502,0.01968706054687561,0.44467994768132985,-0.43902301125917026,-0.17236656329186756,0.04431444892932196,0.47372482195893895
135,1790648640.759793,-0.3906755859375,-0.21531225585937502,0.02447709960937561,0.4467503882215988,-0.4472955128301277,-0.17617198231420764,0.04451820164704293,0.48279572639820584
136,1790648640.769959,-0.42420585937500005,-0.268002685546875,0.058007373046875615,0.505114745296768,-0.4514909692892186,-0.17818462377570757,0.044669123355366915,0.48743121164031505
137,1790648640.789959,-0.4385759765625,-0.268002685546875,0.058007373046875615,0.5172418989272689,-0.45980099604585306,-0.18235427227184062,0.0450955242494415,0.49669270468558635
138,1790648640.8152041,-0.43378593750000005,-0.23447241210937503,0.00531694335937561,0.4931286054365832,-0.47036872376550865,-0.18777935907699858,0.045672916550518756,0.5085212279722375
139,1790648640.8352041,-0.42420585937500005,-0.24884252929687503,-0.02821333007812439,0.49261466432602835,-0.47877196494481694,-0.1921575569747113,0.0460273850755828,0.5179436661418947
140,1790648640.8592794,-0.4289958984375,-0.22489233398437503,-0.00426313476562439,0.4843884980871938,-0.48891074048060856,-0.19749272588720337,0.046331436274706234,0.5293238053620224
141,1790648640.8792794,-0.4002556640625,-0.18657202148437502,0.01968706054687561,0.4420421882217299,-0.4973137895939282,-0.20187718118755235,0.04656926819748626,0.5387430726653988
142,1790648640.889893,-0.3523552734375,-0.19136206054687502,0.07716752929687562,0.40832401902624516,-0.5017033501940308,-0.2041557746398786,0.04675364862624253,0.5436650950489551
143,1790648640.909893,-0.41462578125000005,-0.19615209960937502,0.1394380371093756,0.47940916850979676,-0.509884601693447,-0.20838667977531833,0.04737387971448565,0.5528576668827779
144,1790648640.9349992,-0.45773613281250003,-0.21531225585937502,0.26876909179687564,0.5728163401219566,-0.5202567393110619,-0.2136758881951941,0.048804314549787606,0.5645408055342482
145,1790648640.9549992,-0.31403496093750005,-0.31111303710937505,0.3406196777343756,0.558060071506918,-0.5284376094356822,-0.21804697089485384,0.05068697738660474,0.5738989094423425
146,1790648640.9800162,-0.318825,-0.22010229492187502,0.6423921386718756,0.7501746867778879,-0.5383231313628039,-0.22369112005835207,0.05453307282871772,0.5854941220758385
147,1790648641.0000162,-0.5822771484375,0.325962158203125,0.7477729980468757,1.002228747732252,-0.5463923576421402,-0.22736773656778478,0.05923188131538879,0.5947681160636087
148,1790648641.0101497,-0.6493376953125001,0.316382080078125,0.6040718261718756,0.9416155448604993,-0.5508036096930241,-0.22846297117297568,0.06228295714681157,0.5995490908999869
149,1790648641.0301497,-0.6014373046875,0.139150634765625,0.43642045898437565,0.7560109441308203,-0.5600800938188146,-0.22961704005766004,0.06896218372485345,0.6092368007277906
150,1790648641.0553093,-0.38588554687500004,-0.157831787109375,0.3741499511718756,0.5601845359085467,-0.5718623374361326,-0.23088631811645388,0.07763369511868506,0.6215802566757332
151,1790648641.0753093,-0.309244921875,-0.08598120117187502,0.1298579589843756,0.3462488673945679,-0.5808661273609711,-0.23210967046580616,0.08424892375291408,0.6311721145556111
152,1790648641.0994363,-0.49126640625,0.014609619140624986,-0.1000639160156244,0.5015664563840031,-0.5915471479973898,-0.2334932431392469,0.09108608404169143,0.6424513970734124
153,1790648641.1194363,-0.673287890625,-0.162621826171875,-0.0713236816406244,0.6963113596463228,-0.6008198669674797,-0.2346901319907743,0.095646492947167,0.6520829872107994
154,1790648641.1301417,-0.6014373046875,-0.028500732421875015,0.12027788085937562,0.6140080551933909,-0.6060622860519087,-0.235388150291113,0.09776070709026749,0.6574771720164331
155,1790648641.1501417,-0.5487468750000001,0.263691650390625,0.22565874023437563,0.6492906023901491,-0.616112373206019,-0.2361437974756462,0.1016369235057267,0.6675989917034633
156,1790648641.1751273,-0.64454765625,0.474453369140625,0.23523881835937563,0.8341972082963198,-0.629020563935846,-0.23556298732303355,0.10661671068135187,0.6800911070196644
157,1790648641.1951272,-0.7690886718750001,0.570254150390625,0.24481889648437563,0.9882426186519242,-0.6399236534510307,-0.23360074862666183,0.11072500675384438,0.6901678195378937
158,1790648641.2190742,-0.8505193359375001,0.6516848144531251,0.3406196777343756,1.1243211298611442,-0.6539291128966591,-0.22940905017700278,0.11595768122368807,0.7026364499737404
159,1790648641.2390742,-0.8600994140625,0.6947951660156251,0.5178511230468756,1.220934523400107,-0.6664375189899435,-0.22441364397994842,0.12096006357945727,0.7135347134533657
160,1790648641.264279,-0.8648894531250001,0.6181545410156251,0.6328120605468757,1.2371741618214804,-0.6830973428405607,-0.21658063614089654,0.12849376604252477,0.7280383229328117
161,1790648641.2842789,-0.8840496093750001,0.484033447265625,0.6902925292968757,1.2216119948293782,-0.6969574310430214,-0.2096441654777918,0.13555973644656802,0.7403220778488446
162,1790648641.2944453,-0.8409392578125,0.421762939453125,0.5561714355468756,1.0928812735812847,-0.7042612670596624,-0.20595645383281436,0.1395631537778746,0.7469135606268613
163,1790648641.3144453,-0.6972380859375,0.402602783203125,0.3741499511718756,0.8878164987690914,-0.7187818033093751,-0.19855341708232432,0.1476530381835955,0.7601790314712653
164,1790648641.3396645,-0.520006640625,0.349912353515625,0.2735591308593756,0.6838714495528224,-0.7366475080447034,-0.18919537828966337,0.15754901766423754,0.7767020891188632
165,1790648641.3596644,-0.22781425781250003,0.115200439453125,0.26876909179687564,0.3706849093477784,-0.7498123113092877,-0.1821895598290233,0.16503327899756637,0.7890801740497337
166,1790648641.3847198,-0.09369316406250001,-0.08119116210937502,0.24481889648437563,0.2744206731872451,-0.7644350919035247,-0.17466546415101086,0.17396805041729518,0.8032022887583382
167,1790648641.4047198,-0.17512382812500002,-0.04287084960937502,0.23044877929687563,0.29259682978939516,-0.7747598089378809,-0.16974649136604417,0.1807431541249904,0.8134707865926067
168,1790648641.4147112,-0.18470390625000002,-0.018920654296875016,0.19212846679687562,0.26718321784264215,-0.7794136863306582,-0.1677040260858107,0.18393676237978682,0.8181950057044434
169,1790648641.4347112,-0.01705253906250001,-0.27279272460937504,0.053217333984375614,0.2784577963079666,-0.7876347086911355,-0.16466642199207834,0.18973857863374166,0.8267310282604589
170,1790648641.459653,0.12185859375,-0.48834448242187506,-0.09527387695312439,0.5122567344723695,-0.7961531246646331,-0.1628702964235151,0.1958099625095745,0.8358995590310736
171,1790648641.479653,0.1793390625,-0.675156005859375,-0.1910746582031244,0.7242290083901667,-0.8015073896742804,-0.16339132554728622,0.19951863031880024,0.8419729834210051
172,1790648641.5043902,0.02126777343749999,-0.603305419921875,-0.1575443847656244,0.6238990151180541,-0.8067643495693811,-0.1663110354975352,0.20277090283438098,0.8483184044335234
173,1790648641.5243902,-0.11764335937500002,-0.43086401367187505,-0.1335941894531244,0.46618790818521927,-0.8105215958079957,-0.16986876847380464,0.20456921902580838,0.8530235759618698
174,1790648641.5342984,-0.14638359375,-0.45002416992187505,-0.2485551269531244,0.5345367725121645,-0.812299970337565,-0.17202152699496698,0.2050425070765259,0.8552573164073582
175,1790648641.5542984,-0.07453300781250001,-0.584145263671875,-0.3491459472656244,0.6846048136084589,-0.8156825893754788,-0.1772663731043005,0.20495799985477298,0.8595168615846394
176,1790648641.5790813,-0.026632617187500013,-0.6128854980468751,-0.3491459472656244,0.7058617587788931,-0.8194334526393569,-0.1850155752671774,0.20357106343082018,0.8643744120820889
177,1790648641.5990813,-0.02184257812500001,-0.43086401367187505,-0.3012455566406244,0.5261841710772989,-0.8220790936667383,-0.19189681212133344,0.20164409932118688,0.8679278573345303
178,1790648641.6239827,0.02126777343749999,-0.5362448730468751,-0.3251957519531244,0.6275055052701975,-0.8248800757615996,-0.20098547117109977,0.19843482931185097,0.8718937323403322
179,1790648641.6439826,0.1553888671875,-0.675156005859375,-0.4018363769531244,0.8009081134166468,-0.8265272995709322,-0.20900732703828911,0.19515333868256407,0.8745949149695872
180,1790648641.6540751,0.2559796875,-0.737426513671875,-0.4401566894531244,0.8961369174122824,-0.8269224656044732,-0.21351739026718788,0.19310846796983153,0.8756034036420526
181,1790648641.6740751,0.2607697265625,-0.761376708984375,-0.4114164550781244,0.9038577558357339,-0.8268129670178089,-0.22336242481595553,0.18838669235570069,0.8769264513658926
182,1790648641.6996038,0.3948908203125,-0.9194479980468749,-0.4209965332031244,1.085615706430473,-0.8254388037945282,-0.2372621782189745,0.1816699302156708,0.8778647524348615
183,1790648641.7196038,0.5960724609375,-1.039198974609375,-0.49763715820312443,1.2972585049795378,-0.8230372811613474,-0.24945623279526818,0.17581917256356921,0.8777990428923969
184,1790648641.74412,0.7828839843750001,-1.317021240234375,-0.5072172363281244,1.6139149931293493,-0.817999551371823,-0.26649405173002877,0.16787542682073553,0.8765412167047452
185,1790648641.7641199,0.8451544921875,-1.614003662109375,-0.6748686035156244,1.9428694163474582,-0.8120642280923815,-0.28270496723096755,0.16059393921712392,0.8747347154181153
186,1790648641.7743914,0.7780939453125,-1.9397263183593751,-0.7371391113281244,2.216154878910227,-0.8082227188818688,-0.29251937411511614,0.15632750644963847,0.873630263224816
187,1790648641.7943914,0.6056525390625,-2.0834274902343752,-0.5694877441406244,2.2431677146088607,-0.7997891902813268,-0.31479748692626125,0.14730638512245414,0.8720432201237475
188,1790648641.818868,0.4906916015625,-2.222338623046875,-0.4593168457031244,2.321753468410572,-0.7890035807821303,-0.3458766358133985,0.1360335152973092,0.8721596270022829
189,1790648641.838868,0.73498359375,-2.6534421386718754,-0.5694877441406244,2.811631618311264,-0.7796740078823984,-0.3747760830460716,0.12666082512427815,0.8742949362840443
190,1790648641.8644748,0.610442578125,-2.9504245605468755,-0.7275590332031244,3.0995140547288353,-0.7669367870777191,-0.4169894620738058,0.11396959345848566,0.880375667023339
191,1790648641.8844748,0.476321484375,-3.2234567871093756,-0.7562992675781244,3.345077636913366,-0.7568506093853511,-0.454275049116656,0.10331830641598615,0.888742559809974
192,1790648641.909445,0.303880078125,-3.2809372558593752,-0.5790678222656244,3.345476337018505,-0.7446856300146174,-0.5060251952322011,0.0895139128221487,0.904782253555399
193,1790648641.929445,0.246399609375,-3.2809372558593752,-0.3251957519531244,3.306208451001624,-0.7355781918442996,-0.5510999287472681,0.07875937245034256,0.9224908923837379
194,1790648641.9395974,0.2128693359375,-3.1180759277343753,-0.4257865722656244,3.1542043450640236,-0.7312988621622165,-0.5754209148050576,0.07354724157457225,0.9334433307587935
195,1790648641.9595973,0.23681953125,-3.1563962402343755,-0.5263773925781244,3.2087371153094666,-0.7234586380798333,-0.6255578430742418,0.06339134002052478,0.9585058570679799
196,1790648641.9841342,0.265559765625,-3.2713571777343753,-0.37788618164062443,3.303800499380668,-0.7143582084936246,-0.6896702467544047,0.051136509504658104,0.9942673895410742
197,1790648642.0041342,0.246399609375,-3.1803464355468756,-0.3012455566406244,3.2040700839700103,-0.7072851752713114,-0.7437671014117574,0.04162723903833928,1.0272169426810347
198,1790648642.029589,0.0883283203125,-3.0558054199218754,-0.2533451660156244,3.067561316377657,-0.6989943362376188,-0.8141960914840415,0.030281067982492055,1.073510736116933
199,1790648642.049589,0.002107617187499989,-3.0749655761718753,-0.3443559082031244,3.0941878947805743,-0.6933216382542728,-0.8704283027309501,0.021806966817226242,1.1130210546384283
200,1790648642.0592206,0.1553888671875,-2.931264404296875,-0.5263773925781244,2.9822021841855513,-0.6908857775561408,-0.8977854029680259,0.017709143538595925,1.1329851725316993
201,1790648642.0792205,0.2559796875,-2.854623779296875,-0.5551176269531244,2.9193420665440764,-0.6859693931935369,-0.9547499355144424,0.008854180564744327,1.1756614496855013
202,1790648642.104693,0.1649689453125,-2.7492429199218753,-0.4018363769531244,2.783347599474577,-0.6798428299682675,-1.0271242894444268,-0.002560202619199774,1.2317374452631666
203,1790648642.124693,0.2320294921875,-2.6678122558593755,-0.2964555175781244,2.6942430832537725,-0.6751585361829572,-1.0835516624512926,-0.011225465402076695,1.2767338270975541
204,1790648642.1491566,0.3326203125,-2.5624313964843752,-0.4018363769531244,2.614988223265886,-0.6692522417825407,-1.151815871012668,-0.02151600125616543,1.3323067597808258
205,1790648642.1691566,0.284719921875,-2.5863815917968753,-0.3587260253906244,2.62661750804924,-0.6642219022398045,-1.2069764144242177,-0.029807817448766344,1.3779953941767964
206,1790648642.1796093,0.3374103515625,-2.7492429199218753,-0.2677152832031244,2.782778081511822,-0.6614994904136119,-1.2356639499217301,-0.03398249445300379,1.4019992093018057
207,1790648642.1996093,0.370940625,-2.691762451171875,-0.1240141113281244,2.720029694805319,-0.6560093293002824,-1.290481857574465,-0.0413596370903267,1.4482411002447388
208,1790648642.2239535,0.3374103515625,-2.409150146484375,-0.1048539550781244,2.434921872574712,-0.649035727209835,-1.3565114198499395,-0.04941011907580589,1.504596945113602
209,1790648642.2439535,0.2943,-2.342089599609375,-0.1383842285156244,2.3645605040472675,-0.643218374547971,-1.4097478683111129,-0.055396768065086636,1.5505443339279008
210,1790648642.2694237,0.20807929687499999,-2.337299560546875,-0.1240141113281244,2.349818233253184,-0.635961486500022,-1.4763145221222238,-0.06237848893226681,1.608677300275528
211,1790648642.2894237,0.1793390625,-2.265448974609375,0.00052690429687561,2.272536431726714,-0.630536789224314,-1.5276481878432386,-0.06722363102516067,1.6540267969275
212,1790648642.299433,0.2511896484375,-2.179228271484375,0.02447709960937561,2.1937937977677437,-0.6279059526898195,-1.5528218861295393,-0.06926596069168352,1.6764007482630015
213,1790648642.319433,0.2320294921875,-2.150488037109375,-0.052163525390624396,2.163598279805311,-0.622712857305483,-1.6020719859664863,-0.07277622537828822,1.7203785426040608
214,1790648642.3444855,0.10269843749999999,-2.078637451171875,-0.05695356445312439,2.081952048194955,-0.616554656568115,-1.6624565331907064,-0.07671874911021163,1.7747639662077108
215,1790648642.3644855,0.04521796874999999,-2.107377685546875,-0.03779340820312439,2.108201535893186,-0.6121539930518088,-1.709710876895054,-0.0795361598266028,1.8177375483007692
216,1790648642.3895996,0.073958203125,-2.145697998046875,-0.08569379882812439,2.148681721844685,-0.6072324764431549,-1.7681586315336535,-0.08277591393325573,1.871354610607443
217,1790648642.4095995,0.01647773437499999,-2.193598388671875,-0.09048383789062439,2.1955256162097943,-0.6037653938015132,-1.814231499557829,-0.08523320541771479,1.913957492747925
218,1790648642.41945,-0.02184257812500001,-2.217548583984375,0.04842729492187561,2.2181848487995097,-0.6023178744544317,-1.836778656231948,-0.08629301332886087,1.9349390527936325
219,1790648642.43945,0.02126777343749999,-2.251078857421875,0.10590776367187561,2.25366918489044,-0.5998206096213125,-1.882393445175571,-0.08789052610041713,1.9776032440165157
220,1790648642.4643085,0.05958808593749999,-2.303769287109375,0.03884721679687561,2.304867192370744,-0.5970315373279692,-1.939076832776695,-0.08930839716992155,2.0308721303372494
221,1790648642.4843085,0.002107617187499989,-2.409150146484375,-0.01384321289062439,2.409190840282071,-0.5950316288972218,-1.9849103160428472,-0.09024053175319503,2.074144391235214
222,1790648642.5089216,-0.08890312500000001,-2.5001608886718754,0.058007373046875615,2.5024134530902575,-0.593099828879754,-2.0419173858793416,-0.09113407361429365,2.128262069658493
223,1790648642.5289216,-0.036212695312500015,-2.5097409667968753,0.029267138671875612,2.510172831724212,-0.5919532327569513,-2.08880628875604,-0.09162031995747932,2.1729966923001283
224,1790648642.5397465,0.11706855468749999,-2.5768015136718754,-0.1144340332031244,2.581996559895737,-0.5913600859765312,-2.1145075789678365,-0.0919131665534401,2.1975661726065208
225,1790648642.5597465,0.064378125,-2.6103317871093754,-0.1431742675781244,2.615047887261087,-0.590156409395449,-2.162650839304863,-0.09275947930602195,2.24364604189201
226,1790648642.5838668,-0.04579277343750001,-2.7205026855468755,-0.1144340332031244,2.723293408379272,-0.5888888810703138,-2.2216468312333784,-0.09409306704234019,2.300295255449394
227,1790648642.6038668,-0.02184257812500001,-2.7923532714843753,-0.2485551269531244,2.8034788285491516,-0.5880969813704289,-2.2714964203469132,-0.095577461497316,2.3483375179671517
228,1790648642.6292312,-0.06495292968750001,-2.7540329589843755,-0.3587260253906244,2.778057015890743,-0.5874084367012463,-2.3357847348869445,-0.09833286998984075,2.410520348920356
229,1790648642.6492312,-0.07932304687500001,-2.8163034667968754,-0.2006547363281244,2.8245565467996108,-0.5871633670934581,-2.387228195391519,-0.10101869805676232,2.4604520019471745
230,1790648642.674342,-0.036212695312500015,-2.8067233886718754,-0.1958646972656244,2.8137822444984057,-0.5871194161088377,-2.452718869993852,-0.10463179840784323,2.5241804367425797
231,1790648642.694342,-0.17991386718750002,-2.6678122558593755,-0.2916654785156244,2.689732325618592,-0.5874138507825942,-2.5052679182473065,-0.1078091655481387,2.5754698970220202
232,1790648642.7045321,-0.4385759765625,-2.6199118652343754,-0.2293949707031244,2.666253761628383,-0.5880140586997027,-2.5320674156888456,-0.10958346884944688,2.6017560353474276
233,1790648642.7245321,-0.5726970703125001,-2.5768015136718754,-0.1144340332031244,2.642155014975715,-0.5905322696739046,-2.5845710075112347,-0.11305921106149679,2.653585883215333
234,1790648642.7491574,-0.68286796875,-2.437890380859375,-0.09048383789062439,2.533338804177372,-0.5954866696727615,-2.648781645124427,-0.11707530283092692,2.7174170095587047
235,1790648642.7691574,-0.7116082031250001,-2.3564597167968753,0.04363725585937561,2.4619489925138858,-0.6009986332627403,-2.700300734572204,-0.11991806642164304,2.7689716063855134
236,1790648642.79407,-1.02775078125,-2.045107177734375,0.18733842773437562,2.296482249721655,-0.6100845210011139,-2.76307252641831,-0.12249638036076903,2.832274399173624
237,1790648642.81407,-1.2816228515625,-1.570893310546875,0.30708940429687565,2.050504042668418,-0.6197486524306378,-2.81133105654253,-0.12351414229856857,2.881479905364235
238,1790648642.8246603,-1.267252734375,-1.259540771484375,0.38852006835937564,1.8284748538960942,-0.6261228744806829,-2.835299820097033,-0.1234197213086455,2.906232501263126
239,1790648642.8446603,-1.52591484375,-0.924238037109375,0.31666948242187565,1.8118806861142145,-0.6405447700828472,-2.8770510732137184,-0.12221036975949454,2.9500264159558722
240,1790648642.8692815,-1.5211248046875,-0.766166748046875,0.4507905761718756,1.7618298160757984,-0.6612625439956471,-2.92386124418753,-0.11952771255601233,3.000086598987156
241,1790648642.8892815,-1.2289324218750002,-0.603305419921875,0.38852006835937564,1.4230952781738253,-0.6796924173208225,-2.958235994902895,-0.11641648065407172,3.0375474943892518
242,1790648642.9149046,-0.8265691406250001,-0.550614990234375,0.24002885742187563,1.0217667366378704,-0.7037123404943659,-2.9978870070170642,-0.11182050279191084,3.081402503706782
243,1790648642.9349046,-1.10439140625,-0.17699194335937501,0.2735591308593756,1.1514517464008285,-0.7225451240226881,-3.0252854208883133,-0.10800085737893378,3.112247984862859
244,1790648642.9439883,-1.7893669921875002,0.316382080078125,0.5178511230468756,1.889471259100178,-0.7317871647603367,-3.03576787915911,-0.10598707355831798,3.12452113617489
245,1790648642.9639883,-1.8660076171875002,0.6325246582031251,0.44600053710937565,2.0201456258741852,-0.7545664459839431,-3.0539621521762603,-0.1007725565245813,3.1474132961017998
246,1790648642.989687,-0.77866875,0.7570656738281251,0.06758745117187562,1.0881367194756852,-0.7845431923595281,-3.071155535162419,-0.09408740212864283,3.1711759303254934
247,1790648643.009687,-0.08411308593750001,0.297221923828125,-0.1096439941406244,0.3277768885707628,-0.8056673537156808,-3.0809477415453075,-0.08972817426548972,3.18581073138901
248,1790648643.034009,-0.64454765625,0.436133056640625,-0.25813520507812443,0.8199314046752864,-0.82883232112614,-3.08973207045843,-0.08589298074840557,3.2001226363851316
249,1790648643.054009,-1.0804412109375001,0.800176025390625,-0.2916654785156244,1.3757556589960944,-0.8476110500994104,-3.0940174510071885,-0.08403705688798027,3.2091199270700432
250,1790648643.064006,-0.9511101562500001,1.025307861328125,-0.3204057128906244,1.434756620711716,-0.8571129526886349,-3.0944694967625956,-0.08370743653528476,3.212069584394474
251,1790648643.084006,-0.47689628906250003,1.130688720703125,-0.5886479003906244,1.361026599402504,-0.8754128175199419,-3.0920042026843078,-0.08451050069044207,3.21465077655763
252,1790648643.1092768,-0.20386406250000003,0.9151369628906251,-0.7419291503906245,1.1956149384425718,-0.8963572251898753,-3.0854790039589064,-0.08789484230186055,3.2142436843407824
253,1790648643.1292768,-0.5631169921875,0.575044189453125,-0.6796586425781245,1.0534288951539335,-0.9115973166358328,-3.0788541341315576,-0.0923039199316684,3.21230018220455
254,1790648643.1548896,-0.47689628906250003,0.474453369140625,-0.6748686035156244,0.9528817880627181,-0.9301846890533869,-3.069626610912619,-0.09970540115860878,3.2090173345110555
255,1790648643.1748896,-0.328405078125,0.7091652832031251,-0.6988187988281245,1.048385905968999,-0.943729621690885,-3.0617266080659373,-0.10667850947633775,3.2056474737219416
256,1790648643.184975,-0.3619353515625,0.9055568847656251,-0.6509184082031244,1.1724867779189596,-0.9500575269453301,-3.0571190720851353,-0.1106883180906783,3.203254318528877
257,1790648643.204975,-0.17991386718750002,0.7235354003906251,-0.5311674316406244,0.9154295798478882,-0.9615366970373685,-3.0469089151303455,-0.11922042921678822,3.197251986877629
258,1790648643.2290814,0.09311835937499999,0.484033447265625,-0.4497367675781244,0.6672500033991429,-0.9734543457861881,-3.0342650606270647,-0.129735273005553,3.189233303246096
259,1790648643.2490814,0.2320294921875,0.488823486328125,-0.3491459472656244,0.6439634916070801,-0.9813709890323932,-3.0238892894060845,-0.13834869788491053,3.1821589864281927
260,1790648643.2749054,0.19849921875,0.397812744140625,-0.3587260253906244,0.5712628821633782,-0.9892258448915036,-3.0107843895533555,-0.14917314874219237,3.1726397590784146
261,1790648643.2949054,0.370940625,0.009819580078124987,-0.4593168457031244,0.5904789040896966,-0.9935425371029014,-3.001545986827236,-0.1575259472583597,3.165630981041726
262,1790648643.3194396,0.7972541015625,-0.277582763671875,-0.5024271972656245,0.9823947178696228,-0.9958940196837215,-2.9924057549594787,-0.1680051302406707,3.158246796015725
263,1790648643.3394396,1.166087109375,-0.34943334960937505,-0.4832670410156244,1.3097365557247642,-0.9945783739427138,-2.987012929996325,-0.1767447896013437,3.153200137405012
264,1790648643.3495617,1.1996173828125,-0.44044409179687505,-0.3826762207031244,1.33398424017539,-0.9922164635930343,-2.9852926405076396,-0.18116187089747643,3.151076845073953
265,1790648643.3695617,1.5013898437500002,-0.852387451171875,-0.3299857910156244,1.7577333279263787,-0.9841981322181375,-2.9843426627141576,-0.1896493433894305,3.148160409732252
266,1790648643.3948917,1.92291328125,-1.254750732421875,-0.2772953613281244,2.312766223623773,-0.9690608300923426,-2.987323030504772,-0.19994003788675763,3.1469276762826364
267,1790648643.4148917,1.7744220703125,-1.388871826171875,-0.3347758300781244,2.278072318770981,-0.9533556056150707,-2.9932887002270787,-0.20776462540455298,3.1483059402215483
268,1790648643.4394772,1.8223224609375002,-1.6235837402343751,-0.3635160644531244,2.4675954373248135,-0.930313387547077,-3.005076835024693,-0.21722800110504636,3.1532773090731228
269,1790648643.4594772,2.30611640625,-1.934936279296875,-0.4305766113281244,3.040978050288667,-0.908187865563309,-3.018565683522071,-0.22496272478081666,3.160245593689566
270,1790648643.4695842,2.4929279296875,-2.260658935546875,-0.5934379394531244,3.41722651772842,-0.895046045725025,-3.027540192138132,-0.22906140418274673,3.165371410413946
271,1790648643.4895842,2.3396466796875,-2.7061325683593753,-0.5694877441406244,3.6223495626505224,-0.865692725397748,-3.050085444125651,-0.23769974620741408,3.179456915987512
272,1790648643.514399,2.4929279296875,-3.084545654296875,-0.5886479003906244,4.0094410965485,-0.8257418090303464,-3.08463949395835,-0.248965438771405,3.202941481290436
273,1790648643.534399,2.9048712890625006,-3.324047607421875,-0.5886479003906244,4.453546457943491,-0.7902758172365199,-3.117924426937144,-0.25844920443982383,3.2268846571694723
274,1790648643.559697,2.7611701171875005,-3.0893356933593754,-0.4401566894531244,4.166748534959102,-0.7413937556793606,-3.165879461691665,-0.27059777192396245,3.2627719229348022
275,1790648643.579697,2.5647785156250005,-2.8833640136718754,-0.2437650878906244,3.866690870450325,-0.7005564653745007,-3.2070639226956152,-0.27978739890814425,3.294589405983936
276,1790648643.5897715,2.9575617187500005,-2.9600046386718755,-0.2725053222656244,4.193215702994251,-0.6788984397461868,-3.2291131647860416,-0.2841122278264028,3.311917070290984
277,1790648643.6097715,3.1443732421875006,-3.1037058105468756,-0.4593168457031244,4.441964071146213,-0.6331996267043845,-3.2754147827875997,-0.2925077096727453,3.3488571971315984
278,1790648643.634917,2.7372199218750004,-3.2282468261718753,-0.4449467285156244,4.255811093389241,-0.5732697579995325,-3.336838200354207,-0.3031852082661218,3.3992717839695192
279,1790648643.654917,2.4881378906250005,-3.2186667480468754,-0.36830610351562443,4.084886189801784,-0.5249153122004685,-3.3880347124118524,-0.31162375694238703,3.442589819217658
280,1790648643.6793668,2.5791486328125,-3.2426169433593754,-0.2437650878906244,4.1504209099288,-0.46537723957461835,-3.4530822528924072,-0.3215147870662005,3.4991034249728625
281,1790648643.6993668,2.5935187500000003,-3.204296630859375,-0.018633251953124392,4.122402649331656,-0.4162213746542429,-3.507980222843044,-0.32878562564400826,3.5478536418808373
282,1790648643.709931,2.26779609375,-2.8306735839843755,0.20170854492187562,3.632670973125588,-0.39030000723979014,-3.5374095422564364,-0.33190499282604563,3.574319696048624
283,1790648643.7299309,2.028294140625,-2.270239013671875,0.1681782714843756,3.048974619620673,-0.34214259511412315,-3.5924192668311377,-0.33636992322710213,3.6243182075174913
284,1790648643.7546802,2.0618244140625,-1.997206787109375,-0.018633251953124392,2.8705926327116273,-0.2838963831441119,-3.658202205978526,-0.340788754703044,3.68499355651004
285,1790648643.7746801,1.798372265625,-1.934936279296875,-0.1527543457031244,2.6460262849865304,-0.23809746720193264,-3.7092859291654414,-0.3440810783510544,3.7328118485495527
286,1790648643.8001359,1.2954181640625,-1.910986083984375,-0.1623344238281244,2.3143743210908223,-0.18264244871435353,-3.771894370080562,-0.34824450143910873,3.7923369623360723
287,1790648643.8201358,1.166087109375,-2.054687255859375,-0.2677152832031244,2.37763965707632,-0.14191589852118006,-3.819654410756726,-0.3516700170181771,3.8384335008875623
288,1790648643.8301103,1.2954181640625,-2.155278076171875,-0.4018363769531244,2.5465278869969223,-0.12280985322857753,-3.8430500621760544,-0.35362302936960505,3.8612388280630787
289,1790648643.8501103,1.1852472656250002,-2.294189208984375,-0.3108256347656244,2.600909030035335,-0.0865255098874958,-3.8895985868065996,-0.3580206339261569,3.9069991815543137
290,1790648643.874339,1.2331476562500001,-2.093007568359375,-0.4497367675781244,2.4705458877414346,-0.044767985163493146,-3.945503029980992,-0.363931023521892,3.9625047787941505
291,1790648643.894339,1.3864289062500001,-1.7433347167968751,-0.8425199707031245,2.3814367402701264,-0.011539735418365733,-3.9904825175229317,-0.37001639221102856,4.0076172495205356
292,1790648643.9199739,1.36726875,-1.8630856933593751,-0.8808402832031245,2.473133991525794,0.029956010417224482,-4.04642043629942,-0.37995961625222674,4.064330820669529
293,1790648643.9399738,1.434329296875,-2.385199951171875,-0.7227689941406245,2.8755650501832326,0.06167677508407545,-4.089888720075825,-0.3889589889803989,4.108805527437006
294,1790648643.9493866,1.530130078125,-2.8498337402343754,-0.5215873535156245,3.2764162999088655,0.07645922433013701,-4.110973609884813,-0.3934375868709074,4.130465248481984
295,1790648643.9693866,1.6498810546875,-3.1084958496093753,-0.1862846191406244,3.5241390297466726,0.10792717105064899,-4.157991592365656,-0.40258799344358276,4.178829913851414
296,1790648643.9941168,1.817532421875,-2.9791647949218754,-0.4305766113281244,3.5162825822296355,0.14743231477198326,-4.218700307668735,-0.41334952149105786,4.241465124256027
297,1790648644.0141168,2.0522443359375,-2.6965524902343754,-1.0245414550781244,3.5401676994388787,0.1803935138449805,-4.268946127739278,-0.4229298625766467,4.2936362829234405
