imu_index,t_imu,ax,ay,az,mag,vx,vy,vz,velocity
0,1791286176.033133,0.01967672909007347,0.12294433593750002,0.05982852711397063,0.1381373811226495,0.0,0.0,0.0,0.0
1,1791286176.053133,-0.009063505284926533,0.08941406250000003,-0.002441980698529369,0.0899054223644814,4.1007626189606904e-05,0.0004752911727031461,0.00016236103685377597,0.000503928993553131
2,1791286176.078189,-0.018643583409926532,0.06067382812500002,-0.02160213694852937,0.06704885489289097,3.26087461794147e-05,0.0012634612758466394,0.00029007193222743005,0.0012967418601084666
3,1791286176.0981889,-0.013853544347426533,0.04630371093750003,-0.01681209788602937,0.0511722676153706,-2.1835393443035357e-05,0.001958687181735608,0.00031910026329052713,0.0019846302522974588
4,1791286176.1077147,0.02925680721507347,0.05109375000000003,-0.02639217601102937,0.06452192659925486,-3.2872275816152415e-05,0.002309730492085746,0.0002999856956487454,0.002329361919106144
5,1791286176.1277146,-0.03301370059742653,0.031933593750000024,-0.01202205882352937,0.04747829751879233,-5.8204359965735876e-05,0.003060753750210313,0.00020825197085682685,0.0030683823344412717
6,1791286176.1523948,-0.07133401309742654,0.07983398437500003,-0.002441980698529369,0.10708860702942942,-0.0002779240517350781,0.0040553901308336025,8.525875210605279e-05,0.004065796348393031
7,1791286176.1723948,-0.042593778722426534,0.041513671875000026,-0.002441980698529369,0.05952796156540381,-0.0006001612153688445,0.00492252927182168,-6.786431968430182e-06,0.004958985175621434
8,1791286176.1980371,0.000516572840073468,0.04630371093750003,-0.002441980698529369,0.046370936628610936,-0.0010322582125613946,0.00603642856110838,-0.00011649026889935858,0.006125160958988235
9,1791286176.2180371,0.02925680721507347,-0.015966796874999977,0.002348058363970631,0.0334127632641794,-0.0012740629221320954,0.006820408974474442,-0.00018936084260332513,0.006940970568829314
10,1791286176.2274776,0.02925680721507347,0.036723632812500025,0.03587833180147063,0.05909179865449792,-0.001329649910271146,0.007149652775805395,-0.0001915323575006649,0.007274763799769421
11,1791286176.2474775,0.01967672909007347,0.05588378906250002,0.03108829273897063,0.06690779844749097,-0.0013563487912285422,0.007881454565380249,-9.499290500750234e-05,0.00799787670332708
12,1791286176.2729745,0.03404684627757347,0.10378417968750003,0.045458409926470635,0.11830811775993674,-0.0012825461935545635,0.008979779534724529,0.0001559974666119276,0.009072248918567442
13,1791286176.2929745,0.000516572840073468,0.07983398437500003,0.03587833180147063,0.08752706210963138,-0.001181493562543792,0.009987509777128638,0.00044534917009964866,0.010067006231739454
14,1791286176.3174598,-0.06175393497242654,0.06546386718750002,0.021508214613970632,0.09252929097103223,-0.0011887916963752717,0.01130300759178632,0.0008518414807559421,0.011397229497807197
15,1791286176.3374598,-0.06654397403492654,0.06067382812500002,0.01671817555147063,0.09159100006808973,-0.0013863054127075012,0.0124055536385201,0.0011914053939920842,0.012539499614750775
16,1791286176.3480103,-0.052173856847426536,0.06546386718750002,-0.01202205882352937,0.08457043894786641,-0.0015688098245518907,0.012999742745947002,0.0013473806876541485,0.01316320289457986
17,1791286176.3680103,-0.009063505284926533,0.041513671875000026,-0.01681209788602937,0.04569659413921887,-0.0019547345302215707,0.01411762382842154,0.0015554519642684687,0.014336935532309645
18,1791286176.3923094,-0.03780373965992653,0.08941406250000003,0.021508214613970632,0.09943138639740488,-0.002438697170018516,0.01551068338184582,0.0017788885885779994,0.015801676729685916
19,1791286176.4123094,-0.07133401309742654,0.09899414062500003,0.03587833180147063,0.12718347375159447,-0.0029409899231952574,0.01676789720122962,0.0020212873665808482,0.01714343608783372
20,1791286176.436984,-0.05696389590992654,0.04630371093750003,0.03587833180147063,0.08170785627267994,-0.0037051591596584375,0.018355192454962733,0.0024082774266389654,0.01887964762967732
21,1791286176.456984,-0.03301370059742653,0.031933593750000024,0.03587833180147063,0.05828304667553833,-0.004366611617858167,0.019566139868648896,0.002782535095344034,0.020239654837411802
22,1791286176.4676754,-0.03780373965992653,0.07025390625000003,0.04066837086397063,0.08954691767106643,-0.004723951112683958,0.020198315943079935,0.003013971591459825,0.020961195238001863
23,1791286176.4876754,-0.018643583409926532,0.06067382812500002,0.011928136488970632,0.06458465035753035,-0.005376813567808237,0.02139990580198373,0.003460864395711383,0.0223348085920217
24,1791286176.5132575,-0.042593778722426534,0.031933593750000024,0.021508214613970632,0.05741591845059779,-0.006204124650303639,0.02288400318599356,0.004010896627265444,0.024046955238609273
25,1791286176.5332575,-0.07612405215992654,0.027143554687500022,0.050248448988970636,0.095165910409756,-0.006931971912885354,0.023958841847483307,0.004484042878092705,0.02534136890158704
26,1791286176.5576372,-0.07612405215992654,0.05588378906250002,0.05982852711397063,0.11179142119973398,-0.007964505806414222,0.025224338483305086,0.005175561932185106,0.0269534236410634
27,1791286176.5776372,-0.07133401309742654,0.08462402343750003,0.03587833180147063,0.11634870631077424,-0.008905678488459138,0.026317530696308804,0.005801318260556034,0.028382720532944352
28,1791286176.5882626,-0.06175393497242654,0.06067382812500002,0.007138097426470631,0.08686664687203322,-0.009436749754721533,0.02692698078757627,0.006118176146087824,0.0291812717272962
29,1791286176.6082625,-0.08091409122242654,0.041513671875000026,0.021508214613970632,0.09345094117651759,-0.010500435824665817,0.02805534784936055,0.006668100415378056,0.03068917168328448
30,1791286176.6324954,-0.03780373965992653,0.012773437500000023,0.01671817555147063,0.043264082465848036,-0.011811689163266435,0.029316115423662702,0.0073039412852213435,0.03243914583834014
31,1791286176.6524954,-0.028223661534926534,0.05588378906250002,0.03108829273897063,0.06990032114263871,-0.01283060844616237,0.030303562365874184,0.007821709804811639,0.03382468846023339
32,1791286176.6781669,-0.052173856847426536,0.08462402343750003,0.026298253676470634,0.10283450212607786,-0.014097083410333599,0.03165143380341742,0.008497105295126216,0.03567550729683433
33,1791286176.6981668,-0.06175393497242654,0.05588378906250002,0.01671817555147063,0.08494729988840419,-0.01510665085516004,0.03275477302700635,0.009008885409738012,0.037178570069815765
34,1791286176.7231584,-0.042593778722426534,0.007983398437500023,-0.002441980698529369,0.04340423834372518,-0.01637453864712649,0.03404638438523233,0.009579226464292673,0.03897490712326889
35,1791286176.7431583,-0.047383817784926535,0.017563476562500024,0.021508214613970632,0.05492089941649925,-0.017371960600141564,0.0349632978366344,0.00999578905177697,0.040300533612766205
36,1791286176.75325,-0.05696389590992654,0.031933593750000024,0.03587833180147063,0.07451103636296709,-0.017878723103451354,0.03539401639580441,0.010217882905278834,0.040948629616903494
37,1791286176.7732499,-0.08091409122242654,0.07504394531250003,0.01671817555147063,0.11161622319441941,-0.01893922045604816,0.03628006122446679,0.010670911837427135,0.04229426998277656
38,1791286176.7975621,-0.10486428653492653,0.05588378906250002,0.05503848805147064,0.1309532421799974,-0.020373754499015115,0.03743432264596084,0.011269856408896032,0.044084328823575956
39,1791286176.817562,-0.11923440372242654,0.07504394531250003,0.050248448988970636,0.14957721546046138,-0.021712978756822827,0.03843781415106682,0.011846589726161998,0.045708431293867424
40,1791286176.8426409,-0.11444436465992654,0.15168457031250002,0.05503848805147064,0.19782557124976002,-0.023579917713458964,0.03993383993974586,0.012659335335767867,0.0480726831251404
41,1791286176.8626409,-0.09049416934742653,0.18042480468750002,-0.00723201976102937,0.20197674851880146,-0.025152854893118505,0.041446104721333456,0.013281975508245005,0.050267848365009964
42,1791286176.8729925,-0.03780373965992653,0.07983398437500003,-0.03597225413602937,0.09537604972470988,-0.025944469327563283,0.04231347762544783,0.013522360796548678,0.05144317368670194
43,1791286176.8929925,0.01967672909007347,-0.011176757812499978,-0.03597225413602937,0.04249819585006527,-0.027271686607773675,0.043840904311370645,0.013809216264987595,0.053445900077784984
44,1791286176.9181423,0.03404684627757347,0.027143554687500022,0.01671817555147063,0.046641802026635,-0.02858897192614879,0.045503639685282,0.01407950927999903,0.05555306581969778
45,1791286176.9381423,0.010096650965073468,0.027143554687500022,-0.002441980698529369,0.029063347906182684,-0.02941317373511522,0.04670899369886645,0.014283627701019689,0.05701654936800503
46,1791286176.9633105,-0.06654397403492654,-0.0063867187499999775,-0.02639217601102937,0.07187097892299599,-0.030401330851317094,0.048037479924806975,0.0144475349581734,0.05865638636521279
47,1791286176.9833105,-0.08570413028492653,-0.06865722656249998,-0.07429256663602937,0.1325835516363888,-0.03129715886526026,0.048822247329585566,0.014407220032676684,0.05975526735291647
48,1791286176.992644,-0.13360452090992653,-0.09739746093749999,-0.00723201976102937,0.1654954244517556,-0.031806035485437464,0.049017306208872874,0.014334159049977077,0.060164676654540034
49,1791286177.012644,-0.12402444278492654,-0.0063867187499999775,0.011928136488970632,0.1247603022784196,-0.033119332566120915,0.049216905013107784,0.01420813193615209,0.061000532307592996
50,1791286177.0380056,-0.11923440372242654,0.04630371093750003,-0.002441980698529369,0.1279329509835451,-0.03499759773435611,0.049507972579063045,0.014090335308412794,0.06224474873568509
51,1791286177.0580056,-0.10965432559742654,0.041513671875000026,-0.01202205882352937,0.11786426928093179,-0.03659994237521172,0.049834802780220344,0.013989679517180394,0.06339380476833437
52,1791286177.0829916,-0.11923440372242654,0.08462402343750003,0.01671817555147063,0.14716509697466634,-0.03873041026277744,0.05041824213958809,0.01389159270264488,0.06507703256437995
53,1791286177.1029916,-0.13360452090992653,0.13731445312500004,0.07419864430147063,0.20545283123083263,-0.04055919514262422,0.05114810976543069,0.013961231536319282,0.06675397687931958
54,1791286177.1133182,-0.11444436465992654,0.14689453125000004,0.16041934742647063,0.24578422028744273,-0.041553928855969334,0.05168855442851199,0.014173505644742575,0.06781831555367442
55,1791286177.1333182,-0.11923440372242654,0.14210449218750004,0.17957950367647063,0.2581846778404896,-0.0435420057774423,0.053011748019421635,0.01503295514652744,0.07022920642891373
56,1791286177.1573555,-0.08570413028492653,0.12294433593750002,0.10293887867647064,0.18181562207406068,-0.04594246655612184,0.054841338382665576,0.016420283880424807,0.07340237292878304
57,1791286177.1773555,-0.07133401309742654,0.07025390625000003,0.06461856617647063,0.11916254387461912,-0.04787570550398221,0.05642507977258404,0.017652782667027016,0.07607557782058441
58,1791286177.20339,-0.08570413028492653,0.04630371093750003,0.06461856617647063,0.11689649562404399,-0.05032138830271889,0.05840501577184615,0.01926884009669976,0.07946493683817282
59,1791286177.2233899,-0.13839455997242653,0.06546386718750002,0.06940860523897063,0.16809558774198527,-0.05225452459922266,0.059865530953552536,0.02052513822202169,0.08207130093080418
60,1791286177.2333236,-0.12402444278492654,0.041513671875000026,0.011928136488970632,0.13133060496607862,-0.05326617161074803,0.06056183704348867,0.021116124207181262,0.0833721287102641
61,1791286177.2533236,-0.052173856847426536,-0.03991699218749998,-0.02639217601102937,0.07079565352639838,-0.05526174369179808,0.0617558505117457,0.022105807810937197,0.08576894617086746
62,1791286177.2774231,-0.07133401309742654,-0.08302734374999998,-0.01681209788602937,0.11074623185505643,-0.05752891209820484,0.06275658099386733,0.02304138450467768,0.08819790011749265
63,1791286177.2974231,-0.08570413028492653,-0.059077148437499984,-0.02160213694852937,0.10631067555116507,-0.059363742301194344,0.06324934531085587,0.023643724214406338,0.08990861625551469
64,1791286177.3231957,-0.06654397403492654,-0.04949707031249998,-0.00723201976102937,0.08324879914872925,-0.06166778354548476,0.06357921971789539,0.024247753405233274,0.09183238128541685
65,1791286177.3431957,-0.05696389590992654,-0.03033691406249998,0.011928136488970632,0.06563150335145437,-0.06337282614326657,0.06367705907767346,0.02465322449914206,0.09315934963475918
66,1791286177.367755,-0.07133401309742654,0.017563476562500024,0.007138097426470631,0.07381036220216709,-0.06538881526027858,0.06375565285693045,0.02511156181228323,0.09471573770503182
67,1791286177.387755,-0.09528420840992653,0.003193359375000023,-0.00723201976102937,0.09561161031082017,-0.06703421530907018,0.06384119090130264,0.025428683219323737,0.09599948754065336
68,1791286177.39781,-0.09528420840992653,-0.02554687499999998,-0.02639217601102937,0.10211890201705603,-0.06788107501782313,0.06386088733285847,0.025538845085037586,0.09663480679751435
69,1791286177.41781,-0.08091409122242654,-0.0063867187499999775,-0.02160213694852937,0.08399126535233163,-0.06957714825019645,0.06384628751973229,0.025653103092116884,0.09785402233396906
70,1791286177.4428732,-0.10007424747242653,-0.03033691406249998,0.007138097426470631,0.10481476898260934,-0.07172400098988756,0.06376170484934975,0.02574762089176818,0.09936210195481575
71,1791286177.4628732,-0.16234475528492653,0.012773437500000023,0.045458409926470635,0.16907231383976543,-0.07357380194078585,0.06367798870746469,0.02589062535486918,0.1006892003102427
72,1791286177.4884722,-0.15276467715992653,0.06546386718750002,0.03108829273897063,0.16908295727347317,-0.07619129544538422,0.06373711877992724,0.02619317224306683,0.1027307942350654
73,1791286177.5084722,-0.08091409122242654,0.08462402343750003,0.011928136488970632,0.11768855484371124,-0.07828005859391629,0.06400151795699544,0.026458614502786363,0.10451803746566252
74,1791286177.5174313,-0.06654397403492654,0.06546386718750002,0.007138097426470631,0.09361928659402081,-0.07917445783286302,0.06420303906452633,0.026572495508047394,0.10534098212839149
75,1791286177.5374312,-0.03780373965992653,0.017563476562500024,0.011928136488970632,0.0433575700580245,-0.08102811948285285,0.06470997024486133,0.02681718628935234,0.10710787961908379
76,1791286177.562651,0.000516572840073468,-0.0063867187499999775,0.026298253676470634,0.02706760370484805,-0.08308547109706102,0.06527445859848034,0.02715175931030851,0.10909247676347902
77,1791286177.582651,0.03883688534007347,-0.0015966796874999775,0.026298253676470634,0.046930280154442824,-0.08441325260056058,0.0656429916426572,0.02745618168657098,0.1104012748079025
78,1791286177.6079187,0.07715719784007347,-0.0063867187499999775,0.04066837086397063,0.08745249992797972,-0.08561931718803972,0.06602362421373346,0.027910003710274474,0.111663578382434
79,1791286177.6279187,0.01967672909007347,-0.0063867187499999775,0.002348058363970631,0.020820115805546262,-0.08628549625743152,0.06626055037687327,0.02827985582429254,0.11240728466643148
80,1791286177.6374779,-0.009063505284926533,-0.015966796874999977,-0.01202205882352937,0.02194574284123918,-0.08654853212495198,0.06634077900198437,0.0284231779466221,0.11269261029969675
81,1791286177.6574779,-0.018643583409926532,-0.07344726562499998,0.011928136488970632,0.07670961132903559,-0.08705787524854795,0.06634933648376927,0.02867792087680969,0.11315357369718701
82,1791286177.6825674,-0.03780373965992653,-0.04470703124999998,0.021508214613970632,0.06237342920943658,-0.08770720794306279,0.06613612893019173,0.029012472108559697,0.11361454754074654
83,1791286177.7025673,-0.047383817784926535,-0.0015966796874999775,0.026298253676470634,0.05421599137091931,-0.08827495983244418,0.06592220962576535,0.02931086481666802,0.11400584656790182
84,1791286177.72716,-0.047383817784926535,0.003193359375000023,0.011928136488970632,0.048966357553656505,-0.08904316131982833,0.06570156870417646,0.029693247911220168,0.11457342483986316
85,1791286177.74716,-0.042593778722426534,0.007983398437500023,-0.00723201976102937,0.043934801084002106,-0.08970915694607373,0.06556581289211877,0.029964619412182633,0.11508469523223568
86,1791286177.7575774,-0.052173856847426536,0.003193359375000023,-0.002441980698529369,0.05232850229239938,-0.09007806439950632,0.06551444052844602,0.0300772087280297,0.11537260545114844
87,1791286177.7775774,-0.13839455997242653,0.031933593750000024,0.026298253676470634,0.14444516878796468,-0.09096592721220839,0.06548329768629306,0.030296724673992338,0.11610664802422023
88,1791286177.802986,-0.08091409122242654,0.036723632812500025,0.021508214613970632,0.09142384077022313,-0.09234261990951784,0.06558050351580814,0.03062487354514762,0.11732793688119164
89,1791286177.822986,-0.042593778722426534,0.017563476562500024,0.011928136488970632,0.04759187047086966,-0.09344898068354136,0.06572697127914127,0.03089458148386972,0.11835210986452846
90,1791286177.8473198,-0.028223661534926534,-0.0063867187499999775,-0.02160213694852937,0.03611118341418224,-0.09472241751004372,0.0658988454680348,0.03115585632159182,0.11952272418288767
91,1791286177.8673198,-0.018643583409926532,-0.03512695312499998,-0.02160213694852937,0.04525636263501356,-0.09568235611986761,0.065956648331237,0.03127357961945417,0.12034712092091765
92,1791286177.8777974,-0.05696389590992654,-0.04470703124999998,0.01671817555147063,0.07431757177273227,-0.09616922648561904,0.0659196529152571,0.03132216343911871,0.12072695923370687
93,1791286177.8977973,-0.08091409122242654,-0.015966796874999977,0.007138097426470631,0.08278273488879466,-0.09716599835887833,0.06576861659552259,0.031436775852321824,0.12147021462875382
94,1791286177.9229846,-0.07133401309742654,-0.015966796874999977,0.002348058363970631,0.07313681292695179,-0.0985206054694146,0.06554661439518242,0.03157738354363489,0.12247366864837766
95,1791286177.9429846,-0.023433622472426533,-0.04470703124999998,-0.02639217601102937,0.056959637112308246,-0.09957704061351709,0.06530576470557926,0.031636219707197204,0.12321233833706982
96,1791286177.967238,0.014886690027573469,-0.06386718749999998,-0.02639217601102937,0.07069072169481906,-0.10068152825006789,0.06486000748910707,0.031600851333795865,0.12386365289009084
97,1791286177.987238,0.02925680721507347,-0.07823730468749998,-0.01202205882352937,0.08438937439951241,-0.10138948478744042,0.06433440505648257,0.03151843918002401,0.12414570193034898
98,1791286177.9972942,0.01967672909007347,0.003193359375000023,0.026298253676470634,0.03299953572724994,-0.10165515266386996,0.06405316753674321,0.03149398432073654,0.12421130940055176
99,1791286178.0172942,-0.004273466222426532,0.05588378906250002,0.045458409926470635,0.07216458568147718,-0.10208115619056561,0.06366635447829282,0.03156027856347063,0.12437852839120646
100,1791286178.0423734,0.010096650965073468,0.017563476562500024,0.011928136488970632,0.02350954082434447,-0.10252426712682168,0.06339221254732685,0.03173888041926433,0.12464812269667648
101,1791286178.0623734,0.04362692440257347,-0.07823730468749998,-0.002441980698529369,0.0896122070218369,-0.10274404483519374,0.06311537463156834,0.03187417500665671,0.12472310249642807
102,1791286178.087462,0.03404684627757347,-0.03512695312499998,0.007138097426470631,0.04943726339679868,-0.10283223180409347,0.06260688138305359,0.032027271206380624,0.12457863217763154
103,1791286178.107462,-0.013853544347426533,0.036723632812500025,0.04066837086397063,0.056519574367318956,-0.10286169731121286,0.06226472171529785,0.032202718722937534,0.12447666221897055
104,1791286178.1331882,-0.018643583409926532,0.012773437500000023,0.03587833180147063,0.04240281359515797,-0.10295661635923381,0.06198611804962238,0.03254224256235772,0.12450438238869947
105,1791286178.1531882,0.010096650965073468,-0.020756835937499978,0.002348058363970631,0.023201335671194062,-0.1030321593729446,0.061790041307896185,0.032823939876457604,0.12454335027971858
106,1791286178.1623092,-0.013853544347426533,0.007983398437500023,-0.002441980698529369,0.01617462863035753,-0.10306401287492224,0.06170529611447629,0.03293307287775541,0.12455649966031034
107,1791286178.1823092,-0.06654397403492654,0.017563476562500024,0.01671817555147063,0.07082424431712812,-0.10324397889938661,0.06158566482725318,0.033157893708187364,0.12470589082459259
108,1791286178.2072966,-0.06654397403492654,0.017563476562500024,0.021508214613970632,0.07210533603834798,-0.10368451178875913,0.061524450223126075,0.03346828476944025,0.1251233872844705
109,1791286178.2272966,-0.013853544347426533,0.012773437500000023,0.002348058363970631,0.018989333180318178,-0.1041048203759614,0.061528308768326115,0.03371524079574772,0.1255398895463785
110,1791286178.2525823,0.01967672909007347,-0.015966796874999977,-0.01681209788602937,0.030409848823384274,-0.1045454592877886,0.061526399351867364,0.033953200622276934,0.1259685306233137
111,1791286178.2725823,0.01967672909007347,-0.059077148437499984,-0.03597225413602937,0.07191165554218337,-0.10478267755760133,0.06141254981083666,0.03403400826595632,0.12613177438320577
112,1791286178.2830791,0.03404684627757347,-0.06386718749999998,-0.00723201976102937,0.07273587485163557,-0.10484620995937032,0.06126496996013663,0.034036044735448086,0.1261133483351157
113,1791286178.3030791,0.014886690027573469,-0.020756835937499978,0.011928136488970632,0.02819113722808746,-0.10487570243158288,0.06089902387381332,0.034046387029695334,0.1259633301365005
114,1791286178.327973,0.014886690027573469,-0.02554687499999998,0.002348058363970631,0.029660912668414162,-0.10485131719467698,0.06042540758463538,0.034083983143898544,0.12572488419633415
115,1791286178.3479729,-0.013853544347426533,-0.05428710937499998,0.01671817555147063,0.05846801116036969,-0.10483311476544045,0.059982223499764696,0.03413825690616945,0.1255120299891264
116,1791286178.3727772,-0.028223661534926534,-0.020756835937499978,0.026298253676470634,0.043806614283762944,-0.10489220336102824,0.059375418782872086,0.03427549615305194,0.12531011259316074
117,1791286178.3927772,-0.009063505284926533,0.027143554687500022,0.026298253676470634,0.03886538093927804,-0.10498863118913176,0.05896911741151684,0.03444844952704263,0.1252464177614593
118,1791286178.4029572,-0.03301370059742653,-0.0015966796874999775,0.01671817555147063,0.03703985970452353,-0.1050624766499808,0.05881283604849697,0.034556120882257756,0.1252645168207037
119,1791286178.4229572,-0.052173856847426536,-0.0015966796874999775,0.021508214613970632,0.05645585904262596,-0.10531357535642795,0.058547065507760114,0.03479326512049136,0.1254164236919104
120,1791286178.4483845,-0.03780373965992653,0.003193359375000023,0.021508214613970632,0.04361104874058892,-0.10575652027882404,0.058262902055518546,0.035131572642121314,0.12575068482407925
121,1791286178.4683845,-0.009063505284926533,0.036723632812500025,0.021508214613970632,0.04351293636239503,-0.10612296122074526,0.058132794035675804,0.03542227983151196,0.1260803019869323
122,1791286178.4925003,0.000516572840073468,0.05109375000000003,0.03108829273897063,0.05981070206899045,-0.10651399350118931,0.05815827738558188,0.03581536269215194,0.1265320364366277
123,1791286178.5125003,-0.013853544347426533,0.003193359375000023,0.026298253676470634,0.02989508958869358,-0.1068096498483844,0.05825767198395539,0.036178538856938815,0.12692968257877135
124,1791286178.5220494,0.024466768152573468,-0.04949707031249998,0.011928136488970632,0.05648772568843485,-0.1069220376504431,0.058264848126496564,0.036353307052673756,0.127077447236685
125,1791286178.5420494,0.04841696346507347,-0.059077148437499984,-0.00723201976102937,0.07672427209500646,-0.10701279202067952,0.05811476237587007,0.036671484601086476,0.12717649564645495
126,1791286178.5678074,0.05799704159007347,-0.059077148437499984,0.002348058363970631,0.08282076840254339,-0.10690656627457794,0.05772220429107564,0.03701036395612559,0.12700643220327967
127,1791286178.5878074,0.04362692440257347,-0.05428710937499998,0.021508214613970632,0.07289034279657142,-0.1066840227764062,0.05729307452685042,0.03726980456535135,0.12670049501416908
128,1791286178.6130192,0.005306611902573468,-0.015966796874999977,0.045458409926470635,0.048472319579065816,-0.10635303902182278,0.056700418584634836,0.037674422195845,0.12627457568584793
129,1791286178.6330192,0.005306611902573468,0.003193359375000023,0.045458409926470635,0.04587836861774271,-0.10611394132457924,0.056281638546960076,0.038083625500594485,0.1260085469808951
130,1791286178.6430764,0.005306611902573468,0.003193359375000023,0.026298253676470634,0.027017694579931056,-0.10600373789101915,0.056107456054891106,0.038312657427670795,0.12590750093219022
131,1791286178.6630764,-0.018643583409926532,-0.02554687499999998,0.026298253676470634,0.04113179027298122,-0.10583746339549646,0.055779500294850966,0.03877869115998413,0.1257644949865333
132,1791286178.6876168,-0.047383817784926535,-0.05428710937499998,0.050248448988970636,0.08784772653840003,-0.10578556977957615,0.05529051560507662,0.039405636551873825,0.1256997696160306
133,1791286178.7076168,-0.06654397403492654,-0.04470703124999998,0.04066837086397063,0.08989291135723054,-0.1059205128375542,0.05480328826611717,0.03997631797601471,0.1257802108579448
134,1791286178.7330217,0.000516572840073468,-0.09739746093749999,0.03108829273897063,0.10223998332352598,-0.10619201889566963,0.05400646216135585,0.04072921171261697,0.12590596300038928
135,1791286178.7530217,-0.018643583409926532,-0.09739746093749999,0.11251895680147064,0.14998121295390945,-0.10640089060122108,0.05318106525005224,0.04144842936927993,0.12596566007862428
136,1791286178.777081,0.005306611902573468,-0.04470703124999998,0.12209903492647063,0.13013474979054787,-0.10663853217545126,0.05208065949216317,0.0426072003280479,0.12609339854832927
137,1791286178.797081,-0.023433622472426533,-0.09260742187499998,0.08377872242647064,0.12705960640552155,-0.10683363709509106,0.05109715568573945,0.043734789080678765,0.12624213682471383
138,1791286178.8079193,0.000516572840073468,-0.1452978515625,0.045458409926470635,0.15224388181211232,-0.10694213626192686,0.0504507412319249,0.044359239839269905,0.12629188397610136
139,1791286178.8279192,-0.028223661534926534,-0.03512695312499998,0.17957950367647063,0.1851466339066729,-0.10715387937018919,0.04916619384849674,0.04567625644813688,0.12643412863916523
140,1791286178.8524916,-0.09049416934742653,0.09420410156250003,0.2610101677389706,0.29187311472659505,-0.10759379678469784,0.047933581485683587,0.0478636272334165,0.1271415752322228
141,1791286178.8724916,-0.15755471622242653,0.11336425781250002,0.29454044117647066,0.3527449716746339,-0.10827021924395724,0.04739217153571418,0.05021024814730092,0.12841155445293334
142,1791286178.9124534,-0.11444436465992654,0.07025390625000003,0.26580020680147065,0.29779669890967997,-0.11023425904505632,0.0470229810115724,0.0558751164400463,0.13223003156475466
143,1791286178.9324534,0.02925680721507347,0.003193359375000023,0.13167911305147065,0.13492793308481332,-0.1111975539835686,0.04697609605200183,0.058881202106342685,0.13430802497879094
144,1791286178.9279733,0.11547751034007347,-0.06865722656249998,0.03587833180147063,0.1390543952791592,-0.1111975539835686,0.04697609605200183,0.058881202106342685,0.13430802497879094
145,1791286178.9479733,0.08673727596507347,-0.011176757812499978,0.007138097426470631,0.08774524142032078,-0.11140567660756126,0.046739004455288745,0.06133125912099682,0.13548904997536473
146,1791286178.9725716,-0.047383817784926535,-0.03991699218749998,-0.08387264476102937,0.10427469967533774,-0.11155065222279345,0.046396879794752814,0.06375105960813432,0.13660313344568364
147,1791286178.9925716,-0.16234475528492653,-0.2794189453125,-0.13177303538602939,0.3489912598087813,-0.11196543776688533,0.045681433197568004,0.06509992113493761,0.1373355464731882
148,1791286179.0172818,-0.22940530215992655,-0.332109375,-0.18446346507352937,0.4437907159561937,-0.11312705477038916,0.04379675988632998,0.06593040384029275,0.1380677545558975
149,1791286179.0372818,-0.13360452090992653,-0.27462890624999997,-0.20841366038602938,0.36973971654549836,-0.11447073238821029,0.041590045301115125,0.06591244001367104,0.1384836820358191
150,1791286179.0626376,-0.06654397403492654,-0.3081591796875,-0.18446346507352937,0.36526285118112833,-0.11629933019551417,0.038103758406237136,0.0651459527728245,0.1386413566411019
151,1791286179.0826375,-0.03301370059742653,-0.3273193359375,-0.16530330882352937,0.3681752789279987,-0.11767466273160725,0.03481313615310319,0.06410740639034213,0.13845230316577797
152,1791286179.0925004,-0.018643583409926532,-0.284208984375,-0.07429256663602937,0.2943496483082675,-0.11828937767367642,0.03298143585381756,0.0634948418643985,0.13824524196076374
153,1791286179.1125004,-0.009063505284926533,-0.3177392578125,0.03587833180147063,0.31988691404329855,-0.11939047899870812,0.028921341908921004,0.06238138635587715,0.13777506253685712
154,1791286179.1377935,0.02925680721507347,-0.332109375,0.05503848805147064,0.33790802431771644,-0.12053581062329455,0.02332415825937269,0.06135693583793095,0.1372500330657263
155,1791286179.1577935,0.024466768152573468,-0.25546874999999997,0.07898868336397064,0.26851837380329835,-0.12122502460902347,0.01868081782055978,0.060869423633183616,0.13692905564320257
156,1791286179.1679275,0.01967672909007347,-0.226728515625,0.13646915211397065,0.26536168326249754,-0.12148831416929032,0.016314462643383636,0.06082321317519829,0.13683945129966782
157,1791286179.1879275,0.07236715877757346,-0.2889990234375,0.16041934742647063,0.33836638167244376,-0.12179192266853907,0.011571257678150256,0.0611910264101283,0.13679001478426184
158,1791286179.2124646,0.12026754940257348,-0.2889990234375,0.13646915211397065,0.3414799385993783,-0.12175403177353808,0.005561235561639544,0.06212095045433749,0.1367990646146165
159,1791286179.2324646,0.1681679400275735,-0.19319824218749998,0.07898868336397064,0.268039603299645,-0.12129512707401191,0.0006740279586519371,0.06308841443749345,0.13672274939389814
160,1791286179.2722824,0.1825380572150735,-0.2315185546875,0.002348058363970631,0.2948329982795735,-0.11947121581772507,-0.008864737806872521,0.06496851244640935,0.13628229009981188
161,1791286179.2922823,0.15379782284007348,-0.3560595703125,-0.05992244944852937,0.39245749816939457,-0.11818800411331827,-0.013818625046581528,0.06568484791677646,0.1359185710648762
162,1791286179.2871268,0.11068747127757347,-0.3560595703125,-0.07908260569852937,0.38116163557343347,-0.11818800411331827,-0.013818625046581528,0.06568484791677646,0.1359185710648762
163,1791286179.3071268,0.09152731502757347,-0.27462890624999997,-0.10303280101102938,0.3072686831234292,-0.11662034333829406,-0.019251791428314395,0.06575199616827913,0.13525627879567848
164,1791286179.3327055,0.05320700252757347,-0.2602587890625,-0.1461431525735294,0.30318879175585955,-0.11463848435125415,-0.026184303700582362,0.06534697238730558,0.1345281630545231
165,1791286179.3527055,0.06757711971507348,-0.27462890624999997,-0.18446346507352937,0.337660292607807,-0.11314013735182293,-0.031594078350325024,0.06458187850764362,0.1340510928652649
166,1791286179.3771856,0.014886690027573469,-0.2506787109375,-0.17488338694852937,0.306015732745643,-0.11142984479515565,-0.038186906177522795,0.06312610704463124,0.1336403962321784
167,1791286179.3971856,-0.023433622472426533,-0.2889990234375,-0.16530330882352937,0.33375852665964356,-0.11025496821735613,-0.04357475076468345,0.06160488036017256,0.13360418483343128
168,1791286179.4083273,-0.03301370059742653,-0.3464794921875,-0.15572323069852936,0.3812973478964046,-0.10974580290109766,-0.04665706212493707,0.06061627955059783,0.1337735252099347
169,1791286179.4283273,-0.052173856847426536,-0.341689453125,-0.1461431525735294,0.3752753852297366,-0.10909670605622081,-0.052392266607417276,0.058655085680448374,0.13448962766236242
170,1791286179.4523563,-0.018643583409926532,-0.25546874999999997,-0.09345272288602938,0.2726633030749433,-0.10856145168338373,-0.05932543774872735,0.056220453483284014,0.13588905675420623
171,1791286179.4723563,0.005306611902573468,-0.21714843749999999,-0.04555233226102937,0.22193832254253693,-0.10820277680136128,-0.06493942407536396,0.05428949907835078,0.13737656065334952
172,1791286179.512952,0.024466768152573468,-0.25546874999999997,-0.06950252757352937,0.26588250470744307,-0.10749329668844217,-0.07606432683066279,0.05060767567642531,0.14107348257741986
173,1791286179.532952,0.08194723690257347,-0.284208984375,-0.07908260569852937,0.3061766727879584,-0.10703657220745685,-0.08153253412059588,0.04884298882511584,0.1431433528579607
174,1791286179.5430958,0.08194723690257347,-0.2698388671875,-0.00723201976102937,0.2821004537231794,-0.10671498575379906,-0.0843114428940739,0.048016547945966555,0.14422931901649375
175,1791286179.5630958,0.14421774471507348,-0.226728515625,0.021508214613970632,0.2695685088879979,-0.10583678991257574,-0.08971348336198012,0.04665292492524463,0.14637769843804585
176,1791286179.5726647,0.1777480181525735,-0.21714843749999999,0.021508214613970632,0.28144343154840123,-0.10524858023601223,-0.0922289416844469,0.04612923844197799,0.1473477110957828
177,1791286179.5926647,0.09152731502757347,-0.19798828124999998,0.03108829273897063,0.22032496647885755,-0.10379966516999273,-0.09732056298228527,0.04527776139025636,0.14931757480318433
178,1791286179.6178102,0.06278708065257348,-0.11176757812499999,0.045458409926470635,0.13601719027330253,-0.10196020601353051,-0.10334608091752291,0.044512160282430296,0.15184738543795062
179,1791286179.6378102,0.11068747127757347,-0.09739746093749999,0.045458409926470635,0.15428690394177508,-0.10045640263173758,-0.1077334629086521,0.044130940165105915,0.15377102373287319
180,1791286179.662375,0.13942770565257348,-0.17882812499999998,-0.01681209788602937,0.22738124379527375,-0.09842562690005333,-0.11282280679507564,0.043785722078084836,0.1559928819583982
181,1791286179.682375,0.09631735409007347,-0.2410986328125,-0.03597225413602937,0.2621060596602001,-0.09666661515786777,-0.1169747671058732,0.043467638103813024,0.15785108864964043
182,1791286179.6923451,0.05320700252757347,-0.2219384765625,-0.02160213694852937,0.2292473005677397,-0.09580945418401818,-0.11908033389765915,0.04328980323653982,0.15885082466413514
183,1791286179.7123451,0.08673727596507347,-0.2602587890625,-0.02639217601102937,0.2755985110277582,-0.0941380086098664,-0.12339379218228938,0.0429145888857194,0.1610268752518896
184,1791286179.7379322,0.11547751034007347,-0.3273193359375,-0.06950252757352937,0.35398249167440043,-0.09193233527438542,-0.12921205182032888,0.042322536360010835,0.16412953935402916
185,1791286179.7579322,0.08673727596507347,-0.360849609375,-0.04555233226102937,0.3739128382422174,-0.09016357035021454,-0.13410993925942774,0.04175659623590993,0.16690883306666035
186,1791286179.7833016,0.07715719784007347,-0.3368994140625,0.01671817555147063,0.34602593221889866,-0.08794464373722599,-0.14071845613612785,0.04109153625035951,0.17095162652287796
187,1791286179.8033016,0.08194723690257347,-0.3081591796875,0.01671817555147063,0.31930694802244625,-0.0862190894001827,-0.1461143959352036,0.0406960354747757,0.17446866589697516
188,1791286179.812345,0.10110739315257347,-0.3704296875,-0.002441980698529369,0.38398804877390225,-0.08543171893132157,-0.1486485694361708,0.04055370881496292,0.17618052983695226
189,1791286179.832345,0.09152731502757347,-0.360849609375,0.03108829273897063,0.3735721776680789,-0.0836626597053659,-0.15450925382075636,0.04032913106276398,0.18027475962402603
190,1791286179.8575082,0.09631735409007347,-0.3081591796875,0.09335880055147064,0.3360877539646376,-0.08141625665547254,-0.1620394589328941,0.04032382083861446,0.18577245120329205
191,1791286179.8775082,0.09631735409007347,-0.341689453125,0.11730899586397063,0.37388516363502206,-0.07960965785329738,-0.16810156081294364,0.04063623469853695,0.1903868061125598
192,1791286179.90223,0.10110739315257347,-0.3464794921875,0.09814883961397064,0.37403734863538146,-0.07734544742662122,-0.17574685182960054,0.041363970618541995,0.1964185638654641
193,1791286179.92223,0.05320700252757347,-0.2794189453125,0.10772891773897064,0.304156952632566,-0.07555699210659919,-0.18194298176733634,0.042173214452106624,0.2014713073561825
194,1791286179.9332786,-0.023433622472426533,-0.2219384765625,0.16999942555147063,0.28054523116405594,-0.07469252631825124,-0.1852679072855746,0.04278334353849991,0.204287996324092
195,1791286179.9532785,-0.004273466222426532,-0.21714843749999999,0.11251895680147064,0.24460625924521398,-0.07340396691957447,-0.1910424710118363,0.044145902677629745,0.20936625519185526
196,1791286179.9773881,-0.013853544347426533,-0.2602587890625,0.045458409926470635,0.2645619492827871,-0.07211641048168306,-0.1978226874238011,0.04582771910329205,0.21548729001625075
197,1791286179.9973881,-0.018643583409926532,-0.23630859375,0.05982852711397063,0.24447655785185732,-0.07125728387772291,-0.20334835371326976,0.0471715192867478,0.22057494348938977
198,1791286180.0230641,-0.06654397403492654,-0.17882812499999998,0.10772891773897064,0.2191189596739326,-0.07048382357631343,-0.21017756427020617,0.04896058196982895,0.22702360338810118
199,1791286180.043064,-0.09528420840992653,-0.226728515625,0.13167911305147065,0.27897005033487765,-0.07021446067928211,-0.21530749135675842,0.05050422484453403,0.23203030631788232
200,1791286180.052368,-0.06654397403492654,-0.3081591796875,0.08856876148897064,0.3274669540850253,-0.07022087267449445,-0.21770916418578906,0.051268285908741384,0.23442842888536974
201,1791286180.072368,-0.10965432559742654,-0.303369140625,0.08377872242647064,0.33328033385903383,-0.07049688591462884,-0.22301480927262843,0.05292290463727593,0.2398046077826972
202,1791286180.0974593,-0.06654397403492654,-0.2985791015625,0.11251895680147064,0.3259418598614205,-0.07112280232911118,-0.22980545428142793,0.05505677067815734,0.24677975570566255
203,1791286180.1174593,-0.07133401309742654,-0.303369140625,0.13167911305147065,0.3383205073922608,-0.07175369129635638,-0.23530918763571604,0.05686880876730528,0.25249369776500513
204,1791286180.1430326,-0.10007424747242653,-0.245888671875,0.17478946461397063,0.3178481569927099,-0.07276814202128092,-0.2423444722235997,0.05942605320538067,0.25991825928574763
205,1791286180.1630325,-0.09049416934742653,-0.16924804687499997,0.23226993336397064,0.3013028675631652,-0.07372835697654034,-0.24764392709941585,0.061736586303331474,0.26565916385487187
206,1791286180.1875744,-0.05696389590992654,-0.07823730468749998,0.20831973805147064,0.22970214309804554,-0.07500130689707567,-0.2536269478157764,0.0649575078214986,0.2723440884561219
207,1791286180.2075744,-0.06175393497242654,-0.059077148437499984,0.18436954273897063,0.20321364679042156,-0.07606114763265065,-0.2579773189691273,0.06777765263953359,0.27736511222397814
208,1791286180.2176228,-0.12402444278492654,-0.03512695312499998,0.23705997242647064,0.26983957413766513,-0.07665376800503833,-0.2599061702035626,0.06929961669893425,0.2796952883655223
209,1791286180.2376227,-0.05696389590992654,0.11815429687500002,0.17957950367647063,0.22238282633321782,-0.07792785239137388,-0.26304488257995134,0.07249945206751654,0.28376316001187024
210,1791286180.262434,0.010096650965073468,0.08462402343750003,0.13167911305147065,0.15685202108191995,-0.07935856143671838,-0.26597725261788074,0.07645281818132743,0.2879005272508692
211,1791286180.282434,-0.023433622472426533,0.027143554687500022,0.10293887867647064,0.1090060547236834,-0.08035884852434533,-0.2678187789906857,0.07951348024495426,0.2907005959004645
212,1791286180.308042,-0.004273466222426532,0.041513671875000026,0.05982852711397063,0.07294587118354615,-0.08150071904383983,-0.26969112923286953,0.08315714437917557,0.2937529285860182
213,1791286180.328042,-0.047383817784926535,0.10378417968750003,0.045458409926470635,0.12281225172728273,-0.08233623882116092,-0.27071614758734314,0.08573393121956072,0.2956633148534119
214,1791286180.3374484,-0.023433622472426533,0.12773437500000004,0.07898868336397064,0.15200137275167766,-0.08272021390898689,-0.2709625880246926,0.08685184583303017,0.2963217862776753
215,1791286180.3574483,0.04362692440257347,0.11336425781250002,0.08377872242647064,0.14755892996907524,-0.08338387917431164,-0.27104633030576025,0.08911639509367923,0.2972553050037429
216,1791286180.3835273,0.024466768152573468,0.06067382812500002,0.14125919117647065,0.15567303958940518,-0.08398627069560474,-0.2707987419112933,0.09206647807479508,0.29809711281928136
217,1791286180.4035273,0.04362692440257347,0.13252441406250004,0.13167911305147065,0.19184738118999384,-0.08427680903316764,-0.27034755027450436,0.09439894504772689,0.2984988095560222
218,1791286180.4276142,0.1825380572150735,0.21395507812500003,0.03108829273897063,0.2829547662308452,-0.08416566021374197,-0.2692597443770894,0.09708072600074673,0.2983443239984006
219,1791286180.4476142,0.15379782284007348,0.23311523437500004,0.05503848805147064,0.28465016770599255,-0.08358271074712015,-0.267821392659056,0.09910265168113853,0.29754949751580173
220,1791286180.4576256,0.06757711971507348,0.18521484375000002,0.20831973805147064,0.28682454343405767,-0.08316845263591512,-0.2668952872865211,0.1001606980315117,0.29695496513742076
221,1791286180.4776256,0.12026754940257348,0.19958496093750003,0.29933048023897063,0.37933781313206394,-0.082183252128738,-0.264745508672724,0.10271879535488582,0.2956271675810496
222,1791286180.502826,0.3453993853400735,0.2666455078125,0.22268985523897064,0.48988910363085264,-0.08024796269046175,-0.2615618716347583,0.10644519289978598,0.2935726950867879
223,1791286180.522826,0.3980898150275735,0.2953857421875,0.026298253676470634,0.49640692547826115,-0.07782719781146838,-0.2585711672345316,0.10933247531610829,0.2913240659522673
224,1791286180.5475821,0.24001852596507348,0.18521484375000002,-0.03597225413602937,0.30529892600435177,-0.07409543115640803,-0.25453219179092845,0.11235233650777764,0.28792328334975775
225,1791286180.5675821,0.3022890337775735,0.09420410156250003,0.011928136488970632,0.31685225757989527,-0.07071938060863102,-0.25133951468081656,0.11438999757267232,0.28505763273122997
226,1791286180.577446,0.3885097369025735,0.007983398437500023,-0.02639217601102937,0.3894869667566758,-0.0687930470368732,-0.24992550200150365,0.11523351363055644,0.28367940097047
227,1791286180.597446,0.4028798540900735,-0.06865722656249998,-0.20362362132352937,0.45660548699265696,-0.06428599966905627,-0.24757951450659405,0.11634225875017795,0.28100503007573385
228,1791286180.6228147,0.3597695025275735,-0.130927734375,-0.3185845588235294,0.49806855722710613,-0.0579755785614312,-0.24542988097416943,0.1165440945635181,0.2778120230698411
229,1791286180.6428146,0.3118691119025735,-0.2219384765625,-0.3329546760110294,0.5073242026706323,-0.05273940287496936,-0.24451867440323735,0.11570204019751072,0.2756044064477038
230,1791286180.6673846,0.29749899471507346,-0.20277832031249998,-0.3425347541360294,0.4969454264164912,-0.0461487421774775,-0.24434981577246825,0.11357798800691511,0.27337976924472923
231,1791286180.6873846,0.3214491900275735,-0.2985791015625,-0.3281646369485294,0.547878718881116,-0.040660240257321685,-0.2449850178401725,0.1111023073982047,0.272056311842122
232,1791286180.6981916,0.4891005572150735,-0.46623046875,-0.3521148322610294,0.761954762539846,-0.03748240082478261,-0.24589666526809725,0.10941384304662584,0.2717379057323288
233,1791286180.7181916,0.4507802447150735,-0.514130859375,-0.4718658088235294,0.8307771729674216,-0.03107368838692632,-0.24880127062397284,0.10552183852785275,0.27203401401363286
234,1791286180.742764,0.3501894244025735,-0.46623046875,-0.5053960822610294,0.7716402548591199,-0.022904768701072907,-0.25364136318747876,0.09965629057114181,0.2734775051064566
235,1791286180.762764,0.4028798540900735,-0.50455078125,-0.4574956916360294,0.7913191363521755,-0.016123635770058868,-0.2584460705446891,0.09415397330006428,0.2755345961918851
236,1791286180.787316,0.4076698931525735,-0.6722021484374999,-0.5772466681985294,0.975327732658784,-0.0075552044571438725,-0.2656264993607763,0.08650711198233518,0.27946019162051333
237,1791286180.807316,0.3597695025275735,-0.9596044921875,-0.7017876838235294,1.2420872874084823,-0.00047122797663810227,-0.27304596660747693,0.07929384280501203,0.2843269868359374
238,1791286180.81784,0.1777480181525735,-0.9931347656249999,-0.6155669806985294,1.1818772052867823,0.0031214995623016534,-0.2779057879154497,0.07502775880137048,0.2878724288763705
239,1791286180.83784,0.13942770565257348,-1.07935546875,-0.5389263556985294,1.2144504641567604,0.009400769886732234,-0.2888648255673397,0.06640480787222658,0.29654824301125143
240,1791286180.8631825,0.1825380572150735,-1.203896484375,-0.5245562385110294,1.3258378991351762,0.016775849639327607,-0.3050080626202844,0.05509606361515381,0.31039800840273724
241,1791286180.8831825,0.000516572840073468,-1.30927734375,-0.39043514476102936,1.3662529165455133,0.021997710088116563,-0.31960686793478743,0.046137556788353185,0.3236682304870282
242,1791286180.9082105,-0.12402444278492654,-1.2949072265625,-0.22278377757352938,1.319772480150207,0.027320317449244867,-0.3400237929466399,0.03545740445668678,0.34295744203348616
243,1791286180.9282105,-0.13360452090992653,-1.3907080078125,-0.22278377757352938,1.4147620091560684,0.03054919616249162,-0.35792018095675737,0.027534679198649874,0.36027526681811634
244,1791286180.9526465,-0.16713479434742654,-1.5727294921875,-0.13177303538602939,1.5870652878608225,0.03335132148448252,-0.3819372234886544,0.018656888305034827,0.38384428198451803
245,1791286180.9726465,-0.39226663028492653,-1.6110498046875,0.11730899586397063,1.6622623087014083,0.034461642756811184,-0.4034214074259973,0.012458963762105563,0.4050822911077403
246,1791286180.9827268,-0.3731064740349265,-1.529619140625,0.06940860523897063,1.5759951493625728,0.034358679329067554,-0.41499997401515315,0.009944844680793997,0.41653859030531687
247,1791286181.0027268,-0.32041604434742654,-1.4673486328125,-0.06950252757352937,1.5035321922164069,0.03314475388547935,-0.4390220933692678,0.005704768029529953,0.4403084345714193
248,1791286181.0426645,-0.47848733340992655,-1.4865087890625,-0.02639217601102937,1.5618434797214473,0.0286913117215582,-0.48864394395135946,-0.0017793850055382787,0.489488775703428
249,1791286181.0626645,-0.44974709903492655,-1.53919921875,-0.03597225413602937,1.603964055444688,0.025403299432522206,-0.5143046474893087,-0.005058652572552715,0.5149564913825344
250,1791286181.0732243,-0.3539463177849265,-1.6493701171875,-0.10782284007352938,1.6903625481494013,0.023291153469964045,-0.528346259581941,-0.006644244536704206,0.5289011191419931
251,1791286181.0932243,-0.5072275677849265,-1.740380859375,-0.03118221507352937,1.8130575478281896,0.01859909686549333,-0.5560361615301035,-0.009405361308016131,0.5564266350155047
252,1791286181.1183488,-0.41621682559742657,-1.7547509765625,-0.06471248851102937,1.8045983325457042,0.011848860803606295,-0.5921893044815818,-0.012534364644645208,0.5924404426959454
253,1791286181.1383488,-0.31562600528492657,-1.855341796875,-0.2850542853860294,1.9034623463731595,0.006183696228747872,-0.6220666814759743,-0.015176186802886888,0.6222825009169524
254,1791286181.1481392,-0.28209573184742653,-1.9367724609375,-0.3473247931985294,1.9877877349814885,0.003387563341312427,-0.6372829364485435,-0.016739775505615385,0.6375117542115188
255,1791286181.1681392,-0.32520608340992657,-1.9176123046875,-0.3664849494485294,1.9792188272012825,-0.0023785644062097157,-0.6694858540294354,-0.020525488164066172,0.6698046446379199
256,1791286181.1926513,-0.3635263959099265,-1.8984521484375,-0.3329546760110294,1.9614104151624743,-0.009651672755355865,-0.7100491372709254,-0.02575515696029278,0.7105816351667212
257,1791286181.2126513,-0.27251565372242653,-1.9271923828125,-0.3569048713235294,1.9788169064036085,-0.015649895291202746,-0.7439196840850154,-0.030416907362161304,0.7447057162700264
258,1791286181.2232919,-0.38747659122242656,-1.9942529296875,-0.3664849494485294,2.0643386530520664,-0.01888915702391247,-0.7623663502122778,-0.033102374755263446,0.7633184259557091
259,1791286181.2432919,-0.4641172162224266,-2.027783203125,-0.3569048713235294,2.110613796137134,-0.025341751608811587,-0.7978707067363237,-0.03847789425884365,0.7991998607289156
260,1791286181.2683868,-0.32520608340992657,-2.03736328125,-0.3185845588235294,2.087607304450091,-0.03370929270356795,-0.8433885588594553,-0.045482444484381455,0.8452864782935301
261,1791286181.2883868,-0.29167580997242654,-2.0325732421875,-0.3042144416360294,2.0758071176001875,-0.04030300049604008,-0.880328412235769,-0.0511617031375728,0.8827343683727688
262,1791286181.3135946,-0.33957620059742655,-2.0325732421875,-0.3233745978860294,2.085961915142925,-0.04856047590046235,-0.9275887046339162,-0.05843257592731774,0.9306950578538643
263,1791286181.3335946,-0.45932717715992655,-2.0708935546875,-0.3233745978860294,2.1457289439912692,-0.05532762925023435,-0.9656159998481842,-0.06430613843500772,0.9693351768927414
264,1791286181.342339,-0.30125588809742654,-2.257705078125,-0.2658941291360294,2.2931827266517137,-0.05834139637012805,-0.98258733989972,-0.06687545676005315,0.9865870087217296
265,1791286181.362339,-0.17192483340992654,-2.19064453125,-0.16051326976102936,2.2032353756255683,-0.06491017755409265,-1.0222535367362184,-0.07251003307066488,1.026875517974657
266,1791286181.3880222,-0.30125588809742654,-2.03736328125,-0.07908260569852937,2.0610333108475483,-0.0729916940232999,-1.0736947467163414,-0.07912189186877823,1.0790776016096129
267,1791286181.4080222,-0.3731064740349265,-1.9415625,-0.08387264476102937,1.9788653321821157,-0.07935248585179475,-1.1137126617306434,-0.08374279034565317,1.1196720791575048
268,1791286181.4336817,-0.23898538028492655,-1.9798828125,-0.19883358226102937,2.004141900329813,-0.0874670859894264,-1.164900186638348,-0.08932608863100158,1.1715895552930016
269,1791286181.4536817,-0.20545510684742654,-2.1187939453125,-0.3952251838235294,2.165110281152195,-0.0935098345504293,-1.2049609775149115,-0.09391622517556349,1.2122274142431224
270,1791286181.4627266,-0.21982522403492655,-2.1762744140625,-0.2946343635110294,2.2071028210272927,-0.09612121137283478,-1.2232742964167016,-0.09614868796565994,1.2308061836646238
271,1791286181.4827266,-0.30604592715992657,-1.951142578125,-0.09824276194852938,1.9774410509491114,-0.10181813508744879,-1.263885544344663,-0.10093394682930738,1.2719910626488822
272,1791286181.5232773,-0.32999612247242655,-1.797861328125,-0.15572323069852936,1.8345169720101837,-0.11357064865850061,-1.34527710123135,-0.10995328190895048,1.3545325745572476
273,1791286181.5432773,-0.26293557559742653,-1.9032421875,-0.2658941291360294,1.9396302815494357,-0.11938702558111404,-1.3849503532601932,-0.11436686320637805,1.3947833244888992
274,1791286181.553334,-0.33957620059742655,-2.0565234375,-0.19404354319852937,2.093383276339056,-0.122327460137757,-1.4048938348788502,-0.11660018939290577,1.4150216602408665
275,1791286181.573334,-0.32041604434742654,-2.142744140625,-0.21799373851102938,2.1775077872852804,-0.12828798166966943,-1.4449053511868348,-0.12099347718640982,1.4556265666890278
276,1791286181.59766,-0.33957620059742655,-2.0804736328125,-0.3473247931985294,2.136426232007702,-0.13565445144227697,-1.4939767200673777,-0.12656691917889396,1.505452674556667
277,1791286181.61766,-0.4545371380974266,-1.970302734375,-0.3425347541360294,2.0508600470988827,-0.14199358643093493,-1.5343457968819714,-0.1314966383843897,1.546502689588119
278,1791286181.627718,-0.4545371380974266,-1.9415625,-0.20362362132352937,2.004427980865603,-0.1453890826114623,-1.5545529479848954,-0.13401589889417645,1.5670778904022433
279,1791286181.647718,-0.3635263959099265,-1.92240234375,-0.1413531135110294,1.9615715420238986,-0.15235527036830285,-1.5945031711388735,-0.13879143689352377,1.6077672574523625
280,1791286181.6727626,-0.37789651309742656,-1.8697119140625,-0.12219295726102937,1.9114286633308204,-0.16116273236175277,-1.6441491061698958,-0.14436955108032537,1.6583251420938863
281,1791286181.6927626,-0.41621682559742657,-1.8218115234375,-0.09824276194852938,1.8713324966759217,-0.1683322851955866,-1.6833853633418758,-0.14848655146811188,1.6982845155390542
282,1791286181.7183077,-0.3539463177849265,-1.8122314453125,-0.10303280101102938,1.8493449016711618,-0.17759158716745826,-1.7329453423662977,-0.15334187033709604,1.7487572903808521
283,1791286181.7383077,-0.31083596622242654,-1.8122314453125,-0.23715389476102938,1.85392658405806,-0.18475071863627993,-1.771363627690552,-0.1570833087723244,1.7878862087494596
284,1791286181.7483673,-0.41621682559742657,-1.797861328125,-0.28984432444852937,1.8680341360619757,-0.18836002427415913,-1.7905124255170233,-0.1590805020715553,1.807407217761054
285,1791286181.7683673,-0.45932717715992655,-1.836181640625,-0.22757381663602938,1.906393011701499,-0.1957728029375646,-1.8283235598148775,-0.16323173990115877,1.8460061296364474
286,1791286181.7930505,-0.38747659122242656,-1.9176123046875,-0.17009334788602937,1.9637481525973066,-0.20511673307490919,-1.8749380822432427,-0.16832272699067663,1.8936204019958356
287,1791286181.8130505,-0.32999612247242655,-2.0325732421875,-0.11740291819852937,2.0625311805897564,-0.21262834747843834,-1.9129679821588739,-0.17226026546165357,1.932441697431859
288,1791286181.83819,-0.27251565372242653,-1.9846728515625,-0.06950252757352937,2.004500364328252,-0.22179001887608843,-1.9611747608838959,-0.17681966472769817,1.9815807954851292
289,1791286181.85819,-0.3539463177849265,-1.8697119140625,-0.08866268382352938,1.904983388106982,-0.22892505412577166,-1.9995549190924575,-0.180140088079912,2.0206625166530827
290,1791286181.867772,-0.42579690372242657,-1.92240234375,-0.11740291819852937,1.9724901063570963,-0.23239107088615393,-2.017909962420984,-0.1816403777029406,2.03935270443284
291,1791286181.887772,-0.31083596622242654,-2.0229931640625,-0.12698299632352938,2.0506694080461476,-0.23964525376451057,-2.0563926554122025,-0.1846686954891171,2.0785290779728722
292,1791286181.9128604,-0.28209573184742653,-1.989462890625,-0.20841366038602938,2.020142779344079,-0.248495730821087,-2.1049749191982627,-0.18852874220733412,2.1279597330138365
293,1791286181.9328604,-0.33957620059742655,-1.9559326171875,-0.23715389476102938,1.9993064719523248,-0.2554253721541309,-2.143812629093045,-0.19181268283266198,2.1674793689201226
294,1791286181.958286,-0.43058694278492654,-1.9367724609375,-0.20841366038602938,1.9949759233079163,-0.2643821316162095,-2.193203450439691,-0.1962109472783741,2.2177777215876198
295,1791286181.978286,-0.4736972943474266,-1.9559326171875,-0.19404354319852937,2.021809690922233,-0.27172717961278764,-2.2320659421286333,-0.1997553777008621,2.257400328048022
296,1791286181.9878957,-0.44974709903492655,-2.0325732421875,-0.22278377757352938,2.093623425904685,-0.275392541534955,-2.2508124993288128,-0.2015033866614816,2.27653279657991
297,1791286182.0078957,-0.4736972943474266,-1.9942529296875,-0.27068416819852936,2.067535681228399,-0.28326189446027283,-2.2900162231924055,-0.20533589318162526,2.316586806568303
298,1791286182.0334406,-0.5072275677849265,-1.8888720703125,-0.2754742072610294,1.9750958311924347,-0.2936846451792872,-2.340017627427654,-0.21054305284710076,2.367754536388518
299,1791286182.0534406,-0.5311777630974266,-1.874501953125,-0.23715389476102938,1.9626893177675755,-0.30217853718518023,-2.3789383532240795,-0.21477733149223524,2.4076521465732537
300,1791286182.077704,-0.4736972943474266,-1.8888720703125,-0.23715389476102938,1.9617514609345974,-0.3127660187957759,-2.4259216136367314,-0.22000682058958873,2.455874845982413
301,1791286182.097704,-0.43537698184742657,-1.9463525390625,-0.21799373851102938,2.006330628951178,-0.32154768036026443,-2.464592966756244,-0.22435354956442588,2.495585285605677
302,1791286182.1077533,-0.5072275677849265,-1.8984521484375,-0.23715389476102938,1.979303497503174,-0.326008747707818,-2.484007236699142,-0.22655307170180275,2.5155317429627577
303,1791286182.1277533,-0.5982383099724266,-1.864921875,-0.23715389476102938,1.9728316312276895,-0.33521351507805097,-2.5224944662811275,-0.230985357070895,2.5551322212932663
304,1791286182.1530294,-0.5934482709099266,-1.9032421875,-0.12698299632352938,1.9976577173983208,-0.347360730477578,-2.570982304085592,-0.23643698953137843,2.6050934599391704
305,1791286182.1730294,-0.5120176068474266,-1.9750927734375001,-0.07429256663602937,2.0417328127999927,-0.3571887710794376,-2.609411228949826,-0.240405502860426,2.6446938548271053
306,1791286182.1979876,-0.40663674747242656,-1.9463525390625,-0.18446346507352937,1.9969147254344457,-0.36933317931743037,-2.657514019949695,-0.24509934611297565,2.694227431572717
307,1791286182.2179875,-0.37789651309742656,-1.8984521484375,-0.27068416819852936,1.9545322339197895,-0.3787820206055789,-2.696045957700533,-0.24897923141782594,2.7338855650602567
308,1791286182.2281632,-0.49764748965992656,-1.96072265625,-0.24673397288602938,2.037882237047324,-0.3835365367090087,-2.715655019678718,-0.2510520392390479,2.7540714564627846
309,1791286182.2481632,-0.5359678021599266,-1.9655126953125,-0.22757381663602938,2.0499491414191326,-0.39303006353773856,-2.754304135297989,-0.2552264248783187,2.7938869749007833
310,1791286182.2726073,-0.3539463177849265,-1.8888720703125,-0.2754742072610294,1.9413916999787113,-0.4045241412619033,-2.8015220233508584,-0.2604853331766266,2.842537253402971
311,1791286182.2926073,-0.28688577090992656,-1.88408203125,-0.2754742072610294,1.9256049919170342,-0.41347910103283736,-2.840019771030363,-0.26496913425344,2.8821668773583
312,1791286182.3175423,-0.42579690372242657,-1.9463525390625,-0.16051326976102936,1.9988385926092238,-0.42430182552991463,-2.8879807219176925,-0.27053614359318884,2.931493560338574
313,1791286182.3375423,-0.41621682559742657,-1.9415625,-0.06471248851102937,1.986728238457877,-0.4329434728974646,-2.926511011032611,-0.2746694116894774,2.9710856659035394
314,1791286182.3628273,-0.25814553653492656,-1.84576171875,-0.1509331916360294,1.8698278714291583,-0.4435087502871298,-2.9750983784987,-0.27952002363262257,3.02093393124352
315,1791286182.3828273,-0.24377541934742655,-1.893662109375,-0.2946343635110294,1.9318882078738762,-0.4513650324177427,-3.0133744765508945,-0.28344960850749856,3.0601470240792192
316,1791286182.3927135,-0.31562600528492657,-2.0038330078125,-0.3233745978860294,2.054151315986474,-0.4550807594953499,-3.032346691785396,-0.28555892405704797,3.0795728366046675
317,1791286182.4127135,-0.3539463177849265,-1.9846728515625,-0.26110409007352936,2.0328255383716183,-0.46247451699770215,-3.07095322724688,-0.2900627269993044,3.119098072905781
318,1791286182.4383032,-0.31562600528492657,-1.931982421875,-0.25152401194852936,1.973686951426896,-0.47180075947223177,-3.12045723910044,-0.29594474872015425,3.169768545491603
319,1791286182.4583032,-0.28209573184742653,-1.9463525390625,-0.26110409007352936,1.9839459554369674,-0.4788930349160898,-3.159161688576001,-0.300621287972403,3.2093635307081843
320,1791286182.4833722,-0.30604592715992657,-1.9655126953125,-0.27068416819852936,2.007529373104941,-0.4875551915482546,-3.207753694261751,-0.3066036842225899,3.2590488868739653
321,1791286182.5033722,-0.40663674747242656,-1.912822265625,-0.17488338694852937,1.9633712494829654,-0.49449826344898234,-3.2465227793185027,-0.31132886391034775,3.298691308790761
322,1791286182.5124283,-0.39705666934742656,-1.836181640625,-0.16051326976102936,1.88546586439823,-0.4977164165265216,-3.2639907385802496,-0.31337531484565534,3.31655864726862
323,1791286182.5324283,-0.34915627872242655,-1.9176123046875,-0.16530330882352937,1.9561370713649402,-0.5048768124586426,-3.302412063503801,-0.3177056119013371,3.355855016052904
324,1791286182.5583858,-0.33957620059742655,-1.951142578125,-0.20841366038602938,1.9914079466598396,-0.514116987069065,-3.3523301720844163,-0.32321034786619535,3.4068898996046664
325,1791286182.5783858,-0.3539463177849265,-1.8697119140625,-0.23236385569852938,1.9170533636015072,-0.521208788989183,-3.3907535133856195,-0.32747664181384173,3.446173086365536
326,1791286182.603118,-0.3635263959099265,-1.88408203125,-0.22757381663602938,1.9322800995250857,-0.5299939402489907,-3.438103838686709,-0.3328141530721199,3.494598237677408
327,1791286182.623118,-0.3443662396599266,-1.9367724609375,-0.19883358226102937,1.9771723409703494,-0.5370943819145432,-3.4763820617652383,-0.3371225809106317,3.533745074139777
328,1791286182.6321738,-0.28209573184742653,-1.9798828125,-0.24673397288602938,2.0150413411480095,-0.5402526441748969,-3.4937745080396767,-0.3390834078288591,3.5515223200805996
329,1791286182.6521738,-0.34915627872242655,-2.0038330078125,-0.27068416819852936,2.0519568097510033,-0.5471283286430351,-3.5323998229568674,-0.34354047150466954,3.5909912242709643
330,1791286182.6772852,-0.3443662396599266,-1.92240234375,-0.24673397288602938,1.968526487413653,-0.5557724651019973,-3.581016697234454,-0.34927169861661245,3.640680477368488
331,1791286182.6972852,-0.26772561465992656,-1.9271923828125,-0.21320369944852938,1.9573459843814265,-0.5625425244037618,-3.619703819144275,-0.35384154047367733,3.6802056553751163
332,1791286182.7222643,-0.26293557559742653,-1.9655126953125,-0.20841366038602938,1.993943711889797,-0.5707238684410411,-3.6680673098489565,-0.3594828178579252,3.7295671893566875
333,1791286182.7422643,-0.42100686465992654,-1.9415625,-0.18925350413602937,1.9956774815397398,-0.5773177413408932,-3.7068425568739887,-0.36391859039870006,3.7691397236447495
334,1791286182.7521925,-0.39705666934742656,-1.9032421875,-0.25152401194852936,1.9604206567825542,-0.5807091701942714,-3.7260666802949016,-0.36611847516912494,3.7887780067208676
335,1791286182.7721925,-0.27251565372242653,-1.912822265625,-0.28026424632352936,1.9523580227923913,-0.587520630902336,-3.764708008792782,-0.3706829932535648,3.828264980992279
336,1791286182.7978551,-0.30125588809742654,-1.9367724609375,-0.27068416819852936,1.978664346086167,-0.5960539844967632,-3.8142620323822585,-0.37672175949590175,3.8788908837688374
337,1791286182.8178551,-0.45932717715992655,-1.9415625,-0.24673397288602938,2.010354210197815,-0.6028476963863546,-3.8529061177108916,-0.3814982088419621,3.9183991348868448
338,1791286182.8424118,-0.42579690372242657,-1.951142578125,-0.23236385569852938,2.0105355815868973,-0.611568183849502,-3.900406709686685,-0.38736556605194156,3.967019060482144
339,1791286182.8624117,-0.2533554974724265,-1.9271923828125,-0.21799373851102938,1.9559603161874315,-0.6186239004468607,-3.93910775247136,-0.3921029356004364,4.006620786634359
340,1791286182.8726807,-0.23898538028492655,-1.9750927734375001,-0.24673397288602938,2.004740164971783,-0.6220824113391915,-3.9590034617342345,-0.3945283839410723,4.026952642167076
341,1791286182.8926806,-0.3443662396599266,-1.96072265625,-0.20841366038602938,2.001613772830582,-0.6286829271966955,-3.997844091489759,-0.39922638150562667,4.0666179199057115
342,1791286182.9179976,-0.42100686465992654,-1.9176123046875,-0.1413531135110294,1.9683659298715137,-0.6372381631745438,-4.046999576334575,-0.40494542044870147,4.116826306877748
343,1791286182.9379976,-0.31562600528492657,-1.951142578125,-0.16051326976102936,1.9830132740740212,-0.64408783391011,-4.085809930482255,-0.40923847504360195,4.156461001293581
344,1791286182.9628112,-0.24856545840992655,-1.9942529296875,-0.3281646369485294,2.0363009511428496,-0.652361341812727,-4.134081076352143,-0.41467529104971484,4.205729100067165
345,1791286182.9828112,-0.33957620059742655,-2.0038330078125,-0.3569048713235294,2.0635018309624877,-0.6589117839965322,-4.173149054885902,-0.419427690013793,4.245616252151729
346,1791286183.0076873,-0.40663674747242656,-1.9463525390625,-0.25152401194852936,2.00422203842206,-0.6672293634445219,-4.2218230247069695,-0.42558724847490753,4.295359028236514
347,1791286183.0276873,-0.3731064740349265,-1.9415625,-0.19883358226102937,1.987060184243995,-0.6740830922405933,-4.2609179879635946,-0.43047213855988864,4.335333479384566
348,1791286183.0377386,-0.37789651309742656,-1.989462890625,-0.22278377757352938,2.0372532928762457,-0.6775769971162964,-4.2805818968087355,-0.43287669245838667,4.355441905614345
349,1791286183.0577385,-0.4832773724724266,-1.970302734375,-0.16051326976102936,2.035046533521735,-0.6847781036633167,-4.319779703127833,-0.4375185321886064,4.3955477702807855
350,1791286183.0825868,-0.37789651309742656,-1.84576171875,-0.12698299632352938,1.8883238012505823,-0.6939877336793095,-4.368286246503897,-0.4429563320765915,4.445194485961125
351,1791286183.1025867,-0.3347861615349266,-1.8888720703125,-0.17967342601102937,1.9267075574607737,-0.7013575518089499,-4.407074084448251,-0.4471366028661827,4.484878542716351
352,1791286183.1278987,-0.44974709903492655,-2.0229931640625,-0.21320369944852938,2.0833217736087906,-0.7107750530950141,-4.456226710575706,-0.4523794021895021,4.535174174789313
353,1791286183.1478987,-0.4928574505974266,-2.018203125,-0.17009334788602937,2.0844625368099656,-0.7185139311230064,-4.495300335560374,-0.45647551071492076,4.5751893149889975
354,1791286183.1569443,-0.39226663028492653,-1.9463525390625,-0.21320369944852938,1.9969018836709707,-0.7220895389828265,-4.513011371726141,-0.45831024854956687,4.593335740783974
355,1791286183.1769443,-0.39226663028492653,-1.9750927734375001,-0.3185845588235294,2.0387154519552038,-0.7299862092534938,-4.55217903178768,-0.4625560718551481,4.633483778190851
356,1791286183.2028506,-0.5551279584099266,-2.0229931640625,-0.2946343635110294,2.118366776602562,-0.7405213632286243,-4.603071580804234,-0.4684222761607821,4.685729323830946
357,1791286183.2228506,-0.5311777630974266,-2.0038330078125,-0.18446346507352937,2.0812312003126925,-0.7490640914760855,-4.642508003404988,-0.47299038293692874,4.726277338156224
358,1791286183.2471597,-0.39226663028492653,-1.989462890625,-0.19404354319852937,2.03702935645663,-0.75957353926391,-4.6905318821616575,-0.4783999667590151,4.775657842362653
359,1791286183.2671597,-0.38747659122242656,-2.0613134765625,-0.27068416819852936,2.1148099858656004,-0.7680926646182445,-4.730192303661722,-0.48288011078238535,4.816415552301334
360,1791286183.2781234,-0.44495705997242657,-2.0996337890625,-0.22278377757352938,2.1577955058212046,-0.7727466989019426,-4.7520937923079485,-0.48537343102945435,4.838917258964539
361,1791286183.2981234,-0.35873635684742655,-2.0565234375,-0.04555233226102937,2.0880745766579794,-0.7811686578390749,-4.79228787944039,-0.4896420098980679,4.880163612962007
362,1791286183.3227339,-0.33957620059742655,-2.09484375,-0.07908260569852937,2.123661082058603,-0.7912665271612154,-4.841991355103494,-0.49433677152949174,4.931059910768571
363,1791286183.3427339,-0.3731064740349265,-2.40140625,-0.12219295726102937,2.433288215010715,-0.7993107631473809,-4.883068939741016,-0.49788164221292786,4.973041935877813
364,1791286183.3680441,-0.42579690372242657,-2.5451074218750005,0.045458409926470635,2.5808799389231303,-0.8094803849560649,-4.936645420650317,-0.5018404794493339,5.027680416421703
365,1791286183.388044,-0.33957620059742655,-2.5546875000000004,0.16999942555147063,2.5827582200733126,-0.8174590048529005,-4.980280459555427,-0.5041762985276618,5.0720436138150236
366,1791286183.3980222,-0.18629495059742654,-2.4636767578125003,0.21789981617647064,2.4803002450294906,-0.8212360183825366,-5.002540187693907,-0.5048765581190666,5.0945792040481175
367,1791286183.4180222,-0.16234475528492653,-2.3199755859375,0.23705997242647064,2.337699717551724,-0.8281940153964391,-5.047640383302112,-0.5053871773095364,5.140038420602483
368,1791286183.4420552,-0.2533554974724265,-2.2912353515625,0.22268985523897064,2.315931608656781,-0.8360502497874036,-5.102017629713874,-0.5050800370643795,5.194677060022279
369,1791286183.4620552,-0.17192483340992654,-2.2529150390625,0.19394962086397063,2.2677744105202122,-0.8422453398347046,-5.147298028464661,-0.5042378203400995,5.24006774629592
370,1791286183.4876416,-0.19587502872242654,-2.0229931640625,0.16520938648897063,2.039157303913722,-0.8496878143484254,-5.20474228464984,-0.5026327576118691,5.297542007431254
371,1791286183.5076416,-0.3443662396599266,-1.8984521484375,0.13167911305147065,1.9339203850568667,-0.8554430724143507,-5.24879131286612,-0.5011209964063074,5.341602320390372
372,1791286183.5176802,-0.42100686465992654,-1.9080322265625,0.03587833180147063,1.9542571510383913,-0.8584747508287737,-5.270450344060033,-0.5003498629757328,5.363298957954226
373,1791286183.5376801,-0.37789651309742656,-1.8409716796875,-0.08866268382352938,1.8814472013653212,-0.8648071284825644,-5.312752530392366,-0.49912315641879035,5.405770504187003
374,1791286183.5622497,-0.47848733340992655,-1.7643310546875,-0.12698299632352938,1.8324679751973156,-0.8729975003045786,-5.36356823414058,-0.49823959619021574,5.45694342402702
375,1791286183.5822496,-0.6844590130974265,-1.759541015625,-0.08866268382352938,1.8900607920857335,-0.8804089493785853,-5.404014123432734,-0.4979517168945382,5.497858171757851
376,1791286183.6079252,-0.8569004193474266,-1.6397900390625,-0.11740291819852937,1.8539075343953701,-0.8914645483867902,-5.454695107642673,-0.4980343931042726,5.54945456915237
377,1791286183.6279252,-0.8425303021599265,-1.587099609375,-0.28984432444852937,1.820096759117767,-0.9013336953961406,-5.49309173547417,-0.4987000039865601,5.5888425401658335
378,1791286183.6375475,-0.8808506146599265,-1.5152490234375,-0.3233745978860294,1.7822593915962455,-0.9066134007660834,-5.511032910769812,-0.4994147501835974,5.607392147401283
379,1791286183.6575475,-0.9910215130974266,-1.280537109375,-0.22757381663602938,1.6351418195149565,-0.9187489735676672,-5.546923640312466,-0.5015039292600375,5.644817777302665
380,1791286183.6826398,-1.0101816693474266,-1.1033056640624999,-0.17967342601102937,1.5066628466423695,-0.9354567883125875,-5.5896846826347515,-0.5044982947904092,5.689830646295906
381,1791286183.7026398,-1.0724521771599267,-1.04103515625,-0.24673397288602938,1.5148549508846227,-0.9499002190765458,-5.621871639529819,-0.507166576900691,5.724069277557403
382,1791286183.7278643,-0.9479111615349266,-0.9691845703124999,-0.3137945197610294,1.3915176255176842,-0.9692063461682797,-5.66018034689095,-0.5110875087402599,5.765259139221215
383,1791286183.7478642,-0.8808506146599265,-0.7105224609374999,-0.19883358226102937,1.1490320997597085,-0.9849608257436732,-5.688518009098742,-0.5144989571312102,5.7960412476948
384,1791286183.7724042,-1.1155625287224267,-0.5093408203125,-0.09345272288602938,1.2298948077543048,-1.0050663312720989,-5.720317892434121,-0.5185948748072741,5.831049285071691
385,1791286183.7924042,-1.3263242474724264,-0.19798828124999998,-0.06471248851102937,1.3425807518041204,-1.0226571937667701,-5.743408170220071,-0.5216695585442355,5.857021792176065
386,1791286183.8029618,-1.4221250287224265,-0.08781738281249998,-0.12698299632352938,1.430481097882143,-1.0327265123564078,-5.753995099866249,-0.5232009600951516,5.869303442765004
387,1791286183.8229618,-1.0197617474724265,-0.11176757812499999,-0.23715389476102938,1.0529235408747732,-1.0526030066651666,-5.771341604596655,-0.5262130354209059,5.890098230525169
388,1791286183.8476443,-0.7036191693474265,0.12773437500000004,-0.20841366038602938,0.7448706329728044,-1.0766439157716323,-5.789508672353572,-0.5301975568873339,5.9125867636724445
389,1791286183.8676443,-0.8952207318474266,0.386396484375,-0.03597225413602937,0.975713280085102,-1.0956002490477705,-5.801249968821097,-0.5333084579234091,5.927837634226577
390,1791286183.8922775,-1.1682529584099266,0.405556640625,0.05982852711397063,1.2380915217564525,-1.1192580792032183,-5.812078933939663,-0.5365212192977569,5.9431351323155726
391,1791286183.9122775,-1.1682529584099266,0.34328613281250003,-0.06471248851102937,1.2193637890245048,-1.1390897119740881,-5.81842901827711,-0.538745754512391,5.953309046291774
392,1791286183.9227915,-0.6652988568474265,0.41034667968750005,-0.3616949103860294,0.8612956371956183,-1.149397254163628,-5.820672251728009,-0.5400760240995931,5.957602002628451
393,1791286183.9427915,-0.32520608340992657,0.6498486328125002,-0.42875545726102937,0.8437378054740786,-1.1675491411690124,-5.822709015290117,-0.5434125941279987,5.9634225509553005
394,1791286183.9670722,-0.4928574505974266,0.8175000000000001,-0.2754742072610294,0.993529443688252,-1.187770439946031,-5.822138693279749,-0.5481381593155724,5.967290258022705
395,1791286183.9870722,-0.9287510052849266,0.6594287109375001,-0.1413531135110294,1.1477828005880366,-1.204060618968765,-5.819523996277093,-0.5520719635119455,5.968367027109868
396,1791286184.0126529,-0.6748789349724266,0.37202636718750004,-0.3137945197610294,0.8320650187240781,-1.2248475918348214,-5.814702457654269,-0.5572219333312529,5.968376041877687
397,1791286184.0326529,-0.26772561465992656,0.48219726562500004,-0.3616949103860294,0.6595562265041701,-1.2400757778787075,-5.810216900872181,-0.5616576527210498,5.967567987792207
398,1791286184.0427172,-0.43058694278492654,0.8893505859375002,-0.24194393382352938,1.017293687741278,-1.247116524423574,-5.80726298569515,-0.5640106120057428,5.966381732756493
399,1791286184.0627172,-0.5551279584099266,0.8845605468750002,-0.27068416819852936,1.0788347094015387,-1.2604878074436372,-5.799612584915444,-0.5687539994769655,5.96219898692963
400,1791286184.0879066,-0.5647080365349265,0.7600195312500001,-0.25152401194852936,0.979688309104118,-1.276918041024321,-5.7883154955946265,-0.5748185936427602,5.955294482696191
401,1791286184.1079066,-0.44974709903492655,0.6258984375000001,-0.17488338694852937,0.7903198758641102,-1.2895282637903889,-5.778612368460828,-0.5795511163738,5.949043918524457
402,1791286184.13242,-0.38747659122242656,0.8031298828125001,-0.20362362132352937,0.9146684079887529,-1.304205141959811,-5.76587613290102,-0.5851774616295616,5.9404302280113725
403,1791286184.15242,-0.31562600528492657,0.9803613281250001,-0.30900448069852937,1.0752729318581875,-1.3154381399843287,-5.7543683799109555,-0.5898482466977576,5.932204809847422
404,1791286184.1624744,-0.5359678021599266,0.9564111328125001,-0.2658941291360294,1.1281327172938649,-1.3208802821540047,-5.747990524679096,-0.592277638548315,5.927471011545167
405,1791286184.1824744,-0.38747659122242656,0.8175000000000001,-0.12698299632352938,0.9135475029250821,-1.3314670695648039,-5.73454592644945,-0.5969745909147606,5.917279797516027
406,1791286184.2074625,-0.24856545840992655,0.8318701171875001,0.045458409926470635,0.8694016022628007,-1.3439022358625654,-5.717176678170361,-0.6021155332309136,5.903789080271197
407,1791286184.2274625,-0.2533554974724265,0.7456494140625002,0.13646915211397065,0.7992533304716075,-1.3531150233225833,-5.7029937340153385,-0.605340133981387,5.8924947581112095
408,1791286184.2683096,-0.05696389590992654,0.5348876953125,0.16520938648897063,0.5627111811738033,-1.3700591119536119,-5.674449153420081,-0.6100138456321451,5.869288888516215
409,1791286184.2883096,0.28791891659007346,0.25227539062500004,0.17957950367647063,0.42283445151274696,-1.3767645755420728,-5.661388549507813,-0.6114417970624411,5.858383913346809
410,1791286184.283083,0.19690817440257347,0.09420410156250003,0.20831973805147064,0.301735571584766,-1.3767645755420728,-5.661388549507813,-0.6114417970624411,5.858383913346809
411,1791286184.303083,0.3310292681525735,-0.08781738281249998,0.16999942555147063,0.38235072091666783,-1.3801992136246262,-5.6515009221809684,-0.6114114427050724,5.849635586510759
412,1791286184.3428895,0.7046523150275735,-0.2219384765625,-0.01202205882352937,0.7388748895117214,-1.3829178510100517,-5.635697983953778,-0.6108884490501161,5.834958290010803
413,1791286184.3628895,0.9968446978400736,-0.4039599609375,-0.19883358226102937,1.093808847599638,-1.3815266411801725,-5.629887958315089,-0.6109813802364247,5.829026722401212
414,1791286184.3875363,1.1022255572150734,-0.6386718749999999,-0.3616949103860294,1.3242455025761848,-1.3761892193113774,-5.625729336852167,-0.612114865364587,5.823865721946918
415,1791286184.4075363,1.3225673540900738,-0.8446435546875,-0.5341363166360295,1.6576817382505784,-1.3688705722881633,-5.625085918673893,-0.6142404268522902,5.821742826518492
416,1791286184.4175062,1.9021620806525736,-1.1416259765624999,-0.6634673713235294,2.3155386855429048,-1.3633582119844072,-5.626298512973271,-0.6160365803524023,5.82181085570485
417,1791286184.4375062,2.1272939165900735,-1.472138671875,-0.6059869025735294,2.6570268728188813,-1.3479147851702178,-5.632286777810274,-0.621003421368085,5.824532072615599
418,1791286184.462517,2.156034150965074,-1.606259765625,-0.6443072150735294,2.764721592166049,-1.3234643067083256,-5.64442656620453,-0.6286282963498211,5.831490595669179
419,1791286184.482517,2.529657197840074,-1.6493701171875,-0.7927984260110295,3.122197409892713,-1.2998166624369158,-5.657561481980948,-0.6359666188692065,5.839689959121034
420,1791286184.5223684,2.726048799402574,-1.8266015625,-0.8454888556985294,3.3886083765997603,-1.2440563946402758,-5.69019710396606,-0.6532920487349889,5.861127015853645
421,1791286184.5423684,2.6877284869025737,-1.9750927734375001,-0.7448980353860294,3.417564771312257,-1.2121492947133063,-5.709821476345108,-0.6630683791089342,5.874608657585623
422,1791286184.537896,2.682938447840074,-1.9415625,-0.7209478400735294,3.3893346610229336,-1.2121492947133063,-5.709821476345108,-0.6630683791089342,5.874608657585623
423,1791286184.557896,2.6302480181525736,-1.874501953125,-0.8119585822610295,3.3303511749622325,-1.1742790491062398,-5.734717907320969,-0.6743000869536093,5.892418974324832
424,1791286184.5674524,2.6973085650275737,-1.8984521484375,-0.8263286994485294,3.4003548600712787,-1.1550794631589367,-5.747533894004396,-0.6800361045660652,5.901762747896111
425,1791286184.5874524,2.7499989947150736,-2.0038330078125,-0.6922076056985293,3.472318038935906,-1.1127546289950596,-5.776185499428393,-0.6925176300614092,5.923016330899539
426,1791286184.6129484,2.769159150965074,-2.200224609375,-0.8454888556985294,3.6364931101520583,-1.05633849394488,-5.815270843833738,-0.7089827614118198,5.952804595895251
427,1791286184.6329484,2.6541982134650737,-2.2624951171875,-1.0275103400735295,3.6358533813420597,-1.0105868530482027,-5.848025870308502,-0.7227707208150598,5.978552490546429
428,1791286184.6573327,2.4578066119025737,-2.1187939453125,-0.8646490119485294,3.35823153431512,-0.953824027258935,-5.889983540838679,-0.740520042937107,6.012491689833639
429,1791286184.6773326,2.3476357134650736,-2.0325732421875,-0.5149761603860294,3.147689291172051,-0.9070425101607951,-5.925462230536693,-0.7549637802639659,6.041837391908701
430,1791286184.6877723,2.3715859087775737,-2.046943359375,-0.26110409007352936,3.1436558630128215,-0.8825912371717642,-5.944397738399184,-0.761979897705015,6.057676545402887
431,1791286184.7077723,2.4338564165900736,-2.1187939453125,-0.08866268382352938,3.2281273070887977,-0.8355664326244532,-5.981481070410462,-0.7739296489598437,6.0889452420387675
432,1791286184.7323391,2.419486299402574,-2.018203125,-0.04555233226102937,3.1510526529607445,-0.7775257623413993,-6.02782203236588,-0.7866536032027039,6.128458913659444
433,1791286184.7523391,2.548817354090074,-1.644580078125,-0.40001522288602936,3.059595678585149,-0.7299098866214009,-6.065383575543392,-0.7961267731619599,6.160800613557015
434,1791286184.7777765,2.352425752527574,-1.3715478515625,-0.7880083869485294,2.8347852913724974,-0.6690823056577209,-6.111745106207249,-0.8086346227798774,6.201208698967554
435,1791286184.7977765,2.1608241900275735,-1.5200390625,-0.8359087775735294,2.7709968271650314,-0.6216608879910995,-6.147066256830584,-0.8194295901571707,6.23252362039232
436,1791286184.8073866,1.9309023150275737,-1.529619140625,-0.5724566291360293,2.5289968481172513,-0.599343256207183,-6.163690657289033,-0.8248537076654555,6.247453761058386
437,1791286184.8273866,1.9117421587775738,-1.2757470703125,-0.41917537913602937,2.336235576206368,-0.5541003744106154,-6.197306544418489,-0.8359361823704913,6.27793158065699
438,1791286184.8530548,2.0889736040900737,-1.0745654296875,-0.4527056525735294,2.3923720423748014,-0.4970432215068473,-6.238502632570978,-0.8497044902677077,6.3156919479517075
439,1791286184.8730547,2.1943544634650736,-0.8733837890624999,-0.3185845588235294,2.383167403991386,-0.4528293457017976,-6.268708677643245,-0.8599801597111313,6.343605345273713
