imu_index,t_imu,ax,ay,az,mag,vx,vy,vz,velocity
0,1791353940.3723085,0.01350791015625024,0.042200244140625016,0.0006227050781255229,0.04431379022304465,0.0,0.0,0.0,0.0
1,1791353940.3923085,-0.029602441406249763,0.04699028320312501,0.019782861328125522,0.05895551590011054,-6.919204827105999e-06,0.0001875909233941057,3.140226863642098e-05,0.0001903269093186947
2,1791353940.417435,-0.029602441406249763,0.032620166015625014,0.019782861328125522,0.048288107960710494,-0.00012587872541079112,0.0005379393060906995,0.00013949696319884758,0.0005698101028325922
3,1791353940.437435,0.01350791015625024,-0.010490185546874989,0.014992822265625523,0.02274406184228819,-0.00023050577834662515,0.0008081719132416692,0.00026479482620965673,0.0008811305551343036
4,1791353940.4629607,0.06619833984375025,-0.02965034179687499,-0.008957373046874478,0.07308623330450842,-0.00019141773129434592,0.0010244867310384915,0.0004122784273659846,0.001120797622945007
5,1791353940.4829607,0.06619833984375025,-0.010490185546874989,0.010202783203125523,0.0677964672823481,3.320942492819639e-05,0.0011083399325559082,0.0005123694372592923,0.0012214920025278514
6,1791353940.492536,0.04224814453125024,-0.0057001464843749895,0.03415297851562552,0.05462438400353381,0.0002025033452330402,0.001130837157302025,0.000584956024691299,0.0012891756404726797
7,1791353940.512536,0.05661826171875024,0.008669970703125012,0.010202783203125523,0.05817983101673574,0.0006513650692635754,0.0011752331738246594,0.0007803589007236097,0.0015538370185618842
8,1791353940.5381746,0.032668066406250244,0.01825004882812501,-0.013747412109374479,0.03986550118407015,0.0013121511758710236,0.0012753732116996754,0.0009864618839346452,0.0020788036429438793
9,1791353940.5581746,-0.01044228515624976,-0.0057001464843749895,-0.013747412109374479,0.01818032807549805,0.0017836323713568772,0.001360597161369481,0.0010818788673260978,0.0024905884756911663
10,1791353940.5832305,0.023087988281250242,-0.05360053710937499,-0.04248764648437448,0.07218914658776493,0.002309465144104684,0.0013399127775095942,0.0010778096980165828,0.002879352227204331
11,1791353940.6032305,0.01829794921875024,-0.03923041992187499,-0.02811752929687448,0.05161817748254197,0.002728312410998181,0.0011866324789186339,0.0009691411745176802,0.003129060540829595
12,1791353940.6132865,-0.029602441406249763,0.023040087890625012,-0.004167333984374477,0.03774277228497528,0.0028987939978472547,0.0011089125884883656,0.0008983490002122201,0.003231056281937152
13,1791353940.6332865,-0.029602441406249763,0.04699028320312501,0.010202783203125523,0.0564666984851277,0.0030981906948587845,0.0010825703755643161,0.0007877259957513051,0.003375093545983786
14,1791353940.6583045,0.023087988281250242,0.003879931640625011,-0.008957373046874478,0.025066782887158554,0.0032979788463930867,0.001150011860804217,0.0006724412471747889,0.0035568762955926142
15,1791353940.6783044,0.03745810546875024,-0.0009101074218749891,0.010202783203125523,0.038833423051764945,0.0035245560941838112,0.0012002938061172678,0.0005959721363394633,0.003770727206964824
16,1791353940.7030532,0.003927832031250239,0.042200244140625016,0.019782861328125522,0.046772321647764244,0.003839694658116755,0.00132982272500988,0.0005711981653640045,0.004103407229564018
17,1791353940.7230532,-0.0008622070312497604,0.061360400390625014,0.024572900390625523,0.06610347623741247,0.004060762172750043,0.001574137123261038,0.00062071447222894,0.004399202605302539
18,1791353940.732765,0.05661826171875024,0.008669970703125012,-0.013747412109374479,0.058904900405237264,0.00419261929990406,0.0017259865250337527,0.00064903737695592,0.004580211304646535
19,1791353940.752765,0.09493857421875024,-0.06318061523437499,-0.02811752929687448,0.11745517642847368,0.004650764518259907,0.001910026426943611,0.0006358180408402493,0.005067748626065249
20,1791353940.778021,0.061408300781250244,-0.03444038085937499,-0.013747412109374479,0.07173639646848927,0.005438686047855593,0.0019226577529292386,0.0005423275034218551,0.0057939656439269455
21,1791353940.798021,-0.024812402343749762,0.013460009765625012,0.014992822265625523,0.0319626640386479,0.006023931838940492,0.0018996894041123785,0.0004812668971431558,0.006334681717228075
22,1791353940.8224504,-0.02002236328124976,0.04699028320312501,0.014992822265625523,0.05323313316314255,0.006549415393541523,0.0019865995537007735,0.0004728105678298252,0.0068603913603361094
23,1791353940.8424504,-0.005652246093749761,0.003879931640625011,-0.008957373046874478,0.011279906353383698,0.006876579328609963,0.0021233842212073353,0.00047597910530457,0.007212673562710617
24,1791353940.8675623,0.04703818359375024,-0.01528022460937499,-0.02811752929687448,0.05689175189491793,0.00730369344948262,0.002247897424897031,0.00040953411915673236,0.007652757609622006
25,1791353940.8875623,0.032668066406250244,-0.04402045898437499,-0.023327490234374477,0.0595749542387827,0.007712395673538764,0.0022432380469370617,0.0002873854763704351,0.008037148398062221
26,1791353940.8974066,-0.039182519531249765,0.008669970703125012,0.024572900390625523,0.047055984342243014,0.007878580082582838,0.0022151885719082637,0.00023720004093325794,0.008187511733500154
27,1791353940.9174066,-0.04876259765624976,0.05178032226562501,0.029362939453125524,0.07694917099907699,0.008033643969675427,0.0022574256947357667,0.00023143922556482954,0.00834799199292175
28,1791353940.9427044,0.03745810546875024,0.04699028320312501,0.0006227050781255229,0.060096456987348536,0.008178914126491141,0.00249023891973954,0.00028213841510925375,0.008554269591916207
29,1791353940.9627044,0.08535849609375025,-0.02486030273437499,-0.01853745117187448,0.09081709422449707,0.008460759297775193,0.002679882581902389,0.0002893357928089484,0.008879748518323792
30,1791353940.9879036,0.003927832031250239,-0.02007026367187499,0.010202783203125523,0.022854761722981946,0.008931351515229467,0.002798068497403746,0.0002812919326029643,0.009363618550330981
31,1791353941.0079036,-0.08708291015624976,0.013460009765625012,0.043733056640625524,0.09837268598195512,0.009124092113042015,0.002867884254377742,0.00035676902907504,0.009570846416273246
32,1791353941.0181751,-0.005652246093749761,0.008669970703125012,0.019782861328125522,0.0223266181994766,0.009136791306978724,0.002915409901561272,0.00043864841159574434,0.009600676159021247
33,1791353941.038175,0.10930869140625024,-0.02965034179687499,-0.013747412109374479,0.11408998258095814,0.009313293697126456,0.002962596957536065,0.0005832164971701118,0.009790534291054226
34,1791353941.0633013,0.06619833984375025,-0.02965034179687499,-0.01853745117187448,0.0748665483556561,0.009832511583024835,0.0029012362317294114,0.0006767560013365966,0.010273921081454838
35,1791353941.0833013,-0.029602441406249763,-0.02007026367187499,0.005412744140625523,0.03617205855630712,0.010238699606650623,0.0027851397431177018,0.0007203562399649425,0.010635172125376147
36,1791353941.1073895,-0.07271279296874976,0.027830126953125013,0.03894301757812552,0.08705300021040925,0.010469689611871127,0.002680305351502852,0.0008451254573891247,0.010840326304357457
37,1791353941.1273894,0.003927832031250239,0.05178032226562501,0.0006227050781255229,0.05193281621491386,0.01052953131651271,0.002725735014673462,0.0009925286994409562,0.010921802705362004
38,1791353941.1373725,0.05182822265625024,-0.0009101074218749891,-0.01853745117187448,0.05505115852709036,0.010596667203566031,0.0027830979791097304,0.0010416557286105812,0.011005454867537453
39,1791353941.1573725,0.00871787109375024,-0.03923041992187499,0.0006227050781255229,0.04019222418911667,0.01080181079111353,0.002820569639227275,0.0010984411979932883,0.011217900985576417
40,1791353941.183147,-0.06792275390624976,0.008669970703125012,0.029362939453125524,0.07450403414265518,0.01091208031568207,0.0028025407361514563,0.0012186097595468356,0.011331934571808438
41,1791353941.203147,-0.04876259765624976,0.032620166015625014,0.029362939453125524,0.06560524654629496,0.010809782543664461,0.0028525846210040993,0.0013859576558439323,0.011265412388594322
42,1791353941.2277086,0.04703818359375024,0.032620166015625014,0.014992822265625523,0.05917305692775157,0.010699820298313747,0.0030250047073286535,0.0016423560271739465,0.011239846138429209
43,1791353941.2477086,0.07098837890625025,0.05657036132812501,0.03894301757812552,0.09877304459528505,0.010800751207109762,0.003278128421574097,0.001900722107116083,0.011446182643776687
44,1791353941.2575622,0.00871787109375024,0.04699028320312501,0.03894301757812552,0.06164938450631387,0.01090192341936448,0.003460664579958316,0.0020664796027166673,0.011623186805911269
45,1791353941.2775621,-0.015232324218749762,-0.0009101074218749891,0.005412744140625523,0.01619104060140479,0.011066699702433503,0.003844706357108661,0.0024189872747214444,0.011962654751830707
46,1791353941.3027077,0.032668066406250244,-0.04881049804687499,-0.04248764648437448,0.07249046410451751,0.011275676145752724,0.004161357630321802,0.002725787207622914,0.012324272220807815
47,1791353941.3227077,0.06619833984375025,-0.02486030273437499,-0.02811752929687448,0.07609763665104205,0.011565257028303903,0.004264928007012333,0.0028272958825683887,0.012646674782065014
48,1791353941.3470883,0.03745810546875024,0.013460009765625012,0.019782861328125522,0.044448207281358176,0.012054856089832946,0.004351399545070206,0.002917236778956804,0.013143991166001212
49,1791353941.3670883,0.01350791015625024,0.008669970703125012,0.03415297851562552,0.03773669262496586,0.012472689069740167,0.004444888721601904,0.003060853787688956,0.013590210972882263
50,1791353941.3771572,-0.039182519531249765,0.013460009765625012,0.005412744140625523,0.04178204756638149,0.012632103041591578,0.004501607224493705,0.0031521903098069457,0.013775732234848424
51,1791353941.3971572,-0.06313271484374976,-0.0057001464843749895,-0.004167333984374477,0.06352635693964258,0.012747779568640687,0.004609008636548203,0.0033082679603461114,0.013953260602449934
52,1791353941.4225805,0.003927832031250239,-0.010490185546874989,-0.01853745117187448,0.021658923177831597,0.012759878279631586,0.004694184011608435,0.0034336161510273187,0.014022823436043464
53,1791353941.4425805,-0.01044228515624976,0.032620166015625014,0.014992822265625523,0.037388517885308156,0.012758196746459406,0.004784333817210287,0.0035121167417864444,0.014071119298186835
54,1791353941.4673393,-0.04876259765624976,0.042200244140625016,0.0006227050781255229,0.06449061402504998,0.01264648914309899,0.005018128867164879,0.003623715688629223,0.014080007825495398
55,1791353941.4873393,-0.04397255859374976,0.032620166015625014,-0.008957373046874478,0.055478785784014474,0.012430685480069134,0.005290888541887619,0.0036878401537982263,0.014004128250878232
56,1791353941.4968698,0.003927832031250239,0.05178032226562501,0.029362939453125524,0.05965577802464412,0.012314650923151557,0.005461698138283897,0.0037283993849630713,0.013977901698273754
57,1791353941.5168698,-0.05355263671874976,0.157161181640625,0.07726333007812553,0.1831314939844299,0.012033238662894677,0.00607978948017034,0.003960685635170583,0.014051679740942711
58,1791353941.5422494,-0.029602441406249763,0.18590141601562502,0.06768325195312552,0.20004165468415624,0.011571413575566424,0.007399496199791419,0.004487140157356327,0.014449380019201182
59,1791353941.5622494,0.032668066406250244,0.20027153320312502,0.05810317382812553,0.21107313515261708,0.011266669027147192,0.008862730460577648,0.005028453147708465,0.01519115411161469
60,1791353941.5870516,0.003927832031250239,0.18590141601562502,0.06768325195312552,0.19787821238335074,0.011013513801454199,0.011123463783220888,0.005833031960971354,0.016704885352769178
61,1791353941.6070516,-0.06792275390624976,0.161951220703125,0.07726333007812553,0.19186276491336887,0.010744003299963863,0.013194799034802671,0.006601927802122909,0.018251624014944734
62,1791353941.632441,-0.06313271484374976,0.18111137695312501,0.07726333007812553,0.20677691534637163,0.010203630671497654,0.016083139691220848,0.007725857161933165,0.0205540830516529
63,1791353941.652441,-0.01044228515624976,0.142791064453125,0.03894301757812552,0.1483741487760962,0.009731451376119419,0.018502937004121887,0.00865271506621991,0.02262585471714756
64,1791353941.6619828,0.032668066406250244,0.11884086914062501,-0.03769760742187448,0.12888546987987473,0.009555876444323765,0.019671456714963325,0.009029470149640688,0.023660353232593755
65,1791353941.6819828,-0.029602441406249763,0.10926079101562501,-0.008957373046874478,0.1135537737042297,0.00924766318059623,0.022095492834671326,0.009630730477960106,0.02581629422376257
66,1791353941.707546,-0.13019326171874976,0.07573051757812502,0.010202783203125523,0.150961894114732,0.008606441157367629,0.02508373287030418,0.010286350744350877,0.028444217263616477
67,1791353941.727546,-0.08708291015624976,0.06615043945312502,-0.01853745117187448,0.11091866829831964,0.007854103800144816,0.02728378389289742,0.010709847237966254,0.030344565211555617
68,1791353941.7526088,0.04703818359375024,0.10926079101562501,-0.02811752929687448,0.12223381947284488,0.006977464151586136,0.029956934461210366,0.011073245163515025,0.0326912784508534
69,1791353941.7726088,0.08535849609375025,0.19069145507812502,-0.004167333984374477,0.20896571624966778,0.006581438263453523,0.03222004837064852,0.011271309088045885,0.034763332049457606
70,1791353941.7828043,-0.06792275390624976,0.29607231445312504,0.043733056640625524,0.3068955785392994,0.006423169173284334,0.03357288552977905,0.011387386354104318,0.036028715117277205
71,1791353941.8028042,-0.04397255859374976,0.291282275390625,0.07726333007812553,0.30454650226325375,0.005991428210514389,0.03670963958817562,0.011762428194846655,0.03901089037351521
72,1791353941.8270812,0.003927832031250239,0.358342822265625,0.09163344726562553,0.36989416701475736,0.0054730574979486,0.041128875258305164,0.012456908645056195,0.043321049287619456
73,1791353941.8470812,0.032668066406250244,0.401453173828125,0.08205336914062553,0.4110530485554458,0.0051649614699773,0.04536314418235041,0.013203749536886748,0.04752715727800159
74,1791353941.873198,-0.0008622070312497604,0.48288383789062506,0.09642348632812553,0.49241753930238347,0.004885285175432852,0.05179525052114437,0.014382312322239327,0.05397652170645908
75,1791353941.893198,-0.029602441406249763,0.5164141113281251,0.08684340820312553,0.5245013026336182,0.004657541298176643,0.0574809839277333,0.015424362719924829,0.05969645860149798
76,1791353941.9022644,-0.005652246093749761,0.530784228515625,0.06768325195312552,0.5351120141818737,0.004545814704443295,0.06038387995988173,0.015930959916770078,0.06261527668393932
77,1791353941.9222643,0.00871787109375024,0.545154345703125,0.07247329101562552,0.5500196722173173,0.004340918502545174,0.0674409052783038,0.01709109724686032,0.06970814072477131
78,1791353941.94761,-0.08708291015624976,0.530784228515625,0.08684340820312553,0.5448459488979829,0.003971241418775593,0.07708791492638883,0.018643630536865328,0.07940971191044266
79,1791353941.96761,-0.08708291015624976,0.506834033203125,0.06289321289062552,0.5180923920324767,0.0034620401020637433,0.08511486200105989,0.019909563073081397,0.08748094739363978
80,1791353941.9926896,-0.029602441406249763,0.44456352539062505,0.06289321289062552,0.44996509739385,0.002699805046570062,0.09546025931393237,0.02149550886463459,0.09788772628334097
81,1791353942.0126896,-0.039182519531249765,0.41582329101562504,0.09163344726562553,0.42759907371937106,0.0020799560708767645,0.10376333829956805,0.02280231243115592,0.10625959742317599
82,1791353942.0223193,-0.13019326171874976,0.41582329101562504,0.09642348632812553,0.4462698549798118,0.001703946164220218,0.10776212732653966,0.023472960037433294,0.11030212768297284
83,1791353942.0423193,-0.06792275390624976,0.458933642578125,0.06289321289062552,0.46817640373681874,0.0007429776241076944,0.11613358442356408,0.024895872796835788,0.11877443297751936
84,1791353942.0673993,0.06619833984375025,0.439773486328125,0.019782861328125522,0.44516772241211516,-0.00028456193275845133,0.12674718260115614,0.026568068354935036,0.12950209082843755
85,1791353942.0873992,0.08535849609375025,0.48767387695312503,0.07247329101562552,0.500364128438994,-0.0007537252917202037,0.1353325805685403,0.027839918814245676,0.1381685077893643
86,1791353942.1120331,0.02787802734375024,0.5020439941406251,0.15390395507812554,0.525843877828715,-0.001035702531227007,0.14614953112048348,0.029589712635090658,0.14911844024230406
87,1791353942.132033,0.09972861328125024,0.478093798828125,0.08205336914062553,0.49522947425636593,-0.001038886849987547,0.1550845755214855,0.031151190954240633,0.15818565531815448
88,1791353942.1426392,0.07098837890625025,0.439773486328125,-0.004167333984374477,0.44548561805008724,-0.0009045247278773026,0.1598422354827707,0.03191699387758646,0.1630001622922344
89,1791353942.1626391,-0.05834267578124976,0.506834033203125,0.03894301757812552,0.5116650893390644,-0.0006701929041257762,0.1688879946601661,0.03319663003893581,0.1721209462697757
90,1791353942.1872797,-0.13019326171874976,0.5595244628906251,0.12037368164062553,0.5869478113101095,-0.0007732171388030592,0.18033161335147516,0.03483112072184604,0.18366626148922802
91,1791353942.2072797,-0.15414345703124976,0.612214892578125,0.14432387695312554,0.6476084167911739,-0.0012708001585857425,0.18998438750005703,0.03635583240544388,0.19343585235603974
92,1791353942.2323594,0.00871787109375024,0.5595244628906251,0.0006227050781255229,0.559592721191997,-0.002074711187064095,0.20247719510324783,0.038253648014509666,0.20606955269958346
93,1791353942.2523594,0.09972861328125024,0.545154345703125,-0.004167333984374477,0.5542169463473133,-0.0024569627926708114,0.2126023073116972,0.03953474198346462,0.21626089235948562
94,1791353942.2777786,0.09493857421875024,0.573894580078125,0.09642348632812553,0.5896319280987138,-0.0024987944570946355,0.22567405621459,0.0410946125964623,0.22939875938317114
95,1791353942.2977786,0.01829794921875024,0.731965869140625,0.10121352539062553,0.7391569699694385,-0.0023569161916154814,0.23637502461065504,0.042434284705949184,0.24016530938528077
96,1791353942.306796,0.003927832031250239,0.588264697265625,0.10600356445312553,0.5977520703353951,-0.002287510857727295,0.24136897821397008,0.04308784731106716,0.24519538930388154
97,1791353942.326796,0.023087988281250242,0.5020439941406251,0.09642348632812553,0.5117408679900575,-0.0021161422750276457,0.2524191817243911,0.044623602234357414,0.256341934214653
98,1791353942.3527713,-0.005652246093749761,0.530784228515625,0.06289321289062552,0.534527269046713,-0.0018929929314166892,0.2666301302626524,0.046629367702555144,0.2706834086501378
99,1791353942.3727713,-0.039182519531249765,0.511624072265625,0.005412744140625523,0.5131508150218707,-0.0018142006646287069,0.2774943679869614,0.04804453807025197,0.2816286441875517
100,1791353942.3970027,-0.02002236328124976,0.42540336914062504,-0.03769760742187448,0.4275395082479454,-0.0018406539193507442,0.2903856750057521,0.0494432596254541,0.29457064378139775
101,1791353942.4170027,0.01350791015625024,0.42540336914062504,-0.07601791992187448,0.43235311293227985,-0.0018689843305615887,0.30070600450032714,0.0502539839263435,0.30488203808267855
102,1791353942.427559,-0.005652246093749761,0.439773486328125,-0.09038803710937449,0.44900185346564386,-0.0018754750217170317,0.3060210901317513,0.05048596077687502,0.3101632751431844
103,1791353942.4475589,-0.029602441406249763,0.430193408203125,-0.03769760742187448,0.4328553830137321,-0.001938809762506918,0.31588557672760514,0.05066741340782266,0.3199291223837963
104,1791353942.4722252,0.032668066406250244,0.478093798828125,0.029362939453125524,0.48010734763587903,-0.001999533459876859,0.32790701389795257,0.0508422147628061,0.3318311900643406
105,1791353942.4922252,0.08056845703125025,0.5164141113281251,0.07247329101562552,0.5276620021925486,-0.0018715295187800467,0.3376839309905832,0.05111544179716526,0.341535837449179
106,1791353942.5169258,0.11409873046875024,0.49725395507812503,0.029362939453125524,0.5110207416032606,-0.00137652343017979,0.34982539498016824,0.05159092611829918,0.35361182877207087
107,1791353942.5369258,0.08535849609375025,0.48767387695312503,-0.013747412109374479,0.49527858267603647,-0.0007366546008595416,0.3596590334708039,0.051941596989322554,0.3633911013150363
108,1791353942.5475628,0.08056845703125025,0.506834033203125,0.0006227050781255229,0.5131982085344386,-0.00031501306856836567,0.3648979709122892,0.052089655859759235,0.3685972879128757
109,1791353942.5675628,0.08535849609375025,0.5020439941406251,0.024572900390625523,0.5098412226778709,0.0006077390164206308,0.37478408669577,0.05236407495072809,0.37842499564978527
110,1791353942.592154,0.10451865234375024,0.5020439941406251,0.019782861328125522,0.5131897137928171,0.0019223305528248053,0.38696821655211966,0.05273268496916616,0.39054939769552816
111,1791353942.612154,0.08535849609375025,0.478093798828125,0.024572900390625523,0.4862752109319393,0.0031159275186437557,0.3968613514571924,0.05305403988377556,0.40040401150927535
112,1791353942.6377368,0.10930869140625024,0.49246391601562506,0.010202783203125523,0.5045524703928042,0.004787198986245832,0.4094800746558942,0.05347016374894752,0.41298414887943324
113,1791353942.6577368,0.07098837890625025,0.44456352539062505,0.005412744140625523,0.45022813755540664,0.006168218568961648,0.41927086435278105,0.053770104897727315,0.4227497235908679
114,1791353942.6676867,0.08535849609375025,0.42540336914062504,-0.008957373046874478,0.4339750382953869,0.00686888618425364,0.42406032401392524,0.05389429648609866,0.42752653156726894
115,1791353942.6876867,0.08056845703125025,0.40624321289062504,0.03894301757812552,0.4159824310066283,0.00831490510061031,0.43349084498599727,0.054151462992448704,0.4369391619868018
116,1791353942.713103,0.10930869140625024,0.44456352539062505,0.048523095703125525,0.46036899215879257,0.010238839449816475,0.4452994965082515,0.05459598382403468,0.44875070682227974
117,1791353942.733103,0.06619833984375025,0.5164141113281251,0.03894301757812552,0.5220941612343276,0.011788941546073937,0.45463929054774527,0.05502450485775369,0.45810867683048184
118,1791353942.7575366,0.01829794921875024,0.564314501953125,0.0006227050781255229,0.5646114237436485,0.013553454566489927,0.46631846636999086,0.05554199877180894,0.46981009124529655
119,1791353942.7775366,0.023087988281250242,0.511624072265625,0.03415297851562552,0.5132822541896666,0.0148432148438956,0.47605830155354883,0.055954214942591916,0.47956511724143724
120,1791353942.7876086,0.05661826171875024,0.49246391601562506,0.05810317382812553,0.4991015076579101,0.01545551982281011,0.4809860239583411,0.056200358488272255,0.4845048076443179
121,1791353942.8076086,0.09014853515625025,0.506834033203125,0.08205336914062553,0.5212871099414332,0.016709146980429024,0.4908022113369358,0.05682604576768136,0.49436343485701933
122,1791353942.8319135,0.06619833984375025,0.535574267578125,0.029362939453125524,0.5404481459892722,0.01828909020866287,0.5028420885055955,0.05767545122854658,0.5064692631026549
123,1791353942.8519135,0.04703818359375024,0.478093798828125,0.024572900390625523,0.4810302471023154,0.01956403252873004,0.5127838538521714,0.05835046962851152,0.5164637542423846
124,1791353942.8774018,0.04703818359375024,0.45414360351562505,0.09642348632812553,0.4666438599677776,0.021124961812489344,0.5253354324976548,0.059312988172493565,0.5290950871204793
125,1791353942.8974018,0.08535849609375025,0.478093798828125,0.08684340820312553,0.4933574068377094,0.022364649722647494,0.5351053142849436,0.06022985929204241,0.5389485234078892
126,1791353942.9077451,0.07577841796875025,0.47330375976562505,0.03415297851562552,0.48054681726093235,0.023034607375050222,0.5401381138668089,0.060726770560561444,0.5440289660038623
127,1791353942.927745,0.04703818359375024,0.506834033203125,0.010202783203125523,0.5091143532781568,0.024319955986290394,0.5498800894758494,0.06161001376950488,0.5538550052656579
128,1791353942.952018,0.05182822265625024,0.46372368164062505,0.019782861328125522,0.4670301694541472,0.025825904868508654,0.561696781930896,0.06257575542251394,0.5657614138137207
129,1791353942.972018,0.08535849609375025,0.43498344726562505,0.005412744140625523,0.44331249706003717,0.027086403669761155,0.5713208786224673,0.06328992367345285,0.5754535898335336
130,1791353942.9982493,0.06619833984375025,0.39666313476562504,0.024572900390625523,0.402899106618231,0.028789811445752128,0.5836862555715582,0.06414509262373817,0.5879056821412226
131,1791353943.0182493,0.032668066406250244,0.430193408203125,0.06768325195312552,0.4367088201755192,0.03004205607913962,0.5929402974437057,0.06483769494190043,0.5972308164784126
132,1791353943.0567563,0.07098837890625025,0.46372368164062505,0.06289321289062552,0.4733228909336402,0.032390777330627375,0.6106666388426715,0.06634828011024992,0.6151138110342477
133,1791353943.0767562,0.08056845703125025,0.458933642578125,0.048523095703125525,0.4684718298628396,0.03365502095708626,0.6198764119643602,0.06718229442253379,0.6244140350995541
134,1791353943.072158,0.07098837890625025,0.449353564453125,-0.01853745117187448,0.45530386877602497,0.03365502095708626,0.6198764119643602,0.06718229442253379,0.6244140350995541
135,1791353943.092158,0.03745810546875024,0.411033251953125,-0.008957373046874478,0.4128337176253534,0.03492434133016845,0.6289791171231432,0.06778185922647918,0.633584106362015
136,1791353943.1172426,0.04703818359375024,0.40624321289062504,0.029362939453125524,0.41001014737299485,0.03643651973250973,0.6402210115633825,0.06845944026428906,0.6449009680398674
137,1791353943.1372426,0.07098837890625025,0.420613330078125,-0.008957373046874478,0.4266557838715514,0.03763837604278598,0.6490800261711496,0.06894925122791472,0.65381612626974
138,1791353943.1620715,0.08535849609375025,0.36792290039062503,-0.03769760742187448,0.37957139393343425,0.039197754732693206,0.6598967088256507,0.06937923488598055,0.6646906111330098
139,1791353943.1820714,0.061408300781250244,0.320022509765625,0.019782861328125522,0.3264609437036196,0.04048558797774611,0.668334646745922,0.06964676617031848,0.6731723070008772
140,1791353943.1927962,0.03745810546875024,0.411033251953125,0.06768325195312552,0.41824928747269785,0.041152111204499964,0.6727687212303298,0.06983906205319682,0.6776346678786077
141,1791353943.2127962,0.023087988281250242,0.478093798828125,0.08205336914062553,0.48563308275704464,0.042299444325817455,0.6811309158892666,0.07036847731165215,0.6860614332329026
142,1791353943.2378988,0.05182822265625024,0.47330375976562505,0.06768325195312552,0.4809195735951414,0.04366453509147453,0.691843417552131,0.07121519898347226,0.6968683595925578
143,1791353943.2578988,0.10930869140625024,0.45414360351562505,0.06768325195312552,0.47199134020239647,0.04483070649006405,0.7004893036417802,0.07199166507974684,0.7056046035861011
144,1791353943.2822785,0.14283896484375025,0.43498344726562505,0.08684340820312553,0.46599929916369576,0.04650006965407883,0.7110733987504118,0.07307874116165625,0.7163296289405239
145,1791353943.3022785,0.08535849609375025,0.45414360351562505,0.10600356445312553,0.4740983454372225,0.04800641230965058,0.7197873766630744,0.07412602940313409,0.7251849084622686
146,1791353943.3122687,0.01829794921875024,0.45414360351562505,0.07247329101562552,0.4602538489468662,0.048723648401544674,0.7241677459559428,0.07470441848127451,0.7296394098026049
147,1791353943.3322687,0.08056845703125025,0.45414360351562505,0.024572900390625523,0.4618890736055154,0.050092442279874694,0.73298408959362,0.07583421115773238,0.7385971540378871
148,1791353943.3570158,0.16199912109375025,0.43498344726562505,-0.013747412109374479,0.46437410131265866,0.05198229085774843,0.7439069666671583,0.07704256779740823,0.7496901299013948
149,1791353943.3770158,0.12846884765625025,0.43498344726562505,-0.02811752929687448,0.45442869591056,0.05371621933961214,0.7527153599513049,0.07780984813832345,0.758630488310398
150,1791353943.4020162,0.05182822265625024,0.37750297851562503,0.0006227050781255229,0.381044684011585,0.055896606226300154,0.7635978440843174,0.07857354167887817,0.7696621983245624
151,1791353943.4220161,0.01829794921875024,0.37750297851562503,0.024572900390625523,0.37874416321230353,0.05748443725736185,0.7721303352925561,0.07913063922990296,0.7783003104655194
152,1791353943.4323475,0.08535849609375025,0.411033251953125,0.014992822265625523,0.42007046050161223,0.058261948051180186,0.7764878214896559,0.07940590985538223,0.7827088156092477
153,1791353943.4523475,0.11888876953125024,0.40624321289062504,0.024572900390625523,0.42399518272494563,0.05984768841911567,0.7848838426507897,0.07991820761166017,0.7912087664903882
154,1791353943.477273,0.10930869140625024,0.40624321289062504,0.06768325195312552,0.42610205424474873,0.06195411099205913,0.7952968996091908,0.08063336638622999,0.8017712954275575
155,1791353943.497273,0.05182822265625024,0.47330375976562505,0.08684340820312553,0.48398800731042607,0.06363246503370015,0.8037182633038329,0.08135291776638384,0.8103273626155656
156,1791353943.5222125,0.04703818359375024,0.49246391601562506,0.03415297851562552,0.4958827736821806,0.06559633125441652,0.8144507654752147,0.08234191236182409,0.8212265939365362
157,1791353943.5422125,0.09972861328125024,0.43498344726562505,0.0006227050781255229,0.4462698549798118,0.06715514658261673,0.823157723075102,0.08306822195557155,0.8300595040535222
158,1791353943.5522506,0.09972861328125024,0.411033251953125,0.019782861328125522,0.423421175805474,0.0679703337521158,0.827509228584127,0.0833934436018095,0.8344734603916646
159,1791353943.5722506,0.09493857421875024,0.44456352539062505,0.03894301757812552,0.45625280229333415,0.06964288605085701,0.836162069654923,0.08403230808999951,0.8432547462718663
160,1791353943.6274624,0.04703818359375024,0.458933642578125,0.043733056640625524,0.4634061493430549,0.0741554442643462,0.8602072637997215,0.08587375752992228,0.8676576910511161
161,1791353943.6474624,0.07098837890625025,0.45414360351562505,0.010202783203125523,0.45977152950023403,0.07572192316867483,0.8689805138269113,0.08652165269934955,0.8765540139917632
162,1791353943.6424215,0.11888876953125024,0.39666313476562504,-0.004167333984374477,0.41411779565153256,0.07572192316867483,0.8689805138269113,0.08652165269934955,0.8765540139917632
163,1791353943.6624215,0.12367880859375024,0.39666313476562504,-0.004167333984374477,0.41551829905528737,0.07745964833062366,0.8775939527977736,0.08698495015964566,0.8852895146001679
164,1791353943.687306,0.05182822265625024,0.391873095703125,0.019782861328125522,0.39578030446446455,0.0796250050878116,0.8881751179038725,0.08750407302605523,0.8960201695804292
165,1791353943.707306,-0.005652246093749761,0.420613330078125,0.053313134765625526,0.42401628702663274,0.08117354666754677,0.8966224387717603,0.08796835910907096,0.9045769036361418
166,1791353943.7322104,0.04703818359375024,0.46372368164062505,0.06768325195312552,0.4709917899763067,0.08288988999958333,0.9072152335315331,0.08868578040629146,0.9153007054854105
167,1791353943.7522104,0.15241904296875025,0.44456352539062505,0.048523095703125525,0.4724645844757735,0.08436066386544978,0.9158083809844589,0.08934980670246288,0.924015746752707
168,1791353943.7624104,0.10451865234375024,0.46372368164062505,0.019782861328125522,0.4757679720246176,0.08519480421540973,0.9202283639200015,0.08968991722212787,0.9285056153193134
169,1791353943.7824104,-0.005652246093749761,0.49246391601562506,0.03415297851562552,0.4936791289945704,0.08673333305054769,0.9290292580679343,0.09033766991588077,0.9374320924814471
170,1791353943.807359,0.003927832031250239,0.48288383789062506,0.053313134765625526,0.4858338389809657,0.08836143374989165,0.9401860071572797,0.09118815446894996,0.9487216401791086
171,1791353943.827359,0.14283896484375025,0.43498344726562505,0.03894301757812552,0.45948898560336693,0.08969097219280682,0.9491650199941472,0.09190605907480907,0.9578128362932097
172,1791353943.8379688,0.20989951171875024,0.40624321289062504,-0.008957373046874478,0.4573528042675242,0.09057117534558748,0.9538832313830443,0.09225363717815888,0.962604327067897
173,1791353943.8579688,0.10451865234375024,0.430193408203125,-0.013747412109374479,0.44292156019873236,0.09245313479561887,0.962697784861612,0.09277649777095393,0.9715668199612599
174,1791353943.8822641,0.003927832031250239,0.391873095703125,0.019782861328125522,0.39239178457600776,0.09459396248752511,0.9732972024733036,0.09332737628164207,0.9823265552987284
175,1791353943.902264,0.04703818359375024,0.40624321289062504,0.010202783203125523,0.40908463124466926,0.09616839627641709,0.981911024475646,0.09375781667425376,0.9910540593815828
176,1791353943.9275377,0.16678916015625025,0.39666313476562504,0.005412744140625523,0.43033657086849075,0.09826485211718941,0.992685289316927,0.09424976398777608,1.0019795820272965
177,1791353943.9475377,0.20510947265625026,0.38708305664062503,-0.004167333984374477,0.4380873830460217,0.10023285755015851,1.0011080984965508,0.09458253506326665,1.0105493093100624
178,1791353943.9578123,0.12367880859375024,0.411033251953125,-0.008957373046874478,0.4293308938781735,0.10134559616226699,1.0054011390710518,0.09471773332052494,1.0149255289489134
179,1791353943.9778123,0.032668066406250244,0.420613330078125,0.024572900390625523,0.4225950821244143,0.10342120483523981,1.0137516847096966,0.09496484970573825,1.0234289162130186
180,1791353944.0030205,0.09972861328125024,0.411033251953125,0.019782861328125522,0.423421175805474,0.10589522175697784,1.024270375804071,0.09531345787636131,1.034131643454121
181,1791353944.0230205,0.17636923828125026,0.41582329101562504,-0.008957373046874478,0.45176913583696093,0.10797780101119915,1.032604277040479,0.09556479122387151,1.0426233393681377
182,1791353944.0473883,0.11409873046875024,0.45414360351562505,0.019782861328125522,0.46867504148510575,0.11066544367291967,1.0428250782557194,0.09584486481062537,1.0530513863876436
183,1791353944.0673883,0.03745810546875024,0.49725395507812503,0.05810317382812553,0.5020364372384214,0.11276778852816317,1.051382623608634,0.09615708457991452,1.0617759557790976
184,1791353944.077481,0.07577841796875025,0.478093798828125,0.043733056640625524,0.48603356813175613,0.11375528678720974,1.0557916058108088,0.09636809410448338,1.0662659094869051
185,1791353944.097481,0.09014853515625025,0.42540336914062504,0.014992822265625523,0.4351086870961108,0.11566749756714485,1.0645732439880509,0.09681160269216757,1.0752058631836574
186,1791353944.1224413,0.08535849609375025,0.449353564453125,0.0006227050781255229,0.45738942543934036,0.11802454824993486,1.0755264822667725,0.09731131491281664,1.086350081721726
187,1791353944.1424413,0.05661826171875024,0.478093798828125,0.024572900390625523,0.48206133994707373,0.119842856723496,1.0843776995947123,0.0976894530179548,1.0953449387827177
188,1791353944.167735,0.10451865234375024,0.46372368164062505,0.03415297851562552,0.47658181621163254,0.12210320043318304,1.0956793206184154,0.098207352365466,1.106827470406067
189,1791353944.187735,0.14283896484375025,0.46372368164062505,0.024572900390625523,0.485846117845535,0.12399341374676202,1.104666310998459,0.09864352130497829,1.11597158100149
190,1791353944.1981027,0.12846884765625025,0.44456352539062505,0.005412744140625523,0.46278533979048825,0.12503725003068022,1.1093324606833963,0.09885902415584577,1.120725626046875
191,1791353944.2181027,0.09493857421875024,0.420613330078125,0.005412744140625523,0.4312287143885838,0.12708395709401157,1.1182813903630822,0.09922862609189605,1.1298450869119827
192,1791353944.2420363,0.11409873046875024,0.41582329101562504,0.03894301757812552,0.4329481357665556,0.12954105565632315,1.1288854956394077,0.09968419782184479,1.1406578306665722
193,1791353944.2620363,0.14283896484375025,0.43498344726562505,0.024572900390625523,0.4584947073918395,0.1316717299942973,1.137693761898156,0.10010306254899169,1.1496543669613735
194,1791353944.2880702,0.13804892578125025,0.43498344726562505,0.005412744140625523,0.4563961032957839,0.13457764028003497,1.149138233725512,0.1006250598045913,1.1613592140822795
195,1791353944.3080702,0.09972861328125024,0.43498344726562505,0.0006227050781255229,0.4462698549798118,0.13683185017667707,1.1579163619274613,0.10097497439546604,1.1703372171713011
196,1791353944.3179321,0.10930869140625024,0.43498344726562505,0.010202783203125523,0.4486235461911508,0.1379312777769626,1.1622390335909605,0.10112964221455073,1.1747560653710534
197,1791353944.337932,0.11888876953125024,0.391873095703125,0.014992822265625523,0.40978512341969414,0.14016876260155453,1.1709307215811986,0.10143405136301376,1.183644753939218
198,1791353944.362435,0.09972861328125024,0.382293017578125,0.024572900390625523,0.39585044528154484,0.1429005889847546,1.1814047597934354,0.10182376730378691,1.1943642092689777
199,1791353944.382435,0.06619833984375025,0.44456352539062505,0.029362939453125524,0.4504232792819855,0.14504479886011082,1.1899118488511058,0.10217505284443862,1.2030660593402136
200,1791353944.4071229,0.10451865234375024,0.46372368164062505,0.024572900390625523,0.47599120688905283,0.14761066714468984,1.200519519977529,0.10264349921708449,1.2139076220345206
201,1791353944.4271228,0.14762900390625025,0.44456352539062505,-0.004167333984374477,0.46845321812816043,0.14975574386076795,1.2091863864174743,0.10299667947084265,1.2227701402547664
202,1791353944.4521902,0.12846884765625025,0.401453173828125,0.019782861328125522,0.42197186777927204,0.15256010587210347,1.2200102944982147,0.10340230244209958,1.2338523982777094
203,1791353944.4721901,0.05661826171875024,0.411033251953125,0.029362939453125524,0.4159520933767998,0.15473957862378837,1.2285695042402789,0.10375110358468392,1.2426148459747743
204,1791353944.481833,0.08535849609375025,0.449353564453125,-0.004167333984374477,0.45740798573554975,0.1557354519025935,1.2326994916007443,0.10391227142934313,1.246835726038376
205,1791353944.501833,0.17636923828125026,0.358342822265625,-0.01853745117187448,0.39982411580237553,0.15788373238642028,1.2411920562087886,0.10416234747594184,1.255521719437687
206,1791353944.5274684,0.15241904296875025,0.339182666015625,-0.01853745117187448,0.37231718021188115,0.16085645168485532,1.2517858866813873,0.10436352510224665,1.2663863744983663
207,1791353944.5474684,0.07098837890625025,0.42540336914062504,0.014992822265625523,0.43154624449231493,0.16316289980645446,1.2599579867190978,0.10449161765221786,1.2747685116640082
208,1791353944.5724726,0.04703818359375024,0.449353564453125,0.06768325195312552,0.4568503466097825,0.16583524645126005,1.270282733537605,0.10478278206312748,1.2853400264156598
209,1791353944.5924726,0.12367880859375024,0.49725395507812503,0.06768325195312552,0.5168548791788249,0.16790821418685895,1.2787222997666994,0.10518379038679791,1.2939812665074368
210,1791353944.6033514,0.18115927734375026,0.48288383789062506,0.024572900390625523,0.5163325595943925,0.16911537025251616,1.2834240333027358,0.1054444691105631,1.2988055257738613
211,1791353944.6233513,0.12846884765625025,0.439773486328125,-0.004167333984374477,0.4581728175785374,0.17146619937496688,1.2921552790639643,0.10588243242689478,1.307775597049281
212,1791353944.6477962,0.06619833984375025,0.401453173828125,0.005412744140625523,0.4069105169123493,0.17426538463568433,1.3027684932013888,0.10633971833318842,1.318666867277563
213,1791353944.6677961,0.09972861328125024,0.411033251953125,0.010202783203125523,0.42308182105031683,0.17646094929634196,1.3113681097090994,0.10668115799435038,1.3274809434638217
214,1791353944.6913822,0.17157919921875026,0.420613330078125,0.0006227050781255229,0.4542635609484561,0.17914173029631184,1.3214595726154128,0.10704256942465605,1.33783604124702
215,1791353944.7113822,0.14283896484375025,0.449353564453125,0.014992822265625523,0.47174821725561566,0.18154556969099683,1.330038093020395,0.10732648533291851,1.3466547802661508
216,1791353944.7220008,0.15241904296875025,0.439773486328125,0.014992822265625523,0.46567914775754343,0.18286555338354177,1.3346176351938317,0.10747849566548431,1.351368073403823
217,1791353944.7420008,0.15241904296875025,0.391873095703125,0.024572900390625523,0.42118869314010304,0.18543603763998,1.343196720778424,0.10778120509690586,1.3602134916760928
218,1791353944.7675807,0.09972861328125024,0.39666313476562504,0.03894301757812552,0.41085763642310913,0.18871427848888625,1.3540362593872683,0.10823215001229745,1.3714012793261245
219,1791353944.7875807,0.09014853515625025,0.468513720703125,0.019782861328125522,0.4775177760882116,0.19117775677032134,1.362537795502733,0.1086199290290298,1.3801653769890951
220,1791353944.8125262,0.13325888671875025,0.401453173828125,0.010202783203125523,0.4231154434091073,0.19420747433962987,1.3731786254146672,0.10908714690382279,1.391127631098135
221,1791353944.8325262,0.16199912109375025,0.34397270507812505,0.03415297851562552,0.38174253498319927,0.1967150681785573,1.3815483297428137,0.10947208248285537,1.399770246257144
222,1791353944.8426926,0.13325888671875025,0.42540336914062504,0.08205336914062553,0.4532755373424021,0.19802365947638137,1.3857512846907005,0.109727007709221,1.4041225049671286
223,1791353944.8626926,0.08056845703125025,0.449353564453125,0.11079360351562553,0.46977135367655487,0.20053259033569543,1.394091483775945,0.11044255680014899,1.4127639375620804
224,1791353944.8868163,0.09972861328125024,0.42540336914062504,0.07247329101562552,0.4429065371992511,0.2034310960104448,1.4042250063868096,0.11150775867838619,1.4232589573340206
225,1791353944.9068162,0.12846884765625025,0.411033251953125,0.03894301757812552,0.43239928035020614,0.20581597296668533,1.4126207679876919,0.11242553226777674,1.4319557078290002
226,1791353944.9333699,0.08535849609375025,0.420613330078125,0.11079360351562553,0.4432571137328471,0.20893322100584022,1.4237518827958537,0.11375947147316623,1.4434901218763043
227,1791353944.9533699,0.07577841796875025,0.46372368164062505,0.12995375976562554,0.4875141036128127,0.2111706293505907,1.4322046731858769,0.11497459760185548,1.4522473682845831
228,1791353944.9624124,0.023087988281250242,0.449353564453125,0.20659438476562553,0.49510899901566247,0.21209753029077638,1.4360723746555373,0.11566982146921607,1.456251604360648
229,1791353944.9824123,-0.07271279296874976,0.530784228515625,0.3263453613281255,0.627311997623693,0.21376567523156986,1.4448138933782109,0.11777625742901503,1.4652829751348027
230,1791353945.007858,0.01829794921875024,0.731965869140625,0.21138442382812553,0.7620972530914615,0.21546583256528512,1.4566772169378877,0.12108046671485934,1.4774960300348863
231,1791353945.027858,0.14283896484375025,0.693645556640625,0.010202783203125523,0.7082734111273743,0.2168433935659776,1.4667413841534278,0.1236203520116078,1.4878283962718941
232,1791353945.0519252,0.10451865234375024,0.554734423828125,0.010202783203125523,0.5645870406348037,0.21869892902140495,1.4792889445456223,0.12625512026844357,1.5006882948847207
233,1791353945.0719252,0.02787802734375024,0.48288383789062506,0.053313134765625526,0.48661717565566476,0.2202081923356849,1.4897084142242525,0.12821147825379334,1.5113441006396622
234,1791353945.0972736,0.00871787109375024,0.449353564453125,0.19222426757812552,0.4888197993218798,0.2219037090463084,1.5027057098162835,0.1307858794676252,1.5246214784893624
235,1791353945.1172736,-0.005652246093749761,0.45414360351562505,0.3167652832031255,0.5537315280375661,0.22304540994999983,1.5127776226730323,0.13327589159952774,1.5349292667226342
236,1791353945.1273298,-0.039182519531249765,0.588264697265625,0.36945571289062556,0.6957644340388165,0.22349954778456763,1.5178684754638283,0.13485766233768734,1.5401504295873107
237,1791353945.1473298,-0.02002236328124976,0.693645556640625,0.35987563476562556,0.7817004066626874,0.22417845517630347,1.5283973653658969,0.138625623016774,1.550958268161796
238,1791353945.1719942,0.01829794921875024,0.784656298828125,0.3263453613281255,0.8500127158440918,0.22488692188739776,1.5421687560981696,0.14384473519200291,1.5651038009550107
239,1791353945.1919942,0.01829794921875024,0.770286181640625,0.40298598632812554,0.8695247677605038,0.2254301276473994,1.5539931236169584,0.1485360136964301,1.5772686258417559
240,1791353945.2177482,0.03745810546875024,0.7942363769531251,0.47004653320312556,0.9236656730209322,0.22613238628640286,1.5699573763037658,0.15535713334304926,1.593749622248977
241,1791353945.2377481,0.12367880859375024,0.8133965332031251,0.47962661132812556,0.9523403037864842,0.22683764649052043,1.5829066932614373,0.16128420582162822,1.6071905650807963
242,1791353945.2472012,0.14762900390625025,0.7559160644531251,0.47483657226562553,0.9048056087655633,0.2273133401981318,1.5892217609916235,0.16434213365477782,1.6137860753939952
243,1791353945.2672012,0.12367880859375024,0.803816455078125,0.4269361816406255,0.9185269970683552,0.2285757691572927,1.6029181106954529,0.1711940407599313,1.628158699707446
244,1791353945.2920845,0.20510947265625026,0.9379375488281251,0.2784449707031255,0.9996641150831118,0.2305244378467824,1.6206530884603025,0.17975662080292584,1.6468061186135359
245,1791353945.3120844,0.20510947265625026,0.9618877441406251,0.22575454101562553,1.0090902045359678,0.23247107525973065,1.6356191705801717,0.186362782344255,1.6625354007192978
246,1791353945.337386,0.18115927734375026,0.8948271972656251,0.18264418945312552,0.9310710481348633,0.23529730677629646,1.655235711532993,0.19424145443422594,1.6831220472476247
247,1791353945.3573859,0.19552939453125026,0.7750762207031251,0.14432387695312554,0.8122833701880015,0.237761276962679,1.6709208678953844,0.20002556566447552,1.6995638259596437
248,1791353945.3669374,0.17636923828125026,0.708015673828125,0.06289321289062552,0.7323577396504443,0.2390279164590698,1.6783505376887342,0.20252201190335764,1.7073400474165101
249,1791353945.3869374,0.13325888671875025,0.664905322265625,0.06289321289062552,0.6810378658300733,0.24174674696793605,1.6936333830529078,0.20715391326353422,1.7232957580291355
250,1791353945.4264994,0.23384970703125024,0.650535205078125,0.024572900390625523,0.6917265109551949,0.24740741655559076,1.7232328540884445,0.21520145257724274,1.7541532328641853
251,1791353945.4464993,0.31049033203125026,0.7223857910156251,-0.09517807617187449,0.7920254689906919,0.25065634388880687,1.7380112744670946,0.21855361283538047,1.7695416001297724
252,1791353945.457527,0.32007041015625026,0.631375048828125,-0.17181870117187448,0.7284237680174209,0.2527005430143227,1.7460571640878109,0.21990385319621467,1.7779006972698572
253,1791353945.477527,0.31049033203125026,0.46372368164062505,-0.11433823242187448,0.5696640506408759,0.2567976974033966,1.7601032627652533,0.2215561334252167,1.7924831026391599
254,1791353945.488201,0.31528037109375023,0.39666313476562504,0.019782861328125522,0.5070845259731686,0.2591573134679427,1.7671639938011101,0.22222998648871314,1.7998381207780285
255,1791353945.508201,0.3679708007812503,0.35355278320312505,-0.14786850585937447,0.5312882228728154,0.2639402401800504,1.7795346150440667,0.22311107268742686,1.8127841700770868
256,1791353945.5327857,0.35839072265625027,0.29607231445312504,-0.25324936523437447,0.5293750716300429,0.27027700633114154,1.7936579210737378,0.22329207458728345,1.8275989025372554
257,1791353945.5527856,0.3967110351562503,0.23380180664062503,-0.2149290527343745,0.5081706680953352,0.275791432496351,1.8042187765550335,0.2227149676107242,1.8387137527929618
258,1791353945.5773993,0.47335166015625024,0.262542041015625,-0.17181870117187448,0.5679012093187672,0.28316611667650843,1.816182535503177,0.22139732302536255,1.8514099563692532
259,1791353945.5973992,0.46856162109375027,0.13800102539062503,-0.2292991699218745,0.5396039150133437,0.28967248703391346,1.8250464054172812,0.21988558408599118,1.8609283172007969
260,1791353945.6225352,0.44940146484375026,-0.06318061523437499,-0.3107298339843745,0.5500059058528913,0.2983536609106899,1.8346565585265886,0.21725256002648438,1.8714107698636069
261,1791353945.6425352,0.47335166015625024,-0.163771435546875,-0.38258041992187447,0.6302782361634901,0.3056090436797932,1.840815672719987,0.21443182793037702,1.8782918403006434
262,1791353945.652338,0.5356221679687503,-0.106290966796875,-0.4592210449218745,0.713493408898286,0.3093735915516114,1.8431831310036277,0.21263775202063487,1.881023893295954
263,1791353945.672338,0.5883125976562503,-0.096710888671875,-0.4640110839843745,0.7554938746337412,0.3175879465469375,1.8469842592809413,0.20814163036443195,1.8856128701603179
264,1791353945.6971278,0.6457930664062502,-0.240412060546875,-0.3921604980468745,0.792866003624291,0.32853682098337855,1.8503622151161105,0.20181283591958435,1.8901071902442912
265,1791353945.7171278,0.6793233398437503,-0.249992138671875,-0.3777903808593745,0.8165181206342432,0.33803284840237013,1.851943093348836,0.19631784508000089,1.8927493558044948
266,1791353945.72718,0.6793233398437503,-0.149401318359375,-0.38258041992187447,0.7938316771782192,0.34311403706141586,1.8523173658558887,0.19339702494427938,1.8937289340180603
267,1791353945.74718,0.5978926757812503,-0.197301708984375,-0.4065306152343745,0.7494469675993474,0.35362301193257845,1.8524302701619013,0.18727375679234354,1.8951566163152536
268,1791353945.7727652,0.6936934570312503,-0.245202099609375,-0.5406517089843745,0.9130383082919017,0.36752857523303256,1.8517039237360533,0.1787979559662897,1.8962735519565848
269,1791353945.7927651,0.7511739257812503,-0.38890327148437503,-0.6029222167968745,1.0387604251472629,0.3789353793336184,1.8502701481297006,0.1714508791620728,1.8964406256817177
270,1791353945.817537,0.7559639648437503,-0.470333935546875,-0.5214915527343745,1.0318182817931671,0.39374465712585066,1.8471642855156034,0.16162677575437173,1.895566925049147
271,1791353945.837537,0.7368038085937503,-0.441593701171875,-0.4783812011718745,0.9832260283920359,0.4061468215912243,1.84366496609527,0.15338507887385652,1.8940915316628355
272,1791353945.863238,0.7894942382812503,-0.546974560546875,-0.5837620605468745,1.1239486044738307,0.4226357092030237,1.8379371323755331,0.1423353460283532,1.8912676161737005
273,1791353945.883238,0.8661348632812503,-0.824796826171875,-0.7274632324218745,1.3998864812477154,0.43602574246709025,1.832090795644942,0.13305965260125618,1.8879565680203718
274,1791353945.8920062,0.7368038085937503,-0.954127880859375,-0.5406517089843745,1.3211904237539653,0.4420695579832496,1.8287423625736818,0.1287692025599167,1.8858169662761533
275,1791353945.9120061,0.7703340820312503,-0.867907177734375,-0.5406517089843745,1.2802272210547243,0.4560483065540689,1.8195172074659727,0.11882871547035498,1.8795593073366799
276,1791353945.936591,0.8134444335937503,-0.877487255859375,-0.6795628417968745,1.3760382940497395,0.47357431645428005,1.8066600106615653,0.10619245838152572,1.870713731586396
277,1791353945.956591,0.7942842773437503,-1.1984198730468751,-0.6460325683593745,1.5762156529898381,0.48810486874487946,1.7946556025919487,0.09546629317181764,1.8622966755968537
278,1791353945.9818714,0.8038643554687502,-1.2032099121093751,-0.5358616699218745,1.5430682823138122,0.5067469495465617,1.7772042358664104,0.08170095982907821,1.8498438890061102
279,1791353946.0018713,0.7942842773437503,-1.1217792480468751,-0.5023313964843745,1.4634251010824018,0.5216801318031601,1.7619814955659525,0.07088710363389952,1.8389545758654824
280,1791353946.0120776,0.8086543945312503,-1.093039013671875,-0.5023313964843745,1.449480267922758,0.5293846178434187,1.753683035973689,0.06542739678958742,1.8330120044674503
281,1791353946.0320776,0.8373946289062503,-1.011608349609375,-0.5358616699218745,1.4183543093359643,0.544686658061847,1.7367037474817917,0.0547761537346778,1.820940385901155
282,1791353946.0570364,0.9044551757812502,-1.112199169921875,-0.5981321777343745,1.5533152483039834,0.5641789217004091,1.7147173473597859,0.041355086793632964,1.8056200265369582
283,1791353946.0770364,0.9667256835937503,-1.227160107421875,-0.6029222167968745,1.674513564016347,0.5802622707535412,1.6962329238498637,0.03041214303588679,1.7929961888571733
284,1791353946.1025934,0.9619356445312502,-1.184049755859375,-0.6604026855468745,1.6623554721081533,0.6014284227754103,1.6715338456359696,0.016104674485182963,1.7765136941124222
285,1791353946.1225934,0.8757149414062503,-1.1217792480468751,-0.6220823730468745,1.5531425622931063,0.6182641565646573,1.6516458197988966,0.004663934152562693,1.7635776800678657
286,1791353946.1316397,0.8469747070312503,-1.088248974609375,-0.5358616699218745,1.4794592641842115,0.6259057706192387,1.6425000482636185,-0.0005203081793794277,1.75771576569167
287,1791353946.1516397,0.8900850585937503,-1.112199169921875,-0.6508226074218745,1.566144460590451,0.6428716026526028,1.6220124972306662,-0.012042645034948472,1.7448075721892733
288,1791353946.1920972,0.9044551757812502,-1.270270458984375,-0.7609935058593745,1.735147636348564,0.6774886091589211,1.579556128213804,-0.036138557621811965,1.7190969644161604
289,1791353946.2120972,0.9092452148437503,-1.303800732421875,-0.6412425292968745,1.7140055985787002,0.6947550074112292,1.557855123607697,-0.04836686187453755,1.70643970294919
290,1791353946.222089,0.9858858398437503,-1.097829052734375,-0.5933421386718745,1.5903629811322277,0.7035074728898949,1.5468399124669814,-0.05448486537629286,1.7001779553234588
291,1791353946.242089,0.9331954101562503,-1.045138623046875,-0.6220823730468745,1.5330214916225542,0.7212773545472907,1.524884413135088,-0.06671704417827226,1.6881838346545572
292,1791353946.2517307,0.8613448242187502,-1.1169892089843751,-0.6699827636718745,1.5615558596519603,0.729856600415428,1.5143242137782624,-0.07266375174075922,1.6826017064124714
293,1791353946.2717307,0.8948750976562503,-1.2750604980468752,-0.7226731933593745,1.7172178832300418,0.7476177039002004,1.4921165840154436,-0.08523786434677538,1.6711102970771627
294,1791353946.297944,0.9331954101562503,-1.423551708984375,-0.8280540527343745,1.8928884425498638,0.7709988289124574,1.4620702237270342,-0.10229505546066736,1.6560654611655004
295,1791353946.317944,0.9044551757812502,-1.485822216796875,-0.7849437011718745,1.908361453953122,0.788918487104978,1.43822042721399,-0.115776521495148,1.6444678712219085
296,1791353946.342576,0.9571456054687503,-1.4810321777343751,-0.7274632324218745,1.907560425275815,0.811116978999554,1.4077720669476248,-0.13268374732529728,1.6301343266441677
297,1791353946.362576,0.9763057617187503,-1.375651318359375,-0.6556126464843746,1.8098114355643136,0.8293376450611157,1.3824728320638022,-0.14642703537640686,1.618787489943986
298,1791353946.372047,0.9523555664062503,-1.289430615234375,-0.6220823730468745,1.7194763491319964,0.8380417098888021,1.370396440220153,-0.1528664922725384,1.6135886946000597
299,1791353946.392047,0.9763057617187503,-1.2415302246093751,-0.6891429199218745,1.7232203002118684,0.8565581711997288,1.344923329152628,-0.16639191354950394,1.6031833740538473
300,1791353946.4176393,0.9427754882812502,-1.3181708496093751,-0.7178831542968745,1.7724999952854956,0.8803815937750761,1.3123037115645957,-0.18380385568930063,1.590910632125642
301,1791353946.4376392,0.8948750976562503,-1.351701123046875,-0.6460325683593745,1.7450660290752542,0.898963036582619,1.2866309689214075,-0.1974158007285725,1.5819376693494551
302,1791353946.4623082,0.9044551757812502,-1.294220654296875,-0.6125022949218745,1.6935776711715014,0.9217734566735011,1.2548194749152155,-0.21401548386343608,1.571636359781617
303,1791353946.4823081,0.9475655273437503,-1.222370068359375,-0.5981321777343745,1.6582614735536758,0.9402707214180661,1.2291224888226946,-0.2272706945518552,1.564130138667441
304,1791353946.507808,0.8805049804687503,-1.1217792480468751,-0.6077122558593745,1.5501586653954416,0.9638131705205709,1.1967903953471848,-0.24394210309686604,1.5558762250666047
305,1791353946.527808,0.8230245117187502,-1.150519482421875,-0.6460325683593745,1.5551278100861023,0.9820635237745283,1.1718270905220993,-0.2569370584486845,1.550369035686083
306,1791353946.5369632,0.8709249023437503,-1.260690380859375,-0.6220823730468745,1.653734229182385,0.9903278697131563,1.1604582348708097,-0.2628641344047286,1.548066586929135
307,1791353946.5569632,0.8373946289062503,-1.1600995605468751,-0.5933421386718745,1.5489078889416903,1.0082360102354426,1.1357167760417342,-0.2756929696836648,1.5435022064289743
308,1791353946.582188,0.7080635742187503,-1.088248974609375,-0.5358616699218745,1.4045595698172606,1.0303582125111854,1.1049391496828096,-0.2915824104742102,1.5386841367509339
309,1791353946.6021879,0.7463838867187502,-1.1600995605468751,-0.4735911621093745,1.4584952812959489,1.0474489704791479,1.0808242844438773,-0.3038051552501735,1.535456952167018
310,1791353946.6271431,0.8900850585937503,-1.2032099121093751,-0.4783812011718745,1.5712460271277493,1.0686383197478964,1.050824778533864,-0.3185503543263204,1.5322189471011562
311,1791353946.6471431,0.8805049804687503,-1.1553095214843752,-0.4448509277343745,1.5191844716718454,1.0857287708209276,1.0268507959182274,-0.3299798979052664,1.530397416976319
312,1791353946.6576986,0.8326045898437503,-1.131359326171875,-0.4640110839843745,1.479361556214475,1.0947519135481538,1.0142855704633538,-0.33582681121197216,1.5297178229321633
313,1791353946.6776986,0.8134444335937503,-1.188839794921875,-0.4688011230468745,1.5148618410616044,1.111753048248002,0.9905685726606656,-0.34664267138373345,1.5288499203832153
314,1791353946.7024658,0.8661348632812503,-1.217580029296875,-0.5167015136718746,1.5810348457148615,1.1327684138454706,0.9611339206273313,-0.35985811099923765,1.5285419696031863
315,1791353946.7224658,0.8565547851562503,-1.169679638671875,-0.5071214355468745,1.535906477455174,1.1497772272356965,0.9373493212781089,-0.37046481759608235,1.5290047754820246
316,1791353946.7473292,0.8565547851562503,-1.1217792480468751,-0.5358616699218745,1.509709412640109,1.1709449629780924,0.9079431361599255,-0.3836178278954377,1.5305670461312373
317,1791353946.7673292,0.8517647460937503,-1.097829052734375,-0.4592210449218745,1.463426041798814,1.187980520124754,0.8845077465598137,-0.3941035982517196,1.532634762777862
318,1791353946.7775786,0.8852950195312503,-1.088248974609375,-0.4592210449218745,1.4761155342466699,1.1967364736548445,0.872618871216706,-0.39937719776282943,1.5339960977369664
319,1791353946.7975786,0.8900850585937503,-1.073878857421875,-0.5214915527343745,1.4891006183340534,1.2139224803598139,0.849656366748792,-0.409595246886592,1.5373002296727105
320,1791353946.8229265,0.9092452148437503,-1.140939404296875,-0.5550218261718745,1.560935236491485,1.2358574730283165,0.8207085350219475,-0.4226495923676107,1.5425754020553792
321,1791353946.8429265,0.8805049804687503,-1.136149365234375,-0.4879612792968745,1.5179692390973507,1.2532531295161322,0.7978786050563674,-0.4329691592748684,1.547486984737468
322,1791353946.8671458,0.8086543945312503,-1.069088818359375,-0.4927513183593745,1.4281725011638648,1.2742270953361279,0.770373602976284,-0.445372708491277,1.5541837176216533
323,1791353946.8871458,0.8278145507812503,-1.021188427734375,-0.5358616699218745,1.4195951763496621,1.2914038343747731,0.7479318896945211,-0.4556219209622791,1.5603580710597298
324,1791353946.8971987,0.9188252929687503,-1.102619091796875,-0.5837620605468745,1.5494472962730963,1.3000594994380066,0.7367423943981014,-0.46084505320870556,1.5637526085827589
325,1791353946.9171987,0.8469747070312503,-1.1217792480468751,-0.4927513183593745,1.4894826945769415,1.3173453545444118,0.7144838102192984,-0.47129239664235745,1.5709877215745913
326,1791353946.942001,0.7176436523437503,-1.059508740234375,-0.4592210449218745,1.359579034290191,1.3384769376435888,0.6869633300068925,-0.48407583660078535,1.5804330245090008
327,1791353946.962001,0.7511739257812503,-1.021188427734375,-0.4783812011718745,1.3549673964147129,1.355164078729723,0.6649793206294606,-0.494244207865136,1.5883779506630133
328,1791353946.986962,0.8326045898437503,-1.112199169921875,-0.4544310058593745,1.4617540612873803,1.3758314718730023,0.6376638711109308,-0.5067775503070012,1.5988592611645263
329,1791353947.006962,0.7799141601562503,-1.136149365234375,-0.3346800292968745,1.418136876096542,1.3923260228076582,0.6156878381563388,-0.5164971983991226,1.6076108433931267
330,1791353947.0175445,0.7942842773437503,-1.021188427734375,-0.3155198730468745,1.3316403825588965,1.4009939355098358,0.6040917765387538,-0.5213847061262555,1.612312901889533
331,1791353947.0375445,0.8661348632812503,-1.016398388671875,-0.3730003417968745,1.386500826132678,1.4174089759895034,0.5824071123563898,-0.5302689352950304,1.6215521556452774
332,1791353947.062934,0.8134444335937503,-1.150519482421875,-0.4592210449218745,1.4819820829133172,1.438319924501247,0.5548819724779527,-0.5414402020846262,1.6339570682951672
333,1791353947.082934,0.7415938476562502,-1.212789990234375,-0.4783812011718745,1.4998898522654731,1.4546538080064386,0.5329070241271379,-0.5503265409430954,1.6440398107035203
334,1791353947.1078813,0.8086543945312503,-1.1217792480468751,-0.4879612792968745,1.4664299578351356,1.474872665014896,0.5052396314438895,-0.5615565016732575,1.6570643221556627
335,1791353947.1278813,0.7894942382812503,-1.0786688964843751,-0.5550218261718745,1.4473689813068655,1.4910476811342341,0.48308548925127054,-0.5707734401522936,1.6680458918519596
336,1791353947.1377127,0.7224336914062502,-1.212789990234375,-0.6172923339843746,1.540720553665535,1.498921017816981,0.4721390650667126,-0.5754890240967238,1.6735791380366103
337,1791353947.1577127,0.7368038085937503,-1.2750604980468752,-0.6460325683593745,1.608109823805206,1.5147240273976925,0.4494793178647203,-0.5855379468228838,1.6850149030597854
338,1791353947.1821787,0.7703340820312503,-1.184049755859375,-0.6125022949218745,1.5396582359647668,1.5339216437392575,0.42140518927731757,-0.5982962451160229,1.6995459215924498
339,1791353947.2021787,0.7080635742187503,-1.140939404296875,-0.5550218261718745,1.4529783126185685,1.5494785115087975,0.39841067892595455,-0.6089125067175448,1.711837950142128
340,1791353947.2269983,0.7176436523437503,-1.150519482421875,-0.5310716308593745,1.4562776412089875,1.568542345493025,0.3698897911152962,-0.622132637518276,1.7274815674390058
341,1791353947.2469983,0.7655440429687502,-1.2032099121093751,-0.5023313964843745,1.511988295661422,1.5838247368580696,0.34682405936737454,-0.6327377574251923,1.7404438499736379
342,1791353947.2726827,0.7799141601562503,-1.164889599609375,-0.4688011230468745,1.4781773809189243,1.6034838418603616,0.3170840914509395,-0.6461848785201433,1.7576284161866027
343,1791353947.2926826,0.7176436523437503,-1.112199169921875,-0.4065306152343745,1.3846539446544122,1.6187421615278907,0.29398414636818393,-0.6563982667897087,1.77133044587066
344,1791353947.302125,0.7128536132812503,-1.088248974609375,-0.4017405761718745,1.3615585170125448,1.6258783577681961,0.2831558509540657,-0.6610692904084126,1.7778274035770767
345,1791353947.322125,0.7607540039062503,-1.136149365234375,-0.4113206542968745,1.4278538844129232,1.640936785320035,0.2603239775953606,-0.6706985989020212,1.7917250674410554
346,1791353947.3466089,0.7751241210937503,-1.164889599609375,-0.4544310058593745,1.4711535342940287,1.6594264201614135,0.23234048703917698,-0.6823083194303181,1.8092050156384023
347,1791353947.3666089,0.7703340820312503,-1.169679638671875,-0.4448509277343745,1.4695092388170383,1.6745825619033563,0.2094087861374562,-0.6917182487449096,1.8238840237222036
348,1791353947.392247,0.7703340820312503,-1.1553095214843752,-0.4879612792968745,1.4718223053291546,1.6940594894323713,0.17995131272206766,-0.7037651652314642,1.8432323338308527
349,1791353947.412247,0.7511739257812503,-1.164889599609375,-0.5023313964843745,1.4743021664318503,1.7092564117119369,0.15693850510584115,-0.7132386111880293,1.858735186047935
350,1791353947.4222105,0.7128536132812503,-1.1984198730468751,-0.4352708496093745,1.4607639024159549,1.7167855578569262,0.14542772429912645,-0.7179507747348863,1.8665356116622485
351,1791353947.4422104,0.6697432617187503,-1.140939404296875,-0.3777903808593745,1.375872208006561,1.7317058608707343,0.12227871852286086,-0.7272103718448207,1.8821775151394
352,1791353947.4672792,0.6936934570312503,-1.136149365234375,-0.4113206542968745,1.3932805435739242,1.7501657746150172,0.09333394372983833,-0.73855941510263,1.9019099540521593
353,1791353947.4872792,0.6601631835937503,-1.150519482421875,-0.4879612792968745,1.413370693943375,1.7647148567252797,0.07027550164374713,-0.7476045112388319,1.9178294180929798
354,1791353947.5133588,0.5787325195312503,-1.169679638671875,-0.4879612792968745,1.3932652282963212,1.7832641091102952,0.04017958906411778,-0.7595388518659038,1.9386966110539503
355,1791353947.5333588,0.5931026367187503,-1.1169892089843751,-0.4879612792968745,1.3555596042827909,1.7971131625080794,0.017131613598354748,-0.7687821163416807,1.9547212469943298
356,1791353947.5429068,0.5883125976562503,-1.145729443359375,-0.4640110839843745,1.3689828180083132,1.8035789520482157,0.006158692686218228,-0.7732146278680905,1.9623444719304848
357,1791353947.5629067,0.6170528320312503,-1.150519482421875,-0.4592210449218745,1.3839556514026103,1.8168992425356612,-0.016822803222077035,-0.7824914969301519,1.9783070557936395
358,1791353947.5876055,0.5739424804687503,-1.164889599609375,-0.4496409667968745,1.3742469753238462,1.833087720028344,-0.04523549084093148,-0.7939129810842354,1.9981377981721855
359,1791353947.6076055,0.5404122070312503,-1.126569287109375,-0.4304808105468745,1.3215587162194522,1.8459016779179411,-0.06822895045099817,-0.8030944983483905,2.0141918894428525
360,1791353947.632934,0.5547823242187503,-1.131359326171875,-0.3586302246093745,1.310104190583714,1.8617759781432406,-0.0972699443232068,-0.8144771414334967,2.0344641183312966
361,1791353947.652934,0.5787325195312503,-1.049928662109375,-0.3107298339843745,1.2384807444646557,1.874130705058252,-0.12003350398998408,-0.8231209423975289,2.0504394718049226
362,1791353947.6627042,0.6074727539062502,-1.011608349609375,-0.3634202636718745,1.234685744546029,1.8801299884956142,-0.13099627717982212,-0.8272041163181806,2.058231145505585
363,1791353947.6827042,0.6505831054687503,-1.069088818359375,-0.4352708496093745,1.3250169776957859,1.8924557709623937,-0.15319244899780757,-0.835506838596868,2.074350126864061
364,1791353947.7074971,0.5978926757812503,-1.150519482421875,-0.4065306152343745,1.3588369557485553,1.9077649448448268,-0.18070783888056557,-0.8458207173436181,2.0946682538529444
365,1791353947.727497,0.5643624023437502,-1.193629833984375,-0.3634202636718745,1.3694273948640396,1.9200055087346721,-0.20309079152493414,-0.8540476552510057,2.1111760752276094
366,1791353947.7526867,0.5691524414062503,-1.1553095214843752,-0.3777903808593745,1.342162495326487,1.9352512368242085,-0.23149076960168793,-0.8642554032713531,2.132070057039435
367,1791353947.7726867,0.6601631835937503,-1.131359326171875,-0.3777903808593745,1.3632736063456177,1.9473842459610726,-0.25408734770968827,-0.8722777786416653,2.1488914129838106
368,1791353947.7822459,0.6553731445312503,-1.136149365234375,-0.38258041992187447,1.36627856471616,1.9532566124219921,-0.2648931941252988,-0.876082122240138,2.157058108436795
369,1791353947.8022459,0.5547823242187503,-1.1169892089843751,-0.4496409667968745,1.3257546225735464,1.9655152502141133,-0.28748999727091695,-0.8840960911811994,2.1742876065040146
370,1791353947.8272758,0.5835225585937502,-1.188839794921875,-0.5071214355468745,1.4181011193736521,1.9806925158716633,-0.3158564360107378,-0.8944171991536908,2.1961079792991414
371,1791353947.8472757,0.6362129882812503,-1.227160107421875,-0.4592210449218745,1.456562001359559,1.992830320593419,-0.3387465518570898,-0.9028766749515743,2.213889835389997
372,1791353947.8724558,0.4877217773437503,-1.093039013671875,-0.3538401855468745,1.2481224677137972,2.00794221636107,-0.3676242450153721,-0.9134651003811818,2.236380562288657
373,1791353947.8924558,0.44940146484375026,-0.954127880859375,-0.3107298339843745,1.0994883898272265,2.0195504792547947,-0.39019135218584633,-0.9216105778039927,2.2539297874377318
374,1791353947.9324305,0.6074727539062502,-1.0020282714843751,-0.3203099121093745,1.2147766228356238,2.0424406744129913,-0.4343959506789907,-0.9373410618977174,2.2888582343130035
375,1791353947.9524305,0.6697432617187503,-0.982868115234375,-0.3586302246093745,1.2422565783949038,2.054090979893889,-0.45617212406599944,-0.9450491534785112,2.306621048838923
376,1791353947.9479563,0.5931026367187503,-0.954127880859375,-0.3442601074218745,1.1750088392340103,2.054090979893889,-0.45617212406599944,-0.9450491534785112,2.306621048838923
377,1791353947.9679563,0.5356221679687503,-0.9876581542968751,-0.3250999511718745,1.169636573821377,2.0658115381811846,-0.4772877531528592,-0.9525184730946691,2.3243649352411975
378,1791353947.9923136,0.6362129882812503,-1.0403485839843751,-0.3921604980468745,1.2809691639084937,2.080085215409534,-0.5028511392264543,-0.9615609065666241,2.3461059542620615
379,1791353948.0123136,0.6793233398437503,-1.1553095214843752,-0.4688011230468745,1.4198573109502708,2.0920207097817465,-0.5239863713843842,-0.9691634373899353,2.3644005870253397
380,1791353948.0377645,0.5883125976562503,-1.231950146484375,-0.4448509277343745,1.43586392944807,2.1073506204330053,-0.5514044884942564,-0.9791308360388449,2.3882359057373526
381,1791353948.0577645,0.6074727539062502,-1.231950146484375,-0.4209007324218745,1.4366216400690153,2.1193839257126377,-0.5734142938170844,-0.9870871960642588,2.4072667715807605
382,1791353948.0827775,0.6841133789062502,-1.093039013671875,-0.38258041992187447,1.3450327796432733,2.1345989382019956,-0.6011734829171775,-0.9970525311372819,2.431467855716608
383,1791353948.1027775,0.6410030273437503,-1.088248974609375,-0.3873704589843745,1.3210702419992564,2.146927444729162,-0.6233118544771492,-1.004980363964837,2.4510815271667177
384,1791353948.1123316,0.5547823242187503,-1.140939404296875,-0.3346800292968745,1.312073501581761,2.1527903085776607,-0.6338985267474712,-1.008716866964118,2.4604558871510824
385,1791353948.1323316,0.6410030273437503,-1.093039013671875,-0.3490501464843745,1.3143268890323294,2.165015955729543,-0.6560866771033299,-1.0163909339622068,2.4800795041846064
386,1791353948.1569026,0.7415938476562502,-1.035558544921875,-0.4496409667968745,1.3507479164760317,2.1803306617810563,-0.6831796322620981,-1.025876545894674,2.504595554587044
387,1791353948.1769025,0.6122627929687503,-1.0403485839843751,-0.3969505371093745,1.2707323214444537,2.1929572842069986,-0.7050383879169277,-1.0337092755438708,2.524815962627468
388,1791353948.1877446,0.5883125976562503,-1.059508740234375,-0.4161106933593745,1.28133469176562,2.1997517490441507,-0.7168181754562091,-1.0379796574904332,2.5357716426072607
389,1791353948.2077446,0.6745333007812503,-1.1217792480468751,-0.4640110839843745,1.388772890458269,2.21229948295126,-0.7385603708139773,-1.0459956381491875,2.5561391391374646
390,1791353948.232811,0.7272237304687503,-1.1217792480468751,-0.4256907714843745,1.4030166315594623,2.228302132371707,-0.765940650540092,-1.056207858647998,2.5821639208136777
391,1791353948.252811,0.7415938476562502,-1.112199169921875,-0.3586302246093745,1.3840390408004681,2.2413583328960196,-0.7878608854717997,-1.0643102538300115,2.603299496351992
392,1791353948.2780554,0.6697432617187503,-1.231950146484375,-0.4113206542968745,1.4613151202570074,2.258038350122441,-0.8158171736250739,-1.074461017598023,2.6303538411672025
393,1791353948.2980554,0.6793233398437503,-1.452291943359375,-0.5167015136718746,1.6845214581695966,2.2712945060721044,-0.8386696901862446,-1.08268871647583,2.652236874665326
394,1791353948.3223367,0.6457930664062502,-1.572042919921875,-0.5214915527343745,1.7777291881127988,2.2873874207302585,-0.8677600518691488,-1.093069976754444,2.679543001001651
395,1791353948.3423367,0.6170528320312503,-1.572042919921875,-0.5167015136718746,1.7660842544525126,2.3005487822517448,-0.8928431426199991,-1.1018954722054148,2.7025667815079677
396,1791353948.3523345,0.6362129882812503,-1.548092724609375,-0.5646019042968745,1.766389923199828,2.307080907423042,-0.9058407661021427,-1.1064563057024739,2.714298318784656
397,1791353948.3723345,0.6074727539062502,-1.500192333984375,-0.5023313964843745,1.694679030842676,2.320053430353499,-0.9325138915498119,-1.1158117851338276,2.738113587394057
398,1791353948.3974192,0.5691524414062503,-1.495402294921875,-0.5119114746093745,1.6799452023959145,2.3360971154706762,-0.9665859466155116,-1.1276938333771802,2.7682722963866717
399,1791353948.4174192,0.5931026367187503,-1.524142529296875,-0.5023313964843745,1.7108822341669667,2.348713339935824,-0.994205972177695,-1.1372676885494792,2.792539644074004
400,1791353948.442204,0.7415938476562502,-1.581622998046875,-0.5502317871093745,1.831460554414963,2.3644837191791055,-1.0290728524074957,-1.1493089260547984,2.823240195472994
401,1791353948.462204,0.7368038085937503,-1.452291943359375,-0.5741819824218745,1.7267648044950186,2.3775182721193593,-1.0575390362191874,-1.1592546722418284,2.848658165260153
402,1791353948.4728096,0.5978926757812503,-1.409181591796875,-0.5167015136718746,1.6156264619777816,2.3844550730911003,-1.0726458749662047,-1.1646052995206406,2.8622544737223246
403,1791353948.4928095,0.5787325195312503,-1.495402294921875,-0.5023313964843745,1.6803262137794974,2.3973392100949007,-1.1012179397231487,-1.1747105241793423,2.887881759117614
404,1791353948.5180461,0.6362129882812503,-1.461872021484375,-0.5550218261718745,1.688160537740334,2.413457761529118,-1.1374604698013755,-1.187550252184352,2.920422963974401
405,1791353948.5380461,0.6122627929687503,-1.413971630859375,-0.3873704589843745,1.588784873109881,2.4261883164454465,-1.1661880691104212,-1.1976129881531095,2.9462961882310648
406,1791353948.547982,0.4973018554687503,-1.2750604980468752,-0.09038803710937449,1.3715897369055707,2.432390937900007,-1.1803228330122335,-1.202218243175585,2.9588876911995645
407,1791353948.567982,0.43024130859375026,-0.958917919921875,0.12037368164062553,1.057885146884801,2.4443947708238865,-1.2078580006389081,-1.2100527329907067,2.9829874894066957
408,1791353948.5922875,0.4254512695312503,-0.8535370605468751,0.09642348632812553,0.9585571371537654,2.4583544468167573,-1.2396054624836181,-1.217750465094462,3.0104890772166453
409,1791353948.6122875,0.33923056640625027,-0.934967724609375,-0.02811752929687448,0.9950038284847441,2.469265244760923,-1.264493253609419,-1.223032009022504,3.0318346479485947
410,1791353948.6371188,0.10451865234375024,-0.963707958984375,0.0006227050781255229,0.9693593588856497,2.481606163634015,-1.294294105416387,-1.2286569911995886,3.056659023300696
411,1791353948.6571188,-0.09666298828124976,-0.7337860839843751,0.09642348632812553,0.7463800902142659,2.490066778347867,-1.317242582328863,-1.2323623934067622,3.074780910896804
412,1791353948.682936,-0.22599404296874978,-0.451173779296875,0.09642348632812553,0.5137397933760404,2.498725263550204,-1.3447167655505767,-1.236054665472717,3.09511264064714
413,1791353948.702936,-0.19725380859374977,-0.211671826171875,0.06289321289062552,0.2960904983740304,2.503791799186566,-1.3638021299646852,-1.2382469640908287,3.108405566757701
414,1791353948.7132363,-0.15414345703124976,-0.010490185546874989,0.11079360351562553,0.19011962528453036,2.505738298076131,-1.3723287057141977,-1.2390725025484854,3.1140506035619326
415,1791353948.7332363,-0.18288369140624977,0.166741259765625,0.22096450195312553,0.33177462744157643,2.508445298746471,-1.3861667614103887,-1.2399373511367258,3.122691265877272
416,1791353948.7579172,-0.26431435546874976,0.36313286132812506,0.2688648925781255,0.5234652652700644,2.510456980389841,-1.399701182579906,-1.2399378174928861,3.130335995089455
417,1791353948.7779171,-0.4798661132812498,0.607424853515625,0.3071852050781255,0.8328260259880342,2.5107263417695935,-1.4075677537764302,-1.239074064393025,3.133735515607276
418,1791353948.8028455,-0.5852469726562498,1.0289482910156251,0.19222426757812552,1.1992492541724709,2.509020356158583,-1.4128426288014513,-1.2372252484096073,3.134012405316698
419,1791353948.8228455,-0.26431435546874976,1.234919970703125,0.053313134765625526,1.264014122898477,2.506582611089112,-1.413044053567297,-1.2355961345722986,3.131508852183914
420,1791353948.8329298,0.23863974609375024,1.364251025390625,-0.11912827148437448,1.3900796141811145,2.50551840675706,-1.4111645524307128,-1.2349476954584333,3.1295532734167515
421,1791353948.8529298,0.3679708007812503,1.512742236328125,-0.15265854492187447,1.5643197291910231,2.5046343158011815,-1.4036806561874329,-1.2342622547660824,3.1252065138137493
422,1791353948.8778286,0.032668066406250244,1.7474541503906251,-0.08559799804687448,1.7498543446669432,2.5044469280153416,-1.3896730920795919,-1.2339818444363895,3.118678712290538
423,1791353948.8978286,-0.29305458984374977,1.8576250488281252,-0.09038803710937449,1.882769718238178,2.5039284069555627,-1.374701616973221,-1.234054369139731,3.111647825326746
424,1791353948.9377804,-0.11103310546874977,1.7809844238281252,-0.17660874023437448,1.7931604823761889,2.5018371801277226,-1.338378078089213,-1.2349775378547172,3.0944490098860746
425,1791353948.9577804,0.3775508789062503,1.8193047363281252,-0.3777903808593745,1.8960854310021746,2.501347113620753,-1.3175215360815555,-1.2362019554079104,3.0855786581145384
426,1791353948.9527998,0.7990743164062503,1.766614306640625,-0.4688011230468745,1.9947983267833025,2.501347113620753,-1.3175215360815555,-1.2362019554079104,3.0855786581145384
427,1791353948.9727998,0.8230245117187502,1.7091338378906251,-0.5023313964843745,1.9623569131548335,2.5049263821845473,-1.2926670248167822,-1.2396226976182536,3.079335748122181
428,1791353948.9979162,0.8182344726562503,1.7330840332031252,-0.5119114746093745,1.9837190517367642,2.511838766114163,-1.2596518596023396,-1.2451847314970834,3.073522703658949
429,1791353949.0179162,0.8038643554687502,1.651653369140625,-0.5023313964843745,1.904335470887603,2.5189505367826754,-1.2322285503517987,-1.2504707390272023,3.070370674075536
430,1791353949.0423913,0.8421846679687502,1.5750127441406252,-0.3969505371093745,1.8296201485768673,2.529369689101138,-1.1977800532222456,-1.2576199561535706,3.0682235958541844
431,1791353949.0623913,0.9906758789062503,1.392991259765625,-0.38258041992187447,1.751636698787078,2.5393559421109173,-1.169400715157616,-1.2637549752863642,3.068045513173852
432,1791353949.0724733,1.3020284179687502,1.139119189453125,-0.5214915527343745,1.806882389241718,2.5453685380158766,-1.1553259185633715,-1.2670673576091664,3.0690615277547066
433,1791353949.0924733,1.5990108398437504,0.789446337890625,-0.7274632324218745,1.9259449475185983,2.5598583557429277,-1.1287005635356233,-1.2745260299895442,3.074289570732306
434,1791353949.1180983,1.6900215820312503,0.41582329101562504,-0.7945237792968746,1.9132041169072014,2.581959788870987,-1.097387494257902,-1.2855740628019134,3.0860130159883266
435,1791353949.1380982,1.5511104492187504,0.382293017578125,-0.7705735839843745,1.773661530647577,2.601483887927822,-1.0754167846178517,-1.2952511289920732,3.098695720289602
436,1791353949.1630256,1.5654805664062503,0.272122119140625,-0.9573851074218745,1.8550919371919043,2.6279946358945883,-1.050917230877613,-1.3087336647587782,3.118263400952386
437,1791353949.1830256,1.9343135742187503,-0.05839057617187499,-1.1489866699218745,2.2505885520127307,2.6513241334229436,-1.0338884176503784,-1.321088044964453,3.137470086418439
438,1791353949.192937,2.07322470703125,-0.475123974609375,-1.1968870605468744,2.440602817501848,2.6641302248208394,-1.0271119471176304,-1.3280358870879378,3.1490043067784383
439,1791353949.2129369,2.1115450195312504,-0.542184521484375,-1.2304173339843745,2.503300469502949,2.6923725418242475,-1.0170148212533499,-1.3435938660599662,3.1762294513356726
440,1791353949.2374706,2.3797872070312502,-0.724206005859375,-1.3597483886718746,2.834921016566096,2.73008458210121,-1.0088168944457536,-1.3645819278088043,3.2145228556736543
441,1791353949.2574706,2.6192891601562502,-1.150519482421875,-1.4268089355468745,3.196897640291403,2.763714706663418,-1.0059484529419316,-1.3833048577631348,3.2501667033115416
442,1791353949.2824483,2.7582002929687506,-1.255900341796875,-1.5130296386718745,3.3873608033626934,2.809488644697026,-1.0074114610029365,-1.4086875093459639,3.3003794926385264
443,1791353949.3024483,3.0120723632812503,-1.332540966796875,-1.8004319824218746,3.753638324767346,2.849298102937213,-1.0122898526263502,-1.4309333045371406,3.3452653926356066
444,1791353949.327647,3.0935030273437505,-1.5912030761718752,-1.9824534667968745,4.003974270374216,2.903470811887867,-1.0230399358479907,-1.4619066270903127,3.4079208400658647
445,1791353949.347647,2.91148154296875,-1.787594677734375,-1.8195921386718745,3.8708054792288964,2.949025214930737,-1.0353605356930606,-1.4885054514332832,3.461844831316751
446,1791353949.3574653,2.7821504882812502,-1.6391034667968751,-1.5896702636718745,3.59917671996135,2.972226742558223,-1.0430249911618557,-1.5021150681646183,3.4897539482567606
447,1791353949.3774652,2.9402217773437505,-1.615153271484375,-1.5800901855468745,3.708140933785376,3.0209827228859734,-1.061177040969725,-1.5304341603094114,3.5488958907382426
448,1791353949.4028192,2.9785420898437502,-1.7205341308593751,-1.5896702636718745,3.789327410454975,3.084774131123051,-1.087079593073079,-1.5669766117157686,3.626705003634309
449,1791353949.4228191,2.9593819335937503,-1.763644482421875,-1.6184104980468745,3.8062627115645262,3.136453621184572,-1.109673709377039,-1.5962907130622954,3.6901031286040427
450,1791353949.4478042,3.0935030273437505,-1.691793896484375,-1.6279905761718745,3.883591235502414,3.2026727346084924,-1.1401407281254876,-1.63350174919714,3.771652355343116
451,1791353949.4678042,3.2324141601562504,-1.605573193359375,-1.8004319824218746,4.03335120034698,3.2572174538751764,-1.1658167028044608,-1.6639629737757156,3.8389278326719656
452,1791353949.4923277,2.94501181640625,-1.8307050292968752,-1.6950511230468746,3.8597634400061076,3.3254285721312193,-1.1988976939652956,-1.7021402830392143,3.9234057159675446
453,1791353949.5123277,2.7150899414062506,-1.983986279296875,-1.4747093261718744,3.671877250543918,3.381203486950047,-1.2275518677323811,-1.7333598906458778,3.9929884946786793
454,1791353949.522931,2.8108907226562505,-1.629523388671875,-1.5130296386718745,3.584091491081553,3.4107328109363966,-1.2433384290068021,-1.7498049061239789,4.029988333250947
455,1791353949.542931,2.9498018554687504,-1.136149365234375,-1.5657200683593746,3.5275552014267104,3.466716836146898,-1.2727967951609225,-1.7807885563234336,4.099920143872167
456,1791353949.567953,2.8971114257812505,-0.8104267089843751,-1.5657200683593746,3.3913898915475347,3.537224958771135,-1.3077769664044419,-1.819614349287228,4.1872708752770516
457,1791353949.587953,2.8540010742187505,-0.642775341796875,-1.3214280761718746,3.2100863589877413,3.5937548848328187,-1.333722319075863,-1.8503233370097218,4.256475754440948
458,1791353949.597909,2.7582002929687506,-0.508654248046875,-1.1250364746093746,3.021937304013855,3.621864715750984,-1.3455602200100267,-1.8651438443273376,4.290361043654432
459,1791353949.617909,2.5665987304687503,-0.427223583984375,-0.9957054199218746,2.785925037975367,3.677850328167614,-1.3671776240513789,-1.8936314370923955,4.356787544929636
460,1791353949.6418433,2.5139083007812504,-0.618825146484375,-1.0388157714843744,2.7895909581411678,3.7439194373226097,-1.3910448333959673,-1.926261465595344,4.4342329342871905
461,1791353949.6618433,2.6767696289062504,-0.700255810546875,-1.3214280761718746,3.06620710437747,3.7986326920501106,-1.4099757382238514,-1.9529781258084247,4.497973484957193
462,1791353949.6870503,2.8444209960937505,-0.6906757324218751,-1.1010862792968745,3.1273238982924827,3.8676849868181598,-1.4328860182390883,-1.9861795245849527,4.577888006756409
463,1791353949.7070503,3.0935030273437505,-0.331422802734375,-1.2256272949218745,3.343914520500602,3.923161702233134,-1.4498701793438484,-2.0120610814794446,4.6413048891904936
