imu_index,t_imu,ax,ay,az,mag,vx,vy,vz,velocity
0,1790596346.6283252,0.0,0.029937744140625,-0.00771196289062561,0.030915091716763723,0.0,0.0,0.0,0.0
1,1790596346.6483252,0.009580078125,0.020357666015625,-0.00292192382812561,0.022688104842454444,1.4370103483088314e-05,0.00011361363066316698,-2.5783558174533815e-05,0.00011738547107168226
2,1790596346.6583645,0.023950195312500002,-0.008382568359375,0.0018681152343743902,0.0254434502836269,4.574803282739594e-05,0.0001711060220372019,-3.7578143115913826e-05,0.00018105874771745227
3,1790596346.6783645,0.0047900390625,-0.008382568359375,-0.02687211914062561,0.028553856370512342,0.00014199180090537994,0.00024331242404671683,-9.505633866354715e-05,0.0002973185408614158
4,1790596346.688232,0.01916015625,-0.041912841796875,-0.00292192382812561,0.04617721877583853,0.00020007769589576492,0.0002363718639232886,-0.00014121004593100803,0.00034035719402028986
5,1790596346.708232,-0.009580078125,-0.013172607421875001,0.01144819335937439,0.019908706998837563,0.00031452039171675933,0.0001417863075541237,-0.00020793601867177185,0.0004028198377396075
6,1790596346.7338202,-0.05748046875,0.034727783203125,0.03539838867187439,0.07591488085012096,0.00031027985676912586,8.029124210819697e-05,-0.00019059645471980732,0.0003728904418561918
7,1790596346.7538202,-0.047900390625000004,0.082628173828125,-0.00771196289062561,0.0958192929624552,0.00014939145046144743,0.00021546976821071355,-0.00013754703583143075,0.00029608143060611995
8,1790596346.7781842,0.0047900390625,0.06346801757812501,-0.01250200195312561,0.06486473450460903,-9.597931750591292e-05,0.0006224046904604319,-0.00011955288361704578,0.0006410089859566696
9,1790596346.7981842,-0.009580078125,0.0059875488281250005,0.021028271484374392,0.023870836589253378,-0.00027437188862756756,0.0010105268922214227,-9.420806696716738e-05,0.001051341853563072
10,1790596346.8087142,-0.009580078125,-0.003592529296875,0.006658154296874391,0.012207177489944005,-0.0003693387881412326,0.0011861128289228752,-6.100027819801453e-05,0.001243782865817541
11,1790596346.8287141,0.0047900390625,-0.037122802734375,0.01623823242187439,0.040801067991688755,-0.0005298416484394224,0.0014085118268822219,2.6956058362306745e-05,0.0015051127426111742
12,1790596346.8538492,0.0143701171875,-0.022752685546875002,0.021028271484374392,0.03415220591994038,-0.000665177913528504,0.001533214423045221,0.00019116668639622316,0.0016821869175771566
13,1790596346.8738492,0.023950195312500002,0.020357666015625,-0.02208208007812561,0.03841438118318948,-0.0006992316402403428,0.0016139639984461703,0.0003006491753447437,0.0017844311703254412
14,1790596346.898696,0.028740234375,0.039517822265625,-0.06998247070312562,0.08535341559809598,-0.0006370029122069148,0.0018108132526830066,0.0002446983961140616,0.0019351213531231819
15,1790596346.918696,0.0335302734375,0.001197509765625,-0.050822314453125614,0.060898447540185016,-0.0005010208233327064,0.0020065689354672243,2.5210299156013747e-05,0.0020683269367724696
16,1790596346.9282432,0.0143701171875,-0.051492919921875005,-0.01250200195312561,0.05490283346876617,-0.0004115463118381671,0.002049984681263262,-0.00010919161431256866,0.0020937359835561456
17,1790596346.9482431,0.0047900390625,-0.037122802734375,0.049768505859374396,0.06227319754557477,-0.00022348610585724957,0.0019943681180630106,-0.00029261048823527974,0.0020280707896133017
18,1790596346.9739318,0.023950195312500002,-0.051492919921875005,0.05455854492187439,0.07875130145959312,3.7204452999334975e-05,0.0017629163417563582,-0.00029185988564528573,0.0017872997488399868
19,1790596346.9939318,0.047900390625000004,-0.032332763671875,0.02581831054687439,0.06329644688435326,0.00031749749182558544,0.001484010030731372,-0.00017079799094012996,0.0015271746404180663
20,1790596347.0181956,0.023950195312500002,-0.013172607421875001,-0.00292192382812561,0.027489399423325015,0.0007372928082454841,0.0011135874717637026,-4.290549272335841e-06,0.0013355508792901325
21,1790596347.0381956,-0.01916015625,-0.022752685546875002,-0.01250200195312561,0.03226602454526038,0.0010385989902436821,0.0008001704811735999,8.923366827025755e-05,0.001314124540912981
22,1790596347.0636625,-0.01916015625,-0.041912841796875,-0.03645219726562561,0.05875849368820111,0.0012915237341970635,0.00033743276035038625,9.695569891334164e-05,0.001338392629725591
23,1790596347.0836625,-0.0143701171875,-0.041912841796875,-0.03166215820312561,0.05445804658222795,0.0014100637366574523,-9.719788956220502e-05,-6.103415569004751e-08,0.0014134097689265106
24,1790596347.0939486,-0.0047900390625,-0.008382568359375,0.0018681152343743902,0.009833706373935132,0.0014471033723306816,-0.00032600148999969406,-6.54576287303886e-05,0.0014848130666356143
25,1790596347.1139486,0.0,-0.003592529296875,0.044978466796874395,0.04512171031938437,0.0015011342964455182,-0.0007221113507086832,-0.00010326978089800947,0.0016689858077389463
26,1790596347.138395,0.0,0.010777587890625,0.05934858398437439,0.06031924089119895,0.0015572711680305628,-0.0011204865608504461,4.8726518917445764e-05,0.0019191034097910268
27,1790596347.158395,0.0,0.010777587890625,0.02581831054687439,0.02797751883629054,0.0015963085107035323,-0.0013651822614052732,0.0002821743218321984,0.002119326736513652
28,1790596347.1839588,0.009580078125,-0.037122802734375,0.01144819335937439,0.04001176715580115,0.001657088663510111,-0.0016815452295075952,0.0006072560658924509,0.0024376827371864153
29,1790596347.2039587,0.023950195312500002,-0.056282958984375006,0.02581831054687439,0.06639253336813246,0.0017478030937427655,-0.002032036499010288,0.0008793365532144014,0.0028208546154713035
30,1790596347.2280126,-0.01916015625,-0.056282958984375006,0.03539838867187439,0.06919486238245104,0.001849180768374213,-0.0025934124704073726,0.0012679182898434132,0.0034282465701155397
31,1790596347.2480125,-0.023950195312500002,-0.022752685546875002,0.04018842773437439,0.05202313215160064,0.001856163772523721,-0.003108717174895891,0.00165592777548348,0.0039814021677720334
32,1790596347.2580585,-0.0047900390625,-0.003592529296875,0.03060834960937439,0.03118848836957108,0.0018374908645572773,-0.003348579232272311,0.0018749324697325308,0.004254965019620514
33,1790596347.2780585,-0.009580078125,0.0059875488281250005,0.021028271484374392,0.023870836589253378,0.0017843371659487892,-0.0037508844722862126,0.002322989985910341,0.004759125541616201
34,1790596347.3036897,-0.023950195312500002,0.010777587890625,-0.02687211914062561,0.0375749789534874,0.0016619788698577535,-0.004156897986428964,0.0027998370929421677,0.00528025211334134
35,1790596347.3236897,-0.0431103515625,-0.022752685546875002,-0.06998247070312562,0.0852861847965493,0.001480233540369315,-0.0044441506227617745,0.002970826003510628,0.0055468345238489924
36,1790596347.3337374,-0.0335302734375,-0.06586303710937501,-0.050822314453125614,0.08969462938457803,0.0013448689553820833,-0.004633593770993776,0.002952807275724782,0.005656671684773302
37,1790596347.3537374,-0.0143701171875,-0.085023193359375,-0.01250200195312561,0.08713061304641502,0.0010439907337262443,-0.0051804478692386545,0.0028273344254037954,0.005993394424787925
38,1790596347.3939812,-0.0383203125,-0.06586303710937501,0.021028271484374392,0.07904792349574477,0.0003703439105782679,-0.006571186816866946,0.0026384646990498055,0.007090778995456024
39,1790596347.4139812,-0.047900390625000004,0.010777587890625,0.0689286621093744,0.08462720769915572,-4.355176969930843e-05,-0.007241296758256474,0.002693616819684045,0.007726179331924961
40,1790596347.4230418,-0.047900390625000004,0.049097900390625004,0.0641386230468744,0.09390854173686422,-0.0002680344763920638,-0.007458652346442327,0.002805280040686945,0.007973263661280802
41,1790596347.4430418,-0.047900390625000004,0.034727783203125,0.01623823242187439,0.06135264085936034,-0.0008329210198297465,-0.007740727198865331,0.0031353532428413725,0.008393036098452314
42,1790596347.4539788,-0.0718505859375,-0.022752685546875002,0.006658154296874391,0.07566057373426424,-0.001193721168955294,-0.007862018916828646,0.0033075597876937434,0.008612564277086829
43,1790596347.4739788,-0.076640625,-0.008382568359375,-0.04603227539062561,0.08979433852046918,-0.001977270650084702,-0.008097252599073523,0.003516169416160715,0.009046465953068817
44,1790596347.4987123,-0.01916015625,0.015567626953125,-0.04603227539062561,0.05223440412328329,-0.0029786314856218104,-0.00833119634374092,0.003564673783325843,0.009538761828803057
45,1790596347.5187123,-0.009580078125,-0.032332763671875,0.01144819335937439,0.035612450557860345,-0.003710002175793323,-0.008517139419287778,0.003546135976017671,0.009943885578202503
46,1790596347.5434966,-0.0143701171875,-0.032332763671875,0.07371870117187439,0.08177013377212927,-0.004524899645818513,-0.008833201613006303,0.003684919766344366,0.010586727597569566
47,1790596347.5634966,-0.023950195312500002,-0.027542724609375003,0.12640913085937439,0.1315731047708353,-0.005141331853301347,-0.00913980710059243,0.00408030534929588,0.011252477896237052
48,1790596347.5740063,-0.009580078125,-0.041912841796875,0.1024589355468744,0.11111389507064154,-0.005443099440003255,-0.009331503651601144,0.0044373104338225585,0.011678784859724053
49,1790596347.5940063,0.01916015625,-0.046702880859375004,0.0018681152343743902,0.050514953455568896,-0.0059168526642887015,-0.00977450533631522,0.005171273450815189,0.01254161748434631
50,1790596347.6187131,0.01916015625,-0.003592529296875,-0.06519243164062562,0.06804462504482602,-0.006343305277625045,-0.010332873639556301,0.005824624458046641,0.013451098452299663
51,1790596347.6387131,0.009580078125,0.001197509765625,-0.060402392578125616,0.06116911766309757,-0.006593623319879515,-0.010720661469426275,0.006085782254740793,0.013980171546823666
52,1790596347.663771,-0.028740234375,-0.085023193359375,-0.02687211914062561,0.09368593954304764,-0.006896209663929157,-0.011291175407354763,0.00619988613520536,0.014611192213438113
53,1790596347.683771,-0.0383203125,-0.046702880859375004,-0.03645219726562561,0.07055755180102775,-0.00720208434976088,-0.011875818681983752,0.006182311362972373,0.015202830727767846
54,1790596347.6934843,-0.0047900390625,-0.017962646484375,-0.00292192382812561,0.01881857544556106,-0.0073597617956537575,-0.012164280552968674,0.006146371861354808,0.015489147882248094
55,1790596347.7134843,-0.023950195312500002,0.001197509765625,0.04018842773437439,0.046799098377070227,-0.0076788322124392554,-0.012694281468717742,0.0061393718344475165,0.016056186741422538
56,1790596347.7384381,-0.0431103515625,0.053887939453125006,0.0641386230468744,0.09421345655847184,-0.008142725302630103,-0.0131532737502794,0.006327200087678059,0.016713648514115487
57,1790596347.758438,-0.0431103515625,0.053887939453125006,0.01623823242187439,0.07089494074003325,-0.008588086725829796,-0.013304301866949763,0.006575724599351855,0.017146423410840467
58,1790596347.7837374,-0.023950195312500002,0.034727783203125,-0.04124223632812561,0.05899621037876172,-0.009194192926283951,-0.013298546827333764,0.0067954997498764205,0.01753748408794971
59,1790596347.8037374,-0.009580078125,-0.07065307617187501,-0.02208208007812561,0.07464082884056572,-0.009651764032460913,-0.0133485675910539,0.006848192250960289,0.017839241653650896
60,1790596347.8290257,-0.047900390625000004,-0.085023193359375,0.006658154296874391,0.09781473227328409,-0.01025256008827339,-0.013697587310595482,0.006875570397756019,0.01843942392781135
61,1790596347.8490257,-0.0622705078125,-0.032332763671875,0.006658154296874391,0.07047946345233433,-0.01082169893030551,-0.01410824813441127,0.006913949687013998,0.019077592443357612
62,1790596347.8581822,-0.0047900390625,0.010777587890625,0.021028271484374392,0.02410993729939951,-0.01108923221850477,-0.01428285954993295,0.006947898228671655,0.019371227062708593
63,1790596347.8781822,0.009580078125,0.044307861328125,-0.00771196289062561,0.045983027781778846,-0.011578752095855809,-0.014524416723023506,0.00703090186820824,0.0198610111102558
64,1790596347.9035084,0.0143701171875,0.0059875488281250005,-0.00771196289062561,0.017373122361223688,-0.0120601623572377,-0.014688886261591186,0.007090946957437955,0.02028527605042865
65,1790596347.9235084,0.0143701171875,-0.037122802734375,0.01623823242187439,0.04299166131966309,-0.012340193688272999,-0.014845987568675868,0.007144040992486477,0.020584485634955716
66,1790596347.9487875,0.0143701171875,-0.041912841796875,0.03060834960937439,0.0538521832545538,-0.012586558846650373,-0.015164616920049206,0.007289900887938622,0.021012608712104353
67,1790596347.9687874,0.0143701171875,-0.041912841796875,0.044978466796874395,0.06313674881453658,-0.012709127408992235,-0.015504631370570067,0.007501370779870199,0.021405281521445906
68,1790596347.9780014,0.009580078125,-0.017962646484375,0.049768505859374396,0.053771170166533634,-0.012740573650477172,-0.015679154980667714,0.00764965509008896,0.021602669762053817
69,1790596347.9980013,0.0335302734375,0.001197509765625,0.05455854492187439,0.06404957525561329,-0.012733927501193707,-0.016026304277018347,0.008079734788870934,0.022006304838471297
70,1790596348.0237641,-0.0335302734375,0.015567626953125,0.07850874023437439,0.08677702771433035,-0.012726650500142819,-0.016374011186541634,0.008807751509046793,0.022531142046840237
71,1790596348.043764,-0.0622705078125,0.025147705078125002,0.09766889648437439,0.11852947546664677,-0.0128655496921164,-0.016542378084420748,0.009552410921243842,0.02303087484175403
72,1790596348.0682976,-0.0622705078125,0.039517822265625,0.03060834960937439,0.07985077010056847,-0.013239533552724307,-0.016598944641532724,0.010564880641056538,0.023715541631304814
73,1790596348.0882976,-0.023950195312500002,0.020357666015625,-0.03166215820312561,0.04461545341235909,-0.013628008793761139,-0.016548328109746862,0.011264869687778532,0.024217082317927994
74,1790596348.0990553,0.0047900390625,-0.013172607421875001,-0.02208208007812561,0.026154929192943044,-0.013821079383927798,-0.016519389033732405,0.011541543837413997,0.024436032483518708
75,1790596348.1190553,-0.0431103515625,0.001197509765625,0.021028271484374392,0.04798046105553454,-0.014183662335430513,-0.01649162027790051,0.011977181373828388,0.02483148586568172
76,1790596348.143918,-0.052690429687500005,-0.027542724609375003,-0.04603227539062561,0.07519211020578988,-0.014745432778180785,-0.016511404025189715,0.012390880715357313,0.025369039705931188
77,1790596348.163918,-0.0718505859375,-0.080233154296875,-0.09872270507812561,0.14610283448972095,-0.015316356185527895,-0.016686594880177635,0.012456616497210011,0.02584957465908663
78,1790596348.1889534,-0.0622705078125,-0.046702880859375004,-0.12267290039062562,0.14528391416134118,-0.016175654340451713,-0.017111340680133598,0.012110855424056013,0.026478719612469108
79,1790596348.2089534,-0.0143701171875,-0.027542724609375003,-0.10351274414062561,0.10807400310163853,-0.01687411156157346,-0.017511127665334587,0.011536792255438823,0.02691603255773827
80,1790596348.2340734,-0.023950195312500002,-0.032332763671875,-0.00292192382812561,0.040342993208555875,-0.01769198131905079,-0.018050746505455198,0.010723398272911204,0.027455908706821568
81,1790596348.2540734,-0.028740234375,-0.046702880859375004,0.08808881835937439,0.10376319228149142,-0.018324510582310737,-0.018534487130752297,0.010300683781307392,0.02802532760992688
82,1790596348.278561,0.009580078125,-0.013172607421875001,0.1120390136718744,0.11321676584207128,-0.019017991721027923,-0.019147896483834123,0.010228303044780061,0.028860771507923533
83,1790596348.298561,0.0431103515625,-0.017962646484375,0.07371870117187439,0.08726743942062865,-0.0194203877204975,-0.01962044309668522,0.010456690873630844,0.02952042734364439
84,1790596348.3081017,0.0335302734375,-0.07544311523437501,-0.01250200195312561,0.08349995764008902,-0.01952870930073406,-0.019878884237822237,0.01059309933159828,0.029811982137094177
85,1790596348.3281016,-0.009580078125,-0.037122802734375,-0.10830278320312561,0.11488852522893507,-0.01968579844795811,-0.020508240114149538,0.010654953750089617,0.030358633245417866
86,1790596348.338645,-0.01916015625,-0.032332763671875,-0.12267290039062562,0.12830105098725453,-0.0197789153086613,-0.02084517191351016,0.010500026012112612,0.03059374493497046
87,1790596348.358645,-0.023950195312500002,-0.041912841796875,-0.02687211914062561,0.055248610390712515,-0.019993721447086447,-0.0214998055988651,0.010025904798370922,0.031024334080180876
88,1790596348.382724,-0.0047900390625,-0.032332763671875,0.07371870117187439,0.08063993417252838,-0.020265448789688716,-0.02230381534249856,0.009625308845240082,0.03163534674768125
89,1790596348.402724,0.0047900390625,0.020357666015625,0.1024589355468744,0.10457156646633238,-0.02045728998858276,-0.022889413866216207,0.009606751806493157,0.03216699645735453
90,1790596348.4434376,-0.01916015625,0.06346801757812501,0.1168290527343744,0.13432917927849047,-0.02083311746946997,-0.023646727998562055,0.01024424146623307,0.03313805986706528
91,1790596348.4634376,-0.0143701171875,0.077838134765625,0.07371870117187439,0.10816525502323839,-0.021040339979802664,-0.023750986260917036,0.010796247282435749,0.033516625877547
92,1790596348.473842,-0.0143701171875,0.034727783203125,0.01144819335937439,0.03928842482690491,-0.021154397468499737,-0.02370924959746861,0.01110679405293757,0.03366003450480559
93,1790596348.493842,0.0047900390625,-0.013172607421875001,-0.050822314453125614,0.05271972787186494,-0.02135512959958007,-0.023608722050645792,0.011555144816798466,0.03386642421066467
94,1790596348.5033834,0.0431103515625,-0.085023193359375,-0.04603227539062561,0.10586036179092914,-0.021402251255112505,-0.023638226887436296,0.01166764717059732,0.03395520754856947
95,1790596348.5233834,0.0431103515625,-0.094603271484375,-0.04124223632812561,0.1118445503577786,-0.021356876348667127,-0.023960234701761122,0.01173717947047396,0.03417558187153293
96,1790596348.5483649,0.028740234375,-0.056282958984375006,-0.02208208007812561,0.06694319087512576,-0.021174080994079594,-0.02458481744731819,0.011692357711252644,0.03448863847283179
97,1790596348.5683649,0.0047900390625,0.0059875488281250005,0.01144819335937439,0.01377883690240511,-0.02099939285227731,-0.025085290896833937,0.011645905556627553,0.03472568841329058
98,1790596348.5934317,-0.01916015625,0.044307861328125,0.03539838867187439,0.059861039780159636,-0.020840306214877986,-0.025523910335356247,0.011684490341080227,0.03496163149036361
99,1790596348.6134317,0.0047900390625,0.010777587890625,0.07850874023437439,0.07938969182550652,-0.02075397106959141,-0.02573874772081033,0.011881518524904973,0.03513375772459611
100,1790596348.623946,-0.01916015625,0.029937744140625,0.05934858398437439,0.06917828078742837,-0.020726723488640342,-0.025802642324777962,0.012078271913681823,0.03523149258739705
101,1790596348.643946,-0.047900390625000004,0.058677978515625,0.04018842773437439,0.08574766648993294,-0.020783258952493344,-0.025773026879717317,0.01254569807243788,0.035406034900194595
102,1790596348.6839855,-0.0718505859375,0.06825805664062501,0.08808881835937439,0.13259452822747889,-0.021239072381474933,-0.0253414462806418,0.01372632091208413,0.035800823747529936
103,1790596348.7039855,-0.09101074218750001,0.07304809570312501,0.0641386230468744,0.13316434374757213,-0.02167689336282904,-0.02494624680473165,0.014455930588924422,0.036071829239696825
104,1790596348.7130337,-0.052690429687500005,0.001197509765625,0.04018842773437439,0.06627839115468315,-0.021942775386207966,-0.024743888587118484,0.014807299977277102,0.0362353632061054
105,1790596348.7330337,-0.023950195312500002,-0.06586303710937501,-0.03166215820312561,0.0769028203309707,-0.022557280692510392,-0.024460692107589402,0.015480249223785365,0.036698698705178855
106,1790596348.7431607,-0.028740234375,-0.003592529296875,0.01144819335937439,0.03114431681498987,-0.02286178422250871,-0.024391557712373453,0.01575453399165696,0.036956929076519165
107,1790596348.7631607,-0.0143701171875,0.077838134765625,0.1024589355468744,0.1294724255012342,-0.023437610005769546,-0.024164135716634286,0.016385827572076177,0.0374395828360344
108,1790596348.788622,-0.009580078125,0.092208251953125,0.1407792480468744,0.16856137251984948,-0.02410644722791636,-0.02359332310282714,0.01753343670147576,0.03801561646943753
109,1790596348.808622,-0.0143701171875,0.015567626953125,0.1072489746093744,0.10932151586808692,-0.0245889430849316,-0.023050538110419752,0.018671716680826067,0.03853020156997569
110,1790596348.8334973,-0.009580078125,0.025147705078125002,0.03539838867187439,0.04446606445529605,-0.02514372321895518,-0.022400741999867812,0.020141243456213466,0.03923862570756689
111,1790596348.8534973,0.10538085937500001,-0.013172607421875001,-0.03166215820312561,0.11082028411344251,-0.02537916191071937,-0.02193870521466696,0.021151130296386173,0.039658277302490955
112,1790596348.8790483,0.10538085937500001,-0.056282958984375006,-0.00292192382812561,0.11950495652276408,-0.025230940731262547,-0.021570069179429694,0.022181514048495603,0.03992352464491924
113,1790596348.8990483,0.0383203125,-0.037122802734375,0.07371870117187439,0.09099997656824474,-0.0249167726986821,-0.021464911873796722,0.022973257692722546,0.04011681159419184
114,1790596348.924094,0.086220703125,0.020357666015625,0.04018842773437439,0.09728079942483076,-0.024348418896895194,-0.021384470196065857,0.0240299873523736,0.04034329387271628
115,1790596348.944094,0.13412109375,-0.008382568359375,-0.02208208007812561,0.13618499734395356,-0.023632130469756662,-0.021311906942323267,0.024774413081762432,0.04032922651878721
116,1790596348.9535325,0.124541015625,-0.051492919921875005,-0.04603227539062561,0.1424112205994511,-0.023161696535058195,-0.021325184293472632,0.025024812601464563,0.04021776867593624
117,1790596348.9735324,0.0814306640625,-0.204774169921875,-0.03166215820312561,0.22263401801820948,-0.02200542704662733,-0.02173349878557013,0.025359272931300098,0.03999595620273362
118,1790596348.9835658,0.086220703125,-0.142503662109375,-0.01250200195312561,0.16702575674065442,-0.02138621413643052,-0.022168939175589382,0.025468659385324693,0.039968545509511975
119,1790596349.0035658,0.1197509765625,-0.108973388671875,-0.01729204101562561,0.16283276853505269,-0.020028096916841882,-0.02328394042613355,0.025609306701299978,0.03998878764853213
120,1790596349.0288346,0.11017089843750001,-0.06586303710937501,-0.02687211914062561,0.13113991500265978,-0.01813384262513517,-0.024812710754678138,0.025676653205373413,0.04004743915879643
121,1790596349.0488346,0.10538085937500001,0.025147705078125002,-0.07477250976562562,0.1316376116843528,-0.01653612549455789,-0.025902288328280832,0.025569494842711506,0.03997713163202947
122,1790596349.0734036,0.0814306640625,0.025147705078125002,-0.10830278320312561,0.13781456007947532,-0.014523579879595093,-0.02694733062383849,0.025120252951284942,0.03959949631757938
123,1790596349.0934036,0.0431103515625,-0.17124389648437502,-0.09393266601562561,0.20001579997539384,-0.012944233442240672,-0.02788956791209025,0.02450605737380617,0.03931829123625028
124,1790596349.1042855,0.10538085937500001,-0.15687377929687502,-0.08914262695312561,0.20895194685286447,-0.012092625371062106,-0.028593125766530524,0.024072587912937017,0.039284703362652086
125,1790596349.1242855,0.076640625,-0.25267456054687504,0.02581831054687439,0.2653013458455156,-0.01048918949050517,-0.030306563768845857,0.023300424448257844,0.039641148862158575
126,1790596349.1487584,0.10059082031250001,-0.214354248046875,0.02581831054687439,0.23818656961797346,-0.008496150263065227,-0.03294593113200842,0.02259207365194889,0.040841409615030536
127,1790596349.1687584,0.124541015625,-0.15208374023437501,-0.00771196289062561,0.19672163833246645,-0.0067740005302387015,-0.035329007709989854,0.02212718167340899,0.042233139094368106
128,1790596349.194173,0.1676513671875,-0.15687377929687502,-0.14662309570312562,0.2724237429892823,-0.0043569130734558165,-0.03849193551483746,0.02133086125608009,0.04422236349556856
129,1790596349.214173,0.15328125,-0.243094482421875,-0.2951143066406256,0.41192538519675986,-0.002258716492006129,-0.04120758062457814,0.020135594317934137,0.04591958906239024
130,1790596349.23878,0.143701171875,-0.324525146484375,-0.24242387695312562,0.42980918279620034,0.00048365648620933696,-0.04509514543070688,0.017893550975433575,0.048517885686864964
131,1790596349.25878,0.1772314453125,-0.36284545898437504,-0.09872270507812561,0.41570901458963105,0.0028596542097695716,-0.048811968284073144,0.015832890697119673,0.051395197224952394
132,1790596349.2683594,0.19639160156250002,-0.286204833984375,0.021028271484374392,0.3477428020274869,0.004095415955242248,-0.05079149695260218,0.014938122780787301,0.05310081079179984
133,1790596349.2883594,0.20597167968750002,-0.204774169921875,0.0641386230468744,0.2974400048191771,0.006891987587268604,-0.05504090760199993,0.01347798564130949,0.05708464854496612
134,1790596349.3137157,0.18681152343750002,-0.204774169921875,0.09287885742187439,0.29233112751163776,0.010652659181442205,-0.06039910430261582,0.012203081979635894,0.06253356025364255
135,1790596349.3337157,0.1676513671875,-0.195194091796875,0.1072489746093744,0.27876523625984473,0.013705674120841144,-0.06459142895254136,0.011648521454799532,0.06704913309895079
136,1790596349.3584182,0.13412109375,-0.219144287109375,0.05934858398437439,0.26369478717320677,0.01747000152326542,-0.06976042117029399,0.01137496473848203,0.07280870234993483
137,1790596349.3784182,0.11017089843750001,-0.204774169921875,0.021028271484374392,0.23347864084609418,0.020427001976559594,-0.07395353373828888,0.011307271612146137,0.07755154384950338
138,1790596349.388861,0.1772314453125,-0.204774169921875,0.0018681152343743902,0.27082639407797665,0.02196446285028012,-0.0761352670569995,0.01129516084371435,0.08004122173372509
139,1790596349.408861,0.21555175781250002,-0.233514404296875,-0.06998247070312562,0.32540602870244567,0.025056507559410534,-0.08034439675704382,0.011173273989397799,0.08489930926085455
140,1790596349.4340463,0.21076171875000002,-0.16645385742187502,-0.01729204101562561,0.26912154024448154,0.029171428918702263,-0.08560525809307734,0.010877956039355456,0.09109095677363056
141,1790596349.4540462,0.24908203125,-0.17124389648437502,0.02581831054687439,0.30336927256113494,0.03263874535248504,-0.08966285949649433,0.010691407282890399,0.09601573965221061
142,1790596349.4784703,0.2682421875,-0.108973388671875,0.03539838867187439,0.29168838940551234,0.0371855412565444,-0.09438805166381893,0.01060990225377658,0.1020021509639312
143,1790596349.4984703,0.277822265625,-0.099393310546875,0.01623823242187439,0.29551298051128383,0.041169361028362245,-0.09798949512639316,0.010630626852072814,0.1068169821230551
144,1790596349.5242052,0.30177246093750004,-0.12334350585937501,0.1072489746093744,0.34319466949927835,0.04664528755874122,-0.10235842581565475,0.010891638889742079,0.11301176038183415
145,1790596349.5442052,0.335302734375,-0.094603271484375,0.1934696777343744,0.3985074890858902,0.0512181917971228,-0.10557137774168943,0.011515135999157704,0.11790342372604976
146,1790596349.5539422,0.3448828125,0.06346801757812501,0.2413700683593744,0.4257133466465627,0.05360729039039081,-0.10692371015705883,0.012090706846470853,0.12021899420972423
147,1790596349.5739422,0.316142578125,0.0059875488281250005,0.2030497558593744,0.37578076560548235,0.058769986588158976,-0.10918058208423852,0.013762232756136876,0.12475459862570044
148,1790596349.5986874,0.335302734375,-0.132923583984375,0.006658154296874391,0.3607505147290077,0.06540846743010234,-0.1117896531540884,0.015909326818766764,0.13049253175447426
149,1790596349.6186874,0.4454736328125,-0.15687377929687502,-0.15141313476562562,0.49596580279451147,0.07114027084818404,-0.11401678204231742,0.01716724935532908,0.13548239433249748
150,1790596349.6293507,0.49337402343750003,-0.209564208984375,-0.13225297851562562,0.552110437336959,0.07448870269335724,-0.11531915041953639,0.017510465927876143,0.13839685581484262
151,1790596349.6493506,0.4550537109375,-0.286204833984375,-0.055612353515625615,0.5404440958115468,0.08124960052788827,-0.11813911188602559,0.017775843281724945,0.14447950701582815
152,1790596349.6734347,0.5316943359375,-0.16166381835937502,-0.08435258789062561,0.5620937787579559,0.08995225527087454,-0.12183454173525812,0.017794657236423723,0.15248512587894839
153,1790596349.6934347,0.5700146484375,-0.238304443359375,-0.14183305664062562,0.6338945678219458,0.09774766841682275,-0.12504294770237473,0.017468659101239032,0.15967310199848705
154,1790596349.7190528,0.536484375,-0.281414794921875,-0.13704301757812562,0.6211204070765829,0.1083610530242256,-0.1295347270974635,0.01657790220404103,0.16969440231846225
155,1790596349.7390528,0.5029541015625,-0.209564208984375,-0.12267290039062562,0.5585057085259171,0.11696318015954046,-0.13325190960907743,0.015597228390409766,0.17798800650875737
156,1790596349.749232,0.536484375,-0.247884521484375,-0.10830278320312561,0.600825859513571,0.1214781864834415,-0.13520927405148025,0.014996631934367125,0.1823825554986248
157,1790596349.769232,0.536484375,-0.290994873046875,-0.15141313476562562,0.6288238530290188,0.13062795772254018,-0.13928650331216488,0.013604027882861339,0.19144049445801462
158,1790596349.7942343,0.4742138671875,-0.257464599609375,-0.15620317382812562,0.5617528312335589,0.14224569952305358,-0.14464740558132125,0.011547419739521125,0.20319954201929386
159,1790596349.8142343,0.47900390625,-0.137713623046875,-0.14662309570312562,0.5195268196821253,0.1515748735697156,-0.14888525565158908,0.0096948139217921,0.21268697906804848
160,1790596349.8388736,0.47900390625,-0.06586303710937501,-0.08914262695312561,0.49165952629856957,0.16311449642120956,-0.15369922267832564,0.007319129134635956,0.2242395140156074
161,1790596349.8588736,0.4981640625,-0.113763427734375,-0.12746293945312562,0.5266463249567108,0.1725420340212604,-0.15729006878856533,0.005355112381863121,0.23353714152641283
162,1790596349.8836274,0.5269042968750001,-0.108973388671875,-0.2136836425781256,0.5789335338442798,0.1843632367129917,-0.1614812937802189,0.0026555415523543636,0.2450980685218883
163,1790596349.9036274,0.5029541015625,-0.07544311523437501,-0.17057329101562563,0.536423097491812,0.1940263796652473,-0.16463629375700106,0.0002251931204914565,0.254462955928728
164,1790596349.9289029,0.49337402343750003,-0.051492919921875005,-0.06998247070312562,0.5009660607373531,0.2062953090087054,-0.16826604897539435,-0.0028415196746197306,0.26623165099373197
165,1790596349.9489028,0.47900390625,-0.07544311523437501,-0.03166215820312561,0.48594124963940416,0.21600581244314856,-0.17089778362024866,-0.005056621518287547,0.27548163800282083
166,1790596349.9736524,0.51732421875,-0.094603271484375,-0.2280537597656256,0.5732212867855502,0.22806925685666601,-0.1739816306171779,-0.00786867683622609,0.2869618612124562
167,1790596349.9936523,0.5316943359375,-0.128133544921875,-0.2615840332031256,0.6062534772098872,0.23792893906735435,-0.17643397274036804,-0.01053468138690928,0.2963951860179066
168,1790596350.003996,0.5748046875,-0.080233154296875,-0.13704301757812562,0.5963376363163047,0.2431216535471563,-0.17767366956055802,-0.012015902084405136,0.3013643196888442
169,1790596350.0239959,0.59396484375,-0.003592529296875,-0.03645219726562561,0.5950931898141693,0.2534092114787676,-0.17983689243818352,-0.014710581951394082,0.31108509698386744
170,1790596350.0340412,0.5508544921875,0.0059875488281250005,-0.04603227539062561,0.552806921702104,0.2586637327004735,-0.18075862246685376,-0.01592315231198613,0.3159654300555795
171,1790596350.0540411,0.5029541015625,0.053887939453125006,-0.04603227539062561,0.50792293576357,0.2691368479504971,-0.18222868420217872,-0.018113322812699107,0.32553038066224077
172,1790596350.0788298,0.5269042968750001,0.044307861328125,-0.1993135253906256,0.5650815923779947,0.28208511326240243,-0.18359485926811628,-0.020876839018609816,0.3372164377389554
173,1790596350.0988297,0.6179150390625,-0.003592529296875,-0.13704301757812562,0.6329397210108386,0.2926822346025407,-0.18447070640548904,-0.023276587136337786,0.3467479365221837
174,1790596350.1239488,0.6179150390625,0.087418212890625,-0.07477250976562562,0.6285315168400485,0.30632352890829073,-0.18524780522577505,-0.026237511055960006,0.3589418625490857
175,1790596350.1439488,0.6370751953125,0.130528564453125,0.049768505859374396,0.6522111734677107,0.31743811447974585,-0.18544680728363114,-0.028278899580918747,0.3687237055271279
176,1790596350.154267,0.5891748046875,0.101788330078125,0.05934858398437439,0.6008411346101377,0.3232611227831633,-0.18535429182147165,-0.029089661607117477,0.37376486647635476
177,1790596350.174267,0.5508544921875,0.096998291015625,-0.060402392578125616,0.5625813621621876,0.33456492043198716,-0.18490368740295343,-0.030427021370911793,0.3834695075600887
178,1790596350.198786,0.5029541015625,0.159268798828125,-0.15141313476562562,0.5488673026681848,0.3482819951085288,-0.18396287656182114,-0.032210138917098,0.3951963829777999
179,1790596350.218786,0.5125341796875,0.178428955078125,-0.03645219726562561,0.543927329745162,0.35931582455468014,-0.18280402849371616,-0.03372824361555218,0.40455255409690727
180,1790596350.2583158,0.5508544921875,0.092208251953125,0.1455692871093744,0.5771771397421515,0.3810055236025328,-0.18005477513275842,-0.035955183757998686,0.4229393648063749
181,1790596350.2783158,0.5604345703125,0.130528564453125,0.1120390136718744,0.586240014263882,0.3920002166450448,-0.1785383403876831,-0.03652647816310007,0.43228959326491967
182,1790596350.2738364,0.45026367187500005,0.168848876953125,-0.08914262695312561,0.48907435569532104,0.3920002166450448,-0.1785383403876831,-0.03652647816310007,0.43228959326491967
183,1790596350.2938364,0.48379394531250003,0.010777587890625,-0.25679399414062565,0.5478283429583304,0.40263360648770674,-0.17679157097028875,-0.03742894994233425,0.44132755061657536
184,1790596350.3189614,0.5987548828125,-0.233514404296875,-0.2041035644531256,0.6743105009774104,0.4160280260911362,-0.17534606512509288,-0.03926112729233994,0.4531743562519902
185,1790596350.3389614,0.5795947265625,-0.214354248046875,-0.12267290039062562,0.630020976797637,0.42685842142042996,-0.17503981572894436,-0.040990971209430446,0.46317092822051836
186,1790596350.379296,0.5604345703125,-0.19040405273437502,-0.2041035644531256,0.6260981360150359,0.44887287716739666,-0.1757392703079948,-0.04494484774522988,0.48413963928164894
187,1790596350.399296,0.6370751953125,0.020357666015625,-0.41965532226562563,0.7631446969965329,0.4599476366955118,-0.17628914079743874,-0.04754693700844858,0.4948640226201245
188,1790596350.3941505,0.622705078125,0.020357666015625,-0.2903242675781256,0.6873603343465792,0.4599476366955118,-0.17628914079743874,-0.04754693700844858,0.4948640226201245
189,1790596350.4141505,0.488583984375,-0.137713623046875,-0.09393266601562561,0.5162389926238139,0.4712223007754355,-0.17681054399489715,-0.05090855446559269,0.5058696533037366
190,1790596350.4386125,0.4646337890625,-0.228724365234375,-0.12267290039062562,0.532210516319146,0.4846926598714433,-0.1780248982174579,-0.05480080592112801,0.5192523155925219
191,1790596350.4586124,0.5795947265625,-0.18082397460937502,-0.07477250976562562,0.6117338351515647,0.49562029745092695,-0.17948314194101753,-0.057801914200490814,0.5302779825446325
192,1790596350.4838839,0.5987548828125,-0.118553466796875,-0.11309282226562561,0.6207675254307145,0.5095903679163836,-0.1816167753600488,-0.061381284826312506,0.54445813272672
193,1790596350.5038838,0.5077441406250001,-0.147293701171875,-0.16578325195312563,0.5540610375870902,0.5206477273390141,-0.18345083269574589,-0.06420742734045269,0.5557435179340579
194,1790596350.5139282,0.4646337890625,-0.243094482421875,-0.23284379882812561,0.5737558016920158,0.5261004617279105,-0.18452785297832028,-0.06571416015393003,0.56138273503898
195,1790596350.5339282,0.5412744140625,-0.310155029296875,-0.2041035644531256,0.6563782434993708,0.5368380454544888,-0.18718057733890522,-0.06891971754530159,0.5726967636077978
196,1790596350.5592852,0.5748046875,-0.228724365234375,-0.10830278320312561,0.6280483714439388,0.5505321908318063,-0.19106417674150342,-0.072968389743675,0.5872951546520384
197,1790596350.5792851,0.5412744140625,-0.06586303710937501,-0.10830278320312561,0.5559185406383896,0.5613872116274516,-0.19410972134691618,-0.07600763071208957,0.5988416695811073
198,1790596350.6039195,0.5269042968750001,-0.061072998046875,-0.18015336914062563,0.5601904011748955,0.5747255413987583,-0.19753281295661285,-0.0797225435263726,0.6129309456023267
199,1790596350.6239195,0.5604345703125,-0.16166381835937502,-0.2807441894531256,0.6473325248120798,0.5855612272265523,-0.20022916713048364,-0.08297752204811792,0.6243868507312427
200,1790596350.6495018,0.6083349609375001,-0.16166381835937502,-0.23284379882812561,0.6711354926675204,0.5995848068772649,-0.20378113665971326,-0.0875019030408585,0.6392849719273429
201,1790596350.6695018,0.5843847656250001,-0.204774169921875,-0.12746293945312562,0.6322063080164658,0.6106928475026868,-0.20669115135223415,-0.09104890867538756,0.6511197200279155
202,1790596350.6789722,0.51732421875,-0.16166381835937502,-0.11309282226562561,0.5536691466208273,0.6159463059472235,-0.20812269316979137,-0.09264742397500837,0.656725553326108
203,1790596350.6989722,0.5125341796875,-0.209564208984375,-0.10351274414062561,0.5633145934863644,0.6269213290389948,-0.2112492282846013,-0.09584175188939954,0.6684625873301275
204,1790596350.7243319,0.5843847656250001,-0.267044677734375,-0.15141313476562562,0.6601093481995206,0.6408363573411351,-0.2155254588554466,-0.09976941360608015,0.6834298765757953
205,1790596350.7443318,0.641865234375,-0.247884521484375,-0.08435258789062561,0.6932193550202251,0.6520037550922667,-0.21916444928915385,-0.1027559939565788,0.6954859788526574
206,1790596350.768951,0.6035449218750001,-0.16645385742187502,0.01623823242187439,0.6262883038696385,0.6659879129153939,-0.2237370196782757,-0.1060066599366075,0.7105178154521075
207,1790596350.788951,0.5125341796875,-0.12334350585937501,-0.01729204101562561,0.527450396215707,0.6773183712812476,-0.22732916682628965,-0.10825289067162597,0.7226046045409481
208,1790596350.7990017,0.5748046875,-0.228724365234375,-0.17536333007812563,0.6430144333993835,0.682977915219407,-0.22912897383133626,-0.10935761190703297,0.7286412056756452
209,1790596350.8190017,0.6849755859375001,-0.209564208984375,-0.2807441894531256,0.7693672796066654,0.6944401957302933,-0.2328306184876806,-0.11191030960380183,0.740932655338461
210,1790596350.844343,0.7280859375000001,-0.137713623046875,-0.2711641113281256,0.7890526912889424,0.7094707885918276,-0.23747734332825993,-0.11570853243984527,0.7570553169608814
211,1790596350.864343,0.6274951171875001,-0.214354248046875,-0.19452348632812563,0.6910407024793432,0.7215873076279921,-0.24112266170904487,-0.1189550696684853,0.7700510951354482
212,1790596350.8891234,0.6035449218750001,-0.19040405273437502,-0.19452348632812563,0.6620872772920675,0.7366360305731534,-0.24571407056324987,-0.12309729297027518,0.7862321473635782
213,1790596350.9091234,0.680185546875,-0.238304443359375,-0.2280537597656256,0.7559430555575611,0.7488853839964564,-0.2495069415655716,-0.1265728157996876,0.7994396224558721
214,1790596350.9185567,0.7232958984375001,-0.26225463867187504,-0.2136836425781256,0.7984955549700212,0.7547892817955622,-0.25138170107960495,-0.1282787298248859,0.8058256958403737
215,1790596350.9385567,0.6562353515625,-0.271834716796875,-0.14662309570312562,0.7252842767425495,0.7674981716816949,-0.25556139586890725,-0.13189346931199974,0.8196102475203468
216,1790596350.9636014,0.6562353515625,-0.19040405273437502,-0.16578325195312563,0.7031234788898648,0.7834907934262969,-0.2608785092266702,-0.13632780642725043,0.8369591930108444
217,1790596350.9836013,0.689765625,-0.113763427734375,-0.2136836425781256,0.7310126086648377,0.7963653644590073,-0.26494394336662935,-0.1399069732190513,0.8508625317828395
218,1790596351.0086625,0.7137158203125,-0.17603393554687502,-0.23763383789062562,0.772559421364528,0.8127160203792961,-0.26981873217584107,-0.14456742988679305,0.8684521977623245
219,1790596351.0286624,0.7041357421875001,-0.209564208984375,-0.3142744628906256,0.7990574066601095,0.825934110402158,-0.27370389629296477,-0.14855666879435495,0.8826947725091782
220,1790596351.0387123,0.689765625,-0.15208374023437501,-0.31906450195312563,0.775053699998854,0.8326304256709861,-0.27563590612668515,-0.15073791425302865,0.889927242696098
221,1790596351.0587122,0.7041357421875001,-0.137713623046875,-0.24242387695312562,0.7573252415677313,0.8460485683175641,-0.279338733527184,-0.15526987753896287,0.9043987189684292
222,1790596351.082976,0.689765625,-0.080233154296875,-0.2520039550781256,0.7387286171897531,0.8624221649946063,-0.2835537618564939,-0.16084306051093036,0.921978967575441
223,1790596351.102976,0.689765625,-0.132923583984375,-0.23763383789062562,0.7415626322311015,0.8759632905065946,-0.2868266713319573,-0.16548225485868634,0.936464415968715
224,1790596351.1281145,0.7041357421875001,-0.228724365234375,-0.18015336914062563,0.7619561766207607,0.8930584179564769,-0.29100523241533177,-0.171226373971296,0.9547543423935734
225,1790596351.1481144,0.7616162109375001,-0.295784912109375,-0.2184736816406256,0.8457415187656065,0.9068177295200719,-0.2946177733725667,-0.17570881007444386,0.969531646155361
226,1790596351.158728,0.814306640625,-0.300574951171875,-0.17536333007812563,0.8855466694500282,0.9142786128458318,-0.2967219956241771,-0.1780442075695358,0.977573048136842
227,1790596351.1787279,0.7903564453125,-0.219144287109375,-0.17536333007812563,0.8387131969605442,0.9286360075034693,-0.3008719926802858,-0.18231099885363727,0.9930388163180734
228,1790596351.2030706,0.795146484375,-0.07065307617187501,-0.13704301757812562,0.8099571454425163,0.9463843876802726,-0.3056945361388799,-0.1872956513997998,1.0120139424451644
229,1790596351.2230706,0.833466796875,-0.041912841796875,-0.09393266601562561,0.8397898150998054,0.9612220372200241,-0.3092312490136537,-0.1911231890109364,1.0276671852217856
230,1790596351.2481468,0.7664062500000001,-0.209564208984375,-0.10830278320312561,0.8018885150542142,0.9800439750435095,-0.31347341203661505,-0.19558268560349695,1.0473797591995164
231,1790596351.2681468,0.7711962890625,-0.243094482421875,-0.17536333007812563,0.8274001094898525,0.99511041463444,-0.3170283074121814,-0.19903143024352618,1.0631863407885485
232,1790596351.292309,0.8478369140625001,-0.199984130859375,-0.13225297851562562,0.8810856574527004,1.0135160840251216,-0.32148175844861154,-0.20313039427149449,1.082509736986103
233,1790596351.312309,0.8669970703125001,-0.061072998046875,-0.12746293945312562,0.8784421619861623,1.0290381005183873,-0.3250066803705513,-0.2064038961987578,1.0987043837948423
234,1790596351.3238156,0.814306640625,0.0059875488281250005,-0.14183305664062562,0.8265880301957953,1.0380797705165763,-0.32677800826375625,-0.20823713433104138,1.1080415970327917
235,1790596351.3438156,0.7664062500000001,-0.041912841796875,-0.2184736816406256,0.7980388310829003,1.05380915469476,-0.3294488861211929,-0.21148605113306124,1.1241782122549944
236,1790596351.3681476,0.775986328125,-0.276624755859375,-0.5394062988281256,0.9847005596660521,1.0728898323666922,-0.33279217590877785,-0.21622885593315125,1.1439397461755088
237,1790596351.3881476,0.871787109375,-0.324525146484375,-0.5873066894531256,1.1001174856575608,1.0886925188961818,-0.3360297442040304,-0.22123256224682167,1.1606512121600672
238,1790596351.4129379,0.8861572265625001,-0.113763427734375,-0.3238545410156256,0.9503149537996642,1.1086105388486445,-0.3402557054328002,-0.2281985043220813,1.1818907856907461
239,1790596351.4329379,0.775986328125,0.020357666015625,-0.10351274414062561,0.7831245777027092,1.1247625697112913,-0.3432937744342789,-0.2336164619110238,1.1989654311383235
240,1790596351.4436173,0.7137158203125,0.001197509765625,-0.07477250976562562,0.7176229054389458,1.1332868225986967,-0.3446554237078619,-0.23621835583590572,1.2078598821887059
241,1790596351.4636173,0.7424560546875001,-0.07544311523437501,-0.1993135253906256,0.772436753515804,1.1490402890542657,-0.3469343140405128,-0.24077127233651507,1.22418454887783
242,1790596351.4881923,0.775986328125,-0.16166381835937502,-0.3046943847656256,0.8491929343271506,1.1682924910985868,-0.34975149198070715,-0.24645546203143848,1.244175930351171
243,1790596351.5081923,0.756826171875,-0.247884521484375,-0.26637407226562565,0.8397545693843396,1.1839095993617885,-0.35231462322197493,-0.25124415554436413,1.260512260508494
244,1790596351.5336623,0.7855664062500001,-0.290994873046875,-0.23763383789062562,0.8707826569694272,1.2037611145041998,-0.3561185484678246,-0.25739058704577156,1.28144885019067
245,1790596351.5536623,0.8574169921875,-0.358055419921875,-0.2232637207031256,0.9556224522317864,1.2194754966333734,-0.35963105587340494,-0.2621843732600402,1.2981508497935026
246,1790596351.563537,0.8765771484375,-0.281414794921875,-0.2088936035156256,0.9440436015108007,1.2273545387881546,-0.36157873796910206,-0.2645162352075931,1.3065631199156094
247,1790596351.5835369,0.852626953125,-0.147293701171875,-0.08914262695312561,0.8698359405889335,1.2435128239760531,-0.3655749104468738,-0.26897779972966485,1.3237515685688723
248,1790596351.6081605,0.8286767578125,-0.046702880859375004,0.006658154296874391,0.8300184690944189,1.2635275416414187,-0.3701151939693212,-0.2737991810391156,1.3447873797857584
249,1790596351.6281605,0.7999365234375,-0.06586303710937501,0.02581831054687439,0.8030585074239858,1.27978848046889,-0.3734186227066402,-0.27707911435784577,1.361643440162777
250,1790596351.6536496,0.7472460937500001,-0.142503662109375,0.049768505859374396,0.7623391125442085,1.3003614722166652,-0.3773955164046355,-0.2804877269704793,1.3827655980710833
251,1790596351.6736495,0.7472460937500001,-0.132923583984375,0.08329877929687439,0.7635339484503845,1.316324392618516,-0.38046105143063086,-0.28256150495687243,1.3990359260368186
252,1790596351.6836245,0.756826171875,-0.118553466796875,0.0641386230468744,0.7687356775191807,1.324216879295223,-0.3819487777077212,-0.2833303530918498,1.407022139550744
253,1790596351.7036245,0.7424560546875001,-0.094603271484375,-0.10351274414062561,0.7555829936659487,1.3399167007904815,-0.384803994500468,-0.2846997363036203,1.4228509476020725
254,1790596351.7281954,0.7232958984375001,-0.085023193359375,-0.14662309570312562,0.7428891117112324,1.3590126089777583,-0.388116619756555,-0.2865906921601438,1.4421109550671258
255,1790596351.7481954,0.699345703125,-0.089813232421875,-0.08914262695312561,0.7107019326958176,1.374358522333297,-0.3906707918021426,-0.28825264266901873,1.4575920559207058
256,1790596351.7731664,0.6370751953125,-0.142503662109375,-0.08914262695312561,0.6588767002536567,1.3931475456819167,-0.3938165441023236,-0.29035031619071255,1.4765686101770863
257,1790596351.7931664,0.6274951171875001,-0.089813232421875,-0.23763383789062562,0.6769685219586272,1.4078357567615682,-0.3963066121727707,-0.29226855314513006,1.4914695290302864
258,1790596351.803705,0.7041357421875001,0.010777587890625,-0.3334346191406256,0.7791674692055205,1.415466971706726,-0.39748435799286264,-0.29357908099456065,1.4992428888072868
259,1790596351.823705,0.7232958984375001,-0.07544311523437501,-0.3334346191406256,0.8000170408024017,1.4299181773572813,-0.3994812007229467,-0.29669342168591795,1.514027149736594
260,1790596351.8488646,0.6945556640625,-0.104183349609375,-0.18494340820312563,0.7262684111641629,1.4480460621128028,-0.40195534223855495,-0.3010016997597383,1.5326472256891868
261,1790596351.8688645,0.6514453125,-0.032332763671875,-0.04124223632812561,0.6535497875772197,1.4623138167528755,-0.4038318586099364,-0.3042520204070291,1.547259241567643
262,1790596351.8934674,0.70892578125,-0.017962646484375,-0.00771196289062561,0.709195244175588,1.4797427004324004,-0.4058867947650642,-0.3077409642160333,1.5649559261219608
263,1790596351.9134674,0.6945556640625,-0.037122802734375,-0.060402392578125616,0.6981648243740999,1.4938908448105341,-0.4073893325252083,-0.31025390886394444,1.5792192414067854
264,1790596351.9234927,0.6849755859375001,-0.051492919921875005,-0.10351274414062561,0.6946639204190936,1.5009562646163255,-0.40809615460740845,-0.31144785635924865,1.5863202535828376
265,1790596351.9434927,0.7041357421875001,-0.080233154296875,-0.10351274414062561,0.7162118336594909,1.515020864600905,-0.40949231200064085,-0.3137829884036403,1.6004474179351293
266,1790596351.9681895,0.756826171875,-0.132923583984375,-0.19452348632812563,0.792649935562646,1.5324893800940815,-0.4113525634731952,-0.31678602189013993,1.6180506837679998
267,1790596351.9881895,0.7041357421875001,-0.061072998046875,-0.23763383789062562,0.7456586990218804,1.5467052190281063,-0.41292405636746204,-0.31950138599179007,1.632447379411176
268,1790596352.013953,0.689765625,0.020357666015625,-0.15620317382812562,0.7075241928805149,1.5649642405461877,-0.4147234357121254,-0.3232355715346746,1.6509360487379647
269,1790596352.033953,0.737666015625,-0.003592529296875,-0.03166215820312561,0.738353945704153,1.5791535521432718,-0.41588560364597044,-0.32598136153848145,1.6652178910392383
270,1790596352.057989,0.7616162109375001,0.010777587890625,-0.06998247070312562,0.7649006179689285,1.5963510798810268,-0.4170598382937168,-0.32896949722496444,1.682407979373418
271,1790596352.0779889,0.7807763671875,-0.008382568359375,-0.18494340820312563,0.8024251162872441,1.610828027186535,-0.4178867511590786,-0.3314653157346621,1.6968398644241691
272,1790596352.08822,0.718505859375,-0.022752685546875002,-0.2041035644531256,0.7472794789623716,1.6182733131064995,-0.41827019922262687,-0.33284907024624666,1.704273152705931
273,1790596352.1082199,0.67060546875,-0.07065307617187501,-0.18015336914062563,0.6979676126459412,1.6327281555556148,-0.4190474496876829,-0.3357247183872909,1.7187533509989201
274,1790596352.148741,0.7232958984375001,-0.041912841796875,-0.17536333007812563,0.7454300373208004,1.6618577527467258,-0.4207280892988266,-0.3417574624692036,1.7480221619426992
275,1790596352.168741,0.7232958984375001,-0.017962646484375,-0.17536333007812563,0.7444675351560488,1.6762484845904289,-0.42152298731513627,-0.3448144910988427,1.7624947217505473
276,1790596352.1789052,0.699345703125,-0.003592529296875,-0.14183305664062562,0.7135922748335862,1.6835495220262675,-0.42188280048375704,-0.34637687591933064,1.7698307915251466
277,1790596352.1989052,0.689765625,-0.008382568359375,-0.10830278320312561,0.6982666952773012,1.6978443571005437,-0.42250255975280604,-0.34936520751356465,1.7841636478072376
278,1790596352.2079382,0.7137158203125,-0.008382568359375,-0.10351274414062561,0.7212318821406656,1.7042829836914226,-0.4227518440994926,-0.3506559312587773,1.7906030247703202
279,1790596352.2279382,0.7711962890625,0.001197509765625,-0.13225297851562562,0.7824551109294797,1.7186278052086974,-0.42323177327792394,-0.3534387136221396,1.8049170593230353
280,1790596352.2688036,0.737666015625,0.015567626953125,-0.13225297851562562,0.7495894555977084,1.748166155925249,-0.4240139220876198,-0.35908248616420846,1.834342647030935
281,1790596352.2888036,0.680185546875,-0.07065307617187501,-0.15141313476562562,0.7004071478288504,1.7625808623907755,-0.4244219234851331,-0.3618557899594648,1.8487197944329525
282,1790596352.2984262,0.7137158203125,-0.099393310546875,-0.17536333007812563,0.7416344112039989,1.769481866471294,-0.4247115009399806,-0.36322579196593935,1.8556343688212689
283,1790596352.3184261,0.7520361328125,-0.099393310546875,-0.18015336914062563,0.7796746832171519,1.7838723402738204,-0.4255212705332591,-0.3661794180936064,1.870121986477248
284,1790596352.3288174,0.7472460937500001,-0.089813232421875,-0.16578325195312563,0.7706667424839696,1.7913960299246,-0.426026344126195,-0.36775342503097824,1.8777222274716685
285,1790596352.3488173,0.7520361328125,-0.118553466796875,-0.11309282226562561,0.7696773713661733,1.8059536514578665,-0.42716519052031826,-0.3707468023918686,1.8924565735281895
286,1790596352.373393,0.7616162109375001,-0.022752685546875002,-0.08435258789062561,0.7666109160103549,1.8239485623701073,-0.42861513234424786,-0.3742372183937394,1.9106419825486776
287,1790596352.393393,0.737666015625,-0.013172607421875001,-0.06998247070312562,0.7410952802440908,1.8386452700207743,-0.4296720019244827,-0.3768831785619637,1.925428624615965
288,1790596352.4186075,0.7424560546875001,-0.061072998046875,-0.10830278320312561,0.7527950564941995,1.857193507332391,-0.4309449632086223,-0.38005577984833017,1.9440482712084572
289,1790596352.4386075,0.7328759765625,-0.06586303710937501,-0.11788286132812562,0.745212389641111,1.8719120283863102,-0.43199361840818773,-0.38253407769505515,1.958827569991998
290,1790596352.4481957,0.7232958984375001,-0.017962646484375,-0.18494340820312563,0.7467822156445754,1.8789569949446572,-0.43248122665741323,-0.38376175354960873,1.9659075471013452
291,1790596352.4681957,0.7232958984375001,-0.080233154296875,-0.2280537597656256,0.7626288960485134,1.893617629402075,-0.43349305124445636,-0.38655792203045886,1.9806895210870554
292,1790596352.4930286,0.7280859375000001,-0.113763427734375,-0.23284379882812561,0.7728308252960936,1.91179365041011,-0.434922246170578,-0.39036741269915065,1.9991245681197318
293,1790596352.5130286,0.7232958984375001,-0.037122802734375,-0.19452348632812563,0.7499162926037907,1.9264135395593172,-0.436126963970778,-0.3936163385697311,2.0140033952525664
294,1790596352.5380237,0.6658154296875001,-0.041912841796875,-0.11788286132812562,0.6774682588227631,1.9445482069538682,-0.4375548891068221,-0.3976532942574746,2.0324492988959424
295,1790596352.5580237,0.63228515625,-0.06586303710937501,-0.07477250976562562,0.6400885772203785,1.9588293411404194,-0.4386877317323265,-0.4006879436934099,2.0469514263671025
296,1790596352.5690186,0.7137158203125,-0.061072998046875,-0.08435258789062561,0.7212735558292874,1.9666126261853938,-0.43932176494242225,-0.40223720481430403,2.0548390699908254
297,1790596352.5890186,0.7903564453125,-0.061072998046875,-0.07956254882812562,0.7966953124711306,1.9809030014904896,-0.44048530584923684,-0.40487849580838886,2.0692826298867897
298,1790596352.613476,0.7711962890625,-0.051492919921875005,-0.08914262695312561,0.778037046036984,1.9986213998211062,-0.44190122077287813,-0.407933424194512,2.0871449080786166
299,1790596352.633476,0.7280859375000001,-0.032332763671875,-0.11788286132812562,0.7382756321231396,2.013186095011723,-0.44301113889206606,-0.41036739376799447,2.101803635023722
300,1790596352.6595113,0.7280859375000001,-0.008382568359375,-0.13704301757812562,0.7409184762876898,2.032145346057747,-0.44431876787484653,-0.413558365741304,2.1208640684552607
301,1790596352.6795113,0.7711962890625,-0.008382568359375,-0.15620317382812562,0.7869011470509178,2.0467738768980865,-0.44519774339588786,-0.41608180781139464,2.1355581014500196
302,1790596352.704266,0.7280859375000001,-0.06586303710937501,-0.17057329101562563,0.7506945581595927,2.0649478166269413,-0.4462603394953061,-0.4193433622842253,2.1538353306347906
303,1790596352.724266,0.6514453125,-0.056282958984375006,-0.19452348632812563,0.6821936333501714,2.0794978080764888,-0.44717328118536265,-0.4221308334189432,2.168517815865015
304,1790596352.7339768,0.67060546875,-0.07544311523437501,-0.10351274414062561,0.6827285306424488,2.086465580940025,-0.4476459976649899,-0.42349831012012085,2.1755634622661497
305,1790596352.7539768,0.7137158203125,-0.037122802734375,-0.08435258789062561,0.7196413924525505,2.100740042854196,-0.4486423973364407,-0.426174051575713,2.189980148443199
306,1790596352.7780895,0.7232958984375001,0.029937744140625,-0.17536333007812563,0.7448526852719466,2.1179671475082342,-0.44967649237834834,-0.4293858106978509,2.207343643420868
307,1790596352.7980895,0.6562353515625,0.010777587890625,-0.24721391601562562,0.7013385154922542,2.132181929336881,-0.4503444791421389,-0.4322840366437678,2.2216839149666585
308,1790596352.8233833,0.6274951171875001,-0.037122802734375,-0.2088936035156256,0.6623932081224514,2.1498979430566045,-0.4511125351964374,-0.4362648495674064,2.2396184282012075
309,1790596352.8433833,0.641865234375,-0.032332763671875,-0.12267290039062562,0.6542820700555559,2.163708916426035,-0.45173292900042017,-0.4394377036276864,2.2536202895639716
310,1790596352.8533735,0.641865234375,-0.008382568359375,-0.07956254882812562,0.6468318527466015,2.1705346981942784,-0.45202684524773135,-0.4409363766336262,2.2605251675503935
311,1790596352.8733735,0.622705078125,-0.022752685546875002,-0.12746293945312562,0.636023663047444,2.1840467349001833,-0.45257369460626157,-0.44379715158029687,2.2741677600890613
312,1790596352.8984938,0.6370751953125,-0.085023193359375,-0.2232637207031256,0.6803972640110254,2.200845797837685,-0.4533605693861089,-0.4475121250577598,2.2911842208359428
313,1790596352.9184937,0.689765625,-0.108973388671875,-0.2615840332031256,0.7457063921524919,2.214204722006931,-0.4541840767577366,-0.4507534819592469,2.304813317393939
314,1790596352.9732835,0.6562353515625,-0.128133544921875,-0.2041035644531256,0.6990860512104896,2.250842916968574,-0.45707599740208615,-0.4602148208455196,2.3424367623469764
315,1790596352.9932835,0.641865234375,-0.18561401367187502,-0.15141313476562562,0.6851054506790982,2.2641580383112805,-0.4584439134191838,-0.46368372686786746,2.3561801804536846
316,1790596352.9742858,0.622705078125,-0.113763427734375,-0.07956254882812562,0.6379921088764066,2.2641580383112805,-0.4584439134191838,-0.46368372686786746,2.3561801804536846
317,1790596352.9942858,0.6179150390625,-0.16645385742187502,-0.12267290039062562,0.6515938325678667,2.2772514674932482,-0.46023426414218666,-0.4667878580692724,2.3697216563410044
318,1790596353.0180588,0.63228515625,-0.15208374023437501,-0.08435258789062561,0.6557662250692768,2.29270950541108,-0.46261109126428707,-0.4702932424057907,2.3857287422956546
319,1790596353.0380588,0.5987548828125,-0.113763427734375,-0.08914262695312561,0.6159512441109191,2.30561007002149,-0.4647095250830031,-0.4730601770187136,2.3990787124995183
320,1790596353.063106,0.5891748046875,-0.17124389648437502,-0.14183305664062562,0.6297364833942275,2.321574450152894,-0.4674787315670157,-0.4764395091802481,2.415623914846459
321,1790596353.083106,0.613125,-0.329315185546875,-0.2088936035156256,0.7266411044294949,2.3342131649781606,-0.470109071899858,-0.47925920264233146,2.4288357339180577
322,1790596353.092742,0.6179150390625,-0.305364990234375,-0.2041035644531256,0.7188358907170134,2.3402787284068154,-0.4716449476591088,-0.4807124145936977,2.4352490445189146
323,1790596353.112742,0.6035449218750001,-0.295784912109375,-0.14662309570312562,0.68793424042289,2.3528119626151045,-0.4752563089955426,-0.4838023034955513,2.4486031445565875
324,1790596353.139049,0.5748046875,-0.34368530273437503,-0.17057329101562563,0.691097144904747,2.369149706231621,-0.4805556984372362,-0.48788280219753566,2.4661374127404163
325,1790596353.159049,0.5652246093750001,-0.415535888671875,-0.23284379882812561,0.739165183480769,2.381417404580754,-0.4851190614502161,-0.49112479699417405,2.47945415864965
326,1790596353.183727,0.47900390625,-0.46343627929687503,-0.2520039550781256,0.7125474865202374,2.3962166683661725,-0.49153203311669363,-0.49542243205852626,2.4957767222895755
327,1790596353.203727,0.48379394531250003,-0.46343627929687503,-0.31906450195312563,0.7420457687340866,2.40785566591118,-0.49734005885094773,-0.4992395554644116,2.508855550991077
328,1790596353.2133405,0.536484375,-0.477806396484375,-0.42444536132812566,0.8344269302302554,2.413346700707869,-0.5003917201302492,-0.5013352163214161,2.5151483396643837
329,1790596353.2333405,0.5748046875,-0.5352868652343751,-0.3621748535156256,0.864929523940235,2.4247236620559813,-0.5073077404337158,-0.5062209913507888,2.528419599853297
330,1790596353.2589364,0.5891748046875,-0.5783972167968751,-0.19452348632812563,0.8482391629783276,2.4393343100101985,-0.5169691048439728,-0.5126045587799765,2.545657550621867
331,1790596353.2789364,0.5316943359375,-0.458646240234375,-0.15620317382812562,0.7193432227130014,2.450719539128947,-0.5249414390656945,-0.517370410433606,2.559152577614121
332,1790596353.3033366,0.4167333984375,-0.434696044921875,-0.36696489257812565,0.7051883501794852,2.464261785733104,-0.534843668973142,-0.5232700575050014,2.5753554030359473
333,1790596353.3233366,0.4167333984375,-0.559237060546875,-0.6160469238281256,0.9305517866408477,2.4749470569825305,-0.5432335890120344,-0.5288549402916782,2.588465416992914
334,1790596353.3488019,0.45026367187500005,-0.750838623046875,-0.6447871582031256,1.0873115889444696,2.4881673222115643,-0.554815888017637,-0.5373073737404613,2.605282423614403
335,1790596353.3688018,0.4742138671875,-0.726888427734375,-0.3430146972656256,0.9332227283705131,2.4983795658858297,-0.5647645386116188,-0.5444317148454744,2.61863806804962
336,1790596353.3788545,0.40236328125000004,-0.38200561523437504,-0.14662309570312562,0.5738665632030044,2.5034035345027363,-0.5698510454644358,-0.5478446766379078,2.6252415622754026
337,1790596353.3988545,0.26345214843750003,-0.046702880859375004,-0.00771196289062561,0.2676708201663489,2.512898237547865,-0.5790958462058982,-0.5538478030440599,2.6375664807357597
338,1790596353.4239438,0.22513183593750002,-0.003592529296875,0.03060834960937439,0.22723142583090927,2.523941755339088,-0.5890481691586296,-0.5602058211027622,2.6516203144361956
339,1790596353.4439437,0.19160156250000002,-0.104183349609375,-0.01729204101562561,0.2187792123826136,2.5320497217766995,-0.5959533279453141,-0.5644939126221397,2.6617831504512175
340,1790596353.4690375,0.124541015625,-0.33410522460937503,-0.23284379882812561,0.4258556097281097,2.5412917559103136,-0.6041424660307687,-0.5695378718726468,2.6734856078566587
341,1790596353.4890375,0.19160156250000002,-0.506546630859375,-0.5106660644531257,0.7443658222752233,2.5480270564791305,-0.6109512372339879,-0.5740702046183714,2.682398161097271
342,1790596353.5137,0.24908203125,-0.458646240234375,-0.5441963378906256,0.7540211443628899,2.5559018358281342,-0.6198732033882451,-0.5807719663919975,2.693357209806241
343,1790596353.5337,0.3305126953125,-0.415535888671875,-0.40528520507812565,0.6679556976269285,2.56219935279602,-0.6273344322624358,-0.5868157460373368,2.702363175660839
344,1790596353.543259,0.28261230468750004,-0.329315185546875,-0.3238545410156256,0.5414794270597865,2.5651973070601053,-0.6308995864040464,-0.5897937915594024,2.706682144034506
345,1790596353.563259,0.2442919921875,-0.305364990234375,-0.3909150878906256,0.5529384781766531,2.5713193523904527,-0.6381920278353423,-0.5961622280637164,2.7155812782054856
346,1790596353.588667,0.2347119140625,-0.34368530273437503,-0.42923540039062563,0.5978731461330256,2.5788429867202907,-0.6473035461377833,-0.6046020156850362,2.7267153552157564
347,1790596353.608667,0.18202148437500001,-0.458646240234375,-0.2807441894531256,0.5677195560898876,2.584501993371012,-0.6546033695729356,-0.611313870303844,2.735299028117555
348,1790596353.6190345,0.11017089843750001,-0.496966552734375,-0.08914262695312561,0.5167782787030801,2.5872226926420403,-0.6585629107690193,-0.6145588935221649,2.7395454006768496
349,1790596353.6390345,0.10059082031250001,-0.434696044921875,0.07850874023437439,0.4530372908437571,2.5920000121566136,-0.6664529309137195,-0.6198957645402794,2.7471611403480414
350,1790596353.6637259,0.10059082031250001,-0.34368530273437503,0.08329877929687439,0.36766395945089597,2.5973858088488146,-0.6761740307248209,-0.6251965433712559,2.7558111469546
351,1790596353.6837258,0.09101074218750001,-0.35326538085937503,0.03060834960937439,0.3660823071018983,2.6013813306149287,-0.6839124305795622,-0.6286752677607748,2.762273272554188
352,1790596353.7087753,0.0143701171875,-0.405955810546875,-0.01729204101562561,0.40657795693721377,2.605832953225975,-0.6935771062254609,-0.6323537091734643,2.769708612093324
353,1790596353.7287753,0.0,-0.458646240234375,-0.01250200195312561,0.4588166014149488,2.608875633324784,-0.7014330080557398,-0.6348948002894589,2.775127338047843
354,1790596353.7387064,-0.01916015625,-0.5783972167968751,-0.04603227539062561,0.5805423519120152,2.6101455911571927,-0.7055211839737431,-0.6360109209131464,2.7776122910863266
355,1790596353.7587063,-0.0814306640625,-0.621507568359375,-0.15620317382812562,0.6459891965750066,2.6121686122660885,-0.714319157654114,-0.6382248432614198,2.7822666422282194
356,1790596353.7837195,-0.124541015625,-0.587977294921875,-0.11788286132812562,0.6124737814073825,2.6139328089404255,-0.7259409346788024,-0.6410925636343145,2.787585809521338
357,1790596353.8037195,-0.1580712890625,-0.46343627929687503,0.049768505859374396,0.4921753971602869,2.614707909997698,-0.7354166812501682,-0.6431437533282603,2.7912665650400905
358,1790596353.8288631,-0.1580712890625,-0.367635498046875,0.2078397949218744,0.4509321148501414,2.614940014128724,-0.7471097232057375,-0.6448498744583374,2.7949804250815458
359,1790596353.8488631,-0.1197509765625,-0.35326538085937503,0.1551493652343744,0.4039901622985652,2.6146802102388933,-0.7560969158962361,-0.6454589255209778,2.7972937587206315
360,1790596353.8582788,-0.1484912109375,-0.477806396484375,-0.08435258789062561,0.5074090572022878,2.61438682082369,-0.7602801510566813,-0.6456526514392981,2.7981979385486593
361,1790596353.8782787,-0.277822265625,-0.487386474609375,-0.02208208007812561,0.5614431450910589,2.6132176344453923,-0.7692808012070719,-0.6461620768767239,2.799682979495323
362,1790596353.9037037,-0.41194335937500004,-0.5161267089843751,0.1072489746093744,0.669019023358054,2.6106389617917216,-0.7809201301534273,-0.6465501401517996,2.8005890670061033
363,1790596353.9237037,-0.44068359375000005,-0.602347412109375,0.1455692871093744,0.7604044003192038,2.6076358350902415,-0.7903802875576105,-0.6464303853124511,2.800417449321018
364,1790596353.9487941,-0.4263134765625,-0.592767333984375,0.0641386230468744,0.7329597911919166,2.602801963365595,-0.8027170309107157,-0.6459080602586172,2.799308828000398
365,1790596353.968794,-0.4358935546875,-0.46343627929687503,0.1551493652343744,0.6548646436625397,2.5982334747998617,-0.8126600683923365,-0.645225228388002,2.797775754358871
366,1790596353.9789996,-0.4981640625,-0.314945068359375,0.3611210449218744,0.6912063645076351,2.595537023933708,-0.8175684897523685,-0.6445339005593329,2.7965433354441065
367,1790596353.9989996,-0.5604345703125,-0.38200561523437504,0.3898612792968744,0.7823087720120141,2.5894574721839234,-0.826790194633035,-0.642255837975576,2.7930922984398845
368,1790596354.024003,-0.6083349609375001,-0.39158569335937504,0.3132206542968744,0.7883641025698306,2.580805311388078,-0.838040293870406,-0.6385166021111387,2.78757440091038
369,1790596354.044003,-0.42152343750000004,-0.41074584960937505,0.3323808105468744,0.675922454541156,2.57337786939323,-0.8468927997912167,-0.6350058720102187,2.7825767789062903
370,1790596354.06834,-0.25387207031250003,-0.444276123046875,0.2078397949218744,0.552294922978189,2.5644626896339675,-0.8576098282804611,-0.63038858013473,2.7765722151696695
371,1790596354.08834,-0.335302734375,-0.37242553710937504,0.1168290527343744,0.514565575931163,2.557351472977256,-0.8663209671056659,-0.6266762942146739,2.7718733290171245
372,1790596354.1138582,-0.335302734375,-0.286204833984375,0.05455854492187439,0.44420464371657314,2.5483557431331856,-0.8770289316610259,-0.6223222199249328,2.765968489687232
373,1790596354.1338582,-0.41194335937500004,-0.496966552734375,0.07850874023437439,0.6502589546965403,2.541241999869787,-0.8853372383442718,-0.6192219736316965,2.761370815397597
374,1790596354.1439867,-0.3688330078125,-0.39158569335937504,0.2174198730468744,0.5802142225863455,2.537586699818335,-0.8895886226350908,-0.6176626382883124,2.759025427819393
375,1790596354.1639867,-0.2682421875,-0.405955810546875,0.4425517089843744,0.6577279121312596,2.530495919510113,-0.897920588362051,-0.6140554452903955,2.754402852081113
376,1790596354.1885242,-0.316142578125,-0.314945068359375,0.4521317871093744,0.6352634718777161,2.5220258640834152,-0.9079362437781181,-0.6086471918515378,2.7487113500730445
377,1790596354.2085242,-0.3784130859375,-0.45385620117187503,0.2844804199218744,0.6558285021786056,2.515115852942603,-0.9160284375644018,-0.6037953572840855,2.74399064969757
378,1790596354.2340474,-0.44068359375000005,-0.5544470214843751,0.1359892089843744,0.721184161219245,2.506052365388727,-0.9267364682286948,-0.5977275162536653,2.7379585685875902
379,1790596354.2540474,-0.40236328125000004,-0.621507568359375,-0.00771196289062561,0.7404237583964174,2.498750965962345,-0.9356325938246897,-0.5934935518274506,2.7333860569970048
380,1790596354.2788887,-0.28740234375,-0.5161267089843751,-0.08435258789062561,0.5967430318016965,2.489757364111375,-0.9471442616448118,-0.5891950411405509,2.7282090794178755
381,1790596354.2988887,-0.20597167968750002,-0.46343627929687503,-0.07477250976562562,0.5126289555014151,2.48286259236327,-0.9564915377893881,-0.5864920714517664,2.7246019276759217
382,1790596354.308325,-0.19160156250000002,-0.449066162109375,-0.02687211914062561,0.48897207230187784,2.4798160977171495,-0.9608860293097327,-0.5854799928174382,2.7231556440661344
383,1790596354.328325,-0.18681152343750002,-0.568817138671875,-0.07956254882812562,0.6039715901529861,2.473760100641196,-0.9703296993225167,-0.5838163458452509,2.7206378455405944
384,1790596354.353324,-0.22034179687500002,-0.7364685058593751,-0.4004951660156256,0.8667945232722273,2.4665625009014773,-0.9828104713204385,-0.5829488655240735,2.7183959191417015
385,1790596354.373324,-0.19639160156250002,-0.707728271484375,-0.5010859863281256,0.8891209890206031,2.46104282352426,-0.9934640536143857,-0.5837113240281685,2.71742921064062
386,1790596354.3841622,-0.162861328125,-0.688568115234375,-0.31906450195312563,0.7761778262245415,2.4582082854983534,-0.9995063882499698,-0.584729208886227,2.717298151246927
387,1790596354.4041622,-0.20118164062500002,-0.659827880859375,-0.09393266601562561,0.6961826129893962,2.453216207612433,-1.0110064697178525,-0.5869452711919007,2.7175188305655245
388,1790596354.4277697,-0.18202148437500001,-0.640667724609375,-0.00771196289062561,0.666067885805838,2.44752907422797,-1.0248473324069893,-0.589348657574085,2.718095374360017
389,1790596354.4477696,-0.1772314453125,-0.6358776855468751,0.01144819335937439,0.6602139632840265,2.4428948355563516,-1.036729087872311,-0.5910737550278381,2.718806827104706
390,1790596354.4728546,-0.2347119140625,-0.607137451171875,-0.06519243164062562,0.6541831703441942,2.437179197423949,-1.051734949057791,-0.593014015671033,2.719862949894337
391,1790596354.4928546,-0.22034179687500002,-0.626297607421875,0.0018681152343743902,0.663929733004177,2.4326231527859514,-1.0637545109928246,-0.5944239088038519,2.7207662241518467
392,1790596354.5179963,-0.20597167968750002,-0.659827880859375,0.02581831054687439,0.6917107418221569,2.4269510410500548,-1.0790228559117636,-0.5958782070629773,2.722030954432097
393,1790596354.5379963,-0.19639160156250002,-0.731678466796875,-0.02687211914062561,0.7580535276124091,2.4225122052885637,-1.091434055374458,-0.5968631354036159,2.72324058511308
394,1790596354.5483882,-0.143701171875,-0.765208740234375,-0.10351274414062561,0.7854357587536044,2.420286689486713,-1.0980822332472762,-0.5973997586812778,2.7240518941371743
395,1790596354.5683882,-0.10059082031250001,-0.8131091308593751,-0.2184736816406256,0.8479361540750809,2.4162795751376147,-1.1113253287767593,-0.5987605891275999,2.726163093928977
396,1790596354.593713,-0.0814306640625,-0.803529052734375,-0.2520039550781256,0.8460472120472236,2.411620969545686,-1.1286495316498966,-0.6011188661807065,2.7296720237648304
397,1790596354.613713,-0.0718505859375,-0.779578857421875,-0.26637407226562565,0.826958794628929,2.408263830601481,-1.142653539488884,-0.6034794908923905,2.733053106878374
398,1790596354.6232715,-0.1484912109375,-0.702938232421875,-0.2136836425781256,0.7495548661916159,2.4067420871564327,-1.1494052356060191,-0.6047826022310618,2.734831231664946
399,1790596354.6432714,-0.229921875,-0.626297607421875,-0.2615840332031256,0.7166163325606629,2.4034679996585684,-1.1634071906148726,-0.6078131274217564,2.738541859169468
400,1790596354.6680515,-0.28261230468750004,-0.631087646484375,-0.19452348632812563,0.718317979058868,2.3990673401298985,-1.1804902382314861,-0.6118524096034098,2.74288984032813
401,1790596354.6880515,-0.37362304687500003,-0.5975573730468751,-0.08435258789062561,0.7097776795044252,2.3950639793682065,-1.194052781166921,-0.6150418142988847,2.7459734053365468
402,1790596354.7133243,-0.354462890625,-0.496966552734375,0.03060834960937439,0.6111927408213622,2.3893839213340025,-1.2106948978086283,-0.6185694145184695,2.7491027226509783
403,1790596354.7333243,-0.28740234375,-0.587977294921875,0.05934858398437439,0.6571450836440832,2.3846003875653055,-1.2235167659734412,-0.620807347977703,2.7511295949660064
404,1790596354.743126,-0.28261230468750004,-0.602347412109375,0.07850874023437439,0.6699669707745525,2.382188682953742,-1.2297329991631094,-0.6216382608773476,2.7519993273636887
405,1790596354.763126,-0.316142578125,-0.592767333984375,0.09766889648437439,0.678865564955935,2.3771076803545084,-1.2423071318758097,-0.6228151336778365,2.753518953021394
406,1790596354.7884839,-0.296982421875,-0.568817138671875,-0.03645219726562561,0.6427132010742362,2.3704657406785077,-1.2580676118327745,-0.6239670416363133,2.7552090324912735
407,1790596354.8084838,-0.26345214843750003,-0.568817138671875,-0.14183305664062562,0.6427103451160691,2.3651723316173205,-1.270339891296543,-0.6250067086434185,2.7565262530069803
408,1790596354.8336515,-0.27303222656250004,-0.525706787109375,-0.08435258789062561,0.5983557318505304,2.3584976948427294,-1.285532669275202,-0.6265457090210091,2.7581996203764754
409,1790596354.8536515,-0.32572265625,-0.429906005859375,-0.01250200195312561,0.5395097058639007,2.353091058402534,-1.2972283256847141,-0.6277305366016069,2.75932681730071
410,1790596354.8935862,-0.3784130859375,-0.377215576171875,0.05934858398437439,0.5375967902958236,2.341805832071658,-1.3194958778557124,-0.629601143861578,2.760710330178604
411,1790596354.9135861,-0.38320312500000003,-0.434696044921875,0.1695194824218744,0.6037732533004975,2.3358593418016054,-1.3301929349174593,-0.6300541506812214,2.7609093323716354
412,1790596354.908621,-0.37362304687500003,-0.458646240234375,0.1647294433593744,0.6140735659078445,2.3358593418016054,-1.3301929349174593,-0.6300541506812214,2.7609093323716354
413,1790596354.928621,-0.41194335937500004,-0.40116577148437504,0.1551493652343744,0.5955691673319259,2.3294197016469895,-1.3403502857595069,-0.6294754633791673,2.7602489731821582
414,1790596354.9532073,-0.43110351562500004,-0.429906005859375,0.08329877929687439,0.6144982519833112,2.3211362791256827,-1.3524963165231751,-0.6284310945651412,2.7589573307861284
415,1790596354.9732072,-0.4071533203125,-0.540076904296875,0.044978466796874395,0.6778495048842234,2.3141513713186677,-1.3623495909898016,-0.6275165562094286,2.7577291393034034
416,1790596354.9982495,-0.354462890625,-0.540076904296875,-0.055612353515625615,0.6483978232911286,2.305286897551634,-1.3748651317438376,-0.6265631866135013,2.7562988294681516
417,1790596355.0182495,-0.36404296875000003,-0.5783972167968751,-0.10830278320312561,0.6919538397496093,2.2981914841569644,-1.3850390269201862,-0.6261618633147309,2.755375815204413
418,1790596355.0278373,-0.40236328125000004,-0.583187255859375,-0.2088936035156256,0.7386745718412122,2.2947491331277967,-1.3900199645937137,-0.6262264222653281,2.7550296945592287
419,1790596355.0478373,-0.37362304687500003,-0.611927490234375,-0.2280537597656256,0.75236822886399,2.2874815515311675,-1.4006442930583665,-0.6269963116092064,2.7545418237964654
420,1790596355.0736759,-0.40236328125000004,-0.6358776855468751,-0.19452348632812563,0.77722328053653,2.2779969332472128,-1.4147294323329993,-0.6286606702870746,2.75425918042561
421,1790596355.0936759,-0.3688330078125,-0.5736071777343751,-0.15141313476562562,0.6985620368871788,2.2705999305884492,-1.4258106852953223,-0.6302746052497442,2.754234237154369
422,1790596355.1187732,-0.3448828125,-0.583187255859375,-0.15141313476562562,0.694245970196624,2.2613665679721247,-1.4398078219838895,-0.6325661023487259,2.754444625115683
423,1790596355.1387732,-0.3784130859375,-0.626297607421875,-0.13704301757812562,0.7444635285479239,2.254027303935128,-1.4511031643101533,-0.6345509573005659,2.754812951502709
424,1790596355.1484036,-0.3975732421875,-0.669407958984375,-0.15141313476562562,0.7931566275551512,2.250462904187866,-1.4566621482376683,-0.6355716938541492,2.755067925707585
425,1790596355.1684036,-0.3496728515625,-0.702938232421875,-0.13225297851562562,0.7961683942775515,2.2430500362246444,-1.4685335734140208,-0.6377990315644823,2.755839604533639
426,1790596355.1938882,-0.3209326171875,-0.7125183105468751,-0.11309282226562561,0.7896012120604906,2.233739440137193,-1.4840968753943087,-0.6406803894803675,2.757282499753024
427,1790596355.2138882,-0.3209326171875,-0.6550378417968751,-0.10351274414062561,0.7367409362593129,2.2265658249431546,-1.4965300177276166,-0.6429273646135074,2.7587230855838865
428,1790596355.2384937,-0.258662109375,-0.683778076171875,-0.08914262695312561,0.7364814676689014,2.2179945305219095,-1.5120024622488764,-0.6456326346039444,2.760886213181811
429,1790596355.2584937,-0.17244140625,-0.746048583984375,-0.060402392578125616,0.7680969842954278,2.21142595631586,-1.5248371341970397,-0.6477260268168971,2.7631652234185635
430,1790596355.268517,-0.13412109375,-0.722098388671875,-0.00292192382812561,0.734454279278208,2.208397330721314,-1.5314082967138891,-0.6486654014359247,2.7645970673140035
431,1790596355.288517,-0.21555175781250002,-0.702938232421875,0.02581831054687439,0.7356978347500714,2.202736160265571,-1.5446907856945122,-0.6502242711888782,2.767834499747799
432,1790596355.3134782,-0.3400927734375,-0.688568115234375,0.049768505859374396,0.7695882327825088,2.1956902702742034,-1.5613865881341553,-0.6517364979868254,2.7719567643435847
433,1790596355.3334782,-0.4071533203125,-0.5783972167968751,0.04018842773437439,0.7084717893915222,2.1897707604465317,-1.5746578015095747,-0.6526314730126188,2.774990272906946
434,1790596355.3588102,-0.4742138671875,-0.511336669921875,-0.01729204101562561,0.6975980192934915,2.1817232496240013,-1.5910161048084888,-0.6535515112056871,2.778196926337139
435,1790596355.3788102,-0.49337402343750003,-0.468226318359375,-0.11309282226562561,0.6895243278197558,2.174871281229339,-1.603463308933896,-0.6543645149050018,2.7801713241058086
436,1790596355.388643,-0.5316943359375,-0.506546630859375,-0.12267290039062562,0.7445381095640783,2.171251913374242,-1.6093838174228898,-0.6548781354706891,2.780884124776066
437,1790596355.408643,-0.5748046875,-0.5161267089843751,0.006658154296874391,0.7725487295424512,2.163334658345015,-1.6211537652753099,-0.6559401536063351,2.7818004708778377
