imu_index,t_imu,ax,ay,az,mag,vx,vy,vz,velocity
0,1791285453.8345523,-0.001389111328124962,-0.059683886718749905,0.02878813476562605,0.06627859886435698,0.0,0.0,0.0,0.0
1,1791285453.8545523,-0.001389111328124962,-0.011783496093749903,0.023998095703126048,0.02677104794082109,-5.938445264386084e-06,-0.00018329785497853254,0.0001158841070134994,0.00021693892004480303
2,1791285453.8794525,0.02735112304687504,0.0217467773437501,-0.019112255859373956,0.039828188269090466,3.626158146074425e-05,-0.00035866796164127026,0.00024764393375142457,0.0004373615517187329
3,1791285453.8994524,0.02735112304687504,0.0121666992187501,-0.014322216796873954,0.03318491217076658,0.00014712587901895375,-0.0004275273240540768,0.0002874479797726243,0.0005357723193347174
4,1791285453.924121,0.012981005859375038,-0.03573369140624991,0.004837939453126046,0.038325042371670524,0.0003379770036030746,-0.0005433222884817442,0.00031163176804612186,0.0007117175865335241
5,1791285453.944121,0.02735112304687504,-0.059683886718749905,0.009627978515626046,0.06635471525128585,0.0005299980095669145,-0.0007662472948996937,0.00034999660547488896,0.0009952539529838275
6,1791285453.9543138,0.10878178710937504,-0.0453137695312499,0.047948291015626046,0.1272236358824876,0.0007172499071053589,-0.0009430849039388383,0.0004106312166327297,0.001253983477304725
7,1791285453.9743137,0.09920170898437504,0.0504870117187501,0.05752836914062605,0.12529736898151525,0.001341529325452563,-0.0012302602492433893,0.0006699743246671788,0.00193961511842707
8,1791285453.9993331,0.08004155273437505,0.0313268554687501,-0.03348237304687396,0.09224473612374709,0.002341683764268832,-0.0013821011248984485,0.0009908617912092353,0.0028940444814418765
9,1791285454.0193331,0.04172124023437504,-0.059683886718749905,-0.047852490234373955,0.08713603756300753,0.003203904600038035,-0.0015278082370071893,0.0010868936239738797,0.0037122150321670442
10,1791285454.0449147,0.03693120117187504,-0.12195439453124991,4.790039062604557e-05,0.1274236644423974,0.004292231580692942,-0.002034718588222868,0.001099582417681242,0.004875696172735871
11,1791285454.0649147,0.05609135742187504,-0.0788440429687499,0.03836821289062605,0.10409007277116786,0.005155001606513711,-0.002672777933460415,0.0011656387378973685,0.005922541440297302
12,1791285454.0740602,0.07525151367187505,-0.021363574218749903,0.03357817382812605,0.08512747130592029,0.005580436252207173,-0.0029895150665126937,0.0012406626924714144,0.006451179195646704
13,1791285454.0940602,0.09920170898437504,-0.006993457031249903,0.014418017578126047,0.10048764470098663,0.006632929181229886,-0.0036208130398249004,0.0014521141578621383,0.007695107024599507
14,1791285454.118865,0.09441166992187504,-0.021363574218749903,-0.014322216796873954,0.09785239708261509,0.008102664890918793,-0.004339085694494265,0.0016752058497842802,0.009342759637165257
15,1791285454.138865,0.05130131835937504,-0.011783496093749903,-0.03348237304687396,0.062383854886111374,0.009328517128799708,-0.00488107421862727,0.0017563948630280797,0.010673848428047346
16,1791285454.1641598,0.04172124023437504,-0.006993457031249903,0.019208056640626046,0.04645987266288912,0.010822817978835875,-0.0054993496299590066,0.0018165954957273622,0.012275025643583817
17,1791285454.1841598,0.06567143554687505,0.0169567382812501,0.019208056640626046,0.07049267947691927,0.011988188729847927,-0.005899932023425515,0.0019146789367018658,0.01349784658136788
18,1791285454.1937144,0.060881396484375044,0.0025866210937500983,0.009627978515626046,0.06169224438183185,0.012552100440744578,-0.0060485925798400755,0.0019751716806963404,0.014072739635183386
19,1791285454.2137144,0.04651127929687504,0.0121666992187501,0.019208056640626046,0.05177139279197489,0.013716524375356063,-0.006290965640315996,0.0021260568880460025,0.015239403122123298
20,1791285454.2388294,0.017771044921875038,0.0409069335937501,0.009627978515626046,0.04562768045776749,0.015080501618808771,-0.0064497011234588356,0.0023414264151496475,0.016568115502808418
21,1791285454.2588294,0.03693120117187504,-0.002203417968749902,-0.014322216796873954,0.039672340045920816,0.016085811087669797,-0.006499091624279148,0.0024801655365145523,0.01752548804962334
22,1791285454.2836077,0.05609135742187504,-0.006993457031249903,-0.023902294921873957,0.061371561176237946,0.01731735498036268,-0.006568195115255761,0.0025552335764308276,0.018696555544219402
23,1791285454.3036077,0.08483159179687504,-0.006993457031249903,4.790039062604557e-05,0.08511938499828929,0.01837367894294867,-0.006636586107625945,0.002570954827981193,0.01970396309857509
24,1791285454.3134801,0.03214116210937504,0.0121666992187501,0.014418017578126047,0.03726878187577119,0.01890350070114593,-0.006661451090673652,0.002588262173504402,0.02020931395348332
25,1791285454.3334801,0.03214116210937504,-0.002203417968749902,-0.014322216796873954,0.03525670498590012,0.01991225827748506,-0.0066893227975399604,0.0026182085066049215,0.021168374641975195
26,1791285454.359335,0.09441166992187504,-0.054893847656249904,-0.023902294921873957,0.11179542759199457,0.02126611263562875,-0.006830667087270859,0.002576992862917191,0.02248436015776078
27,1791285454.379335,0.09920170898437504,-0.011783496093749903,0.014418017578126047,0.10093418190333346,0.022446714482886848,-0.007023619259969386,0.002535666480171171,0.023656200520876525
28,1791285454.4036064,0.07046147460937505,-0.002203417968749902,0.05273833007812605,0.08803979733224054,0.02397339995224803,-0.007248118237432655,0.002615285532484809,0.025181319299645007
29,1791285454.4236064,0.06567143554687505,-0.006993457031249903,0.023998095703126048,0.07026773431249722,0.02524690431016936,-0.007419154779973618,0.002786156011454334,0.026461532461598228
30,1791285454.434459,0.09441166992187504,-0.011783496093749903,4.790039062604557e-05,0.09514418790486324,0.0259645874996271,-0.007513326173224092,0.002884539511810807,0.0271832750493064
31,1791285454.454459,0.15668217773437504,0.0169567382812501,4.790039062604557e-05,0.15759707512251783,0.02746544057533905,-0.007653080811731895,0.003038795749682295,0.0286732340609961
32,1791285454.478928,0.11357182617187504,-0.021363574218749903,0.009627978515626046,0.11596404603889945,0.029522202878303122,-0.007806504516291102,0.003216969907803069,0.030705876814353845
33,1791285454.498928,0.11836186523437504,0.0217467773437501,-0.023902294921873957,0.12269381878942086,0.031299042957199805,-0.007912521148935552,0.0033193453193156542,0.03245390784355335
34,1791285454.5236804,0.18063237304687504,-0.0405237304687499,-0.043062451171873954,0.19006473009103858,0.03372329939998643,-0.008058906286180362,0.0033027266511685446,0.034829798969889296
35,1791285454.5436804,0.15189213867187504,-0.026153613281249904,-0.014322216796873954,0.15479134075250445,0.03588706993913839,-0.008259459815911096,0.003205235996277925,0.036964496521109225
36,1791285454.5686712,0.16626225585937504,-0.0405237304687499,-0.019112255859373956,0.1721934632283884,0.03878155191511566,-0.008597443700132492,0.0030390236487772572,0.03983918262037497
37,1791285454.5886712,0.15189213867187504,-0.016573535156249902,-0.004742138671873955,0.15286723565589472,0.04122775373249867,-0.008913002974328104,0.002890176180963319,0.04227910143563777
38,1791285454.5985148,0.22853276367187506,0.0792272460937501,0.019208056640626046,0.24263785779431501,0.04253198526356789,-0.008998762808458544,0.002838585153679811,0.04356609998861436
39,1791285454.6185148,0.24290288085937506,0.0792272460937501,-0.004742138671873955,0.2555411002804963,0.04549156015694632,-0.008909189467192104,0.0027711857422642538,0.04643850958949394
40,1791285454.6435788,0.19021245117187505,0.0983874023437501,-0.014322216796873954,0.2146298754012138,0.04945833039469978,-0.00847989419026928,0.002663553333658057,0.05025066733159559
41,1791285454.6635787,0.14710209960937504,0.08880732421875011,-0.019112255859373956,0.17289027407120064,0.05265481612050509,-0.007907927168354742,0.0025403985677127003,0.053305896462465044
42,1791285454.6889577,0.15668217773437504,0.0648571289062501,-0.009532177734373955,0.16984291095570614,0.05668079435100662,-0.006998511959522235,0.0023530406803735082,0.05715967475722874
43,1791285454.7089577,0.21895268554687505,0.0792272460937501,-0.014322216796873954,0.23328600670800007,0.05994103162970427,-0.006173217438914907,0.002191758186302835,0.060297924428031155
44,1791285454.7192984,0.26206303710937506,0.1079674804687501,4.790039062604557e-05,0.28343255732573674,0.0617468925672181,-0.005665337986300877,0.002109807321152176,0.062042131516728084
45,1791285454.7392983,0.26206303710937506,0.1510778320312501,-0.03348237304687396,0.30433963930960806,0.0655018968241399,-0.00444182204822876,0.001924929321968811,0.06568054219906361
46,1791285454.7642107,0.25248295898437506,0.1702379882812501,-0.019112255859373956,0.3051129226296173,0.07043899747706561,-0.0025460374073821984,0.0016309156830475013,0.07050386200782945
47,1791285454.7842107,0.23811284179687506,0.1462877929687501,-0.004742138671873955,0.27950014611701873,0.07454392657142574,-0.000777581642844491,0.0013945016830608043,0.0745610237110614
48,1791285454.8099196,0.27164311523437507,0.0744372070312501,0.019208056640626046,0.2823115819174953,0.08001199014663707,0.0015802809644902935,0.0011640814108060042,0.08003606025213424
49,1791285454.8299196,0.3195435058593751,0.1223375976562501,0.014418017578126047,0.34246520869730135,0.0845145187286385,0.003434576286524223,0.0010621553868618054,0.08459094729501013
50,1791285454.8392398,0.3482837402343751,0.1414977539062501,0.004837939453126046,0.3759608805850836,0.0867648458027506,0.0043535098202538884,0.001035241616062779,0.0868801659766702
51,1791285454.8592398,0.36265385742187506,0.17502802734375011,-0.06222260742187396,0.4074607754535237,0.09193580700946179,0.006504416161940255,0.0009000744657002585,0.09217000691186107
52,1791285454.8839808,0.5159351074218751,0.18460810546875012,-0.06222260742187396,0.5514896558862729,0.09900330809257354,0.009433404252997055,0.0005270306453105721,0.09945311403055511
53,1791285454.9039807,0.5015649902343751,0.20376826171875012,0.06710844726562605,0.5455203823938141,0.10538577611723011,0.012028533712111721,0.0002780336343415123,0.10607037632532555
54,1791285454.9294417,0.36744389648437503,0.3283092773437501,0.14374907226562605,0.5132891918118125,0.11395162716121257,0.01585274224495245,0.00041124360992680995,0.11504978005489452
55,1791285454.9494417,0.525515185546875,0.3378893554687501,0.10542875976562605,0.63360133377793,0.12101038292859391,0.019405418490709876,0.0008739527421101549,0.12255956444406924
56,1791285454.9598327,0.6356860839843751,0.3235192382812501,0.19164946289062607,0.7385736331170615,0.12503260796873233,0.021489795626012075,0.0013098137443889914,0.12687269203242857
57,1791285454.9798326,0.33391362304687505,0.3474694335937501,0.20601958007812607,0.5240967299209369,0.13306748739089608,0.025906381414328876,0.002619398460633443,0.13559114295117708
58,1791285455.0036151,0.4297144042968751,0.1127575195312501,-0.047852490234373955,0.44683172256755593,0.14255087018089327,0.031191376576269206,0.004225190759401372,0.14598460466434757
59,1791285455.0236151,0.587785693359375,-0.28481572265624994,-0.407105419921874,0.7696407214538017,0.1508559440606868,0.034711061555400255,0.00469059234970605,0.15486889716574784
60,1791285455.0497432,0.563835498046875,-0.5003674804687499,-0.49332612304687395,0.900915505499196,0.1623349795586316,0.03708082413344961,0.0034429051702416975,0.16655175382663623
61,1791285455.0697432,0.28601323242187504,-0.52910771484375,-0.20113374023437397,0.6342029048248307,0.17107848293551395,0.03707847758132629,0.001589419895328611,0.1750576678665334
62,1791285455.0793798,0.22853276367187506,-0.3997766601562499,-0.009532177734373955,0.4605860011871296,0.17503133842647642,0.036406167170548925,0.0006780525091783225,0.17877874089113305
63,1791285455.0993798,0.40576420898437504,-0.1459045898437499,0.07189848632812605,0.43715230179705583,0.18295600968725437,0.03440162424358091,-0.0008361400175256168,0.1861641006247127
64,1791285455.1246164,0.6548462402343751,-0.1411145507812499,0.047948291015626046,0.6715921034397367,0.19346313541130603,0.031708383904441736,-0.002233358065629851,0.19605711989431576
65,1791285455.1446164,0.6931665527343751,-0.1411145507812499,-0.10533295898437396,0.7151840452081233,0.20256300469144425,0.02947080933579524,-0.0032606345906497206,0.2047215943921564
66,1791285455.1686866,0.5782056152343751,-0.0932141601562499,-0.17239350585937396,0.610516284798926,0.21416722370002345,0.026758772780680902,-0.004812896451363798,0.2158860708808133
67,1791285455.1886866,0.5398853027343751,-0.23691533203124993,-0.16281342773437396,0.6116479599497422,0.2240400120006891,0.024348162567289694,-0.006412014566542428,0.2254503801914595
68,1791285455.1993036,0.6596362792968751,-0.3375061523437499,-0.13407319335937395,0.7529980378540755,0.22944999855847587,0.022803039912855802,-0.007369978323814822,0.2306980646824879
69,1791285455.2193036,0.6740063964843751,-0.30397587890624994,-0.07659272460937395,0.7433386865499246,0.2401129387701374,0.019366765210333984,-0.00921986981852426,0.24106907922629664
70,1791285455.2444625,0.6548462402343751,-0.1315344726562499,-0.19634370117187397,0.6961865876587431,0.25402175854127973,0.014870744900410092,-0.011712880946306242,0.2547260969087377
71,1791285455.2644625,0.506355029296875,-0.10279423828124991,-0.26340424804687396,0.579951609194423,0.2651618185834086,0.011481268527951723,-0.014087042428385422,0.26578384888072215
72,1791285455.2894742,0.29080327148437507,-0.0932141601562499,-0.07180268554687395,0.31370535221987117,0.2784990959142347,0.007510560921177296,-0.017239588922192007,0.27913322693044446
73,1791285455.3094742,0.45366459960937505,0.0361168945312501,-0.004742138671873955,0.4551246937801764,0.28868086590054726,0.004726107955642531,-0.019497126152566355,0.2893771178958475
74,1791285455.3345227,0.6308960449218751,0.1031774414062501,-0.11491303710937396,0.6495232174533141,0.3015574874090846,0.0020235685729919507,-0.02212520320675113,0.3023748297381742
75,1791285455.3545227,0.5542554199218751,0.27082880859375014,-0.19634370117187397,0.6473779136385133,0.31207435522911064,0.0007504102543203395,-0.024375718721490337,0.3130257848331414
76,1791285455.3640738,0.6213159667968751,0.20855830078125012,-0.258614208984374,0.7045646915011505,0.3171854570029466,0.0005770086142535844,-0.025615147214227193,0.3182186085695108
77,1791285455.3840737,0.669216357421875,0.1510778320312501,-0.23466401367187398,0.7250808532052537,0.32821854273177054,0.0008078233953181597,-0.028561132084220564,0.32945986498743274
78,1791285455.4096737,0.5207251464843751,0.2372985351562501,-0.06701264648437395,0.5761562008321316,0.3425072148674746,0.0018046310482972127,-0.032345579438249096,0.34403587812710895
79,1791285455.4296737,0.606945849609375,0.3426793945312501,-0.13407319335937395,0.7097802849980621,0.35368729815813343,0.0033365401884062756,-0.03516031935380941,0.3554463186416355
80,1791285455.454543,0.7171167480468751,0.3474694335937501,-0.35441499023437395,0.8721246601914879,0.3679737651682594,0.006242966283999588,-0.039046497300769645,0.3700922796162972
81,1791285455.474543,0.525515185546875,0.2899889648437501,-0.296934521484374,0.6696491021577423,0.3796034996705898,0.009185896240176513,-0.04267999206568941,0.38210571753720474
82,1791285455.4844596,0.48240483398437506,0.19418818359375012,-0.15802338867187396,0.543502406495385,0.38525452345489425,0.010786306728356117,-0.04454971198390871,0.38797173749275227
83,1791285455.5044596,0.5015649902343751,0.1654479492187501,-0.07180268554687395,0.5330066500347272,0.39641805676091335,0.014069352581979073,-0.04809972151637261,0.3995732794095813
84,1791285455.5288208,0.525515185546875,0.17502802734375011,-0.09575288085937396,0.5621117636102989,0.40985277444202217,0.018090529918844384,-0.05208135918430536,0.4135444739868402
85,1791285455.5488207,0.5159351074218751,0.2325084960937501,-0.10533295898437396,0.5756251107053991,0.4207901271805261,0.02150794120637816,-0.05516150268705188,0.42493495272363035
86,1791285455.573779,0.5542554199218751,0.2899889648437501,-0.08138276367187396,0.6308056947006708,0.43439499133444565,0.02611094957788029,-0.058778217967132285,0.43913058318876336
87,1791285455.593779,0.5925757324218751,0.26124873046875013,-0.07659272460937395,0.6521221843258691,0.44538196539705666,0.030073068614912837,-0.06147864697365535,0.450609707608007
88,1791285455.6038318,0.5734155761718751,0.2133483398437501,-0.052642529296873956,0.6140799402369206,0.45095513343695404,0.03212366474178706,-0.06272981356176269,0.45642906537497946
89,1791285455.6238317,0.6021558105468751,0.20855830078125012,-0.028692333984373954,0.6378961004972498,0.4621432150962879,0.03622426579100765,-0.06496765048913584,0.4680911709290295
90,1791285455.649507,0.587785693359375,0.2277184570312501,-0.004742138671873955,0.6303730680080153,0.4766430703084867,0.04153896153053524,-0.06747396372724923,0.4831840618017138
91,1791285455.669507,0.5925757324218751,0.2420885742187501,-0.028692333984373954,0.6407621449899018,0.48801417372809597,0.04576260799913463,-0.0691835814804149,0.495013553346629
92,1791285455.6936758,0.626106005859375,0.17981806640625012,-0.10054291992187396,0.6591298402634178,0.5019033019384035,0.05086579043913225,-0.07117391185392914,0.509470292423671
93,1791285455.7136757,0.582995654296875,0.08401728515625011,-0.13407319335937395,0.6040848105288265,0.5134863926541429,0.0548510581164055,-0.07292580930648099,0.5215314829235711
94,1791285455.723802,0.525515185546875,0.0696471679687501,-0.11491303710937396,0.5424222933694136,0.5193132996967263,0.05668290382472759,-0.07386887325694966,0.5275944136021121
95,1791285455.743802,0.5734155761718751,0.0648571289062501,-0.09096284179687396,0.5841969777003716,0.5307438272823171,0.05995993796534849,-0.07576088983136657,0.5394663259065675
96,1791285455.7844975,0.6740063964843751,0.0744372070312501,-0.11970307617187396,0.6885886629457932,0.5543209084835689,0.0660529047382614,-0.07967622654284959,0.5638997755652315
97,1791285455.8044975,0.6500562011718751,0.0696471679687501,-0.11491303710937396,0.663798763772408,0.5661560181649088,0.06881428837019314,-0.08166373114142078,0.5761397470858776
98,1791285455.8135612,0.5350952636718751,0.0648571289062501,-0.12449311523437397,0.5532015221551677,0.5715206441201207,0.06996943001288838,-0.08259207808856545,0.5816812006200595
99,1791285455.8335612,0.563835498046875,0.0169567382812501,-0.12449311523437397,0.5776647259195126,0.5832309721120428,0.07225874318567181,-0.08470677170369462,0.5937633619296437
100,1791285455.8445897,0.6500562011718751,0.0265368164062501,-0.11970307617187396,0.661518022242779,0.5897238117730768,0.073367749035029,-0.0858999402163409,0.6004463344045038
101,1791285455.8645897,0.645266162109375,0.0792272460937501,-0.08138276367187396,0.6551858749315602,0.6016752158796796,0.07523587797415957,-0.08804078467249807,0.612719089391012
102,1791285455.8893464,0.582995654296875,0.08880732421875011,-0.052642529296873956,0.5920657984166184,0.6165305744244184,0.07751344577463969,-0.09054214595490237,0.6279459878604848
103,1791285455.9093463,0.6356860839843751,0.0648571289062501,-0.10533295898437396,0.6476096639101023,0.6285595170779543,0.07930790926585962,-0.09249675116648119,0.6402596816587367
104,1791285455.9341109,0.606945849609375,0.0648571289062501,-0.19155366210937397,0.6397519183210943,0.6435278957845765,0.0814374945968166,-0.09510538064832132,0.6555953413557737
105,1791285455.9541109,0.5015649902343751,0.0217467773437501,-0.14365327148437396,0.5221844733059483,0.655465925730157,0.08302928572569698,-0.09739892291546004,0.6678442874401959
106,1791285455.979289,0.544675341796875,-0.026153613281249904,-0.13407319335937395,0.5615432847312734,0.6702161875364676,0.0847242987391029,-0.1003776322886193,0.6829667736402844
107,1791285455.999289,0.544675341796875,0.0169567382812501,-0.10533295898437396,0.5550259373966998,0.6818093937903914,0.08585495381991332,-0.10274792636764793,0.6948325402059781
108,1791285456.0090008,0.563835498046875,0.0456969726562501,-0.08138276367187396,0.571508386981841,0.6874019011247153,0.08636726683035134,-0.10386226405990752,0.7005483911517233
109,1791285456.0290008,0.549465380859375,0.0169567382812501,-0.11012299804687396,0.5606485623230552,0.6988612923418689,0.08735802900827876,-0.10610012221998522,0.7122469846205417
110,1791285456.054151,0.5207251464843751,-0.002203417968749902,-0.12928315429687395,0.536538598068087,0.7131287773529174,0.0884448723156818,-0.1089437288113422,0.726803883159084
111,1791285456.074151,0.5398853027343751,-0.021363574218749903,-0.08617280273437396,0.5471364494740641,0.724363593285005,0.08914415800012532,-0.111189007512469,0.7382494778690488
112,1791285456.0998552,0.6931665527343751,0.0217467773437501,-0.13886323242187396,0.7072734898701826,0.7390139028671021,0.0899088154613915,-0.11407563801116123,0.7531523052584986
113,1791285456.1198552,0.563835498046875,0.1031774414062501,-0.18676362304687397,0.6028571175382295,0.7505886982724634,0.09060192410133984,-0.1164732123613106,0.7649562809879915
114,1791285456.1296062,0.4967749511718751,0.1271276367187501,-0.12449311523437397,0.52767918650471,0.7561611981148996,0.09105759239326543,-0.11769445011424498,0.7706641462107297
115,1791285456.1496062,0.5542554199218751,0.0409069335937501,-0.06701264648437395,0.5597884801580479,0.7674528088815236,0.0921040536952949,-0.12011080791369554,0.7822362665748289
116,1791285456.1740956,0.5782056152343751,0.0792272460937501,-0.009532177734373955,0.5836861763178237,0.7812851213402147,0.09341386233062686,-0.12276634486346744,0.7963693652660524
117,1791285456.1940956,0.568625537109375,0.17502802734375011,-0.11012299804687396,0.6050594074201322,0.7926074416498865,0.09470448410081056,-0.12478924052387962,0.8079404993055526
118,1791285456.2195864,0.4871948730468751,0.17981806640625012,-0.16281342773437396,0.544244057000037,0.806892097009195,0.09678108726189939,-0.12750256324958395,0.8226167629599495
119,1791285456.2395864,0.5159351074218751,0.1079674804687501,-0.13886323242187396,0.5450954129579914,0.8179233367077875,0.09859766773755065,-0.12976461353391242,0.834001762432245
120,1791285456.249384,0.530305224609375,-0.002203417968749902,-0.08617280273437396,0.537265519301064,0.8232855108292251,0.09943180419316452,-0.13087188558456198,0.8395315160629199
121,1791285456.269384,0.40576420898437504,0.1031774414062501,-0.052642529296873956,0.42197323801235076,0.8339936394739706,0.10103059352861961,-0.1330013603856543,0.8505538979842602
122,1791285456.2939067,0.42013432617187507,0.1223375976562501,0.019208056640626046,0.4380048963974119,0.8466728564586812,0.10311165167431276,-0.13528223288380464,0.8635903086006322
123,1791285456.3139067,0.568625537109375,0.007376660156250098,0.03357817382812605,0.5696638573102719,0.8569456374130848,0.10474887957093318,-0.13678422806938462,0.8740927172223902
124,1791285456.3388317,0.5734155761718751,-0.006993457031249903,-0.06222260742187396,0.5768240496998613,0.8699626327851997,0.10648393310008068,-0.13842885862193435,0.8873197616138109
125,1791285456.3588316,0.4297144042968751,0.0648571289062501,-0.11970307617187396,0.45076572948172267,0.8803455115912566,0.10775411426394522,-0.139823460026662,0.897869572317442
126,1791285456.3696532,0.40097416992187507,0.0504870117187501,-0.08617280273437396,0.4132250902691211,0.8857949828357496,0.10843190841587352,-0.14063195448007978,0.9034199339180986
127,1791285456.3896532,0.4967749511718751,0.0169567382812501,-0.08138276367187396,0.5036824766733797,0.8957023620925918,0.10959784347433252,-0.14215337860018853,0.9135108055189721
128,1791285456.4138856,0.45366459960937505,0.0265368164062501,-0.08138276367187396,0.461669715041593,0.9076331050696776,0.11087766015285079,-0.14401607379782264,0.9256523853215826
129,1791285456.4338856,0.39618413085937504,0.0552770507812501,-0.05743256835937396,0.4041236417189985,0.9172777677343045,0.11189822314567423,-0.14553105137352218,0.9354672642250345
130,1791285456.4595006,0.40576420898437504,0.0552770507812501,-0.11491303710937396,0.4253294625740014,0.9293179513373484,0.1132216344043382,-0.1475114100110149,0.9477397370894995
131,1791285456.4795005,0.42492436523437505,0.0313268554687501,-0.09575288085937396,0.43670436480102415,0.9385547349437438,0.11422985324720587,-0.14914172032246256,0.9571711981662125
132,1791285456.4886756,0.40097416992187507,0.0217467773437501,-0.023902294921873957,0.402274193768265,0.9427248563766739,0.1146595201626164,-0.1498597826399583,0.9614233796029913
133,1791285456.5086756,0.34349370117187505,0.0409069335937501,-0.014322216796873954,0.3462173101605024,0.9515681529020509,0.11554960757066954,-0.15124757875650496,0.9704171739550274
134,1791285456.5340428,0.29080327148437507,0.0552770507812501,-0.03827241210937395,0.2984742410623701,0.9623089737965239,0.11669221364022209,-0.152843838662944,0.9813342309278721
135,1791285456.5540428,0.41055424804687507,-0.011783496093749903,-0.07180268554687395,0.4169523558169083,0.9705590186809786,0.11752317652547839,-0.15407869193407348,0.989715488952122
136,1791285456.5788045,0.41055424804687507,-0.026153613281249904,-0.06701264648437395,0.41680870536235193,0.9807660388590425,0.11832720483788477,-0.1556360147994547,1.00006295776149
137,1791285456.5988045,0.28601323242187504,0.0409069335937501,-0.014322216796873954,0.28927853745210624,0.9888184588464215,0.11890133571352232,-0.15682718784596664,1.0082133896341319
138,1791285456.609639,0.3099634277343751,0.0409069335937501,0.019208056640626046,0.31324056759748753,0.9930105959798194,0.11923218342357893,-0.15737171094549848,1.0124486222510571
139,1791285456.629639,0.41534428710937504,0.007376660156250098,4.790039062604557e-05,0.41540979074150763,1.0006762994724359,0.11982373088396557,-0.1581972201237424,1.020165252919193
140,1791285456.6539848,0.40097416992187507,0.0265368164062501,0.009627978515626046,0.4019666472977741,1.0100985569959355,0.12049772942876527,-0.1590337074393681,1.0296166848612496
141,1791285456.6739848,0.39139409179687507,0.0648571289062501,0.014418017578126047,0.3969932763843057,1.017866384068562,0.12110545289750389,-0.15958173212706656,1.037393288857699
142,1791285456.6996288,0.39139409179687507,-0.021363574218749903,0.009627978515626046,0.39209493157550257,1.0278378752137407,0.12185144612007726,-0.16013276207289284,1.047349499515107
143,1791285456.7196288,0.43450444335937505,-0.054893847656249904,-0.014322216796873954,0.43819239119766173,1.035687030877253,0.12223159453185677,-0.16050509264468052,1.0551540519725155
144,1791285456.7446997,0.44408452148437505,-0.030943652343749902,-0.028692333984373954,0.44608499399985213,1.0457024466911222,0.12247524638971108,-0.16098269730154224,1.0650864856078588
145,1791285456.7646997,0.43450444335937505,0.0025866210937500983,-0.004742138671873955,0.43453801880492143,1.0538115437103128,0.12259792540278464,-0.16135670130075802,1.0731192878822193
146,1791285456.7746408,0.41534428710937504,0.0025866210937500983,-0.023902294921873957,0.41603952594147814,1.0578712468934803,0.1226536140213927,-0.16153607373340173,1.0771394464755613
147,1791285456.7946408,0.36744389648437503,-0.059683886718749905,-0.052642529296873956,0.3759633217326511,1.0659878067434359,0.12266319966907788,-0.16195763036766725,1.0851758100478681
148,1791285456.8197966,0.40576420898437504,-0.0932141601562499,-0.052642529296873956,0.4196483156610102,1.0761241968240165,0.12238497764065659,-0.16260696535285013,1.095199705498272
149,1791285456.8397965,0.39139409179687507,-0.016573535156249902,-0.05743256835937396,0.3959324652885013,1.084169987020739,0.12203227706134136,-0.16321089083181492,1.1031564858565805
150,1791285456.864374,0.3291235839843751,0.0361168945312501,-0.052642529296873956,0.33525810877005446,1.0939022663131839,0.12169989167622235,-0.16404461672445397,1.112808909092391
151,1791285456.884374,0.34349370117187505,-0.006993457031249903,-0.03348237304687396,0.3451925556712534,1.1016429338563822,0.12151366838169536,-0.16475048572898657,1.1205023194385682
152,1791285456.8941078,0.40576420898437504,-0.0405237304687499,-0.07659272460937395,0.4149134988005414,1.1053921754939127,0.12140193971153908,-0.16512285757124978,1.124231226528326
153,1791285456.9141078,0.41055424804687507,-0.030943652343749902,-0.06701264648437395,0.4171366622565626,1.1131645872360678,0.12109960805297479,-0.16598860139390365,1.1319685195003144
154,1791285456.9392848,0.3195435058593751,0.0313268554687501,-0.009532177734373955,0.3212168837760869,1.122859876699203,0.12077682963517422,-0.16705950540785885,1.141626131281512
155,1791285456.9592848,0.38181401367187506,0.0217467773437501,-0.08138276367187396,0.3909961861501177,1.1304583532073864,0.12063849396867626,-0.16791897215958618,1.1492112581133715
156,1791285456.9843047,0.41534428710937504,-0.006993457031249903,-0.09575288085937396,0.4262961405742637,1.1400340241054272,0.12051907975610616,-0.16916527626577452,1.1588008091977449
157,1791285457.0043046,0.38181401367187506,-0.0501038085937499,-0.047852490234373955,0.38804921529808145,1.147736035557621,0.12035229688576154,-0.17022749657650096,1.16651621646418
158,1791285457.0292003,0.39618413085937504,-0.0405237304687499,-0.10054291992187396,0.41074677968587736,1.1573379377061033,0.12000661196659579,-0.17162847694325467,1.17613308050891
159,1791285457.0492003,0.3291235839843751,-0.026153613281249904,-0.07659272460937395,0.33892888706257035,1.1649825482033003,0.11967054542042199,-0.1728508382986669,1.1838001475587119
160,1791285457.0589812,0.36265385742187506,-0.0692639648437499,-0.05743256835937396,0.3736493236139951,1.1686677853336755,0.11946085148603974,-0.17345727562993288,1.1874943006109318
161,1791285457.0789812,0.42492436523437505,-0.12195439453124991,-0.09096284179687396,0.45134003711512616,1.1762543980218818,0.1188095588448189,-0.1747339066977404,1.1950824483225309
162,1791285457.1039884,0.35786381835937503,-0.0932141601562499,-0.08617280273437396,0.37971192248266855,1.1857856720120994,0.11771380112683297,-0.17642294737403327,1.2046033601501593
163,1791285457.1239884,0.3099634277343751,-0.030943652343749902,-0.03827241210937395,0.31384648107296625,1.1932667935753971,0.11678266600681445,-0.17775782869616147,1.2120732970378245
164,1791285457.1345296,0.37223393554687506,-0.0501038085937499,4.790039062604557e-05,0.3755908634442026,1.1971576853620294,0.1163014408028258,-0.17838607738841408,1.2159498926190215
165,1791285457.1545296,0.41534428710937504,-0.0501038085937499,-0.014322216796873954,0.418600518829075,1.2046139627075327,0.11537504898203242,-0.17942067680380439,1.2233552142948043
166,1791285457.179617,0.42492436523437505,-0.021363574218749903,-0.019112255859373956,0.4258901229158417,1.2141449564946174,0.11425284777939414,-0.18058668953472196,1.2328070575090524
167,1791285457.199617,0.4297144042968751,-0.006993457031249903,-0.023902294921873957,0.4304354741468207,1.2218854153184964,0.11344987335637473,-0.1814413382889631,1.2404820841804696
168,1791285457.2243779,0.35786381835937503,-0.03573369140624991,0.004837939453126046,0.35967598592402716,1.2314936137776509,0.11252552235560044,-0.1823761248390365,1.249999825947125
169,1791285457.2443779,0.36744389648437503,-0.006993457031249903,-0.047852490234373955,0.37061271743762236,1.239178217088851,0.11182680561112995,-0.18308243735865642,1.2576116519140077
170,1791285457.2544186,0.41055424804687507,-0.059683886718749905,-0.06222260742187396,0.41950996388353906,1.2430433656260174,0.11147842848151095,-0.18346673683647394,1.2614453188184527
171,1791285457.2744186,0.38660405273437504,-0.016573535156249902,-0.03827241210937395,0.3888472105941981,1.2507831745174696,0.11077420607769968,-0.1842681356331045,1.2691273459341437
172,1791285457.299765,0.35307377929687506,-0.016573535156249902,-0.03348237304687396,0.35504484927879737,1.2605268328408177,0.10995258575937655,-0.18526782991919538,1.2788047686139754
173,1791285457.319765,0.37702397460937503,-0.016573535156249902,-0.047852490234373955,0.3804098057614406,1.268157078687778,0.10935180204022767,-0.18606032999215746,1.2863897695613702
174,1791285457.343947,0.37702397460937503,-0.0501038085937499,-0.043062451171873954,0.3827686556743901,1.277366476078562,0.10861343043113758,-0.18703969234844903,1.2955484699513118
175,1791285457.363947,0.34349370117187505,-0.03573369140624991,-0.05743256835937396,0.35009044453487254,1.2849215144043347,0.1079655945346381,-0.18787893247644805,1.3030649872707178
176,1791285457.388879,0.28601323242187504,-0.011783496093749903,-0.08138276367187396,0.29759968770728407,1.2941040850131986,0.10719028355439862,-0.18902777807676785,1.3122220241334772
177,1791285457.408879,0.30517338867187505,-0.0788440429687499,-0.08138276367187396,0.32553085028612183,1.3012519998644034,0.10652569658394302,-0.19005526650697427,1.319365565531722
178,1791285457.4187682,0.36265385742187506,-0.10279423828124991,-0.06222260742187396,0.3820420508283934,1.304751501551376,0.10611166020393274,-0.19059361768827313,1.3228613277041963
179,1791285457.4387681,0.35307377929687506,-0.03573369140624991,-0.028692333984373954,0.35603544817611404,1.3118409393893282,0.10519211583367967,-0.19165544703468154,1.329933773490058
180,1791285457.4640658,0.3195435058593751,-0.016573535156249902,-0.028692333984373954,0.32125688200246666,1.320739326485424,0.10410422325755819,-0.1929059509637587,1.338806469861295
181,1791285457.4840658,0.35786381835937503,-0.0836340820312499,-0.10533295898437396,0.3823038116686327,1.327735141561349,0.10322284951735224,-0.19394732579615132,1.345790150054196
182,1791285457.5094,0.38181401367187506,-0.1315344726562499,-0.11012299804687396,0.41858133407023346,1.3366729749867836,0.10186504048016323,-0.19547795426961387,1.3547260826962317
183,1791285457.5293999,0.33391362304687505,-0.1363245117187499,-0.023902294921873957,0.3614609243807391,1.343744130146801,0.10055212021388163,-0.1967060914169804,1.3617827662971929
184,1791285457.5384562,0.33391362304687505,-0.0884241210937499,0.009627978515626046,0.3455572757413597,1.3469193828119201,0.09989412975205024,-0.19718848997214705,1.3649373471082322
185,1791285457.5584562,0.35307377929687506,-0.059683886718749905,0.08626860351562606,0.3683280221668877,1.35391025146254,0.09843682882625698,-0.197950174061315,1.3718407523089673
186,1791285457.5835364,0.40097416992187507,-0.030943652343749902,0.06710844726562605,0.4077270389112193,1.3627802618074538,0.0967130058649979,-0.19847355593105587,1.3805488763094749
187,1791285457.6035364,0.40576420898437504,-0.059683886718749905,0.004837939453126046,0.41015870743496874,1.3700026810402184,0.09540861476505473,-0.1987203976550721,1.3876238489853665
188,1791285457.6293473,0.38181401367187506,-0.09800419921874991,-0.023902294921873957,0.39491528686956073,1.3794500456231382,0.09367248511292905,-0.19902808000499764,1.3968783552863098
189,1791285457.6493473,0.36744389648437503,-0.1267444335937499,-0.004742138671873955,0.3887179650978378,1.3867962905884659,0.09219188779767498,-0.19927369679005544,1.4040702624861772
190,1791285457.6584013,0.36744389648437503,-0.1602747070312499,-0.009532177734373955,0.40099109864176885,1.390122097167153,0.09142726506210916,-0.19937790133877087,1.407320126116085
191,1791285457.6784012,0.3482837402343751,-0.1267444335937499,-0.023902294921873957,0.371398754522923,1.3974403306282834,0.08956105614618444,-0.19962371086319242,1.4144646642399017
192,1791285457.704276,0.3387036621093751,-0.11237431640624991,-0.004742138671873955,0.35689024306256534,1.406821239844097,0.0870447820299472,-0.19994961103650244,1.4236230687611
193,1791285457.724276,0.38181401367187506,-0.0740540039062499,-0.028692333984373954,0.38998613636928753,1.414065347105383,0.08511192775891349,-0.20021388169705526,1.4307027799495282
194,1791285457.7494786,0.36744389648437503,-0.11237431640624991,-0.028692333984373954,0.3853131896014759,1.4232408056430734,0.08268924778900107,-0.2006054119032378,1.4396855329662528
195,1791285457.7694786,0.3387036621093751,-0.1363245117187499,-0.004742138671873955,0.3651397418808867,1.4304891963914916,0.08068201681004447,-0.20091966449852733,1.4467818219799116
196,1791285457.778995,0.35307377929687506,-0.10279423828124991,-0.009532177734373955,0.3678567811841458,1.4339145593194598,0.07969952325268972,-0.20105695226625758,1.4501333992049223
197,1791285457.798995,0.35307377929687506,-0.12195439453124991,-0.03348237304687396,0.3750400475646731,1.441092757359567,0.07760730012718313,-0.20136672126705465,1.45716155068032
198,1791285457.8242927,0.32433354492187505,-0.0932141601562499,-0.10054291992187396,0.3521221475023139,1.4500956633099231,0.0749496004842425,-0.20195405894460822,1.466008293730699
199,1791285457.8442926,0.3387036621093751,-0.054893847656249904,-0.09096284179687396,0.3549756946955276,1.457140159770661,0.0729414678306198,-0.20263600750188018,1.472969536169046
200,1791285457.8837528,0.39139409179687507,0.0121666992187501,-0.06222260742187396,0.3964959224730525,1.4711149326518542,0.06944725862336613,-0.2042330301310437,1.4868467296255112
201,1791285457.9037528,0.39618413085937504,-0.03573369140624991,-0.019112255859373956,0.39825122795837015,1.4783168213005613,0.06790655526425095,-0.20504305140373452,1.4940129106928786
202,1791285457.898783,0.27643315429687504,-0.0692639648437499,0.047948291015626046,0.2889841245323267,1.4783168213005613,0.06790655526425095,-0.20504305140373452,1.4940129106928786
203,1791285457.918783,0.30517338867187505,-0.0501038085937499,-0.004742138671873955,0.30929545206526676,1.485250181052426,0.0664804737138425,-0.2055267166967834,1.5008760724915435
204,1791285457.9439938,0.39139409179687507,-0.0836340820312499,-0.019112255859373956,0.40068600311808333,1.4939960955108889,0.06469960734968616,-0.20609005013235532,1.5095308812199044
205,1791285457.9639938,0.36744389648437503,-0.0932141601562499,-0.014322216796873954,0.3793534270455874,1.5010318265191236,0.06323347567128793,-0.20652006429176106,1.5164911980040903
206,1791285457.9888353,0.33391362304687505,-0.10758427734374991,-0.047852490234373955,0.35406573571795724,1.509766627848449,0.06131147180006938,-0.2070898976384671,1.5251362538616275
207,1791285458.0088353,0.31475346679687505,-0.11237431640624991,-0.014322216796873954,0.33451884512296187,1.5167171731933358,0.05966623632280024,-0.20757311751610746,1.5320175071884352
208,1791285458.0187767,0.35307377929687506,-0.1506946289062499,-0.023902294921873957,0.38463136183975305,1.5201517618618245,0.05877496794465807,-0.20780578167067393,1.5354149663345948
209,1791285458.0387766,0.36744389648437503,-0.1842249023437499,-0.08138276367187396,0.41901907585461595,1.5271057852832035,0.05674849390916359,-0.20836157167551111,1.5422992626457024
210,1791285458.063295,0.35307377929687506,-0.19380498046874992,-0.08138276367187396,0.4109070677225485,1.535677000729621,0.05394170652144314,-0.20924002414764165,1.5508046124440291
211,1791285458.0832949,0.37223393554687506,-0.19380498046874992,-0.03827241210937395,0.4214062775468318,1.5427079023467904,0.05141417700294636,-0.2100285908680913,1.557787886248369
212,1791285458.1090865,0.44408452148437505,-0.1650647460937499,-0.03827241210937395,0.47531274983285504,1.551993861441428,0.04794944768697913,-0.2110410413631475,1.5670106625754026
213,1791285458.1290865,0.39139409179687507,-0.1363245117187499,-0.004742138671873955,0.4144830460562163,1.5593677096247178,0.045213665689282236,-0.21177289714111683,1.5743315055441285
214,1791285458.1544619,0.35786381835937503,-0.1459045898437499,0.043158251953126045,0.38886668221882187,1.5687460184144062,0.04172612538722595,-0.21248905827923903,1.5836214003729807
215,1791285458.1744618,0.33391362304687505,-0.1363245117187499,0.023998095703126048,0.36146727203029394,1.5760665918237475,0.038966337883958146,-0.2128681091556833,1.5908542074139056
216,1791285458.1839526,0.41534428710937504,-0.0836340820312499,-0.03827241210937395,0.4254060578321312,1.5795527167746115,0.03769659255031606,-0.21303116225464805,1.5942992486517475
217,1791285458.2039526,0.43450444335937505,-0.0932141601562499,-0.03348237304687396,0.44565015455795076,1.5870719058672458,0.035156927029331306,-0.2134308583240287,1.6017446660426777
218,1791285458.2282908,0.37223393554687506,-0.0740540039062499,-0.03348237304687396,0.3810028445722053,1.5963221724766543,0.032224630889142826,-0.21396652984333614,1.6109204142569322
219,1791285458.2482908,0.3291235839843751,-0.10279423828124991,0.014418017578126047,0.34510414107834975,1.6038354123242438,0.029911183734141023,-0.21436928672923977,1.6183747711301166
220,1791285458.273643,0.37702397460937503,-0.0932141601562499,-0.019112255859373956,0.3888460304643984,1.6132733936186727,0.027045817135431877,-0.2148121713878309,1.6277367071362578
221,1791285458.293643,0.35786381835937503,-0.016573535156249902,-0.052642529296873956,0.36209450485902084,1.6207043773253216,0.024959759710352494,-0.2152167804610853,1.6351219926593525
222,1791285458.3044717,0.28122319335937507,-0.0501038085937499,-0.009532177734373955,0.2858106690296975,1.6246433143300816,0.023945558664376844,-0.2154534858000186,1.6390422487295928
223,1791285458.3244717,0.3099634277343751,-0.0501038085937499,-0.014322216796873954,0.31431328966879357,1.63171381430693,0.022203057360117937,-0.21586087008898225,1.646079847028017
224,1791285458.3493237,0.3291235839843751,-0.0405237304687499,-0.014322216796873954,0.3319181106233894,1.6403729615321982,0.020193684605970128,-0.21634454494742025,1.6547012419021105
225,1791285458.3693237,0.3482837402343751,-0.026153613281249904,-0.047852490234373955,0.35252721316366725,1.6473123429456138,0.01871916149129326,-0.216768663685804,1.6616187937622857
226,1791285458.3944337,0.30038334960937507,-0.002203417968749902,-0.05743256835937396,0.3058324895782775,1.6559394888405456,0.017092181996305876,-0.21741955128282214,1.6702392028290158
227,1791285458.4144337,0.27164311523437507,-0.0836340820312499,-0.028692333984373954,0.2856709501522979,1.6626382805415274,0.015861927738379918,-0.21798940262330463,1.6769427635819087
228,1791285458.4235115,0.3387036621093751,-0.11237431640624991,-0.028692333984373954,0.3580103458610443,1.665638261670561,0.015253838662493864,-0.21824832431517635,1.6799451864275965
229,1791285458.4435115,0.3099634277343751,-0.0932141601562499,-0.009532177734373955,0.32381641187382376,1.6722293297803317,0.013806687070720896,-0.2187905440034566,1.6865381282766112
230,1791285458.4691622,0.26206303710937506,-0.002203417968749902,0.047948291015626046,0.26642246354437504,1.6805150995975755,0.012045499085361249,-0.21930774372099684,1.6948073579258671
231,1791285458.4891622,0.3291235839843751,-0.0453137695312499,-0.043062451171873954,0.3350075311762129,1.6868932584399552,0.010806999050941336,-0.21964318819528084,1.7011668897316465
232,1791285458.5142655,0.36744389648437503,-0.1363245117187499,-0.08138276367187396,0.40027808306457124,1.6950095309912048,0.00914367313119577,-0.22023537061488355,1.7092818770990434
233,1791285458.5342655,0.30517338867187505,-0.11237431640624991,-0.03827241210937395,0.32745009034953254,1.7015147984109886,0.007644220382172959,-0.22081587933766603,1.7158003076944897
234,1791285458.543833,0.29080327148437507,-0.0405237304687499,-0.009532177734373955,0.29376789792194574,1.7045876148729289,0.006924800356564818,-0.22108622805128444,1.7188792889182485
235,1791285458.563833,0.3482837402343751,-0.09800419921874991,0.004837939453126046,0.36184222035896557,1.7110061697041101,0.005438709225178804,-0.221573637748125,1.7253018777212594
236,1791285458.5891185,0.32433354492187505,-0.11716435546874991,-0.009532177734373955,0.3449791254066791,1.7191793260704757,0.0034336570751716273,-0.22210632699946445,1.7334706705572605
237,1791285458.6091185,0.30038334960937507,-0.059683886718749905,-0.03348237304687396,0.3080801719703082,1.7256113926048517,0.001820344476851784,-0.2225289874181715,1.739901474849374
238,1791285458.6342318,0.27643315429687504,0.0025866210937500983,-0.004742138671873955,0.2764859260114081,1.7335628882885155,-9.116080901570584e-06,-0.22305209645163068,1.7478536910925326
239,1791285458.6542318,0.3099634277343751,-0.026153613281249904,-0.004742138671873955,0.31110098987256796,1.7398250907349113,-0.0012828838320013795,-0.2234204312125577,1.7541122202484292
240,1791285458.6637352,0.34349370117187505,-0.0740540039062499,-0.019112255859373956,0.35190509596101965,1.7428201059408264,-0.0018687734070531893,-0.22358620145936656,1.7571044941803173
241,1791285458.6837351,0.25248295898437506,-0.026153613281249904,0.014418017578126047,0.2542430634177734,1.7490716683908245,-0.0030671464797240424,-0.22388977899886497,1.7633456103938192
242,1791285458.709546,0.19979252929687505,-0.006993457031249903,0.004837939453126046,0.19997342038941757,1.756804949063046,-0.0044458886750513744,-0.22418551735478842,1.7710568994727856
243,1791285458.729546,0.28601323242187504,-0.0740540039062499,-0.05743256835937396,0.30097518921550753,1.762627061578418,-0.005475546769866755,-0.22445919267339734,1.7768697388938195
244,1791285458.7541964,0.3291235839843751,-0.09800419921874991,-0.06222260742187396,0.34899686169592564,1.7698637906477852,-0.006872354963606942,-0.2249671214679269,1.7841175052250506
245,1791285458.7741964,0.25727299804687503,-0.0501038085937499,-0.014322216796873954,0.26249745342308206,1.775734159667293,-0.008057818736732426,-0.22543222921607992,1.7900045877654707
246,1791285458.7989254,0.23811284179687506,-0.030943652343749902,-0.004742138671873955,0.24016186818089544,1.7828226042450623,-0.009454039063473493,-0.2259564082546079,1.7971093777210898
247,1791285458.8189254,0.25727299804687503,-0.03573369140624991,-0.014322216796873954,0.26013730628174253,1.7884386402562114,-0.010513887973945837,-0.22634535213862142,1.8027355685836377
248,1791285458.8289764,0.3195435058593751,-0.0932141601562499,-0.047852490234373955,0.33628379772472883,1.79127245270228,-0.011063826188094887,-0.22655836558732045,1.8055769441033414
249,1791285458.8489764,0.26206303710937506,-0.059683886718749905,-0.019112255859373956,0.2694521851402962,1.7969378880439026,-0.01222332223145126,-0.22701909724273148,1.8112627787284097
250,1791285458.8738782,0.22374272460937505,-0.0453137695312499,0.009627978515626046,0.22848816707885605,1.8038411005112434,-0.013646549913089969,-0.22752441675419954,1.8181848928086173
251,1791285458.8938782,0.26206303710937506,-0.0836340820312499,-0.028692333984373954,0.27657719559947525,1.8092824872486764,-0.014811579281345766,-0.22789798432324637,1.8236392167323456
252,1791285458.9186213,0.3387036621093751,-0.0932141601562499,-0.05743256835937396,0.35596004029706885,1.8161194124942197,-0.016364885855370697,-0.22845064587261343,1.830504637395662
253,1791285458.9386213,0.3099634277343751,-0.0788440429687499,-0.009532177734373955,0.3199758929307971,1.8217897909298657,-0.017690187926244914,-0.22893080461036255,1.8362026844509016
254,1791285458.9494605,0.28122319335937507,-0.059683886718749905,0.02878813476562605,0.2889245706415169,1.824882550033661,-0.018413326599358355,-0.22913634414116263,1.8393038999089273
255,1791285458.9694605,0.30038334960937507,-0.0644739257812499,0.02878813476562605,0.30857057625683953,1.8306055696589236,-0.01973371682861644,-0.22937234318545216,1.8450251605505352
256,1791285458.9940684,0.3291235839843751,-0.059683886718749905,-0.009532177734373955,0.334627198955698,1.8377527262363664,-0.021343773969776113,-0.22958362098100812,1.8521607053652827
257,1791285459.0140684,0.39618413085937504,-0.09800419921874991,-0.09096284179687396,0.41813984167628654,1.843778189025216,-0.022692588873716415,-0.22988032135424405,1.8581921122588017
258,1791285459.0384471,0.3291235839843751,-0.10758427734374991,-0.03348237304687396,0.34787609801644453,1.8513473235472728,-0.024465994300250975,-0.2304152689681352,1.8657911709128674
259,1791285459.0584471,0.24769291992187506,-0.0740540039062499,0.02878813476562605,0.26012407573551344,1.8574907107974323,-0.02597509528802221,-0.23079534383611336,1.8719543095413418
260,1791285459.06898,0.32433354492187505,-0.021363574218749903,-0.03348237304687396,0.326756361789392,1.8606926589084674,-0.026726015996383388,-0.2309691914171332,1.8751635177313966
261,1791285459.08898,0.35307377929687506,-0.0453137695312499,-0.07659272460937395,0.3641165703441648,1.8668766992611256,-0.028038014676378224,-0.23141489314636882,1.8813738579243238
262,1791285459.1144123,0.30517338867187505,-0.0788440429687499,-0.052642529296873956,0.31955972236172947,1.8748164368600888,-0.029692944194947505,-0.232143148072328,1.8893672972856959
263,1791285459.1344123,0.30517338867187505,-0.0836340820312499,-0.023902294921873957,0.317327554008815,1.8810391896465666,-0.031042881256286653,-0.23274475949011944,1.8956376807114321
264,1791285459.1589856,0.29559331054687504,-0.0740540039062499,-0.014322216796873954,0.3050647908700459,1.8886452422205693,-0.032743330512360044,-0.23344351057006735,1.90329946390018
265,1791285459.1789856,0.30038334960937507,-0.0453137695312499,-0.03827241210937395,0.3061833959579602,1.8948011220574932,-0.03409876364640875,-0.2340058028935067,1.9095006503325376
266,1791285459.188747,0.35786381835937503,-0.0692639648437499,-0.05743256835937396,0.3690020450146342,1.8978368350753398,-0.03474495702264163,-0.23430913945527618,1.912561799639311
267,1791285459.208747,0.32433354492187505,-0.0692639648437499,-0.023902294921873957,0.3325072403572566,1.9041470176653226,-0.036078135630366354,-0.23495942157125918,1.9189276762138292
268,1791285459.2342558,0.27643315429687504,-0.059683886718749905,0.009627978515626046,0.28296669962854964,1.912137432649852,-0.03777017115266687,-0.2356917200577401,1.9269786542858862
269,1791285459.2542558,0.38660405273437504,-0.0692639648437499,-0.047852490234373955,0.39566406361729456,1.9184570712441897,-0.039091222643580364,-0.23623708533549667,1.9333426024330025
270,1791285459.2791905,0.39618413085937504,-0.0405237304687499,-0.047852490234373955,0.40111581756088,1.9266180716771022,-0.04069649360442605,-0.23699400317727343,1.9415662636764373
271,1791285459.2991905,0.34349370117187505,-0.0692639648437499,-0.019112255859373956,0.35092833726369804,1.9332915802337032,-0.041955613870556005,-0.23761050034752595,1.9482903678900603
272,1791285459.3095934,0.3195435058593751,-0.054893847656249904,-0.028692333984373954,0.32549137726962735,1.9367594155258747,-0.04260917196589776,-0.23792036684961593,1.9517834603576298
273,1791285459.3295934,0.3195435058593751,-0.054893847656249904,-0.03827241210937395,0.326475365343356,1.9433850266941306,-0.043841868804062545,-0.2385271838723937,1.958459264035194
274,1791285459.3546035,0.35307377929687506,-0.0692639648437499,-0.08617280273437396,0.3699788404543589,1.9516892592085369,-0.045385030079372314,-0.23940561740978147,1.9668415836341857
275,1791285459.3746035,0.34349370117187505,-0.0740540039062499,-0.08138276367187396,0.3606869452339138,1.9583786997225727,-0.046648931353023074,-0.24025404331626612,1.9736122363963162
276,1791285459.3992763,0.33391362304687505,-0.0788440429687499,-0.03348237304687396,0.34472563013619784,1.9666467108805121,-0.04825718015192857,-0.2413562494376506,1.9819891220680204
277,1791285459.4192762,0.35786381835937503,-0.059683886718749905,-0.009532177734373955,0.36293186858826276,1.9733811903391125,-0.049573085342358277,-0.24218021182937272,1.9888041804502257
278,1791285459.4288194,0.32433354492187505,-0.059683886718749905,-0.043062451171873954,0.332578997226789,1.9766008728799904,-0.05019223359671437,-0.2425520430772659,1.992059678971572
279,1791285459.4488194,0.30517338867187505,-0.0453137695312499,-0.047852490234373955,0.3122082569123331,1.983280594597379,-0.051452665196963863,-0.24335078627524348,1.9988168747644652
280,1791285459.4741285,0.29080327148437507,-0.026153613281249904,-0.014322216796873954,0.2923280350696063,1.991596823424372,-0.05294409034131363,-0.24432796302650325,2.0072262297241927
281,1791285459.4941285,0.28601323242187504,-0.026153613281249904,-0.014322216796873954,0.28756339562268934,1.9980480158129326,-0.054024333763697814,-0.24502729427232092,2.0137410153917563
282,1791285459.51911,0.3291235839843751,-0.0740540039062499,-0.08138276367187396,0.34702951351742256,2.006049869625663,-0.055358994328048756,-0.24594909858032715,2.0218287901725573
283,1791285459.53911,0.29080327148437507,-0.0453137695312499,-0.05743256835937396,0.2998639363503063,2.0124250442157403,-0.056446286280188745,-0.24678461193862702,2.028285824658657
284,1791285459.5644116,0.27643315429687504,-0.0405237304687499,-0.023902294921873957,0.2804082403000241,2.0203568196702486,-0.05777836395404558,-0.24783740195961934,2.0363210444179427
285,1791285459.5844116,0.28122319335937507,-0.054893847656249904,-0.014322216796873954,0.28688838402369776,2.0265225927884787,-0.05881650132828548,-0.24860209892567423,2.0425611872110196
286,1791285459.5939445,0.27164311523437507,-0.0644739257812499,-0.004742138671873955,0.2792299357860209,2.0294159374420206,-0.05932244685922042,-0.24892554621914734,2.045485792521068
287,1791285459.6139445,0.29559331054687504,-0.054893847656249904,-0.03827241210937395,0.3030734519538764,2.035426466218383,-0.060403746367497416,-0.24956686857180269,2.0515587083596265
288,1791285459.6387413,0.28601323242187504,-0.0501038085937499,-0.03348237304687396,0.2922927129794013,2.042842378108309,-0.06173855644653839,-0.2503761799654118,2.059054361264264
289,1791285459.6587412,0.31475346679687505,-0.054893847656249904,-0.019112255859373956,0.32007554998030274,2.0488276819737448,-0.06281116355949162,-0.2510099144971525,2.06510195628823
290,1791285459.6846788,0.31475346679687505,-0.0884241210937499,4.790039062604557e-05,0.32693817817180837,2.056650155537676,-0.06427234789385033,-0.25174559621558146,2.072997019339602
291,1791285459.7046788,0.3099634277343751,-0.0692639648437499,0.004837939453126046,0.3176448158192913,2.0627142326034784,-0.06546656867218163,-0.2522204476920294,2.079108229802536
292,1791285459.7144182,0.31475346679687505,-0.03573369140624991,0.009627978515626046,0.31692166150717116,2.065680632326001,-0.0660375823839648,-0.25240643381739913,2.0820918435281097
293,1791285459.7344182,0.30517338867187505,-0.0692639648437499,0.009627978515626046,0.31308304321641073,2.0717883306833462,-0.06719177511453225,-0.2527021860733112,2.088224129887632
294,1791285459.7594106,0.3387036621093751,-0.0836340820312499,-0.05743256835937396,0.3535722419985281,2.0794827163596374,-0.06870433393439584,-0.25310593503994944,2.0959559316675227
295,1791285459.7794106,0.33391362304687505,-0.10279423828124991,-0.047852490234373955,0.3526397934177931,2.0857253958452007,-0.07001282521986331,-0.2535384942760486,2.1022449882562815
296,1791285459.8036957,0.26206303710937506,-0.059683886718749905,0.02878813476562605,0.2703108552317685,2.0932540707058713,-0.07165927560605724,-0.2540196693832537,2.10982787182762
297,1791285459.8236957,0.30038334960937507,-0.0501038085937499,0.009627978515626046,0.3046854875579809,2.0993679449267133,-0.07297650135753588,-0.2542988763464098,2.115972413914521
298,1791285459.8337684,0.30517338867187505,-0.054893847656249904,-0.028692333984373954,0.31139586010969017,2.1024427061430138,-0.07361971399900656,-0.25443280442254995,2.1190614070549203
299,1791285459.8537683,0.28601323242187504,-0.054893847656249904,-0.06222260742187396,0.2978062398696403,2.1085188434585045,-0.07486996287441451,-0.25479521076552636,2.1251771276741747
300,1791285459.8789818,0.26685307617187504,-0.0884241210937499,-0.043062451171873954,0.2844007105380096,2.1160753500216654,-0.07648071282035811,-0.2553826511556397,2.1328020266574454
301,1791285459.8989818,0.24769291992187506,-0.059683886718749905,4.790039062604557e-05,0.2547821642260863,2.1219420813613916,-0.07778890966857985,-0.25584324982476647,2.138725106132305
302,1791285459.924513,0.23332280273437506,-0.0788440429687499,0.019208056640626046,0.24703210889961588,2.129229031200911,-0.07947366891484697,-0.2563061644535198,2.1460720354397314
303,1791285459.944513,0.25727299804687503,-0.059683886718749905,-0.019112255859373956,0.2647958462323722,2.134816932054735,-0.08080325577596328,-0.2566142519691282,2.1517024361758907
304,1791285459.9545605,0.34349370117187505,-0.0932141601562499,-0.047852490234373955,0.359119288287359,2.1376557698733856,-0.08148622870464862,-0.2567962721981084,2.1545664346583346
305,1791285459.9745605,0.35307377929687506,-0.059683886718749905,-0.03348237304687396,0.3596447264533223,2.1435038552755397,-0.08287114688724682,-0.25722624757655166,2.160472574926565
306,1791285459.9989247,0.31475346679687505,-0.0501038085937499,-0.023902294921873957,0.3196114143749921,2.150779768354761,-0.08450582017487968,-0.2577763388710646,2.1678199847979442
307,1791285460.0189247,0.26685307617187504,-0.0453137695312499,-0.009532177734373955,0.27084084696345834,2.156728897967011,-0.08578952897052719,-0.25821031312502996,2.1738242680610385
308,1791285460.0439436,0.3291235839843751,-0.09800419921874991,-0.03348237304687396,0.3450336590886148,2.1641729429413643,-0.0874234283389753,-0.2587524737151289,2.181339089971049
309,1791285460.0639436,0.37702397460937503,-0.1267444335937499,-0.03348237304687396,0.3991645001526328,2.1702902789309837,-0.08887076080743483,-0.25922131063690884,2.1875222501353297
310,1791285460.0734994,0.32433354492187505,-0.0740540039062499,-0.014322216796873954,0.3329885429712462,2.1732773205869966,-0.08960246470421404,-0.25944597679636017,2.19054219971556
311,1791285460.0934994,0.29559331054687504,-0.0692639648437499,0.009627978515626046,0.3037525309132994,2.179521215220485,-0.09111915692443776,-0.25985270361697643,2.19684748126306
312,1791285460.1189537,0.3387036621093751,-0.0453137695312499,-0.004742138671873955,0.3417542923133757,2.187486828779433,-0.09297866382982406,-0.260283376549103,2.204878929582956
313,1791285460.1389537,0.39618413085937504,-0.0836340820312499,-0.052642529296873956,0.40832310871757,2.1939091011591887,-0.09441398202382714,-0.260657084157002,2.211355525389788
314,1791285460.1646242,0.37223393554687506,-0.1315344726562499,-0.03827241210937395,0.3966411448631403,2.2023952180144426,-0.09639417380481474,-0.26123983618987906,2.219928554050538
315,1791285460.1846242,0.3099634277343751,-0.11716435546874991,-0.009532177734373955,0.3315051660798221,2.2090383369781685,-0.09807857873199857,-0.26169746319271303,2.226646659011452
316,1791285460.2095315,0.28122319335937507,-0.0740540039062499,-0.014322216796873954,0.29116250766842905,2.2171748665551836,-0.10021883385429713,-0.26222645162467706,2.23487604029279
317,1791285460.2295315,0.3291235839843751,-0.0692639648437499,-0.05743256835937396,0.3412013046120287,2.2236438015224333,-0.10189459633798853,-0.2626951335333349,2.241424323503722
318,1791285460.2388823,0.3387036621093751,-0.11237431640624991,-0.06701264648437395,0.3630962028208411,2.2266829632946323,-0.10268794282982273,-0.26296866611083564,2.2445075967760273
319,1791285460.2588823,0.25248295898437506,-0.1267444335937499,-0.023902294921873957,0.2835191628921021,2.2330950268211467,-0.10448894759496109,-0.26360232856950394,2.2510258831497483
320,1791285460.284611,0.23811284179687506,-0.11237431640624991,-0.019112255859373956,0.2639905125954147,2.241053111209771,-0.10691971003755377,-0.2643782231727665,2.259125210462116
321,1791285460.304611,0.28601323242187504,-0.0788440429687499,-0.028692333984373954,0.2980657683490985,2.247097524518701,-0.10881263936138588,-0.26496259461547816,2.2652798175343
322,1791285460.3289804,0.29559331054687504,-0.0405237304687499,-0.004742138671873955,0.29839582076555377,2.2544207550248383,-0.11099132325519764,-0.2656289388955075,2.272727600858373
323,1791285460.3489804,0.30038334960937507,-0.0501038085937499,0.009627978515626046,0.3046854875579809,2.260423355413313,-0.11264709963660575,-0.2660864474220729,2.2788166034712445
324,1791285460.358977,0.30517338867187505,-0.059683886718749905,0.009627978515626046,0.31110393995838315,2.2634276245801934,-0.11343288292036861,-0.26626638651060053,2.281856572886599
325,1791285460.378977,0.30038334960937507,-0.0453137695312499,0.014418017578126047,0.30412394457287056,2.269444921707023,-0.11492665686813938,-0.2665363161395006,2.2879313794215723
326,1791285460.40457,0.3195435058593751,-0.0644739257812499,-0.009532177734373955,0.32612237220851054,2.2771799039844374,-0.11676217785055729,-0.26682054177483133,2.2957297146659035
327,1791285460.42457,0.29080327148437507,-0.0740540039062499,-0.009532177734373955,0.30023557519541505,2.2832333264384115,-0.11818920040221588,-0.26703793299778306,2.3018323934879485
328,1791285460.4488928,0.29080327148437507,-0.0644739257812499,-0.004742138671873955,0.29790253052104904,2.2905518270926026,-0.11991704248781761,-0.2672886934662184,2.3092100414061867
329,1791285460.4688928,0.3195435058593751,-0.0932141601562499,0.009627978515626046,0.33300094558549354,2.296582491743596,-0.12136122112663322,-0.26745662960808597,2.315286750296362
330,1791285460.4791374,0.26206303710937506,-0.11237431640624991,0.02878813476562605,0.2865899145295338,2.299655095355015,-0.12214797409350087,-0.26750023152344604,2.3183809132738578
331,1791285460.4991374,0.26685307617187504,-0.12195439453124991,-0.03827241210937395,0.2958854780764782,2.305547171613749,-0.1238050109488765,-0.2675868112906715,2.3243231580072763
332,1791285460.5243425,0.25248295898437506,-0.1506946289062499,-0.023902294921873957,0.2950048058273462,2.3128406223938556,-0.12609547243102878,-0.2677970913489765,2.3317047615205864
333,1791285460.5443425,0.24290288085937506,-0.1554846679687499,0.03836821289062605,0.2909457187579095,2.318502878355247,-0.12809957723971657,-0.2679172190504019,2.3374440602705895
334,1791285460.5693245,0.24769291992187506,-0.1267444335937499,0.07189848632812605,0.2873766280731622,2.3254338974619437,-0.1307562034446897,-0.2678381618334755,2.3444567125751434
335,1791285460.5893245,0.19500249023437505,-0.1363245117187499,0.09105864257812606,0.2547587487823216,2.330814428925466,-0.13295861397193223,-0.2675399287300812,2.349883296800371
336,1791285460.599484,0.25248295898437506,-0.11237431640624991,0.07189848632812605,0.2855608935088159,2.333478595453622,-0.1340990672813641,-0.26728699085625696,2.3525618484466952
337,1791285460.619484,0.27164311523437507,-0.11237431640624991,0.05752836914062605,0.29954545948484695,2.3387227612012174,-0.1363445222184679,-0.26666960719978783,2.357822440707467
338,1791285460.6440644,0.24290288085937506,-0.0501038085937499,0.043158251953126045,0.2517435915312094,2.345149774874297,-0.13898981889221362,-0.2658390247876429,2.364258028102834
339,1791285460.6640644,0.19500249023437505,-0.0836340820312499,0.047948291015626046,0.2175308472059458,2.3502515875765115,-0.14101992614070724,-0.2651279300922536,2.3693589774007746
340,1791285460.6897228,0.13752202148437503,-0.11716435546874991,0.03836821289062605,0.18469410479486587,2.3564549238420085,-0.14362013302665122,-0.2641863887685283,2.3755633013498914
341,1791285460.7097228,0.07525151367187505,-0.0501038085937499,0.10542875976562605,0.1388827034991241,2.3608841118658312,-0.14559380528415727,-0.2633468741603031,2.379983807072569
342,1791285460.7187712,0.19979252929687505,0.0648571289062501,0.047948291015626046,0.21545890685725613,2.3627740548198863,-0.1463427885694678,-0.2629199434439789,2.381857330437086
343,1791285460.7387712,0.30517338867187505,0.0456969726562501,-0.043062451171873954,0.31156602055479576,2.3670822721420413,-0.14758412531586174,-0.26211050983351025,2.3861184959049204
344,1791285460.7640944,0.24769291992187506,0.0456969726562501,-0.10054291992187396,0.2711989576598458,2.3727689502924174,-0.1487465166694143,-0.26151210959798016,2.391766418603508
345,1791285460.7840943,0.14231206054687504,-0.026153613281249904,-0.11491303710937396,0.18477483638867864,2.377171548091679,-0.14949754028843404,-0.26143357411528095,2.396172280384608
346,1791285460.8094802,0.10878178710937504,0.0456969726562501,-0.11012299804687396,0.16139629864246352,2.3823995780051592,-0.15027061025371388,-0.26177729712740516,2.4014446399774685
347,1791285460.8294802,0.11357182617187504,-0.0644739257812499,-0.03827241210937395,0.13608903091112992,2.386234129367416,-0.15081647246184282,-0.2622300688153031,2.4053323133227518
348,1791285460.8393633,0.21895268554687505,-0.1411145507812499,-0.052642529296873956,0.2657533270556644,2.3880912544792907,-0.1511981435235666,-0.26248763829375804,2.4072267193977557
349,1791285460.8593633,0.20458256835937505,-0.1554846679687499,-0.043062451171873954,0.260545358720513,2.3919209884616217,-0.1522995524304112,-0.2630742396118067,2.411159311256943
350,1791285460.884599,0.14231206054687504,-0.1459045898437499,0.02878813476562605,0.20583884137318245,2.3966849989096333,-0.15405126300809874,-0.26373039569773077,2.416067982745465
351,1791285460.904599,0.13273198242187503,-0.1459045898437499,0.07668852539062605,0.21162953107187693,2.4003068376129213,-0.15566901523263008,-0.2640142000467334,2.4197952919247436
352,1791285460.9295924,0.14710209960937504,-0.1794348632812499,0.08626860351562606,0.24754427850948935,2.4046785828009236,-0.1579972770923152,-0.2640101988918605,2.4242820816210653
353,1791285460.9495924,0.19500249023437505,-0.1698547851562499,0.043158251953126045,0.2621817193278983,2.40816530577376,-0.16010484445467532,-0.26381333729474815,2.4278573224316284
354,1791285460.974434,0.21895268554687505,-0.1794348632812499,0.02878813476562605,0.28454508495532554,2.4126177184939754,-0.1629807111512222,-0.26347145289910096,2.4324276298157765
355,1791285460.9944339,0.25248295898437506,-0.1746448242187499,-0.004742138671873955,0.30703574235435027,2.4163718209800313,-0.16547989147230674,-0.26320141987986045,2.436290491533145
356,1791285461.0036745,0.25248295898437506,-0.19859501953124992,-0.028692333984373954,0.32250717261728307,2.418196123653983,-0.16672005991941563,-0.26311854227557985,2.4381754321877476
357,1791285461.0236745,0.20937260742187505,-0.1411145507812499,-0.004742138671873955,0.25253255841576516,2.4222450763204826,-0.16951116191785545,-0.2630162239923171,2.442372366748514
358,1791285461.0494254,0.18063237304687504,-0.030943652343749902,0.009627978515626046,0.18351638014960311,2.427429526499099,-0.17289807963293488,-0.26289480940825755,2.447738044169392
359,1791285461.0694253,0.18542241210937505,0.007376660156250098,-0.043062451171873954,0.19050002815865869,2.431401232330611,-0.1751693752811489,-0.2628648066698963,2.4518348576526936
360,1791285461.0945282,0.12315190429687504,-0.0501038085937499,-0.043062451171873954,0.13975391897358666,2.436219492473227,-0.17767300070185554,-0.26299494614157215,2.456806759267183
361,1791285461.1145282,0.12315190429687504,-0.09800419921874991,-0.023902294921873957,0.1591933864800524,2.439851937175256,-0.1795906506698431,-0.26318352533221895,2.460568195590637
362,1791285461.1396496,0.13752202148437503,-0.1363245117187499,-0.019112255859373956,0.19458149247176273,2.4442213007853524,-0.1820795547200823,-0.2634659083856304,2.4651135909611486
363,1791285461.1596496,0.02256108398437504,-0.006993457031249903,-0.014322216796873954,0.027623121579115943,2.4474182254501793,-0.1839788023915772,-0.26370715201197187,2.4684500464901875
364,1791285461.1692111,-0.015759228515624963,0.0025866210937500983,0.009627978515626046,0.018647838008403993,2.448722223957342,-0.18475375186699416,-0.26380855147744786,2.469811618477035
365,1791285461.1892111,-0.10197993164062497,-0.0836340820312499,0.023998095703126048,0.13405399931375706,2.4508640658133247,-0.18625314809557805,-0.26393839608235464,2.472061565009468
366,1791285461.2139463,-0.08760981445312496,-0.0884241210937499,0.03357817382812605,0.1289255542448625,2.4527639560695413,-0.18814857688598283,-0.2639680828081951,2.4740917646521443
367,1791285461.2339463,-0.12593012695312497,-0.002203417968749902,0.009627978515626046,0.12631686306852516,2.45374940050811,-0.18958720583985753,-0.2639236766948882,2.47517375879598
368,1791285461.245004,-0.20736079101562496,0.0169567382812501,-0.014322216796873954,0.20854532964739622,2.45393610402669,-0.19025105297798128,-0.2639067011130834,2.475407968941142
369,1791285461.265004,-0.22173090820312497,-0.006993457031249903,-0.10533295898437396,0.24557796387753195,2.453579505183398,-0.19125670702407396,-0.26406008543682363,2.4751483278701913
370,1791285461.289598,-0.298371533203125,0.08880732421875011,-0.08138276367187396,0.32176927585422105,2.452247413000029,-0.19215695562961257,-0.2645648176797655,2.4739515381098522
371,1791285461.309598,-0.370222119140625,0.19897822265625012,-0.14365327148437396,0.4441767812488386,2.4503237508332836,-0.19234755018809882,-0.2652512539038381,2.4721331460215916
372,1791285461.3345215,-0.418122509765625,0.18460810546875012,-0.12928315429687395,0.474995494465385,2.4468124802165643,-0.19183241258758896,-0.2664885542628974,2.468746065802605
373,1791285461.3545215,-0.403752392578125,0.0169567382812501,-0.16760346679687396,0.4374865112983828,2.4431846846799967,-0.19117869807686766,-0.267777827552729,2.465239473759521
374,1791285461.3646545,-0.403752392578125,-0.11237431640624991,-0.19155366210937397,0.46080015947028985,2.4410086745042725,-0.1909696884158215,-0.26860600957767755,2.463156909187879
375,1791285461.3846545,-0.561823681640625,-0.0501038085937499,-0.22987397460937398,0.6090962855661957,2.435909661879841,-0.19086275393298635,-0.27062757528444575,2.4583172610919815
376,1791285461.4092412,-0.671994580078125,0.1175475585937501,-0.25382416992187395,0.7278879401544271,2.4283063642995666,-0.19062664804130122,-0.2736319194000649,2.451098681235785
377,1791285461.4292412,-0.552243603515625,0.3378893554687501,-0.277774365234374,0.7044862043676722,2.421212855370862,-0.18978024245862402,-0.2765066122116135,2.444328975002653
378,1791285461.4545085,-0.365432080078125,0.6252916992187502,-0.268194287109374,0.7723072509695881,2.4118563486459514,-0.18704603965804484,-0.2806282802371817,2.435321231198139
379,1791285461.4745085,-0.346271923828125,0.8504235351562501,-0.13407319335937395,0.9279547702107387,2.4044936980764553,-0.1829928862104644,-0.28400475580665646,2.428113473833919
380,1791285461.4987655,-0.30316157226562496,0.9510143554687501,-0.047852490234373955,0.9993123155589742,2.395721890595804,-0.17553710123282115,-0.28781660791261976,2.419325329669303
381,1791285461.5187654,-0.317531689453125,0.9701745117187501,0.043158251953126045,1.021727748329916,2.3886433096368234,-0.1674300861943298,-0.2904951078876442,2.412060758385338
382,1791285461.529248,-0.370222119140625,1.06118525390625,0.06710844726562605,1.1259138973755725,2.3849490336197623,-0.1622213025459544,-0.29160171244776206,2.408179645015299
383,1791285461.549248,-0.336691845703125,1.1905163085937502,0.019208056640626046,1.23735986254225,2.3778975036711882,-0.15039645382680839,-0.2932668641399078,2.400629310179271
384,1791285461.5738719,-0.24089106445312497,1.1953063476562502,0.019208056640626046,1.2194895321898396,2.3694512936929693,-0.1336154520771302,-0.29493852470491605,2.3914726123399728
385,1791285461.5938718,-0.260051220703125,1.2288366210937502,-0.03827241210937395,1.2566347346221813,2.3628687330858478,-0.11839386690647245,-0.2961212128107006,2.384293088148407
386,1791285461.6194258,-0.23131098632812497,1.37732783203125,-0.08138276367187396,1.3989853049645895,2.354778067445605,-0.0968677292799464,-0.2976349882146217,2.3754893580288314
387,1791285461.6394258,-0.19299067382812496,1.3964879882812502,-0.052642529296873956,1.4107428318050101,2.3487592293071935,-0.07838655772284436,-0.29884307832240764,2.3689916747740103
388,1791285461.6494803,-0.17383051757812498,1.22404658203125,-0.06701264648437395,1.238142874878624,2.3459106392150004,-0.06851304617588014,-0.2994495511487766,2.365937615061233
389,1791285461.6694803,-0.24089106445312497,1.1617760742187502,-0.11970307617187396,1.1925103680914058,2.3404722503072026,-0.04824049076369622,-0.3007550297721655,2.3602099667911833
390,1791285461.6949017,-0.255261181640625,1.1234557617187502,-0.12449311523437397,1.1587966409738961,2.3336505964092673,-0.021980793604477127,-0.3026310669011528,2.353294249358236
391,1791285461.7149017,-0.21215083007812496,0.9701745117187501,-0.09096284179687396,0.9972566352144847,2.328387649563963,-0.0012797620918526195,-0.3042088086810023,2.348176672167604
392,1791285461.7391975,-0.24089106445312497,0.8791637695312502,-0.06222260742187396,0.9136898223489925,2.322127747544392,0.023465396941894007,-0.306117074199431,2.342335493452134
393,1791285461.7591975,-0.23610102539062497,0.9318541992187501,-0.12928315429687395,0.9699536467156933,2.3170321531315787,0.043496320632127286,-0.3077395622654896,2.3377839007781382
394,1791285461.7845616,-0.17862055664062498,0.9031139648437502,-0.20113374023437397,0.942324210774123,2.31075028535855,0.06857989473524066,-0.3101171245008337,2.3324756620713503
395,1791285461.8045616,-0.29358149414062495,0.9174840820312501,-0.17718354492187396,0.979469827546336,2.3058316464817956,0.08812271374533844,-0.3122781286538701,2.328549510796443
396,1791285461.8146918,-0.528293408203125,0.7737829101562501,-0.08617280273437396,0.9408823885756639,2.303089582796754,0.0978214939164244,-0.31340859947636607,2.3263739212097234
397,1791285461.8346918,-0.638464306640625,0.7737829101562501,-0.11491303710937396,1.0097433678918963,2.2967378418039512,0.11641889052644688,-0.3156073324720825,2.3212423527834884
398,1791285461.8589919,-0.561823681640625,0.8504235351562501,-0.12928315429687395,1.0274143138894014,2.2879905147510717,0.1385855762172911,-0.3183231346972191,2.3141815347136916
399,1791285461.8789918,-0.403752392578125,0.8121032226562501,-0.03348237304687396,0.9075509396535697,2.2804226534281247,0.15658684426933184,-0.32046721719191823,2.3081477758932873
400,1791285461.8890457,-1.079147900390625,0.8695836914062501,0.08147856445312605,1.3882992270193617,2.2760708150196156,0.1655466663300736,-0.3213471711569814,2.3045971574502238
401,1791285461.9090457,-0.964186962890625,1.1090856445312502,0.10063872070312604,1.4730429791483708,2.265647339771453,0.18366473244167822,-0.32256190000650525,2.295852081797114
402,1791285461.9337668,-0.609724072265625,1.0372350585937502,0.004837939453126046,1.2031805420361108,2.2517777524271008,0.206679936008119,-0.3236425917064864,2.284286358896462
403,1791285461.9537668,-0.518713330078125,1.14261591796875,-0.13407319335937395,1.2619866385877019,2.2405474024149794,0.2257765684069937,-0.3245796033828078,2.2751658489530584
404,1791285461.979814,-0.403752392578125,1.1474059570312503,-0.16760346679687396,1.2278629185807717,2.226313235758626,0.2513903538183111,-0.32620622120137643,2.264084413721675
405,1791285461.999814,-0.379802197265625,0.9031139648437502,-0.24424409179687398,1.0097126912747383,2.215847834436258,0.2711832227821261,-0.32788562026113666,2.256331302284393
406,1791285462.0090008,-0.964186962890625,0.8456334960937502,-0.469375927734374,1.365674291571929,2.2108357379173174,0.2801159888245187,-0.3290330081976085,2.252670048571498
407,1791285462.0290008,-1.9030346191406249,1.3485875976562502,-0.043062451171873954,2.332827392864909,2.1972600726454568,0.2999373160389741,-0.33192489551078264,2.2423399288810844
408,1791285462.0540545,-0.14030024414062497,2.21079462890625,-0.22508393554687398,2.2266476658303875,2.178965420168325,0.32773095451548884,-0.33550798881807664,2.2288704519100495
409,1791285462.0740545,0.15189213867187504,1.37732783203125,-0.603497021484374,1.5113940034348194,2.1665691403684986,0.3519722499973794,-0.3391821339691151,2.2210247240337413
410,1791285462.099645,-1.059987744140625,0.7306725585937501,-0.531646435546874,1.3928762823883407,2.151344131275513,0.3823827806590939,-0.3453567715573662,2.2121865793324713
411,1791285462.1196449,-1.3042797363281249,1.1090856445312502,-0.603497021484374,1.8153306179431814,2.1376836004887596,0.40534444925250807,-0.35116136151815713,2.20393048895869
412,1791285462.1294014,-0.763005322265625,1.2432067382812502,-0.464585888671874,1.5308756199857028,2.130506481035439,0.41658687847174797,-0.35434982188780595,2.1995832080921067
413,1791285462.1494014,-0.695944775390625,1.0803454101562502,-0.23945405273437398,1.3072197898632427,2.115812538546547,0.4396611788571298,-0.3609615014511796,2.1909490765407384
414,1791285462.17455,-0.767795361328125,1.13782587890625,-0.21071381835937397,1.3887252287019753,2.097346561807929,0.4685071995401577,-0.36887726515561436,2.1804660128278055
415,1791285462.19455,-0.427702587890625,0.9414342773437502,-0.349624951171874,1.0915427654141738,2.0830706762515456,0.49112543452496865,-0.37506867448114745,2.1728009907199177
416,1791285462.2198536,-0.547453564453125,0.9222741210937502,-0.378365185546874,1.137301707246411,2.0658677078558223,0.5189860678093984,-0.38310849954056664,2.1642384451261267
417,1791285462.2398536,-0.791745556640625,1.02286494140625,-0.33046479492187397,1.3350358405304859,2.0523012608669227,0.5406216743389906,-0.3895732232741059,2.157771896288676
418,1791285462.2499263,-0.633674267578125,0.7019323242187502,-0.39273530273437396,1.0239595124748195,2.0454167559020613,0.5511866754957961,-0.3928870538767279,2.1545061368380822
419,1791285462.2699263,-0.35106196289062497,0.7402526367187502,-0.36399506835937395,0.8964992346609258,2.032320486472893,0.5711807910082015,-0.39961499049348675,2.148549789132493
420,1791285462.2947845,-0.557033642578125,1.02286494140625,-0.20113374023437397,1.1819449855143573,2.0167915673290917,0.5955911947099342,-0.40777650231094303,2.1420688068086626
421,1791285462.3147845,-0.24089106445312497,1.01807490234375,0.35451079101562605,1.104618899287044,2.0049748059546237,0.6153463227819577,-0.4131279097035843,2.137580346852513
422,1791285462.3387456,0.07046147460937505,1.3198473632812502,-0.09575288085937396,1.3251907394626123,1.9926349747958985,0.6396653183352192,-0.41811248709148,2.1341471163259977
423,1791285462.3587456,0.23332280273437506,0.7210924804687502,-0.445425732421874,0.8791006647523149,1.9843357431644746,0.6599806532592043,-0.42246073005760654,2.1334563207896617
424,1791285462.3845112,-0.624094189453125,0.2181383789062501,0.019208056640626046,0.6613976558023995,1.9744926041093762,0.6840417803224617,-0.42804586988851645,2.133016049550018
425,1791285462.4045112,-0.777375439453125,0.7402526367187502,-0.08617280273437396,1.076899388041937,1.9658959737742174,0.7013547131611487,-0.43183134947325785,2.1314604682618277
426,1791285462.4140701,0.10878178710937504,1.17614619140625,-0.20113374023437397,1.1981686534986657,1.9619242282549134,0.7097620691117019,-0.433575192348174,2.1309378966978643
427,1791285462.43407,-0.020549267578124964,0.9797545898437502,-0.16760346679687396,0.9941993013476842,1.9549930553970685,0.727947917351131,-0.43722962212415284,2.131449215789446
428,1791285462.4599326,-0.624094189453125,0.8121032226562501,-0.11012299804687396,1.0301127492933246,1.9461242146148003,0.7514126288747655,-0.44178510997399273,2.132415175555007
429,1791285462.4799325,-0.288791455078125,0.7067223632812502,-0.12449311523437397,0.7735344459225686,1.9389251954402333,0.7691147569661171,-0.4451314602264168,2.132864374445618
430,1791285462.5035474,-0.034919384765624964,0.6157116210937501,-0.258614208984374,0.6687312411357174,1.9311266890797796,0.7892233901142608,-0.4491684970612093,2.133981299714668
431,1791285462.5235474,-0.370222119140625,0.3426793945312501,-0.17718354492187396,0.5346845738642186,1.9249049551226656,0.8051368645347952,-0.45272839249857677,2.1350567801028286
432,1791285462.5337045,-0.533083447265625,0.2660387695312501,-0.06222260742187396,0.5990210693428742,1.92153104953538,0.8124700648473057,-0.45444749488005276,2.13516081506857
433,1791285462.5537045,-0.489973095703125,0.37141962890625013,-0.043062451171873954,0.6163445058980329,1.9143495499015988,0.8256998517209245,-0.4574826893239659,2.1344331461471215
434,1791285462.5792964,-0.638464306640625,0.4624303710937501,-0.08138276367187396,0.7925286576439173,1.9043726481782466,0.8416897735794412,-0.4610227914959789,2.1325146827997186
435,1791285462.5992963,-0.763005322265625,0.36183955078125013,-0.07659272460937395,0.8479218288134435,1.8956430559384168,0.8535478560354086,-0.4636113499857508,2.1300098642742933
436,1791285462.6230812,-0.810905712890625,0.3235192382812501,0.019208056640626046,0.8732707038350952,1.8840110302454802,0.8667572838151663,-0.46633038207186694,2.125612800200585
437,1791285462.6430812,-0.844435986328125,0.5821813476562502,0.09584868164062606,1.03014281841745,1.8732141550153092,0.877557129595597,-0.4681011960197794,2.120885785696375
438,1791285462.6538925,-0.643254345703125,0.8073131835937501,0.16769926757812606,1.0457790273363066,1.86704689288873,0.8836461346039761,-0.4687011552385721,2.1181065517031907
439,1791285462.6738925,-0.394172314453125,0.8025231445312502,0.11979887695312605,0.9020903402148198,1.8557932086643425,0.8956353792074445,-0.4692132981956145,2.113360424777649
440,1791285462.6989005,-0.29358149414062495,0.6588219726562501,0.07189848632812605,0.7248488654145706,1.842542399982404,0.9111189161993839,-0.46939807688856605,2.108419960486037
441,1791285462.7189004,-0.24568110351562497,0.7067223632812502,0.05273833007812605,0.7500646871076654,1.8327258347355275,0.923692673223383,-0.46933673122362213,2.105319241148304
442,1791285462.7595267,-0.31274165039062496,0.4959606445312501,-0.03348237304687396,0.5872864463937124,1.8140748697542248,0.9490673002084776,-0.46917213828789833,2.1004092145923505
443,1791285462.7795267,-0.518713330078125,0.4528502929687501,-0.052642529296873956,0.6905853622351062,1.8050232317498345,0.9611084740798589,-0.46923245195348845,2.0980985344046674
444,1791285462.7740474,-0.317531689453125,0.36183955078125013,-0.05743256835937396,0.48482237389056915,1.8050232317498345,0.9611084740798589,-0.46923245195348845,2.0980985344046674
445,1791285462.7940474,-0.30316157226562496,0.27082880859375014,-0.06222260742187396,0.4112503317168906,1.7964861729039103,0.9717959523961266,-0.46959585678504867,2.095774370307576
446,1791285462.8186216,-0.375012158203125,0.4528502929687501,-0.15323334960937396,0.6076083986208198,1.7863200789896867,0.9842918309943814,-0.4703725002799754,2.0930886560735136
447,1791285462.8386216,-0.27442133789062495,0.43848017578125015,-0.16281342773437396,0.5422915705535656,1.7783132339766552,0.994273218480497,-0.47138383606791917,2.0912149368322193
448,1791285462.864036,-0.28400141601562495,0.5678112304687501,-0.23466401367187398,0.6768556692958327,1.7686005123542305,1.0069723504937562,-0.47323382169853756,2.0894715449026746
449,1791285462.884036,-0.18820063476562496,0.5773913085937501,-0.11012299804687396,0.6171930628779128,1.7613952760994092,1.017184725442227,-0.47498847508416964,2.088729790040128
450,1791285462.8940792,-0.23610102539062497,0.6396618164062501,-0.11012299804687396,0.6906793816652409,1.758000236815988,1.022460442670346,-0.4759033180445124,2.088653671051399
451,1791285462.9140792,-0.413332470703125,0.7019323242187502,-0.16281342773437396,0.8306990618577238,1.7512793202059849,1.0334030141169057,-0.47786127274107953,2.0888399754296083
452,1791285462.9389777,-0.27442133789062495,0.6109215820312501,-0.014322216796873954,0.6698786277940375,1.7428830192169316,1.0474339271499329,-0.4802639391469535,2.0893569588905594
453,1791285462.9589777,-0.384592236328125,0.8647936523437502,-0.18197358398437397,0.9637912816818948,1.7361617522779094,1.0592273928947313,-0.48219885256698364,2.0901521555494917
454,1791285462.984282,-0.384592236328125,0.9079040039062501,-0.11012299804687396,0.9921330269937094,1.7274736931982122,1.0752747608677649,-0.4848340730971244,2.0917564988513955
455,1791285463.004282,-0.327111767578125,0.7163024414062501,-0.22987397460937398,0.8203251430105934,1.7205693135796514,1.0884920345691385,-0.48711446580263046,2.0934311966115815
456,1791285463.0283628,-0.35106196289062497,0.9079040039062501,-0.06222260742187396,0.9754003459974758,1.71227832361231,1.1049524371516877,-0.48997583786351473,2.0959230108880647
457,1791285463.0483627,-0.365432080078125,1.0037047851562502,-0.17718354492187396,1.0827547780946807,1.705350498616667,1.11944018909279,-0.4923549532662047,2.098518539373427
458,1791285463.0589032,-0.21215083007812496,0.8456334960937502,-0.05743256835937396,0.8737290680336384,1.701790433221276,1.12739225186229,-0.49360620068382416,2.10017881370042
459,1791285463.0789032,-0.18820063476562496,1.0851354492187502,-0.14844331054687396,1.1112937678775485,1.6954481355292197,1.1431137073556372,-0.4959330603452749,2.1040919486936134
460,1791285463.1042879,-0.365432080078125,0.8791637695312502,-0.07659272460937395,0.9551628051121493,1.6875517187280156,1.1638145189172586,-0.49887182601578095,2.109779167736948
461,1791285463.1242878,-0.580983837890625,0.5630211914062502,-0.12928315429687395,0.8192980018574333,1.680843905084166,1.1798410250049927,-0.5011487163162258,2.113861659004397
462,1791285463.1494954,-0.16425043945312498,0.7689928710937501,-0.23945405273437398,0.8219893466611778,1.6722487730645699,1.199528808938387,-0.5042851170791709,2.118864979605038
463,1791285463.1694953,0.09920170898437504,0.9031139648437502,-0.10054291992187396,0.914092277238811,1.6663546319067815,1.2153144337587585,-0.5069103047844615,2.123837326462701
464,1791285463.178797,-0.19299067382812496,1.0803454101562502,-0.20113374023437397,1.1157268424175242,1.6639591244509757,1.2229385334549918,-0.5081585537790079,2.1266320180584786
465,1791285463.198797,-0.18341059570312498,0.9653844726562502,-0.316094677734374,1.0322414794775296,1.6590164252824884,1.2399411475768567,-0.5112157311580123,2.133338011800924
466,1791285463.224341,0.008190966796875039,0.7067223632812502,-0.07180268554687395,0.7104077817357057,1.6533148573670082,1.2616029044661148,-0.515277789571623,2.1425692769601747
467,1791285463.244341,-0.35106196289062497,0.7833629882812502,-0.15323334960937396,0.8719991586177462,1.6490060464003167,1.2782543532475692,-0.5183187226252972,2.1498393965329328
468,1791285463.2690146,-0.398962353515625,0.6588219726562501,-0.11012299804687396,0.7780388331415284,1.643099743249639,1.2983844193030707,-0.5219948943497683,2.158253353126835
469,1791285463.2890146,-0.398962353515625,0.7498327148437501,-0.09096284179687396,0.8542214574455727,1.6378334613156607,1.3143668551354173,-0.5248293759761955,2.164602631147659
470,1791285463.2989428,-0.418122509765625,0.7929430664062501,-0.17239350585937396,0.9128552243356763,1.6350029382415787,1.3222594214243457,-0.5262214851858397,2.16760550771473
471,1791285463.3189428,-0.288791455078125,0.7594127929687501,-0.18676362304687397,0.8336599699783679,1.6290958974011005,1.3381023001267949,-0.5291439123635518,2.1735833290962465
472,1791285463.3437517,-0.250471142578125,0.8073131835937501,-0.21550385742187397,0.8723143253623518,1.6218642524488576,1.35772184596801,-0.5329737424613759,2.1812641459813062
473,1791285463.3637516,-0.45165278320312496,0.5965514648437501,-0.23466401367187398,0.7841754179359018,1.615855671401033,1.3732716945100218,-0.5362733378084099,2.18733943195506
474,1791285463.3887854,-0.542663525390625,0.7689928710937501,-0.09096284179687396,0.9455728296488609,1.6075960818508703,1.392379552132141,-0.540395262473466,2.1943365783948776
475,1791285463.4087853,-0.394172314453125,1.0324450195312502,0.014418017578126047,1.1052250499636262,1.6005818775397724,1.4080575393306118,-0.5433092110833097,2.19992574411558
476,1791285463.4190679,-0.375012158203125,1.1186657226562502,-0.15802338867187396,1.1903858656811825,1.5969234321800003,1.4165678476124695,-0.544693374937893,2.2030705362825334
477,1791285463.4390678,-0.394172314453125,0.9031139648437502,-0.14844331054687396,0.9965049239332675,1.5897211846892165,1.4336705235831144,-0.5474414990924588,2.2095965265562323
478,1791285463.4643803,-0.437282666015625,1.0899254882812501,-0.13407319335937395,1.1820022509202064,1.580394697288052,1.455852873240755,-0.5509342117480707,2.218261367245533
479,1791285463.4843802,-0.22652094726562497,1.2863170898437501,-0.22029389648437397,1.3245575850080957,1.573135264916515,1.4743150399768197,-0.5538114897765427,2.2259978807344627
480,1791285463.50944,-0.30316157226562496,0.9462243164062502,-0.277774365234374,1.0317005349607997,1.5644081652717157,1.498173965370943,-0.5578120090712355,2.2367504052862492
481,1791285463.52944,-0.585773876953125,1.0516051757812501,-0.14365327148437396,1.2122874011795932,1.5571544789127414,1.517356109796457,-0.5611580197271006,2.245439368640064
482,1791285463.5544035,-0.365432080078125,1.2000963867187502,-0.15802338867187396,1.264414225613176,1.547677730315751,1.5419232932138458,-0.5652728061721669,2.256627382725935
483,1791285463.5744035,-0.11156000976562497,1.05639521484375,-0.32567475585937394,1.111071794407428,1.5405086680303586,1.5620380434899517,-0.5688004827707706,2.2664209218031073
484,1791285463.5840294,-0.36064204101562497,0.9893346679687501,-0.378365185546874,1.1189307309331855,1.5372348897630794,1.571743921917595,-0.5707519380192335,2.2713933690892296
485,1791285463.6040294,-0.446862744140625,0.9318541992187501,-0.18197358398437397,1.0493583496454515,1.5302419291987146,1.5917669126576919,-0.5750388417836768,2.281673056261461
486,1791285463.6285696,-0.375012158203125,1.0420250976562502,-0.22508393554687398,1.1300943327824242,1.5214358865460513,1.6162830213574773,-0.5802591012446234,2.2943056872561343
487,1791285463.6485696,-0.288791455078125,2.03835322265625,-0.593916943359374,2.1426669597603367,1.5143398785668125,1.6378868889445566,-0.5851038872036499,2.3061321054126642
488,1791285463.6587684,0.18063237304687504,-0.1315344726562499,-0.07659272460937395,0.2362113823518896,1.511181376334161,1.648709650895607,-0.587716744470577,2.3124280825285393
489,1791285463.6787684,-0.715104931640625,1.6120397460937501,-0.445425732421874,1.8189148658874357,1.5051148997977641,1.668970392607231,-0.5928550282761312,2.3242870127299384
490,1791285463.7038796,-0.27442133789062495,1.45396845703125,-0.38315522460937396,1.528443414352319,1.4967769782537572,1.6963675377334964,-0.5998992427963532,2.340487822487887
491,1791285463.7238796,-0.12593012695312497,1.10429560546875,-0.052642529296873956,1.11269870900563,1.4905317775411993,1.718752472785187,-0.6053217885660263,2.3541897778807246
492,1791285463.7488809,-0.29358149414062495,1.4252282226562503,-0.27298432617187396,1.4805357215188182,1.483109278939204,1.7472808152262562,-0.6116941274433053,2.3720820150412005
493,1791285463.7688808,-0.16904047851562498,1.06597529296875,-0.18197358398437397,1.0945283887888526,1.4773683123203867,1.7704158723159686,-0.6167095268210876,2.386905974618311
494,1791285463.7943635,-0.23610102539062497,1.41564814453125,-0.14365327148437396,1.442372914926455,1.4703764598728288,1.8002143360765894,-0.6227636115719877,2.4063692786981
495,1791285463.8143635,-0.18820063476562496,1.4300182617187502,-0.340044873046874,1.4818914344380174,1.4650756046826126,1.8243619772278434,-0.6275279579920782,2.422505828569359
496,1791285463.8233986,-0.15467036132812498,1.3964879882812502,-0.502906201171874,1.4923190909669122,1.4628077749212713,1.8355498265204067,-0.629928643282965,2.43019749148861
497,1791285463.8433986,-0.475602978515625,1.42043818359375,-0.296934521484374,1.5270929692173953,1.457595337835077,1.8608256745122578,-0.6356454051059388,2.447713512818615
498,1791285463.8681386,-0.499553173828125,1.53539912109375,-0.21071381835937397,1.6283132830585152,1.4503053190811375,1.8928865213331094,-0.6425982361270559,2.4696836627943273
499,1791285463.8881385,-0.269631298828125,1.4922887695312501,-0.43105561523437397,1.57652648325422,1.4441422347691928,1.9194585379813884,-0.6483385007925201,2.4880134012669024
500,1791285463.9144034,-0.07802973632812496,1.4922887695312501,-0.36399506835937395,1.538020422884714,1.4365777866177203,1.954999029390401,-0.6563122709959368,2.513269332757777
501,1791285463.9344034,-0.504343212890625,1.42043818359375,-0.17718354492187396,1.5176958583296696,1.4308081322145123,1.9823717304150337,-0.6622850680173467,2.532909611509779
502,1791285463.943889,-0.365432080078125,1.4443883789062502,-0.349624951171874,1.5303711970471692,1.4278634237898455,1.9954446507815224,-0.6650676795868065,2.542225074567638
503,1791285463.963889,-0.10676997070312497,1.3294274414062501,-0.426265576171874,1.400171235969749,1.421877583641901,2.0230347974180583,-0.6712185403078251,2.5622138832034733
504,1791285463.9889405,-0.408542431640625,1.5114489257812502,-0.29214448242187396,1.5927125202953842,1.4145362922686235,2.0577474901871993,-0.6791171220527097,2.5877476153948895
505,1791285464.0089405,-0.466022900390625,1.4827086914062502,-0.27298432617187396,1.5780123097097936,1.4082426533283605,2.0857947171885445,-0.6853247832792804,2.6083245640605646
506,1791285464.0334303,-0.250471142578125,1.45396845703125,-0.368785107421874,1.520776947077509,1.4003760885697187,2.120380771800067,-0.6929646108870926,2.6338693511256728
507,1791285464.0534303,-0.346271923828125,1.3054772460937503,-0.296934521484374,1.3828756977217103,1.394020291655842,2.148528317709258,-0.699266479861812,2.6548898499570828
508,1791285464.0636303,-0.518713330078125,1.3246374023437502,-0.25382416992187395,1.445044800594523,1.3906033294238156,2.1627423611622145,-0.7024196803780135,2.665450346180259
509,1791285464.0836303,-0.370222119140625,1.2384166992187502,-0.268194287109374,1.3201017059465323,1.383575009104379,2.1902769335461802,-0.7084580243128981,2.68579701832733
510,1791285464.1094723,-0.23610102539062497,1.22404658203125,-0.258614208984374,1.2731516163684136,1.3746807744955605,2.225290327536653,-0.7161108726914901,2.7119142788043407
511,1791285464.1294723,-0.33190180664062496,1.1953063476562502,-0.316094677734374,1.2801687073548678,1.3679777483572273,2.2519527197070865,-0.7220073188843494,2.7320228293920277
512,1791285464.153744,-0.43249262695312496,1.1474059570312503,-0.34483491210937395,1.273774477373877,1.3596717580497588,2.2837209188531746,-0.729292936881474,2.7560763256178005
513,1791285464.173744,-0.408542431640625,1.2000963867187502,-0.25382416992187395,1.2928901597207565,1.3525926683066545,2.3094927026937,-0.7352937914458766,2.7755937076400823
514,1791285464.1843507,-0.288791455078125,1.3581676757812502,-0.340044873046874,1.429563029652295,1.3488467654937022,2.323145430993798,-0.7384713317549053,2.785988549537497
515,1791285464.2043507,-0.279211376953125,1.29589716796875,-0.397525341796874,1.3839562349800691,1.341991019861143,2.349008421856538,-0.7446704857525283,2.805942728512434
516,1791285464.2284317,-0.489973095703125,1.3198473632812502,-0.22508393554687398,1.4257396238144753,1.3335853497551926,2.3802019512367605,-0.752139445958518,2.8301104147929896
517,1791285464.2484317,-0.499553173828125,1.41564814453125,-0.21550385742187397,1.5165932068818688,1.326167076279542,2.40632627258042,-0.7580730418525489,2.8502280577354124
518,1791285464.2731676,-0.408542431640625,1.3102672851562502,-0.25382416992187395,1.3957557043544881,1.3166837150993749,2.4388472984091734,-0.7651815950378793,2.8752626008680195
519,1791285464.2931676,-0.456442822265625,1.5162389648437502,-0.29214448242187396,1.610176713009414,1.3088687150769416,2.465437414769934,-0.7708859629330088,2.895821839703156
520,1791285464.3038564,-0.523503369140625,1.6647301757812503,-0.27298432617187396,1.7663246524899578,1.3045329841148265,2.480066655536539,-0.7739303473848883,2.907147245178858
521,1791285464.3238564,-0.46123286132812497,1.5976696289062502,-0.24424409179687398,1.6807555360242143,1.2961601134590994,2.5082273414337655,-0.7795481336199686,2.9289811758815687
522,1791285464.348942,-0.365432080078125,1.4922887695312501,-0.26340424804687396,1.558797028066341,1.2856781287977583,2.544064182133899,-0.7864925987131156,2.9569919549292045
523,1791285464.368942,-0.42291254882812496,1.6216198242187503,-0.349624951171874,1.7119414372978672,1.27739221713825,2.5730208293316084,-0.7921182432058774,2.9798688521140084
524,1791285464.3945134,-0.513923291015625,1.6072497070312501,-0.44063569335937397,1.7439978738698811,1.266590515581702,2.6106829191489727,-0.7997477015751803,3.009902527437144
525,1791285464.4145133,-0.475602978515625,1.6407799804687502,-0.32567475585937394,1.7390863072556315,1.2579251918622696,2.640592941360473,-0.8059692756596849,3.0339237537538546
526,1791285464.4394612,-0.494763134765625,1.4683385742187502,-0.40231538085937396,1.6008330311865393,1.2469218271564064,2.678123562814961,-0.8139280593415568,3.0642517433342977
527,1791285464.4594612,-0.494763134765625,1.5880895507812502,-0.397525341796874,1.7102179329531142,1.2379396271658165,2.7082823140547556,-0.8205510930965423,3.08878482732468
528,1791285464.4692338,-0.47081293945312497,1.69826044921875,-0.550806591796874,1.8463860048494873,1.2335013105689518,2.723216946817217,-0.823996930445195,3.10103320910804
529,1791285464.4892337,-0.379802197265625,1.5210290039062502,-0.44063569335937397,1.6284774343030157,1.2245046412669358,2.7540256664164384,-0.8314783564048591,3.1265676459872895
530,1791285464.5143619,-0.36064204101562497,1.3533776367187502,-0.43105561523437397,1.465435994079383,1.2135012326406132,2.7923448609220562,-0.8411109158599055,3.158677355589962
531,1791285464.5343618,-0.370222119140625,1.4635485351562503,-0.416685498046874,1.5660988271949994,1.2049607783717051,2.822494411032367,-0.8488992619315185,3.1841851602303173
532,1791285464.5595684,-0.42291254882812496,1.5449791992187503,-0.455005810546874,1.665186487335977,1.1943121448266747,2.8604806221374237,-0.858890687689029,3.2165857834516287
533,1791285464.5795684,-0.346271923828125,1.45875849609375,-0.37357514648437395,1.54513396999359,1.1859766452714713,2.8906051435413653,-0.866872043334559,3.24246909599956
534,1791285464.5887346,-0.403752392578125,1.38211787109375,-0.37357514648437395,1.4875564507540888,1.1822138036224732,2.904293632566828,-0.8704949468992742,3.2542760230535004
535,1791285464.6087346,-0.403752392578125,1.4874987304687501,-0.296934521484374,1.5696619310245943,1.174023869079812,2.9339851339923437,-0.8782198556110001,3.2799193475521022
536,1791285464.633904,-0.384592236328125,1.6072497070312501,-0.35441499023437395,1.6901990398467095,1.1637749409159532,2.971588079612987,-0.8877127398582273,3.3125129035987966
537,1791285464.653904,-0.379802197265625,1.3294274414062501,-0.359205029296874,1.4285150626030982,1.155705984208685,3.0013910014094285,-0.8951948852463474,3.3384694319176385
538,1791285464.6792161,-0.518713330078125,1.2336266601562502,-0.277774365234374,1.366768763701586,1.1453198971589225,3.0383177953506135,-0.9044531950994363,3.370633215658138
539,1791285464.6992161,-0.466022900390625,1.3725377929687501,-0.306514599609374,1.4815493702842686,1.1368673667960674,3.0670275401630676,-0.9115476257072886,3.395591909481635
540,1791285464.7094576,-0.604934033203125,1.1282458007812501,-0.16760346679687396,1.291113741538775,1.1323656640879078,3.081444758350228,-0.9149997559956441,3.408046119030878
541,1791285464.7294576,-0.561823681640625,1.37732783203125,-0.296934521484374,1.5168546127395612,1.1231431072094216,3.109134401883434,-0.9214267883858837,3.4317917324048404
542,1791285464.7545302,-0.24089106445312497,1.7078405273437502,-0.502906201171874,1.796569625410678,1.1118062255018257,3.1444415663405234,-0.9297793954714353,3.4623858207077225
543,1791285464.7745302,-0.643254345703125,1.4491784179687501,-0.378365185546874,1.6300473778409894,1.1027932509814444,3.1731164436019217,-0.9367646281416252,3.4874559334283273
544,1791285464.7982259,-1.016877392578125,1.5162389648437502,-0.13886323242187396,1.8309296074304944,1.0907662183724343,3.207264084530732,-0.9447184430703591,3.516931444845142
545,1791285464.8182259,-0.542663525390625,1.4348083007812502,-0.27298432617187396,1.5581010891837768,1.07979836918775,3.2361891535863547,-0.9510425100273034,3.541661560873586
546,1791285464.8295293,-0.288791455078125,1.4731286132812502,-0.397525341796874,1.5529117209824908,1.0738245864955809,3.2525498649298887,-0.9546489957558837,3.5557748201363313
547,1791285464.8495293,-0.489973095703125,1.0851354492187502,-0.35441499023437395,1.2422570438387193,1.0636720656584036,3.2809932357862683,-0.9612009425660277,3.580533777040385
548,1791285464.874655,-0.772585400390625,1.3485875976562502,-0.17718354492187396,1.5642796163218649,1.0504515425974401,3.3159525309021687,-0.9691991671171959,3.6108636994606296
549,1791285464.894655,-0.42291254882812496,1.5018688476562503,-0.16281342773437396,1.56874895116052,1.0397133405315941,3.343881540861778,-0.9751207311460749,3.6350251759934706
550,1791285464.9188228,-0.379802197265625,1.2911071289062501,-0.22508393554687398,1.364503611355282,1.0272288080519283,3.3776308071089893,-0.98190605212414,3.6643864955025585
551,1791285464.9388227,-0.35106196289062497,1.2719469726562502,-0.28256440429687396,1.3494207074199156,1.017350701539409,3.4052151352647133,-0.9874404225850996,3.6885676292449414
552,1791285464.9495385,-0.648044384765625,0.6636120117187502,-0.12449311523437397,0.9358637520838293,1.0120490664563124,3.4193331216748266,-0.9902880218563028,3.7009124113020664
553,1791285464.9695385,-0.585773876953125,0.9893346679687501,-0.21071381835937397,1.1688945347691206,1.0017875494950168,3.444210051773874,-0.9953084122776663,3.722472298166114
554,1791285464.9946039,-0.413332470703125,0.8887438476562501,-0.19155366210937397,0.9987002370841301,0.9889779191210181,3.474241596324873,-1.0014127663957422,3.748500970100357
555,1791285465.0146039,-0.08760981445312496,1.6886803710937501,-0.277774365234374,1.7136147388742884,0.9795387010269376,3.4984758587863256,-1.0062568803932805,3.7697987095678034
556,1791285465.0389638,-0.475602978515625,0.8073131835937501,-0.15802338867187396,0.9502232163784214,0.9687373053887797,3.528125723639626,-1.012068184934189,3.7961039368825946
557,1791285465.0589638,-1.002507275390625,0.41932001953125014,-0.13407319335937395,1.0949090086251014,0.9589822114231957,3.5506573150652616,-1.0165618433589387,3.8157846155444752
558,1791285465.0690281,-0.552243603515625,1.1138756835937502,-0.06701264648437395,1.2450633441372398,0.9536360396099581,3.5614521825194614,-1.0186357272646505,3.8250466780518617
559,1791285465.0890281,-0.05886958007812496,1.5258190429687501,-0.37357514648437395,1.5719884762349465,0.9436890098385077,3.5836456182954315,-1.022799660737013,3.844370431009709
560,1791285465.1139672,-0.5761937988281249,0.7977331054687501,-0.277774365234374,1.0225145472560089,0.9319582015839301,3.6115147270709764,-1.0284313632700646,3.8690122489218908
561,1791285465.1339672,-0.547453564453125,1.1905163085937502,-0.15323334960937396,1.3192857710491044,0.9222762981006158,3.633494381859965,-1.0329167859949935,3.888417683304654
562,1791285465.1592174,-0.628884228515625,0.9845446289062502,-0.14365327148437396,1.177055547368943,0.9096586076502474,3.6612005586154934,-1.0382924807109326,3.912789233830446
563,1791285465.1792173,-0.786955517578125,1.0037047851562502,-0.277774365234374,1.305327882324425,0.8990398455341021,3.682836430527998,-1.0425438695628144,3.931724117717976
564,1791285465.2039065,-0.466022900390625,1.22404658203125,-0.15323334960937396,1.318691714580548,0.8855775371229211,3.70966388010995,-1.0478029100284416,3.955217391738813
565,1791285465.2239065,-0.34148188476562497,0.8600036132812502,-0.21071381835937397,0.9490081167869309,0.8750966795120465,3.7312622501628097,-1.0519699930175974,3.974261320571722
566,1791285465.2344909,-0.657624462890625,0.7306725585937501,-0.20592377929687397,1.0043689187514855,0.8695889006072471,3.7422406845863283,-1.0541752328394267,3.9839472409865735
567,1791285465.2544909,-0.604934033203125,0.7498327148437501,-0.12449311523437397,0.9714385315181333,0.8588487856669405,3.7620943729267777,-1.058212787598631,4.001348474112967
568,1791285465.279282,-0.355852001953125,1.0324450195312502,-0.11491303710937396,1.098079401385269,0.8457462611180111,3.786326655164798,-1.062912009474919,4.022603412927075
569,1791285465.299282,-0.408542431640625,0.9941247070312501,-0.08617280273437396,1.0782470048703594,0.8356149364901528,3.8059831986257797,-1.0664360138136901,4.039931460045578
570,1791285465.324459,-0.307951611328125,0.9605944335937502,-0.06222260742187396,1.0106668658095321,0.8234212421100682,3.8307072116631034,-1.0704869929997276,4.061807810030824
571,1791285465.344459,-0.44207270507812496,0.7498327148437501,-0.004742138671873955,0.8704595709762877,0.8140627956311745,3.8499669671170196,-1.0733227371253466,4.078843657356005
572,1791285465.3540134,-0.23131098632812497,0.9079040039062501,-0.22508393554687398,0.9635648554956535,0.8097801554404701,3.858975517303225,-1.0746389130134428,4.086842881327052
573,1791285465.3740134,-0.456442822265625,0.9893346679687501,-0.11491303710937396,1.0955948801178044,0.8011284847426661,3.877850158213177,-1.0774907610819928,4.103719658899362
574,1791285465.3993907,-0.513923291015625,0.9701745117187501,-0.028692333984373954,1.0982618004221567,0.7899504602736471,3.901936647006943,-1.0808399029392388,4.125208627782119
575,1791285465.4193907,-0.513923291015625,0.7546227539062501,-0.05743256835937396,0.9148066187286458,0.7809206441772515,3.920659140316945,-1.083212647072609,4.141829883738716
576,1791285465.444834,-0.29358149414062495,1.22404658203125,-0.16760346679687396,1.2698704858238727,0.769615405392855,3.944680350673862,-1.0862078195307117,4.163250937479043
577,1791285465.464834,-0.12593012695312497,1.0084948242187501,-0.19155366210937397,1.0342209690476936,0.7614325288124836,3.9640789620034242,-1.0887477830178476,4.1807981591985754
578,1791285465.4742486,-0.307951611328125,1.1090856445312502,-0.08138276367187396,1.1539186782645297,0.7578519995888039,3.973336036083265,-1.0899568038485852,4.189241547484992
579,1791285465.4942486,-0.24089106445312497,1.4779186523437502,-0.10533295898437396,1.501121940458979,0.7505634093422028,3.9939319480362636,-1.0924199943959245,4.208113506209656
580,1791285465.5190616,-0.16425043945312498,1.13782587890625,-0.28256440429687396,1.1838363823370917,0.7421232642391833,4.02051920663075,-1.0957394194613963,4.232725659143688
581,1791285465.5390615,-0.250471142578125,0.5965514648437501,-0.23466401367187398,0.6882417037525471,0.7357186210813762,4.041336387648139,-1.0987894851854265,4.2521782676986675
582,1791285465.5639567,-0.317531689453125,0.7067223632812502,-0.20592377929687397,0.801677912536387,0.7278816695090824,4.065795329802477,-1.1028392357611392,4.275132485500909
583,1791285465.5839567,-0.28400141601562495,1.1521959960937502,-0.16760346679687396,1.1984587351242761,0.7216278131096783,4.085285790513563,-1.1061649474818658,4.2934726716101315
584,1791285465.5940208,-0.13072016601562497,1.0084948242187501,-0.20592377929687397,1.0375712867842228,0.718639842119643,4.095253271610452,-1.1078693818009993,4.302896367384413
585,1791285465.6140208,0.017771044921875038,0.6588219726562501,-0.268194287109374,0.7115408472676698,0.7134232378381925,4.114590980453047,-1.111459631725187,4.321362535782874
586,1791285465.639623,-0.06844965820312497,0.5199108398437501,-0.29214448242187396,0.6002841291461093,0.7076497899513955,4.137895508356232,-1.1164420869325573,4.3438911584853575
587,1791285465.659623,-0.485183056640625,0.9031139648437502,-0.16281342773437396,1.0380393269031547,0.702985729907448,4.15550442106906,-1.1204329099670118,4.360937495047958
588,1791285465.6842759,0.008190966796875039,0.7929430664062501,-0.07180268554687395,0.7962295046973313,0.6972170080740068,4.177090151182823,-1.1250481002158226,4.381772120416058
589,1791285465.7042758,-0.14030024414062497,0.9462243164062502,0.10063872070312604,0.961848619882129,0.6930408966306635,4.19458380985671,-1.1281873511058875,4.398595880677149
590,1791285465.7138588,0.30517338867187505,1.30068720703125,-0.06701264648437395,1.337687819514355,0.6914585578307014,4.203323498394657,-1.129441730204029,4.407003743052675
591,1791285465.7338588,0.3195435058593751,0.4768004882812501,-0.704087841796874,0.9083977359770987,0.6895886048198204,4.221493705247078,-1.132823615397713,4.424910269253016
592,1791285465.759267,-1.160578564453125,-0.030943652343749902,-0.469375927734374,1.2522834644859573,0.6859666382271805,4.241964480813457,-1.1387117284477044,4.4453883166432195
593,1791285465.779267,-1.160578564453125,0.7306725585937501,-0.478956005859374,1.4526609541454532,0.6800615461268382,4.256710514546423,-1.1440738019232288,4.459929705210338
594,1791285465.804379,-0.743845166015625,0.9031139648437502,-0.268194287109374,1.2003535479760605,0.6701725138598197,4.275525390381597,-1.151203692272037,4.478227160744715
595,1791285465.824379,-0.269631298828125,0.6396618164062501,-0.19155366210937397,0.7201118539111803,0.6619577336291538,4.290576637049387,-1.1567200273393061,4.4927983641772
596,1791285465.8493612,-0.24089106445312497,0.6061315429687502,-0.06701264648437395,0.6556787682271533,0.652279182499799,4.308891425265292,-1.1630614360161213,4.510512759165553
597,1791285465.8693612,-0.681574658203125,0.6013415039062501,-0.09096284179687396,0.9134713228190037,0.6443093911263347,4.323165543844179,-1.1676136228377165,4.524181305298378
598,1791285465.8789692,-0.791745556640625,0.40973994140625014,-0.16760346679687396,0.9071046070471152,0.6399933152465919,4.329722848965163,-1.169658793912915,4.530363460759981
599,1791285465.8989692,-0.614514111328125,0.2468786132812501,-0.14844331054687396,0.6786840643209356,0.6302472720065168,4.342309954144504,-1.173751490334482,4.542087617252283
600,1791285465.9242015,-0.542663525390625,0.3666295898437501,0.009627978515626046,0.6549760727756971,0.6176059943053475,4.356969061091876,-1.1784030906712208,4.555573554188013
601,1791285465.9442015,-0.695944775390625,0.5294909179687501,-0.05743256835937396,0.876355100694491,0.6072311673053008,4.368189646276756,-1.181608760031733,4.565743065281941
602,1791285465.9687243,-0.743845166015625,0.5007506835937501,-0.08138276367187396,0.9003777164875265,0.5937702493392126,4.381778784833592,-1.1852050805482126,4.577909950094627
603,1791285465.9887242,-0.767795361328125,0.5151208007812501,-0.014322216796873954,0.9246968596077738,0.5821712477784801,4.3927230201922995,-1.1878417233745282,4.587581808933403
604,1791285465.9995081,-0.767795361328125,0.5630211914062502,-0.023902294921873957,0.9524042726447796,0.5756132568114399,4.39861093943981,-1.1890810563953729,4.592714075212497
605,1791285466.0195081,-0.585773876953125,0.5438610351562502,-0.08617280273437396,0.8039537377318549,0.5632447499584765,4.409553100972001,-1.1911998795323695,4.602212549594544
606,1791285466.0441396,-0.279211376953125,0.5630211914062502,-0.08617280273437396,0.634332410431369,0.5486989638918338,4.423052603447773,-1.193736332645612,4.614051507917991
607,1791285466.0641396,-0.21215083007812496,0.6300817382812501,-0.028692333984373954,0.6654579037383432,0.5379228199359554,4.434159241335536,-1.195659220340266,4.623930158308393
608,1791285466.0891235,-0.279211376953125,0.5390709960937501,0.05752836914062605,0.6098082035407101,0.525559827288536,4.448143195677294,-1.1976469406205386,4.636437125173543
609,1791285466.1091235,-0.384592236328125,0.5438610351562502,-0.03348237304687396,0.6669460871089554,0.5161518725935702,4.459282806363645,-1.198963392110422,4.646410347605257
610,1791285466.1191711,-0.327111767578125,0.5965514648437501,-0.10054291992187396,0.6877387857622439,0.5115981033191672,4.4648991029853935,-1.1996265500470258,4.651468636757349
611,1791285466.1391711,-0.21215083007812496,0.40015986328125014,-0.09096284179687396,0.46196334212994583,0.5030845411873965,4.475896561823496,-1.2010358267026626,4.661462339732938
612,1791285466.1636395,-0.22173090820312497,0.3235192382812501,-0.014322216796873954,0.39247218893144464,0.49343498184320866,4.488660963830985,-1.202694558016059,4.67311775257249
613,1791285466.1836395,-0.346271923828125,0.38099970703125013,0.06231840820312605,0.5186025510836798,0.4858787310787553,4.498586095226206,-1.2037750045029936,4.682139389098049
614,1791285466.2086,-0.288791455078125,0.37141962890625013,4.790039062604557e-05,0.4704817186219297,0.47667402299796774,4.510523461325633,-1.2048044148579975,4.692930182458648
615,1791285466.2286,-0.22652094726562497,0.39057978515625014,4.790039062604557e-05,0.4515133557462791,0.46963195891838505,4.519796700528152,-1.2055053767761492,4.701314667662536
616,1791285466.2386105,-0.32232172851562496,0.5534411132812501,0.11500883789062605,0.650703769265433,0.46622387859497005,4.52445071933618,-1.2057172151145388,4.7055045446261525
617,1791285466.2586105,-0.33190180664062496,0.6923522460937501,0.10542875976562605,0.7750004292309067,0.45945487918634725,4.534222948414581,-1.2057463068178504,4.7142444451197525
618,1791285466.2841928,-0.20257075195312496,0.6444518554687502,0.047948291015626046,0.677238615389944,0.4510698105535499,4.547412688872474,-1.2054836562685303,4.726057234359497
619,1791285466.3041928,-0.20736079101562496,0.5965514648437501,4.790039062604557e-05,0.6315632590265975,0.4448828598904553,4.5580390511908435,-1.205237125252473,4.7356348338202645
620,1791285466.3286397,-0.24089106445312497,0.5342809570312501,-0.05743256835937396,0.5888829645081799,0.4376327571031936,4.571153215949321,-1.2050861963428001,4.747546407818414
621,1791285466.3486397,-0.260051220703125,0.4432702148437501,-0.11970307617187396,0.5276778820472006,0.4318397519672994,4.58173889804663,-1.2052469462789852,4.757251002708133
622,1791285466.3591976,-0.269631298828125,0.4145299804687501,-0.09575288085937396,0.503691131754405,0.4288209435554964,4.587168049406833,-1.2054896835245295,4.762268733725008
623,1791285466.3791976,-0.413332470703125,0.4336901367187501,-0.06701264648437395,0.6028445577539184,0.4229357080991605,4.597182227890526,-1.2061246794948353,4.771550669552233
624,1791285466.4034631,-0.365432080078125,0.4480602539062501,-0.05743256835937396,0.5810310630156641,0.4154490627253428,4.609114419470619,-1.2070060215539118,4.782614054213318
625,1791285466.423463,-0.16425043945312498,0.5007506835937501,-0.06222260742187396,0.530661009359581,0.40940953323124096,4.618897109149948,-1.20780295623257,4.791723557541535
626,1791285466.4488964,-0.20736079101562496,0.5726012695312501,-0.052642529296873956,0.6112625846640682,0.4021724594314008,4.631518794817606,-1.2088834809444386,4.803551634402838
627,1791285466.4688964,-0.336691845703125,0.5678112304687501,0.004837939453126046,0.6601472548360442,0.39651901732811495,4.641665927664657,-1.2096774259757976,4.813066526660657
628,1791285466.479425,-0.269631298828125,0.5151208007812501,0.043158251953126045,0.5830206783784838,0.3935105247360208,4.6470615375147695,-1.209994788300981,4.8181032423810395
629,1791285466.499425,-0.24568110351562497,0.5199108398437501,0.06231840820312605,0.5784030342353507,0.3878798836780135,4.657326124000146,-1.2103490036611064,4.827637324832896
630,1791285466.5239708,-0.26484125976562495,0.5534411132812501,0.09105864257812606,0.6202657778181895,0.3810661445721889,4.670010141880737,-1.2104361634398584,4.839355518823871
631,1791285466.5439708,-0.36064204101562497,0.5582311523437501,0.14853911132812606,0.6809908727648971,0.3754088669589461,4.6804623348597065,-1.2101371321961873,4.848926826025712
632,1791285466.5685954,-0.34148188476562497,0.6444518554687502,0.15332915039062606,0.7452770625745231,0.36819155289495564,4.693622202492927,-1.209266678696659,4.860862094275439
633,1791285466.5885954,-0.336691845703125,0.7450426757812502,0.19643950195312607,0.8408557935971269,0.3621917030421857,4.704791571101997,-1.2081410944782998,4.870918954512816
634,1791285466.613843,-0.456442822265625,0.8983239257812502,0.25391997070312605,1.039134869567335,0.35425187222347865,4.719888386005612,-1.2060805305191056,4.884411019910358
635,1791285466.633843,-0.375012158203125,0.9605944335937502,0.28266020507812606,1.069239251143668,0.34765855368629495,4.732841920124288,-1.2038882186452242,4.895917273997772
636,1791285466.6433914,-0.35106196289062497,1.0084948242187501,0.24912993164062605,1.096527261450389,0.3444629642661574,4.739508701773789,-1.20261772800539,4.901824850772755
637,1791285466.6633914,-0.485183056640625,0.9749645507812501,0.20601958007812607,1.1083332265644625,0.33751918166846767,4.754353402809099,-1.199673027282335,4.91497821451788
638,1791285466.689423,-0.552243603515625,0.9270641601562501,0.12937895507812605,1.086811790830061,0.32781147894945495,4.774490315885014,-1.1957603331809918,4.932855249915603
639,1791285466.709423,-0.600143994140625,0.7402526367187502,0.12458891601562605,0.9610770925717007,0.3197432985443873,4.790141669486925,-1.1928242027407463,4.94676890195642
640,1791285466.73364,-0.624094189453125,0.6875622070312501,0.11021879882812605,0.9350847712704724,0.30921583228433025,4.808843629846446,-1.1893758085803636,4.963386575845793
641,1791285466.75364,-0.523503369140625,0.6971422851562501,0.047948291015626046,0.8731335418283867,0.30010427504994147,4.824049249770923,-1.1867178243778655,4.976928062049399
642,1791285466.763566,-0.36064204101562497,0.6252916992187502,-0.15802338867187396,0.7389342205008033,0.2956022767531652,4.8314483688195855,-1.1856784763388386,4.983583800423575
643,1791285466.783566,-0.35106196289062497,0.4863805664062501,-0.488536083984374,0.7736136390479879,0.2868243373406746,4.845788037745283,-1.184868266652275,4.996783236900092
644,1791285466.8096442,-0.437282666015625,0.2277184570312501,-0.42147553710937397,0.6486242780316361,0.275553625411266,4.863077742273687,-1.1857501520574087,5.013128599086523
645,1791285466.8296442,-0.537873486328125,0.09359736328125011,-0.32567475585937394,0.6357140869227588,0.26674369290891814,4.874830601729911,-1.1874457636398923,5.024455496355343
646,1791285466.853813,-0.398962353515625,0.08401728515625011,-0.26340424804687396,0.4853984565456428,0.2559962170420323,4.887224763861615,-1.1902552452173008,5.036586890386122
647,1791285466.873813,-0.24568110351562497,0.28040888671875014,-0.25382416992187395,0.4510155846664641,0.2474696119890394,4.896489302016023,-1.193007241486396,5.045801717453267
648,1791285466.8836918,-0.22173090820312497,0.3522594726562501,-0.36399506835937395,0.5529409927999437,0.24354338239568094,4.9008477956904075,-1.1946204259770807,5.050221822632539
649,1791285466.9036918,-0.12593012695312497,0.1223375976562501,-0.43105561523437397,0.4654393925097202,0.23626546944289342,4.909059970822439,-1.1985890369471441,5.058785115882287
650,1791285466.9291942,-0.13551020507812497,0.0313268554687501,-0.378365185546874,0.4031185944455996,0.2278772154694645,4.9182546882947,-1.2044386008985903,5.068710836849688
651,1791285466.9491942,-0.269631298828125,0.0025866210937500983,-0.316094677734374,0.41547993117408455,0.22167787557933025,4.924434776984811,-1.2093796216627435,5.07560814312846
652,1791285466.974189,-0.307951611328125,0.0983874023437501,-0.268194287109374,0.4200505344570399,0.2140096826323794,4.931189062147625,-1.2157236959320898,5.08334632065882
653,1791285466.994189,-0.16904047851562498,0.1654479492187501,-0.296934521484374,0.37962852543853415,0.20807875460118835,4.93617867063326,-1.2208862435583763,5.089176736589249
654,1791285467.00377,-0.010969189453124962,0.2229284179687501,-0.24424409179687398,0.33086640662507294,0.20553434879796037,4.938489502742605,-1.2233772968043644,5.09191270030929
655,1791285467.02377,-0.09718989257812496,0.2756188476562501,-0.17239350585937396,0.33930980720455556,0.20085750271932062,4.943337494454659,-1.2284221953387315,5.097641651830848
656,1791285467.048661,-0.13551020507812497,0.3091491210937501,-0.12928315429687395,0.3614558461808343,0.19547562586789405,4.94955766660617,-1.2343221883753073,5.104888155492142
657,1791285467.068661,-0.19299067382812496,0.39057978515625014,-0.12928315429687395,0.4544360271174432,0.19130716138607815,4.9548555114256505,-1.2387396140342761,5.110936059126599
658,1791285467.0948448,-0.15467036132812498,0.4336901367187501,-0.11012299804687396,0.4734312305492031,0.185985701360021,4.9623697211128235,-1.2441255319778548,5.119331232636439
659,1791285467.1148448,-0.13551020507812497,0.3762096679687501,-0.11012299804687396,0.4147575251304122,0.18209544794031518,4.968463205691491,-1.2479527332486722,5.126028814091234
660,1791285467.1235485,-0.16425043945312498,0.3235192382812501,-0.08617280273437396,0.37291910158869884,0.18046073499514526,4.971174001944268,-1.2494965831122675,5.12897443410384
661,1791285467.1435485,-0.20736079101562496,0.4432702148437501,-0.06222260742187396,0.49331393036546894,0.17671041612801086,4.977618881139786,-1.2527346058406992,5.135879699692962
662,1791285467.1687262,-0.394172314453125,0.5055407226562502,-0.014322216796873954,0.641208516505445,0.17156148013438932,4.98630691692463,-1.2563440068147187,5.14500634350392
663,1791285467.1887262,-0.269631298828125,0.4528502929687501,-0.004742138671873955,0.5270644296751658,0.1670892163044939,4.993610660087461,-1.2588096692997472,5.152539957561408
664,1791285467.214415,-0.20257075195312496,0.4241100585937501,0.009627978515626046,0.47010312625800094,0.16129671793749578,5.00327434160418,-1.2614922137563054,5.162376717553644
