imu_index,t_imu,ax,ay,az,mag,vx,vy,vz,velocity
0,1790565864.9572194,0.07271279296875004,-0.04651127929687497,-0.03884721679687561,0.09465492916912288,0.0,0.0,0.0,0.0
1,1790565864.9772193,-0.05661826171874997,-0.017771044921874972,0.018633251953124392,0.062198357502564174,0.00011685049647273277,-0.00015572521892035716,-7.98510725296536e-05,0.00021042950391485815
2,1790565864.9879403,-0.023087988281249968,0.06365961914062504,0.02821333007812439,0.0733593505021805,0.00010600282874748689,-0.00018978235846439106,-7.856648790075674e-05,0.00023114202626920837
3,1790565865.0079403,0.05355263671875003,0.06365961914062504,0.009053173828124391,0.08368029615759068,0.00013449886969285675,-5.2807277512711146e-05,-2.062985012676473e-05,0.00014595939580312506
4,1790565865.0325432,0.05355263671875003,0.02533930664062503,-0.01489702148437561,0.06108916933191993,0.0003619274536388978,0.00025463943894264886,2.9166912956886283e-05,0.00044349006118964834
5,1790565865.0525432,-0.008717871093749968,0.00617915039062503,-0.00052690429687561,0.01069863561839867,0.0005863270209225692,0.0005143550975438053,4.043936848483865e-05,0.0007810095289794389
6,1790565865.0778232,-0.04224814453124997,0.010969189453125031,0.02821333007812439,0.05197327031935872,0.0007307905733376182,0.0008259071045567375,0.00010504396641581717,0.0011077958486638165
7,1790565865.0978231,-0.013507910156249968,0.05407954101562503,0.009053173828124391,0.05647141179050004,0.0007443036504779716,0.0011329887829957617,0.00020438817729017935,0.0013709216000650998
8,1790565865.1073694,0.058342675781250034,0.02533930664062503,-0.01489702148437561,0.06532893331020821,0.0007818865310873815,0.001314438718447456,0.00024050981519621405,0.0015482056269292418
9,1790565865.1273694,0.05355263671875003,-0.00819096679687497,-0.01010698242187561,0.05511014362414623,0.0010166568096594839,0.001663286650547961,0.00026732913880609554,0.0019676326941207457
10,1790565865.1521335,-0.02787802734374997,0.05407954101562503,-0.00531694335937561,0.061074143888607636,0.00131143189817862,0.0021156689465426197,0.0002669088408563569,0.002503427459354958
11,1790565865.1721334,-0.04703818359374997,0.07323969726562503,-0.01968706054687561,0.08924250290268688,0.0014014143109436887,0.0026171981291068726,0.000229114345457026,0.0029776133901520006
12,1790565865.1972466,0.04397255859375004,0.010969189453125031,-0.01010698242187561,0.04643339445071222,0.001491679208773349,0.003311090245484912,0.0001326594062223145,0.0036340093552013975
13,1790565865.2172465,0.10145302734375004,-0.04651127929687497,0.02821333007812439,0.11511736555854986,0.0017709210047219918,0.0037274982241392216,9.452501032178751e-05,0.004127873446885567
14,1790565865.2273917,0.005652246093750033,0.030129345703125032,0.0665336425781244,0.07325606427536453,0.0019728171642644184,0.0038945763826079565,0.00015017450381465833,0.004368327499762347
15,1790565865.2473917,-0.008717871093749968,0.07802973632812503,0.03300336914062439,0.08516961548860176,0.0023065300221225132,0.004336782670097093,0.00039273005289639374,0.00492767709626503
16,1790565865.2727392,0.024812402343750033,0.02533930664062503,-0.029267138671875612,0.04598153082634976,0.002696625065368555,0.005009668386667407,0.0006611303183248867,0.005727622315180808
17,1790565865.2927392,0.04397255859375004,-0.01298100585937497,-0.04363725585937561,0.0632953593981306,0.003061430455953453,0.005479495266966637,0.0007317839043347789,0.006319235119853715
18,1790565865.317836,0.010442285156250033,-0.03214116210937497,-0.00531694335937561,0.034210605193599974,0.0035529620752253006,0.005895689568514084,0.000714999486766048,0.006920543277976865
19,1790565865.337836,0.010442285156250033,-0.00819096679687497,0.02821333007812439,0.031178923176549033,0.003917239655132372,0.006117110644571932,0.0007379747055039786,0.007301261248554286
20,1790565865.3477023,0.015232324218750034,0.010969189453125031,0.02821333007812439,0.03388714819014528,0.00408898527535292,0.006212011729073395,0.0007893624837042371,0.0074787688448619775
21,1790565865.3677022,0.029602441406250034,0.015759228515625032,-0.01489702148437561,0.03669576364819384,0.004452163006871108,0.006415623275751589,0.000897880446171963,0.007860544939871223
22,1790565865.392136,0.020022363281250035,0.02533930664062503,-0.01010698242187561,0.03383971906015291,0.00492024055203162,0.006702376244780295,0.0009647489947095154,0.008370266127145818
23,1790565865.412136,0.015232324218750034,0.07323969726562503,0.023423291015624393,0.07838831238563662,0.0052987900095073145,0.00704975453444735,0.0010312475918567052,0.008879171479171114
24,1790565865.4368563,0.039182519531250036,0.07323969726562503,0.02821333007812439,0.08772294503990613,0.005797383440768354,0.007686288253850323,0.001196846666053128,0.009701604188102866
25,1790565865.4568563,0.039182519531250036,-0.01298100585937497,-0.01489702148437561,0.04388277109577136,0.006257811729902555,0.008214418068961353,0.001330702975441231,0.01041189907113169
26,1790565865.466738,-0.05182822265624997,0.015759228515625032,-0.01968706054687561,0.05763764655231733,0.006441807589383512,0.008438277953886124,0.0013612878580856278,0.010703014737832093
27,1790565865.486738,-0.08056845703124997,0.02054926757812503,0.047373486328124395,0.09569637335487036,0.006559748942038667,0.008877856668013329,0.0014554339781467978,0.01113395407144786
28,1790565865.5125215,0.029602441406250034,0.04928950195312503,0.05695356445312439,0.08092878377878773,0.00659043292851065,0.009494599454957803,0.0017603434748055796,0.011691023656830613
29,1790565865.5325215,0.10624306640625004,0.05886958007812503,0.00426313476562439,0.12153761119919837,0.006814432015243666,0.010063477890471734,0.002053205870697913,0.012325815400607768
30,1790565865.5571146,-0.018297949218749967,0.05886958007812503,-0.029267138671875612,0.06824227289756346,0.007210771064950451,0.01087524234898594,0.0023131886250078574,0.013252054826145627
31,1790565865.5771146,-0.07577841796874997,0.030129345703125032,-0.03405717773437561,0.08837441630684661,0.007343625906389667,0.011569872566038726,0.0023979152474396196,0.013911893838772506
32,1790565865.6017926,0.039182519531250036,0.00138911132812503,-0.02447709960937561,0.046220427003501506,0.007415232647577061,0.012356747528798156,0.0023784397238881187,0.014605884438414575
33,1790565865.6217926,0.12061318359375003,-0.0034009277343749703,-0.00531694335937561,0.1207782110016575,0.00770425387060522,0.012895786133277803,0.0023203325543232397,0.015200025357236342
34,1790565865.6325626,0.04397255859375004,0.030129345703125032,0.018633251953124392,0.056467348619603286,0.00796949240044113,0.013164109748163304,0.0023044915517305606,0.015560118119550846
35,1790565865.6525626,-0.04224814453124997,0.04928950195312503,0.042583447265624394,0.07763833267236435,0.008390743473869469,0.013706771998184795,0.002371312360242135,0.0162451007065005
36,1790565865.6777558,-0.008717871093749968,0.05886958007812503,0.023423291015624393,0.06395529139160143,0.008745482488226628,0.014492172946028866,0.0025675773874010645,0.01712013417849822
37,1790565865.6977558,0.05355263671875003,0.015759228515625032,0.00426313476562439,0.055985824107250386,0.009052106865128931,0.015134092225878108,0.002741543531665506,0.01784649677486076
38,1790565865.722204,0.034392480468750035,0.03491938476562503,-0.01489702148437561,0.05122623736240118,0.009531961397299374,0.015894001835766534,0.002902804223232448,0.018759100585938854
39,1790565865.742204,-0.05661826171874997,0.044499462890625036,0.009053173828124391,0.0725795406018061,0.009832288787009062,0.01654153184364412,0.003006170806702526,0.019476479185019737
40,1790565865.7527273,-0.05661826171874997,0.05886958007812503,0.05695356445312439,0.09957390984863373,0.00987723585112552,0.016912718039978018,0.0031044963804067044,0.019830222321863048
41,1790565865.7727273,0.034392480468750035,0.08281977539062503,0.01384321289062439,0.09073914509009924,0.009916507320415416,0.017724887705279593,0.0033695323127525614,0.02058792144941562
42,1790565865.797356,0.029602441406250034,0.04928950195312503,-0.01010698242187561,0.058377312662315016,0.010075821568906029,0.01881902582682775,0.003653851607970488,0.021657066858933375
43,1790565865.8173559,-0.04224814453124997,0.039709423828125034,-0.00052690429687561,0.05798294305425619,0.010166820116447277,0.019707755839343047,0.003834152943528782,0.022504679519996
44,1790565865.856812,-0.023087988281249968,0.039709423828125034,0.01384321289062439,0.047974243993750956,0.010126071088850679,0.0214330727420545,0.004175903673808187,0.024069733990129218
45,1790565865.876812,0.07750283203125004,0.02533930664062503,0.03779340820312439,0.08987274969366282,0.01019013623734171,0.022274012112940555,0.004400604523788166,0.024886458412514065
46,1790565865.872096,0.10624306640625004,0.039709423828125034,0.047373486328124395,0.12291734908891222,0.01019013623734171,0.022274012112940555,0.004400604523788166,0.024886458412514065
47,1790565865.892096,0.020022363281250035,0.05886958007812503,0.052163525390624396,0.08116375959207066,0.010660097068118372,0.023112396225499356,0.004820843950057942,0.025904846364666844
48,1790565865.9176476,-0.003927832031249968,0.044499462890625036,0.08090375976562439,0.09241779269293166,0.011201290406832097,0.024220925942931928,0.005532205419738301,0.027253026568022927
49,1790565865.9376476,-0.003927832031249968,0.02054926757812503,0.1431742675781244,0.14469475166361584,0.011549574129985954,0.025056026871000975,0.006341605752460728,0.028309240693879564
50,1790565865.962425,0.029602441406250034,0.044499462890625036,0.1719145019531244,0.18003083823766247,0.011964042460081729,0.026056302855655942,0.007779468843272195,0.02970840564513258
51,1790565865.982425,0.015232324218750034,0.02054926757812503,0.1335941894531244,0.13602096733496566,0.012315664630095719,0.02684017333108864,0.00922426098176479,0.03093796196234621
52,1790565865.993102,0.0008622070312500328,0.05886958007812503,0.06174360351562439,0.08531496606477751,0.01248811095429966,0.027259473060128225,0.010036297715514522,0.03161896675347248
53,1790565866.013102,0.0008622070312500328,0.06844965820312503,0.042583447265624394,0.08061916081251151,0.012765265098535575,0.028118057088112176,0.011485705911023396,0.032946905282905455
54,1790565866.0377254,-0.003927832031249968,0.030129345703125032,0.0665336425781244,0.07314322204878412,0.013049644135286986,0.029198612413671318,0.0132040171758319,0.034600552719878545
55,1790565866.0577254,-0.02787802734374997,0.07802973632812503,0.1240141113281244,0.14914866398503213,0.013198270592786181,0.030106865952328622,0.014676160112237203,0.0360001027741854
56,1790565866.0824592,-0.023087988281249968,0.11156000976562504,0.1575443847656244,0.19441945415251172,0.013259961079296141,0.03141330537534807,0.01674595771185613,0.03798749033717013
57,1790565866.1024592,-0.003927832031249968,0.13551020507812503,0.1862846191406244,0.230391846368635,0.013261838395066476,0.032681850221597586,0.018684310737579767,0.039913445845507205
58,1790565866.1116824,-0.03745810546874997,0.07802973632812503,0.1527543457031244,0.17557231999359796,0.013233945900114733,0.033326818224641966,0.01967864797562164,0.040903096743571
59,1790565866.1316824,-0.04703818359374997,-0.03214116210937497,0.1623344238281244,0.17204101306708694,0.013055790928048061,0.03458443783738357,0.021984015008192262,0.043009695804145986
60,1790565866.1565928,0.05355263671875003,-0.13752202148437498,0.09527387695312439,0.17566246873580707,0.012879349972950573,0.03559889463300682,0.02490598126922503,0.045315194557682875
61,1790565866.1765928,0.14935341796875004,-0.21895268554687497,0.052163525390624396,0.2701254437262717,0.013063297717217438,0.035756492899824244,0.027121215113123237,0.04674116858783212
62,1790565866.2017846,0.18767373046875005,-0.24290288085937498,-0.01489702148437561,0.30731931258374684,0.013897015339549302,0.03505260335188491,0.02956337002601253,0.04791455816750456
63,1790565866.2217846,0.19246376953125005,-0.286013232421875,-0.058007373046875615,0.34958650865041546,0.015029832495445847,0.03378422940077746,0.03110203473788951,0.04831776677250721
64,1790565866.2470706,0.07750283203125004,-0.257272998046875,-0.03405717773437561,0.2708430834489268,0.016759196651230674,0.031390852378331904,0.032580971839667384,0.048247031115396584
65,1790565866.2670705,-0.008717871093749968,-0.03214116210937497,-0.01968706054687561,0.03868637914207931,0.018025041478104915,0.029347642089185624,0.033494658623156766,0.048042464266148464
66,1790565866.2921693,0.08229287109375004,-0.07525151367187498,0.1000639160156244,0.14982554598980402,0.019513816531661336,0.02696599252907002,0.03462059055697115,0.048026441459082095
67,1790565866.3121693,0.16851357421875005,-0.12794194335937498,0.1000639160156244,0.2340486121619473,0.020898406763802828,0.025048057669246924,0.035683401112793584,0.04834722032592771
68,1790565866.3224895,0.14456337890625004,-0.12315190429687498,-0.03884721679687561,0.19384031651233477,0.021748025543737295,0.02401248527364554,0.036196941278427874,0.04857771734017614
69,1790565866.3424895,0.15414345703125004,-0.195002490234375,-0.03884721679687561,0.2515855377322309,0.023595624547615445,0.021829401850302008,0.03692633158283013,0.04895743301174112
70,1790565866.3663664,0.17809365234375005,-0.262063037109375,0.06174360351562439,0.32281055899586186,0.026065471124127382,0.018795577209379487,0.03770749669469196,0.04954329232637521
71,1790565866.3863664,0.16372353515625004,-0.056091357421874974,0.0713236816406244,0.18718628129289153,0.028336688607180412,0.016158310307739,0.03846327479222857,0.050432949754738506
72,1790565866.3968217,0.18767373046875005,0.08760981445312503,0.1240141113281244,0.24140507141539605,0.029621461508879447,0.015011146427533364,0.0389522822126944,0.05118638284317679
73,1790565866.4168217,0.21162392578125006,0.14030024414062503,0.1288041503906244,0.2847092440136737,0.03230939313995611,0.01348777184735124,0.04012661436760045,0.05325375155878281
74,1790565866.441918,0.12061318359375003,0.14030024414062503,0.06174360351562439,0.19504863787689794,0.03580165145759599,0.012391107896412968,0.04173779516544153,0.05636791061644992
75,1790565866.4619179,0.08708291015625004,0.14988032226562503,0.00426313476562439,0.17339469011985056,0.03847882781503671,0.012083505478100836,0.04292820831489646,0.05890214226822044
76,1790565866.487448,0.14456337890625004,0.05886958007812503,0.0665336425781244,0.1696788837011854,0.04182719169263701,0.012149452979363054,0.044355401286497106,0.062165302185998784
77,1790565866.507448,0.23078408203125003,0.06844965820312503,0.1479643066406244,0.2825598773123532,0.044619821002243244,0.012384344779084804,0.04562748720899366,0.06500898407825147
78,1790565866.5175345,0.18288369140625005,0.19299067382812504,0.1000639160156244,0.2840856069134658,0.04612989595439368,0.012682814831481874,0.04636043364764417,0.06661914815434418
79,1790565866.5375345,0.13498330078125004,0.32232172851562507,0.03779340820312439,0.35148275898927067,0.04915179657229285,0.013958828128581615,0.04780253719807014,0.06997021188748981
80,1790565866.562414,0.19725380859375005,0.351061962890625,0.00426313476562439,0.40270552654686553,0.05296702829091266,0.016564562822929053,0.04940586137039559,0.07430228775236905
81,1790565866.582414,0.21641396484375006,0.33669184570312505,0.023423291015624393,0.4009302354579553,0.05619445446621904,0.01937667554688686,0.05054293282579163,0.0780247417595071
82,1790565866.6065872,0.23557412109375003,0.23610102539062505,0.03779340820312439,0.3356593547381115,0.060329649509740235,0.02330421069509321,0.05182210523185526,0.08287510746147408
83,1790565866.6265872,0.2978446289062501,0.09718989257812503,0.08090375976562439,0.3235779914207132,0.06403787654331974,0.026566208252495144,0.052899736157602746,0.08720662324982194
84,1790565866.637276,0.36011513671875006,0.21694086914062505,0.01384321289062439,0.4206398541990392,0.06624988552379374,0.028299873448564078,0.05346523022758408,0.08971321537214619
85,1790565866.657276,0.32658486328125,0.34627192382812505,-0.03405717773437561,0.4772020636075398,0.07079802647435843,0.03190200140678663,0.0543342999280179,0.09477507264618887
86,1790565866.6817155,0.30742470703125,0.40375239257812506,-0.08195756835937561,0.5140457061557776,0.07668422175513352,0.03701824052824467,0.05502433640919917,0.10138292556081716
87,1790565866.7017155,0.2978446289062501,0.29837153320312504,-0.07237749023437562,0.42775635107723703,0.0816865181612122,0.04163024295377334,0.05527281824044688,0.10705535397136251
88,1790565866.741797,0.4463358398437501,0.25526118164062506,-0.08195756835937561,0.5206639950995033,0.09244484736188596,0.05115091185672271,0.05523214988633369,0.1192185219192179
89,1790565866.761797,0.56608681640625,0.19299067382812504,-0.06758745117187562,0.6018868227910525,0.09852646824415194,0.0558613417893854,0.05499058368199348,0.1259044031988665
90,1790565866.7573235,0.56129677734375,0.17383051757812504,-0.053217333984375614,0.5900027167177815,0.09852646824415194,0.0558613417893854,0.05499058368199348,0.1259044031988665
91,1790565866.7773235,0.49902626953125007,0.24568110351562505,-0.1633882324218756,0.5797259152400176,0.10594833509630368,0.06036159082027097,0.054337118105421564,0.13349566944300106
92,1790565866.8015447,0.5517166992187501,0.26963129882812503,-0.3118794433593756,0.6887388044060887,0.11549718156384782,0.06593026327947864,0.05280107398855748,0.14308861582823046
93,1790565866.8215446,0.62356728515625,0.07802973632812503,-0.2735591308593756,0.685389959763863,0.12396210066735408,0.07036020694609675,0.050844822376906136,0.151335247334849
94,1790565866.8470461,0.6762577148437501,-0.03214116210937497,-0.21128862304687562,0.7092252346162512,0.1356225619391786,0.07524921045687955,0.04779728332317758,0.16229757630478095
95,1790565866.867046,0.6379374023437501,0.12114008789062504,-0.33582963867187565,0.7310407624843656,0.14536703208176954,0.07864185089370042,0.04494503462715307,0.1712780513255718
96,1790565866.8774226,0.5948270507812501,0.14988032226562503,-0.3310395996093756,0.6970441505766354,0.15062371961195323,0.08034892157403405,0.04316821351814309,0.17608790068087748
97,1790565866.8974226,0.6762577148437501,0.039709423828125034,-0.19691850585937562,0.7054631338180198,0.16114249779888457,0.08343003933097352,0.039465269964373266,0.1857013290016853
98,1790565866.9218125,0.7337381835937501,-0.03214116210937497,-0.1538081542968756,0.7503743896838487,0.1746252358668088,0.0866376939205998,0.03498532411164792,0.198050589276112
99,1790565866.9418125,0.7528983398437501,0.15946040039062503,-0.42684038085937565,0.8800433172090965,0.18625274882141715,0.08906442969976772,0.030991799356700753,0.2087655400410824
100,1790565866.9673839,0.78642861328125,0.09239985351562503,-0.5370112792968756,0.9567595365656126,0.20184153487198883,0.09218479593771327,0.024803179688189583,0.22327839018633833
101,1790565866.9873838,0.74331826171875,-0.21895268554687497,-0.29750932617187564,0.8300446469148611,0.21449967109938614,0.09406940498863532,0.01943716864360994,0.23502545687976198
102,1790565867.011601,0.64751748046875,-0.410554248046875,-0.07716752929687562,0.7705767357503841,0.2300539450212628,0.09486573540536074,0.013233794887556476,0.24919762980608792
103,1790565867.031601,0.7576883789062501,-0.32912358398437497,-0.24002885742187563,0.8602487230211691,0.2430805691045803,0.09431522917983,0.008403345246382582,0.2608718876053539
104,1790565867.0416946,0.78642861328125,-0.190212451171875,-0.5178511230468756,0.9606354802989494,0.249837696581984,0.09368592058299711,0.005757433020405827,0.26688775615201904
105,1790565867.0616946,0.7960086914062501,-0.199792529296875,-0.6232319824218756,1.0305168584116586,0.26359183346301096,0.09204102010890915,-0.00041048592477801234,0.27919952104144946
106,1790565867.0875902,0.8343290039062501,-0.20458256835937497,-0.7334028808593757,1.1295303004738497,0.281895531863973,0.08944533704457479,-0.009833489689897414,0.29590920351244754
107,1790565867.1075902,0.82474892578125,-0.415344287109375,-0.7381929199218756,1.18222267548652,0.2964001888608554,0.0868114292978376,-0.018226910524934054,0.30938894046291987
108,1790565867.1316698,0.70499794921875,-0.587785693359375,-0.5178511230468756,1.0538898971721453,0.31400667102706636,0.08230431492095519,-0.029084963290668522,0.3259142905638346
109,1790565867.1516697,0.7960086914062501,-0.525515185546875,-0.3214595214843756,1.0065447188215837,0.3286882189265968,0.07745237734281082,-0.038009629237653414,0.3398228184392205
110,1790565867.162229,0.78642861328125,-0.195002490234375,-0.3214595214843756,0.8716835199417511,0.33653008958568337,0.0747043525323106,-0.04252392449687959,0.34733488975113935
111,1790565867.182229,0.9109696289062501,-0.017771044921874972,-0.29750932617187564,0.9584848845894491,0.3517012085175637,0.0699610084732233,-0.05072016902765607,0.36216131533544443
112,1790565867.2374833,0.9732401367187501,-0.11836186523437497,-0.1681782714843756,0.9947310319184598,0.3951359384010143,0.05825803832651866,-0.07189730481040998,0.4058270953062465
113,1790565867.2574832,0.8343290039062501,-0.21416264648437497,-0.1442280761718756,0.8733683437500052,0.41121078811458267,0.054158616657009606,-0.07888145167924548,0.42219634228524794
114,1790565867.252005,0.76247841796875,-0.257272998046875,-0.2639790527343756,0.8469047606872295,0.41121078811458267,0.054158616657009606,-0.07888145167924548,0.42219634228524794
115,1790565867.272005,0.74331826171875,-0.262063037109375,-0.3310395996093756,0.8548603921887535,0.42711948741938466,0.04981670131742874,-0.08534048851231599,0.4384013677477165
116,1790565867.282472,0.7720584960937501,-0.276433154296875,-0.1681782714843756,0.8371221781702689,0.4353859010563823,0.04746251814437423,-0.0886056181393615,0.4468383701442182
117,1790565867.3024719,0.7481083007812501,-0.15668217773437498,-0.19691850585937562,0.789298569913366,0.4510922878484099,0.0429892299437899,-0.09445641907362361,0.4628761617881015
118,1790565867.326775,0.6139872070312501,-0.10399174804687497,-0.38852006835937564,0.7339907476105225,0.46979795466721364,0.03789368843813833,-0.10156673689155761,0.4821429786647763
119,1790565867.346775,0.6906278320312501,-0.30996342773437496,-0.46516069335937565,0.8884923182310598,0.48483940993302216,0.0337084466033033,-0.10782089395821379,0.49782613226964817
120,1790565867.3713622,0.76247841796875,-0.544675341796875,-0.27834916992187564,0.977508478851139,0.5032366357719019,0.02775907182584907,-0.11572726640372256,0.5171174700596883
121,1790565867.3913622,0.7385282226562501,-0.463244677734375,-0.35977983398437563,0.9431124514345305,0.5182083037170465,0.02213369262075767,-0.12215106164901428,0.5328701795487435
122,1790565867.4018261,0.58524697265625,-0.453664599609375,-0.45558061523437565,0.8694131842336946,0.5259053744497892,0.01891239565719457,-0.12564773377588645,0.5410374243873369
123,1790565867.4218261,0.58524697265625,-0.654846240234375,-0.2831392089843756,0.9227705180686584,0.5401659555481191,0.012016236293776465,-0.13243658810151945,0.5562940763084323
124,1790565867.4466164,0.8391190429687501,-0.6452661621093749,-0.2735591308593756,1.0933086418357307,0.5578390187377115,0.0023332621714979573,-0.14062429830317658,0.5752955833411851
125,1790565867.4666164,0.8295389648437501,-0.654846240234375,-0.4124702636718756,1.134499982792721,0.5724613381439249,-0.00625702144439797,-0.1472680783702623,0.5911336743019793
126,1790565867.4922938,0.7576883789062501,-0.894348193359375,-0.36935991210937563,1.2289740091508057,0.5914752588586624,-0.018614983561502523,-0.1560240396835697,0.6119910133442295
127,1790565867.5122938,0.80558876953125,-1.004519091796875,-0.3933101074218756,1.346374655131141,0.6064085110493382,-0.029644982704482944,-0.16296500724379442,0.6286236559807422
128,1790565867.5218084,0.86306923828125,-1.028469287109375,-0.4507905761718756,1.4162802435111546,0.6136378068593016,-0.03555590507802006,-0.16637406780628086,0.6367856082163129
129,1790565867.5418084,0.90138955078125,-1.0572095214843749,-0.49869096679687563,1.4761056110386028,0.6292013041575618,-0.049245652399250814,-0.17388936516996278,0.6546425946675156
130,1790565867.5675251,0.9397098632812501,-1.114689990234375,-0.49390092773437566,1.5393266475617362,0.6497626868484441,-0.06839712687140473,-0.18401778677333788,0.6787726143810826
131,1790565867.5875251,0.9924002929687501,-1.263181201171875,-0.35977983398437563,1.646185474793259,0.6662528756311792,-0.08462394193308462,-0.19199366249857644,0.6985096078614287
132,1790565867.6117742,1.03072060546875,-1.263181201171875,-0.3406196777343756,1.6655429980615204,0.6869268567336492,-0.10594172921110441,-0.20148729744869642,0.7236637945367931
133,1790565867.6317742,0.9397098632812501,-1.105109912109375,-0.4603706542968756,1.5219276212514803,0.7043761376991018,-0.12443914536631882,-0.2093443605382036,0.7452891422451781
134,1790565867.6564798,0.9349198242187501,-1.148220263671875,-0.5226411621093756,1.5702352167605234,0.7261712723525445,-0.14803651568200427,-0.21941565235932908,0.7729053986521582
135,1790565867.6764798,1.03072060546875,-1.153010302734375,-0.49390092773437566,1.62350110907457,0.7441169862548792,-0.16772573464603793,-0.22787053099272825,0.7960948374349033
136,1790565867.6875215,1.00677041015625,-1.038049365234375,-0.41726030273437564,1.5050711955477907,0.7542256683686783,-0.17877976547621297,-0.23259270723636122,0.809269998720729
137,1790565867.7075214,0.88222939453125,-0.9087183105468749,-0.3310395996093756,1.3090778773654677,0.7726227422353762,-0.19871897331900024,-0.24098553529299122,0.8333721620000991
138,1790565867.731909,0.80079873046875,-0.7314868652343749,-0.3022993652343756,1.1259380742082934,0.7947692052326006,-0.222385491775125,-0.25084290377057494,0.8625749584298038
139,1790565867.751909,0.90138955078125,-0.654846240234375,-0.34540971679687565,1.1664624267692545,0.8127602299010876,-0.24096232672131515,-0.2586857911480586,0.8863184375548755
140,1790565867.7772956,1.0163504882812502,-0.6500562011718749,-0.3406196777343756,1.2536200160221656,0.8358226555578645,-0.2634899624272234,-0.2684539153363839,0.916566405942927
141,1790565867.7972956,0.9349198242187501,-0.621315966796875,-0.2543989746093756,1.1510114884727503,0.8541931897762397,-0.28048253113520316,-0.27588761523781086,0.9404416153987039
142,1790565867.8068461,0.7768485351562501,-0.573415576171875,-0.26876909179687564,1.002265381162221,0.862875911065624,-0.28823558689502915,-0.27927969314926787,0.9516468559584494
143,1790565867.8268461,0.7528983398437501,-0.496774951171875,-0.28792924804687564,0.9468603456329413,0.8806257427393841,-0.3036412833112099,-0.2861526266899808,0.9744655219492099
144,1790565867.8518634,0.8870194335937501,-0.515935107421875,-0.3645698730468756,1.0889920582707726,0.9025749472990386,-0.3219212956358926,-0.2946844482118684,1.0025536295349429
145,1790565867.8718634,0.8918094726562501,-0.506355029296875,-0.38852006835937564,1.0966619327448328,0.9201583346651699,-0.3358765491325812,-0.30161171211583726,1.024926359304139
146,1790565867.897454,0.80558876953125,-0.539885302734375,-0.30708940429687565,1.0172282477078933,0.9425399126443883,-0.3530623872029505,-0.31048091493606156,1.0532962236354364
147,1790565867.917454,0.8295389648437501,-0.549465380859375,-0.21128862304687562,1.0171971201227534,0.9598607799737753,-0.36611303747254986,-0.31715033063797,1.0751538519500428
148,1790565867.9275053,0.9397098632812501,-0.482404833984375,-0.2927192871093756,1.0961084034188313,0.968593620228247,-0.37246586430303963,-0.3203793052094836,1.0860696664691374
149,1790565867.9475052,0.92533974609375,-0.520725146484375,-0.2927192871093756,1.101404968632265,0.9861613087243849,-0.38471528592777826,-0.32671872455057244,1.1078199777145368
150,1790565867.9728875,0.78642861328125,-0.568625537109375,-0.22565874023437563,0.996356779614893,1.0083710603934222,-0.4000030896499785,-0.33454418135991815,1.1352244167785774
151,1790565867.9928875,0.8199588867187501,-0.587785693359375,-0.2735591308593756,1.0453033986855444,1.0256557968607305,-0.4119768327622984,-0.340534169280908,1.1565717637979551
152,1790565868.0169666,0.9540799804687501,-0.7075366699218749,-0.28792924804687564,1.2222029292618415,1.0465481327972688,-0.42656957045109944,-0.34767810513062086,1.1824147569628451
153,1790565868.0369666,0.9349198242187501,-0.793757373046875,-0.26876909179687564,1.2555328230232818,1.064131749298243,-0.4391240732047415,-0.3535568151173105,1.2042461347450353
154,1790565868.0473595,0.8726493164062501,-0.7506470214843749,-0.24960893554687563,1.1778337747715097,1.0733073545214982,-0.4458731962019263,-0.35655749356825006,1.2156993175045099
155,1790565868.0673594,0.9588700195312501,-0.6692163574218749,-0.2831392089843756,1.2031001866266833,1.0910634422837595,-0.4590427312037935,-0.36226491434287733,1.2378915672719388
156,1790565868.0924664,0.9876102539062501,-0.659636279296875,-0.37893999023437563,1.246631281006626,1.1136752365700542,-0.47559746534815395,-0.3696016936954724,1.2661243594440148
157,1790565868.1124663,0.9157596679687501,-0.760227099609375,-0.4124702636718756,1.259639921117247,1.131840822120148,-0.48893653292024986,-0.3757565696278373,1.2889203154036197
158,1790565868.1371145,0.9301297851562501,-0.774597216796875,-0.35977983398437563,1.2627683059239734,1.1542825015746012,-0.5057471585957127,-0.38363169660111335,1.3173160442756344
159,1790565868.1571145,0.8918094726562501,-0.7266968261718749,-0.31666948242187565,1.193185640956609,1.1724935502232108,-0.5195934729705586,-0.39007788540469385,1.3404772505158127
160,1790565868.1669765,0.86306923828125,-0.6308960449218749,-0.3022993652343756,1.110992005275712,1.1814243926106847,-0.5264010598453623,-0.3932375143668194,1.3518496269804716
161,1790565868.1869764,0.9349198242187501,-0.6692163574218749,-0.2735591308593756,1.1818461020093767,1.1995163245036384,-0.5400861179847786,-0.39954785722591074,1.3748348692859091
162,1790565868.211922,0.9684500976562501,-0.6692163574218749,-0.23523881835937563,1.2004513427684267,1.2222581513063757,-0.5570988968789146,-0.40718990224347257,1.4035945945420392
163,1790565868.231922,0.9157596679687501,-0.774597216796875,-0.1538081542968756,1.2092450397152397,1.2405826783881055,-0.570858569764558,-0.41298141162820307,1.4267019783194617
164,1790565868.2570488,0.7720584960937501,-0.8464478027343749,-0.1346479980468756,1.1535502969192222,1.2633320895267894,-0.5886073573349095,-0.41970974109084747,1.4555489879435375
165,1790565868.2770488,0.7528983398437501,-0.8320776855468749,-0.35977983398437563,1.1784102485409502,1.2810109595226802,-0.6031333372548762,-0.42500352890557186,1.47830541516549
166,1790565868.28716,0.7912186523437501,-0.8895581542968749,-0.4507905761718756,1.273009351598838,1.289778910201144,-0.6106810402936926,-0.4278930668729491,1.4898165816139166
167,1790565868.30716,0.78163857421875,-1.1338501464843749,-0.24960893554687563,1.3995998128372993,1.3068799246505223,-0.6264062539449355,-0.43380190312208455,1.5127802297717354
168,1790565868.3325255,0.72415810546875,-1.124270068359375,-0.22565874023437563,1.3562116410682545,1.328180135850146,-0.647654533547358,-0.44107601537422314,1.5420982197738768
169,1790565868.3525255,0.64272744140625,-1.129060107421875,-0.1346479980468756,1.3061414063898868,1.3445058340904397,-0.6652750929788371,-0.44649157486494906,1.5651330977481155
170,1790565868.377524,0.7337381835937501,-1.0955298339843749,-0.04842729492187561,1.3194326591784584,1.364431523808361,-0.6881666204287049,-0.4525884947060766,1.593763792465679
171,1790565868.3975239,0.8582791992187501,-1.0524194824218749,-0.01010698242187561,1.3580618917731186,1.3803698565819755,-0.7069557449902285,-0.4568224585463353,1.6167541943558243
172,1790565868.4227562,0.7289481445312501,-1.023679248046875,0.05695356445312439,1.257985814228954,1.4004654233636995,-0.7310335797059342,-0.46127419945493636,1.6457482747302916
173,1790565868.4427562,0.78642861328125,-0.9422485839843749,-0.06279741210937562,1.228920612885822,1.4162776446949072,-0.7502046344943466,-0.4642822747575205,1.6685944357852114
174,1790565868.4523044,0.80558876953125,-0.793757373046875,-0.1442280761718756,1.1400990179880823,1.4238342839542164,-0.7592273950531754,-0.46565120059773135,1.6794526924509532
175,1790565868.4723043,0.7002079101562501,-0.8272876464843749,-0.1681782714843756,1.0968044030138244,1.4395471269587825,-0.7777234528325216,-0.46855710132426104,1.7019681128101132
176,1790565868.4971495,0.49902626953125007,-0.875188037109375,-0.12027788085937562,1.0146172118615269,1.458373246532626,-0.8004261533543512,-0.47216300102812647,1.72929825441294
177,1790565868.5171494,0.7337381835937501,-1.028469287109375,-0.22565874023437563,1.2833715999798683,1.47310394264054,-0.818815692789536,-0.4751491999833129,1.7510742779294926
178,1790565868.5423267,0.7481083007812501,-1.0188892089843749,-0.34540971679687565,1.3103851045934216,1.4916644448194485,-0.8423591331532282,-0.4794228781944031,1.778897979447213
179,1790565868.5623267,0.62356728515625,-0.7266968261718749,-0.24002885742187563,0.9871870586067584,1.5062542366398743,-0.8608743315438679,-0.4831866755517097,1.8009374790751025
180,1790565868.5724044,0.56608681640625,-0.31954350585937497,-0.09153764648437561,0.6564613290741217,1.5134022671310574,-0.8695952303623541,-0.4850493298051419,1.8115891198532845
181,1790565868.5924044,0.66188759765625,-0.175842333984375,-0.08195756835937561,0.6897338337095086,1.5273021591187277,-0.8850494944018816,-0.4884516628591919,1.8315429341786293
182,1790565868.6176217,0.5181864257812501,-0.01298100585937497,-0.2735591308593756,0.5861060283375399,1.5444310449855603,-0.9019695072812118,-0.49277045353848553,1.8551654817457193
183,1790565868.6376216,0.5181864257812501,0.24568110351562505,-0.29750932617187564,0.6460558610893069,1.5575328676864424,-0.9130269127648702,-0.4965385243978823,1.8724522112907793
184,1790565868.6617794,0.46549599609375003,0.3319018066406251,-0.09153764648437561,0.5789857272459502,1.5727668536543653,-0.9233331327562659,-0.5011121127585109,1.8913627361118888
185,1790565868.6817794,0.24036416015625003,0.6049340332031251,-0.04842729492187561,0.6527367899149468,1.5845459036721836,-0.9291804382904518,-0.5045405255833939,1.9049207725524702
186,1790565868.6923335,0.24994423828125004,1.0983080566406251,-0.24481889648437563,1.1526877294425963,1.5902174867471888,-0.9304550282630305,-0.506310456121315,1.9107298324866016
187,1790565868.7123334,0.46070595703125006,1.1749486816406252,-0.28792924804687564,1.2944719522700994,1.6004189672732627,-0.9290981930624582,-0.5099604943794623,1.9195374518325208
188,1790565868.7381418,0.24515419921875004,1.107888134765625,-0.18254838867187562,1.1492783016988273,1.6129747954254772,-0.9231912250543397,-0.5148747263387711,1.9284879342421661
189,1790565868.7581418,0.04397255859375004,0.9929271972656252,0.09048383789062439,0.9980106862646649,1.621679025669624,-0.9161490774639824,-0.5182498340895013,1.9333274127701916
190,1790565868.7827985,-0.10451865234374998,1.2372191894531253,0.1479643066406244,1.2504114952600374,1.6306883436243826,-0.9046453976463982,-0.5213457040716167,1.9363184429915377
191,1790565868.8027985,-0.20510947265624999,1.783283642578125,0.03779340820312439,1.7954383273628864,1.6364355120352942,-0.8921832621538283,-0.5232015620206423,1.9358853356587271
192,1790565868.812146,-0.36318076171874997,1.8503441894531252,0.0665336425781244,1.8868228880104958,1.6383202653134272,-0.8846850893134653,-0.523865692960952,1.9342172223542244
193,1790565868.832146,-0.18594931640624998,1.5916820800781253,0.1048539550781244,1.6059337919756544,1.6409243308008359,-0.8658852908720593,-0.5248164523149192,1.9281655284189632
194,1790565868.8571556,-0.34402060546874996,1.4719311035156253,-0.12027788085937562,1.5163766415728759,1.6426981425751763,-0.8401563020985987,-0.5258559553027958,1.9185526537740218
195,1790565868.8771555,-0.60747275390625,1.8407641113281252,-0.21607866210937562,1.9504167884098629,1.642476630205907,-0.8176983065573374,-0.527067078755945,1.9089682309634215
196,1790565868.9023182,-0.07098837890624997,1.8551342285156251,-0.1681782714843756,1.8640939586698608,1.6409593480296338,-0.7867064672730819,-0.5290874436678749,1.895148587995712
197,1790565868.9223182,0.30742470703125,1.7018529785156251,-0.01010698242187561,1.7294263968349248,1.640288922377428,-0.7604328238829552,-0.5307198351116961,1.8842689223923679
198,1790565868.9325545,0.30263466796875005,1.4000805175781252,0.03779340820312439,1.4329136539449943,1.6404656139544727,-0.7466212803228423,-0.531408737888147,1.8790864837739158
199,1790565868.9525545,0.16851357421875005,1.227639111328125,-0.04842729492187561,1.2400966959281592,1.6414657780713848,-0.7197420358533286,-0.5325687913619679,1.8697775312283913
200,1790565868.9775424,0.19725380859375005,0.9402367675781251,-0.00531694335937561,0.9607197895313637,1.6432134235522522,-0.6871337871028197,-0.5339014763902289,1.8593961340210003
201,1790565868.9975424,0.43196572265625005,0.9402367675781251,-0.23044877929687563,1.0600689621600652,1.645346223491827,-0.6621287862512909,-0.5351617871102424,1.8525595437460178
202,1790565869.0222027,0.9876102539062501,1.112678173828125,-0.5082710449218756,1.5721851631535755,1.650207081139823,-0.6321249794413003,-0.5378489573527475,1.8471726776896404
203,1790565869.0422027,1.2223221679687502,0.7534252441406252,-0.47953081054687563,1.5138265683624164,1.65687288221165,-0.6086422498145176,-0.5411831000957423,1.8462264985360968
204,1790565869.0677545,0.9876102539062501,0.27921137695312503,-0.45558061523437565,1.12289211575207,1.6683467053176355,-0.5811621950467758,-0.5465958535154725,1.8492964211223963
205,1790565869.0877545,1.1361014648437502,0.015759228515625032,-0.7238228027343756,1.3471801443985765,1.6791659722829186,-0.5624368569689052,-0.5519661410179258,1.854885495490253
206,1790565869.0975993,1.55283486328125,-0.30996342773437496,-0.8100435058593757,1.7786354096721144,1.685678190951831,-0.5548193372562981,-0.5553456315841327,1.859501070438986
207,1790565869.1175992,1.6151053710937502,-0.33870366210937497,-0.9441645996093757,1.9012449399321791,1.701675407702824,-0.5426383901981473,-0.5638126516318193,1.872976327089457
208,1790565869.1577044,1.87855751953125,-0.16626225585937499,-1.0255952636718757,2.1467340628911247,1.73945068940875,-0.5233952271680808,-0.5841692280167693,1.9081103090934264
209,1790565869.1777043,2.1611698242187503,-0.286013232421875,-0.9345845214843757,2.3718994089194196,1.7615226796855719,-0.515916736435408,-0.5957383583054816,1.9297762620410974
210,1790565869.1875854,2.32882119140625,-0.573415576171875,-0.9968550292968756,2.5972934978499875,1.7741191003703216,-0.5134130935859061,-0.602028086471551,1.9425574390130262
211,1790565869.2075853,2.41983193359375,-0.760227099609375,-1.2267769042968757,2.817536761559071,1.8029138193252083,-0.5111061168233785,-0.616184810903347,1.9726660700068008
212,1790565869.2171378,2.5156327148437505,-1.114689990234375,-1.1932466308593757,2.9991297491736,1.8181398646156077,-0.5115127866300156,-0.6236659600659927,1.9890291923286347
213,1790565869.2371378,2.5300028320312506,-0.774597216796875,-1.3848481933593757,2.9864225583474187,1.8528052065885412,-0.5150704410367631,-0.6408468590810327,2.0270346295969977
214,1790565869.2627704,2.7934549804687503,-0.482404833984375,-1.3896382324218757,3.157087196889841,1.9008032555397218,-0.52136262403972,-0.6648973153834453,2.0801347172767684
215,1790565869.2827704,2.8605155273437504,-0.6452661621093749,-1.0591255371093757,3.1177980058841657,1.9411173150267755,-0.527227210315903,-0.6845211238924005,2.1247291900496785
216,1790565869.3073242,2.7599247070312503,-0.8320776855468749,-1.0399653808593756,3.064484566228481,1.9935367334008962,-0.536067697673734,-0.7088648292581471,2.182669610836032
217,1790565869.3273242,2.7982450195312505,-1.0140991699218749,-1.1405562011718757,3.1873877648945235,2.03816694248385,-0.5449577355099101,-0.7289901485277055,2.2321581609681025
218,1790565869.352491,2.8988358398437506,-1.1386401855468749,-1.2459370605468756,3.354416470468304,2.0966561494944536,-0.5585297213293003,-0.7550204673019403,2.2973851146174717
219,1790565869.372491,2.7790848632812506,-1.220070849609375,-1.1836665527343757,3.257752609307157,2.144682119657669,-0.5712355769051408,-0.7762481884254135,2.3512832089595666
220,1790565869.3820567,2.9419461914062506,-1.081159716796875,-1.0160151855468758,3.2948809665321592,2.1683114709470503,-0.5780521078387976,-0.7864564133101725,2.377863024745988
221,1790565869.4020567,3.1718680664062506,-0.7506470214843749,-1.1118159667968757,3.4438862823234397,2.219475254669137,-0.5929138621533654,-0.8077897770481498,2.435188201746582
222,1790565869.4276485,2.8509354492187504,-0.7889673339843749,-1.0782856933593756,3.1484920876842044,2.286683884622432,-0.6120334372060726,-0.8351967663681621,2.5101915773506316
223,1790565869.4476485,2.5491629882812505,-1.028469287109375,-0.9250044433593757,2.9002783031262447,2.3394289254520726,-0.6274602134612766,-0.8564074309618778,2.5690596926746236
224,1790565869.4573133,2.5635331054687502,-0.9901489746093749,-0.8723140136718757,2.8832323377075575,2.3648001030972656,-0.6352600241609717,-0.8664225818482604,2.597406960074305
225,1790565869.4773133,2.6401737304687503,-0.999729052734375,-0.9154243652343756,2.9678236595868035,2.417232629209451,-0.6519644200290122,-0.886720470875492,2.656001577967953
226,1790565869.501826,2.36714150390625,-1.009309130859375,-1.0112251464843756,2.764894232702943,2.4810622373090756,-0.6730604846344255,-0.9114087456658101,2.7275164789701214
227,1790565869.521826,2.21386025390625,-0.894348193359375,-1.1405562011718757,2.646111177336025,2.5322005543439325,-0.6905464151534318,-0.9317581152160826,2.7851511959267135
228,1790565869.546698,2.3575614257812503,-0.9087183105468749,-1.1549263183593756,2.778078408737599,2.594784567827114,-0.7123936074868052,-0.9575507003798237,2.856101354857649
229,1790565869.566698,2.33840126953125,-1.071579638671875,-0.9250044433593757,2.733502632081428,2.6446044962931894,-0.7302965439778458,-0.9782997504683544,2.912788421036891
230,1790565869.607323,2.10368935546875,-1.009309130859375,-0.8818940917968756,2.494383894891656,2.7441559428932734,-0.767547189041807,-1.0196295648676117,3.026411237071817
231,1790565869.627323,1.9695682617187502,-0.817707568359375,-1.1309761230468756,2.4139079924106808,2.791924381954535,-0.7858757137427709,-1.0399438494346602,3.0812214464364454
232,1790565869.6223478,2.1851200195312503,-1.157800341796875,-0.9202144042968756,2.638568869879402,2.791924381954535,-0.7858757137427709,-1.0399438494346602,3.0812214464364454
233,1790565869.6423478,2.30008095703125,-1.2967114746093749,-0.4603706542968756,2.6802563677042435,2.8384620967317726,-0.8053186072359799,-1.0593070610755502,3.134890202764357
234,1790565869.6668909,2.38630166015625,-0.582995654296875,-0.6040718261718756,2.529668420439355,2.8956310372192946,-0.8290591406355273,-1.0814637989986964,3.200247195284092
235,1790565869.6868908,2.34319130859375,-0.381814013671875,-0.5992817871093756,2.448564091476171,2.9423239009719584,-0.8469504686099069,-1.0986159109760552,3.2529297493734988
236,1790565869.726569,2.24739052734375,-0.6261060058593749,-0.5226411621093756,2.3908004302531483,3.034723960914097,-0.8801204118043723,-1.1308785553631915,3.356046448606035
237,1790565869.746569,2.25697060546875,-0.9661987792968749,-0.4316304199218756,2.4927417063279305,3.081069076490047,-0.896720447965123,-1.1461328126708523,3.4074498734659033
238,1790565869.7420993,2.22344033203125,-1.047629443359375,-0.6136519042968757,2.5333343680501184,3.081069076490047,-0.896720447965123,-1.1461328126708523,3.4074498734659033
239,1790565869.7620993,2.41025185546875,-0.8895581542968749,-1.1070259277343757,2.797522854480866,3.1272164726437963,-0.9141873812517837,-1.1610677615546185,3.458800338518567
240,1790565869.832392,2.5108426757812503,-1.033259326171875,-1.2698872558593757,2.997427133432865,3.2910229726002864,-0.9765058542310687,-1.2182160466178562,3.64258784736451
241,1790565869.852392,2.6497538085937506,-1.320661669921875,-1.1836665527343757,3.1884806727687725,3.3383797432092543,-0.9951081816070877,-1.2357174358083418,3.696216604060427
242,1790565869.8333921,2.8221952148437506,-1.464362841796875,-0.8962642089843756,3.303397326303448,3.3383797432092543,-0.9951081816070877,-1.2357174358083418,3.696216604060427
243,1790565869.8533921,2.9419461914062506,-1.1338501464843749,-0.9058442871093757,3.2804294566871994,3.388217942189288,-1.015996581767943,-1.2537172588568026,3.7528758097081996
244,1790565869.8621116,2.9802665039062504,-0.8464478027343749,-1.0255952636718757,3.26348095780037,3.410559699518785,-1.0250323692220598,-1.261650655479354,3.778143882703005
245,1790565869.8821115,3.0329569335937503,-0.9422485839843749,-0.9345845214843757,3.310605440527932,3.4631384388216233,-1.045332157836946,-1.2800583775842833,3.837264209912529
246,1790565869.9064252,3.2053983398437507,-1.234440966796875,-0.7334028808593757,3.5123073332543533,3.528845578340015,-1.0702778453139081,-1.3021212988856168,3.910724441705299
247,1790565869.9264252,3.2293485351562503,-1.038049365234375,-0.9776948730468756,3.5301736091814884,3.5844397239820363,-1.0911284513659205,-1.320114204199367,3.972589954219984
248,1790565869.9670596,3.0664872070312503,-0.8895581542968749,-1.2076167480468756,3.413648445714012,3.69963583769807,-1.133011221657443,-1.3578472037120577,4.100581518347154
249,1790565869.9870596,3.0185868164062506,-0.918298388671875,-1.2363569824218756,3.3887633270563926,3.756957393170782,-1.1532452640018729,-1.377299304560511,4.164331503060991
250,1790565869.9815872,2.9227860351562502,-0.8703979980468749,-1.2459370605468756,3.294333019163756,3.756957393170782,-1.1532452640018729,-1.377299304560511,4.164331503060991
251,1790565870.0015872,2.7695047851562506,-0.717116748046875,-1.2746772949218756,3.131966697064649,3.8144858882488184,-1.1725262151620344,-1.3982992872374316,4.22851761419771
252,1790565870.0266294,2.6593338867187506,-0.295593310546875,-1.6339302246093756,3.13514913603528,3.885909677052557,-1.194948947783503,-1.4261124044750098,4.3083632154470335
253,1790565870.0466294,2.5491629882812505,-0.415344287109375,-1.5812397949218757,3.028376150134254,3.942208515313651,-1.2112370444695173,-1.4498161134397696,4.3715065960028365
254,1790565870.0716302,2.40546181640625,-0.578205615234375,-1.1692964355468756,2.7363885758166084,4.011318250326773,-1.2304066913239449,-1.480159567517823,4.449207466142024
255,1790565870.0916302,2.33840126953125,-0.45845463867187497,-1.1166060058593756,2.6315603974422377,4.065427089414645,-1.2449966049948915,-1.5042212779863366,4.510032773599554
256,1790565870.116594,2.2282303710937503,-0.271643115234375,-1.1549263183593756,2.524411885877178,4.131384722446915,-1.2618429451408044,-1.534002873162421,4.58407593282877
257,1790565870.136594,2.0653690429687503,-0.04651127929687497,-1.0399653808593756,2.3128857680701547,4.182741201456024,-1.273792262653216,-1.5575759943362761,4.6415421645058474
258,1790565870.1474872,1.9647782226562502,0.30316157226562507,-0.9202144042968756,2.190674542920119,4.209809628586343,-1.279114609487873,-1.5700907803137545,4.671596766799319
259,1790565870.1674871,1.6630057617187501,0.43249262695312507,-0.7477729980468757,1.8739803874338141,4.257494788320676,-1.2863172823326587,-1.592123565921929,4.723952949868293
260,1790565870.192467,1.3037528320312501,0.5139232910156251,-0.7238228027343756,1.5772786836307915,4.313677625829654,-1.2921908570061391,-1.6182715516315598,4.78501564107513
261,1790565870.212467,1.1840018554687501,0.580983837890625,-0.6998726074218756,1.4930586995369801,4.355644395809844,-1.2945457498647845,-1.6382020631687193,4.830237344169842
262,1790565870.2220163,0.9876102539062501,0.7582152832031251,-0.6519722167968757,1.4054651190188234,4.374231883920065,-1.2945423417663247,-1.6472590374608438,4.850072863929484
263,1790565870.2420163,0.6523075195312501,0.9593969238281251,-0.7094526855468757,1.3598789175943407,4.409781552343902,-1.2919598587521974,-1.665424567959547,4.887634663882197
264,1790565870.2666736,0.26431435546875004,0.9306566894531252,-0.7669331542968757,1.2345729687995224,4.44873036523276,-1.2857583224799938,-1.6871911178780408,4.9285890673312505
265,1790565870.2866735,-0.008717871093749968,1.1318383300781252,-0.8148335449218757,1.3946640142487352,4.4759670868059835,-1.278388922864661,-1.7045707516000586,4.957229170361594
266,1790565870.3117654,0.06792275390625004,1.2180590332031251,-0.7477729980468757,1.4308898509228283,4.505123912564281,-1.2661078976198696,-1.7260451566066792,4.987825433855848
267,1790565870.3317654,0.029602441406250034,1.1988988769531252,-0.6184419433593756,1.3493351173829267,4.52502421770799,-1.2541619567091817,-1.7426435838708179,5.008549994250485
268,1790565870.3418133,-0.05182822265624997,1.074357861328125,-0.4124702636718756,1.1519820733304817,4.5335056289963145,-1.2473474902356665,-1.7505086100343668,5.017253177122212
269,1790565870.3618133,0.30742470703125,1.390500439453125,-0.44600053710937565,1.4922861326550063,4.548238655979504,-1.2321208644253538,-1.7651030905162692,5.031916694108579
270,1790565870.3869028,0.76726845703125,1.467141064453125,-0.21128862304687562,1.669085579108755,4.565970818093126,-1.210507378990333,-1.781902085416598,5.048622848686568
271,1790565870.4069028,0.7720584960937501,1.3713402832031252,0.1862846191406244,1.5847240936688436,4.580294650793566,-1.191604934438603,-1.7933221464148419,5.0611288986439105
272,1790565870.4321704,0.80079873046875,1.0887279785156252,0.3922562988281244,1.4072925146867727,4.598657317937147,-1.166644087680398,-1.8044894781851655,5.075912709259042
273,1790565870.4521704,1.1456815429687501,0.7965355957031252,0.2820854003906244,1.4235966164033012,4.613931395740284,-1.1470225947849273,-1.81099132170528,5.0876038883581405
274,1790565870.4768786,1.35644326171875,0.6145141113281252,-0.01010698242187561,1.4891836912809895,4.634607481669607,-1.1238031707530274,-1.81731491523612,5.103445265394949
275,1790565870.4968786,1.4570340820312502,0.15467036132812503,-0.09153764648437561,1.4680771020617136,4.6530534209568435,-1.1066737798666721,-1.8218181918251561,5.118071366968973
276,1790565870.5064409,1.51930458984375,-0.03214116210937497,-0.1585981933593756,1.5278981896575716,4.662684318196556,-1.0996245866866796,-1.8238276959125455,5.126026409137939
277,1790565870.5264409,1.9408280273437502,-0.09441166992187497,-0.3022993652343756,1.966497368765485,4.684996531495213,-1.0872822062582832,-1.8280915818183474,5.145220493592395
278,1790565870.5520127,2.27613076171875,-0.44887456054687497,-0.48911088867187563,2.3709679620285717,4.717333172745651,-1.0749104252292907,-1.8342434232527753,5.174274211974006
279,1790565870.5720127,2.06057900390625,-0.717116748046875,-0.5992817871093756,2.262604897464338,4.7453354226271625,-1.068434729947948,-1.8399657153878581,5.200503329409742
280,1790565870.5964897,1.95519814453125,-0.741066943359375,-0.7573530761718756,2.22386233407229,4.781837491655914,-1.0643751321399797,-1.8484089423024854,5.235979357914612
281,1790565870.6164896,2.3910916992187503,-0.6740063964843749,-0.9058442871093757,2.6442688987815433,4.813708656724848,-1.0636782327181833,-1.856767799836886,5.267901771777576
282,1790565870.626532,2.6018534179687505,-0.8656079589843749,-0.9920649902343757,2.9160094807976016,4.831071983184115,-1.0645404035949395,-1.8617648620775968,5.285704416561655
283,1790565870.646532,2.29050087890625,-1.023679248046875,-0.9106343261718757,2.6690013778854866,4.867803423346483,-1.0688338283017436,-1.8730780149198567,5.324127831940364
284,1790565870.6716373,2.2617606445312504,-0.8033374511718749,-1.0112251464843756,2.604513115821859,4.915566322084407,-1.0768548759244925,-1.8887675061387843,5.3749280351329825
285,1790565870.6916373,2.6018534179687505,-0.8081274902343749,-1.0591255371093757,2.923090513895422,4.955204329645142,-1.0847035144520194,-1.9024971506218282,5.4175757559006685
286,1790565870.7169685,2.48689248046875,-0.9661987792968749,-1.1213960449218756,2.894080748716803,5.007545622419746,-1.096524141827885,-1.9214208564864355,5.474462207556794
287,1790565870.7369685,2.29050087890625,-1.119480029296875,-1.2555171386718758,2.841822143935762,5.049838310920248,-1.1075855622295139,-1.9376860533663416,5.521072358293048
288,1790565870.7470138,2.23302041015625,-1.186540576171875,-0.9920649902343757,2.7163305461459224,5.071302132999862,-1.1140453101276375,-1.9463233973857257,5.545031744219094
289,1790565870.7670138,2.4246219726562503,-1.114689990234375,-0.7046626464843756,2.7600498057039773,5.114612541496131,-1.128429202393489,-1.9634857556407899,5.593557922024961
290,1790565870.792336,2.5108426757812503,-0.956618701171875,-0.5944917480468757,2.7518849395372516,5.17059622526924,-1.1478428246203451,-1.984423099273503,5.6560183443595005
291,1790565870.812336,2.5060526367187506,-1.028469287109375,-0.47474077148437566,2.75016866621701,5.2157060426253725,-1.1638537319881204,-2.000083170635875,5.7060036559752
292,1790565870.8374221,2.8126151367187506,-0.760227099609375,-0.7765132324218756,3.0152482402625145,5.273807334231431,-1.1842893340125642,-2.019133546689046,5.7699640644127275
293,1790565870.857422,2.8221952148437506,-0.8320776855468749,-1.3465278808593757,3.2357806537841296,5.321632679681899,-1.2005262552038343,-2.035227854214784,5.822644595496432
294,1790565870.8670936,2.3479813476562503,-1.684704638671875,-1.5093892089843757,3.260291691352581,5.345040899001412,-1.2090258006385026,-2.0439147745169017,5.848828361654655
295,1790565870.8870935,2.12763955078125,-2.321779833984375,-1.0112251464843756,3.307580377319272,5.392900104865195,-1.2299755915799933,-2.0629651204486246,5.903561347621044
296,1790565870.9123058,2.5156327148437505,-1.780505419921875,-0.5944917480468757,3.1387940271478696,5.452962420833815,-1.2601808795849736,-2.0864142939303885,5.972937268899983
297,1790565870.9323058,2.6497538085937506,-0.717116748046875,-0.7621431152343756,2.8489144958361896,5.501208935959165,-1.2842939419298958,-2.104260406308379,6.028318384417989
298,1790565870.9570508,2.5395829101562506,-0.539885302734375,-0.8148335449218757,2.7211966491961266,5.561578764817895,-1.311985594221092,-2.1259551719550505,6.096896747516677
299,1790565870.9770508,2.4821024414062505,-0.970988818359375,-0.7286128417968757,2.7630650532054295,5.610585790846238,-1.3332762668719298,-2.1431747988445076,6.152194465282436
300,1790565870.9870958,2.6114334960937504,-1.023679248046875,-0.8004634277343756,2.9168897487807985,5.6353449925571475,-1.3438683172658907,-2.151678091313031,6.180033482751243
301,1790565871.0070958,2.5970633789062503,-0.7314868652343749,-0.8914741699218757,2.8415730544373234,5.685059558851215,-1.3644267742745395,-2.168606746101207,6.235737152035712
302,1790565871.032233,2.3910916992187503,-0.30996342773437496,-1.0447554199218756,2.627719682169654,5.7475753060208135,-1.388353454699843,-2.190342512268748,6.3055330888521235
303,1790565871.052233,2.22344033203125,-0.190212451171875,-0.9441645996093757,2.423079544265846,5.79677576327335,-1.4052850508486434,-2.2080255329100513,6.360252516826256
304,1790565871.0768373,2.21865029296875,-0.12315190429687498,-0.8531538574218757,2.3802199516969207,5.856421021315521,-1.423568419305026,-2.2298330305781042,6.426225141372349
305,1790565871.0968373,2.11326943359375,-0.21416264648437497,-0.8675239746093757,2.2944217538702185,5.904129885219044,-1.4367070080383657,-2.247481606125336,6.478738326121446
306,1790565871.122457,1.7061161132812501,-0.23811284179687497,-0.6807124511718756,1.8522687058326408,5.96341609104796,-1.4518818704860206,-2.2696729915723393,6.543829760124314
307,1790565871.142457,1.6103153320312502,-0.017771044921874972,-0.5561714355468756,1.7037482044981893,6.007730099570173,-1.462334977007513,-2.2862534110262325,6.592283306540313
308,1790565871.15216,1.7444364257812501,0.31274165039062507,-0.6711323730468757,1.895068454075748,6.028445384924469,-1.4664309161840825,-2.2939838861249946,6.614751352905017
309,1790565871.17216,1.72048623046875,0.27921137695312503,-0.7908833496093757,1.9140345699443297,6.0699369395215825,-1.4727192697883331,-2.309721071536622,6.659417987007183
310,1790565871.1972415,1.4187137695312502,0.13072016601562503,-0.8675239746093757,1.668063058814855,6.120070932078819,-1.4786513376363903,-2.3296161141622815,6.7133292211342175
311,1790565871.2172415,1.20795205078125,0.04928950195312503,-0.8196235839843756,1.460602763044356,6.157991051431164,-1.482401996652179,-2.345631416868453,6.75428428576892
312,1790565871.241934,1.32291298828125,-0.07525151367187498,-0.6615522949218756,1.481017556880922,6.202472715278633,-1.4863861449201052,-2.3651814652170184,6.802506517379639
313,1790565871.261934,1.5432547851562501,0.05886958007812503,-0.7860933105468757,1.7329292115527353,6.237396098918211,-1.489153670469342,-2.380812485204149,6.840391570573748
314,1790565871.2720203,1.38997353515625,0.23610102539062505,-0.9968550292968756,1.726699184009694,6.254585544615529,-1.4901168832075917,-2.388861755545419,6.859077864235205
315,1790565871.2920203,1.1887918945312501,0.19778071289062504,-0.9729048339843757,1.5488341405343853,6.287425696292486,-1.4910895112668585,-2.4053830614286307,6.894993654037461
316,1790565871.317059,1.32770302734375,0.04928950195312503,-0.8196235839843756,1.5610917984679629,6.327098167106818,-1.4916605559601346,-2.426330348755045,6.9386094710470285
317,1790565871.337059,1.60552529296875,-0.02735112304687497,-0.6184419433593756,1.7207353043395248,6.358433542943368,-1.492015357972474,-2.4427095600428244,6.972991964944295
318,1790565871.3623416,1.56720498046875,0.08281977539062503,-0.5705415527343757,1.6698826992930855,6.398119914258601,-1.4922914176759878,-2.462563772690372,7.016202138412842
319,1790565871.3823416,1.4187137695312502,0.14988032226562503,-0.5178511230468756,1.51768990788663,6.4292838243949175,-1.4921279898520068,-2.4775462928142993,7.049849081062928
320,1790565871.3924065,1.52409462890625,0.22173090820312505,-0.5178511230468756,1.6248688621406877,6.44483579496856,-1.4917775670227973,-2.48473697084055,7.066486152809071
321,1790565871.4124064,1.8210770507812502,-0.056091357421874974,-0.42684038085937565,1.871272448360137,6.476121549906018,-1.4909372274637558,-2.498299396638978,7.099615765704586
322,1790565871.4370804,2.22344033203125,-0.266853076171875,-0.4124702636718756,2.2770659175305346,6.516413713304699,-1.490653634272027,-2.514074727357413,7.14186724008863
323,1790565871.4570804,2.19949013671875,-0.32912358398437497,-0.5609614746093756,2.293634009831061,6.550808815368302,-1.491352206838455,-2.526403846262924,7.177739472477465
324,1790565871.4820857,2.13721962890625,-0.477614794921875,-0.5753315917968757,2.264250444414213,6.595494520831058,-1.4936075570504672,-2.5416373506249768,7.224356852404422
325,1790565871.5020857,1.95519814453125,-0.396184130859375,-0.5034810058593756,2.057487490407757,6.632012902555932,-1.4964515633205682,-2.5536121286654487,7.262499385521503
326,1790565871.51173,1.91208779296875,-0.24290288085937498,-0.4699507324218756,1.9839191587496066,6.649778411123318,-1.4980795344846773,-2.559224475887601,7.281031872383594
327,1790565871.53173,1.91208779296875,-0.10878178710937497,-0.49869096679687563,1.9790416583770079,6.686829984695864,-1.5014766906765429,-2.570570338467696,7.3195600524814735
328,1790565871.5568464,2.07973916015625,-0.14231206054687498,-0.6807124511718756,2.1929288948903345,6.733900219429673,-1.505575978455592,-2.5849031594917977,7.368439151956688
329,1790565871.5768464,2.12284951171875,-0.353073779296875,-0.6615522949218756,2.251400138124699,6.772063432843232,-1.5090936462057734,-2.5966176783287644,7.40814620123554
330,1790565871.6017005,2.03662880859375,-0.343493701171875,-0.7669331542968757,2.203186621668375,6.820128912647606,-1.5141078181763086,-2.611654556940959,7.458379206971506
331,1790565871.6217005,1.9695682617187502,-0.15189213867187498,-0.9154243652343756,2.1772166010355734,6.859014454014204,-1.518280533867542,-2.6244631478841414,7.4992707561801515
