imu_index,t_imu,ax,ay,az,mag
0,1790233870.5027776,-0.09024433593750002,0.025291406250000006,-0.02476450195312535,0.09693800057711756
1,1790233870.5227776,0.05824687499999999,-0.022608984374999995,0.018345849609374652,0.06511862114345181
2,1790233870.5481358,0.08219707031249998,0.010921289062500006,0.05187612304687465,0.09780984135105847
3,1790233870.5681357,-0.008813671875000017,0.08756191406250001,0.032715966796874656,0.09388878575028548
4,1790233870.5932138,-0.018393750000000018,0.07798183593750001,-0.01039438476562535,0.08079319284383761
5,1790233870.6132138,0.11093730468749999,0.010921289062500006,-0.01997446289062535,0.11324901453824161
6,1790233870.6222658,0.08219707031249998,0.006131250000000006,-0.01039438476562535,0.0830782392036352
7,1790233870.6422658,-0.06629414062500003,0.04445156250000001,-0.0008143066406253486,0.07982178640699325
8,1790233870.667628,-0.02318378906250002,0.04924160156250001,-0.015184423828125349,0.05650477968036544
9,1790233870.687628,0.1348875,-0.013028906249999994,-0.04871469726562535,0.1440052491543375
10,1790233870.7127633,0.024716601562499985,-0.008238867187499995,0.027925927734374655,0.038192234356713886
11,1790233870.7327633,-0.10461445312500002,0.08277187500000001,0.032715966796874656,0.13735247204587422
12,1790233870.7427084,-0.03276386718750002,0.1258822265625,-0.01039438476562535,0.13049080117797032
13,1790233870.7627084,0.05824687499999999,0.034871484375000004,-0.015184423828125349,0.06956497392203662
14,1790233870.7876158,0.0007664062499999837,0.04924160156250001,-0.005604345703125349,0.04956542538645444
15,1790233870.8076158,-0.09503437500000002,0.073191796875,0.04229604492187465,0.1271909076053203
16,1790233870.8324368,-0.05192402343750002,0.11151210937500002,0.008765771484374652,0.12332028826156828
17,1790233870.8524368,0.043876757812499986,0.12109218750000002,-0.04392465820312535,0.13608035621622
18,1790233870.862317,0.05824687499999999,0.10193203125000001,-0.05829477539062535,0.1310767648359543
19,1790233870.882317,-0.07108417968750003,0.06361171875,0.003975732421874652,0.09547364983315679
20,1790233870.9073951,-0.06629414062500003,0.04445156250000001,0.06624624023437466,0.10372761847786328
21,1790233870.927395,-0.03755390625000002,0.073191796875,0.07103627929687466,0.10868987064473228
22,1790233870.9529288,-0.04234394531250002,0.06361171875,0.032715966796874656,0.08312517639326426
23,1790233870.9729288,-0.02318378906250002,0.030081445312500007,0.04229604492187465,0.0568448488731975
24,1790233870.9824927,0.024716601562499985,-0.008238867187499995,0.09498647460937466,0.09849476983094087
25,1790233871.0024927,-0.013603710937500017,0.039661523437500006,0.07103627929687466,0.08248788013398091
26,1790233871.028095,-0.1285646484375,0.08756191406250001,-0.015184423828125349,0.15628987282974785
27,1790233871.048095,-0.15730488281250002,0.07798183593750001,-0.03913461914062535,0.17988193713688802
28,1790233871.0877824,-0.056714062500000016,0.05403164062500001,-0.015184423828125349,0.0797901610530722
29,1790233871.1077824,-0.008813671875000017,0.11630214843750002,-0.005604345703125349,0.11677019839778724
30,1790233871.102312,-0.14772480468750002,0.17378261718750002,0.003975732421874652,0.2281201928913518
31,1790233871.122312,-0.20041523437500003,0.149832421875,0.023135888671874653,0.25129920445387716
32,1790233871.1473663,-0.16209492187500002,0.1258822265625,0.05187612304687465,0.2116889954730038
33,1790233871.1673663,-0.09982441406250002,0.130672265625,0.03750600585937466,0.1686619551707363
34,1790233871.1929128,-0.1333546875,0.14025234375,0.023135888671874653,0.19490885549463421
35,1790233871.2129128,-0.17646503906250002,0.1546224609375,-0.0008143066406253486,0.23462454801875132
36,1790233871.223167,-0.1285646484375,0.1258822265625,0.013555810546874653,0.18044102580004723
37,1790233871.243167,-0.056714062500000016,0.08756191406250001,0.018345849609374652,0.10592518056360507
38,1790233871.268162,-0.08545429687500002,0.04445156250000001,0.008765771484374652,0.09672237079811641
39,1790233871.288162,-0.1285646484375,0.034871484375000004,-0.0008143066406253486,0.13321243314975825
40,1790233871.3126156,-0.03755390625000002,0.039661523437500006,0.008765771484374652,0.055318812945809204
41,1790233871.3326156,-0.05192402343750002,0.10193203125000001,0.04708608398437465,0.1237066793252192
42,1790233871.3581643,-0.11898457031250002,0.10193203125000001,0.07103627929687466,0.17202796267916684
43,1790233871.3781643,-0.10940449218750002,0.08756191406250001,0.027925927734374655,0.14288558060531828
44,1790233871.4174385,-0.008813671875000017,0.05882167968750001,-0.04871469726562535,0.07688167885042926
45,1790233871.4374385,-0.056714062500000016,0.05882167968750001,-0.01039438476562535,0.08236818634138197
46,1790233871.4323878,-0.16209492187500002,0.09235195312500001,0.04708608398437465,0.19240776036492951
47,1790233871.4523878,-0.05192402343750002,0.14025234375,0.05187612304687465,0.1582970507611582
48,1790233871.4774594,-0.013603710937500017,0.1546224609375,0.032715966796874656,0.1586300755250844
49,1790233871.4974594,-0.11898457031250002,0.17857265625000002,-0.0008143066406253486,0.21458374735271982
50,1790233871.508132,-0.08545429687500002,0.1450423828125,-0.005604345703125349,0.16843734252560677
51,1790233871.528132,-0.013603710937500017,0.0684017578125,0.023135888671874653,0.07347877766912254
52,1790233871.55321,-0.02318378906250002,0.006131250000000006,0.032715966796874656,0.04056371266675673
53,1790233871.57321,-0.08066425781250001,0.05882167968750001,-0.02476450195312535,0.1028590931648081
54,1790233871.5977163,-0.03276386718750002,0.08756191406250001,-0.03913461914062535,0.10135126147537868
55,1790233871.6177163,-0.05192402343750002,0.09714199218750001,0.023135888671874653,0.112551944455579
56,1790233871.6281042,-0.09024433593750002,0.12109218750000002,0.05187612304687465,0.15968246674168707
57,1790233871.6481042,-0.15730488281250002,0.17857265625000002,0.03750600585937466,0.24091434202296566
58,1790233871.6730752,-0.09024433593750002,0.1354623046875,0.013555810546874653,0.16333351205319807
59,1790233871.6930752,-0.11419453125000002,0.10193203125000001,-0.005604345703125349,0.1531729044345584
60,1790233871.7182572,-0.15251484375000002,0.08756191406250001,-0.005604345703125349,0.1759524795197149
61,1790233871.7382572,-0.12377460937500002,0.12109218750000002,-0.005604345703125349,0.17324803170665215
62,1790233871.7481492,-0.056714062500000016,0.130672265625,0.018345849609374652,0.14362554120599252
63,1790233871.7681491,-0.18125507812500002,0.1642025390625,0.03750600585937466,0.24743196571218348
64,1790233871.7925434,-0.21957539062500003,0.1594125,0.023135888671874653,0.27232511207931
65,1790233871.8125434,-0.14772480468750002,0.11630214843750002,0.013555810546874653,0.18850084257297384
66,1790233871.8373818,-0.06150410156250002,0.08756191406250001,0.013555810546874653,0.10785918274714357
67,1790233871.8573818,-0.10461445312500002,0.09714199218750001,0.04708608398437465,0.1503258120010756
68,1790233871.8984559,-0.1285646484375,0.11151210937500002,0.032715966796874656,0.17330364637991363
69,1790233871.9184558,-0.08545429687500002,0.1450423828125,-0.005604345703125349,0.16843734252560677
70,1790233871.9124675,-0.07587421875000001,0.1546224609375,0.008765771484374652,0.17245823044148356
71,1790233871.9324675,-0.15730488281250002,0.1450423828125,0.027925927734374655,0.21578224303312746
72,1790233871.9722943,-0.1333546875,0.11630214843750002,0.008765771484374652,0.1771623581890838
73,1790233871.9922943,-0.05192402343750002,0.1450423828125,0.008765771484374652,0.15430565696558932
74,1790233872.0026374,-0.03276386718750002,0.17857265625000002,0.032715966796874656,0.18447763831075845
75,1790233872.0226374,-0.13814472656250001,0.23126308593750003,0.023135888671874653,0.2703735374236924
76,1790233872.032528,-0.11419453125000002,0.21689296875000003,0.018345849609374652,0.24580382637071682
77,1790233872.052528,-0.06150410156250002,0.20731289062500002,0.04708608398437465,0.22131084120143577
78,1790233872.0770795,-0.11419453125000002,0.3079037109375,0.03750600585937466,0.330532580318513
79,1790233872.0970795,-0.20041523437500003,0.35580410156250003,0.013555810546874653,0.4085909750078516
80,1790233872.1223292,-0.16209492187500002,0.33185390625,0.008765771484374652,0.3694301253833564
81,1790233872.1423292,-0.13814472656250001,0.3174837890625,0.018345849609374652,0.3467224999800268
82,1790233872.1528785,-0.19083515625000003,0.36538417968750003,0.008765771484374652,0.41231116208100105
83,1790233872.1728785,-0.2531056640625,0.4803451171875,0.003975732421874652,0.5429638249779469
84,1790233872.197726,-0.25789570312500004,0.5474056640625,0.023135888671874653,0.6055562930749562
85,1790233872.217726,-0.20041523437500003,0.6000960937500001,0.023135888671874653,0.6331009850317976
86,1790233872.2425306,-0.19083515625000003,0.609676171875,-0.005604345703125349,0.6388697051072907
87,1790233872.2625306,-0.2818458984375,0.6575765625000001,0.003975732421874652,0.7154438150292786
88,1790233872.2725286,-0.31537617187500006,0.7150570312500001,0.056666162109374654,0.7835685940967767
89,1790233872.2925286,-0.2914259765625,0.7533773437500001,0.07103627929687466,0.8108962170756232
90,1790233872.3167934,-0.2818458984375,0.801277734375,0.003975732421874652,0.8494109279491671
91,1790233872.3367934,-0.23873554687500004,0.7390072265625001,-0.0008143066406253486,0.7766125194384962
92,1790233872.3622794,-0.21957539062500003,0.8874984375,0.04708608398437465,0.915469239263694
93,1790233872.3822794,-0.14772480468750002,0.90665859375,0.10935659179687465,0.9251006905792016
94,1790233872.3926136,0.039086718749999985,0.782117578125,0.08540639648437466,0.7877372215118462
95,1790233872.4126136,-0.11419453125000002,0.849178125,0.003975732421874652,0.8568311883878955
96,1790233872.437429,-0.32016621093750003,1.0743099609375,-0.04871469726562535,1.1220612356397
97,1790233872.457429,-0.15251484375000002,1.0791000000000002,-0.015184423828125349,1.0899303437793992
98,1790233872.4830148,-0.10461445312500002,0.8874984375,-0.07266489257812535,0.896592352733936
99,1790233872.5030148,-0.008813671875000017,0.647996484375,-0.06308481445312535,0.6511196651836474
100,1790233872.5117962,-0.17167500000000002,0.7725375000000001,-0.02955454101562535,0.7919343188837661
101,1790233872.5317962,-0.04713398437500002,0.8108578125,-0.02476450195312535,0.8126040149619828
102,1790233872.5728023,0.06782695312499999,0.762957421875,-0.03434458007812535,0.7667359867288808
103,1790233872.5928023,0.08698710937499998,0.6719466796875,-0.02476450195312535,0.6780061785097982
104,1790233872.6025176,-0.10940449218750002,0.7150570312500001,0.08061635742187466,0.727856371775943
105,1790233872.6225176,-0.11419453125000002,0.6767367187500001,0.09977651367187465,0.6935188030273135
106,1790233872.6472144,-0.018393750000000018,0.46118496093750005,-0.02476450195312535,0.4622155111968575
107,1790233872.6672144,0.005556445312499984,0.5761458984375001,-0.03434458007812535,0.5771953920048286
108,1790233872.6774096,0.04866679687499999,0.5090853515625,-0.13014536132812535,0.5277065163221079
109,1790233872.6974096,-0.03755390625000002,0.456394921875,0.06624624023437466,0.4627042088992833
110,1790233872.7222958,-0.14293476562500002,0.389334375,0.003975732421874652,0.41476187051030217
111,1790233872.7422957,0.1300974609375,0.379754296875,-0.05829477539062535,0.4056315522432315
112,1790233872.7676475,0.2737986328125,0.379754296875,-0.17804575195312536,0.5008785352893191
113,1790233872.7876475,0.08219707031249998,0.21210292968750002,-0.17325571289062536,0.28593977197867637
114,1790233872.7972748,-0.08066425781250001,0.3366439453125,-0.04392465820312535,0.34894876988215384
115,1790233872.8172748,0.024716601562499985,0.47555507812500003,-0.02955454101562535,0.47711320838760957
116,1790233872.8431098,0.08219707031249998,0.5090853515625,0.023135888671874653,0.516197174428638
117,1790233872.8631098,0.06782695312499999,0.6048861328125,0.032715966796874656,0.6095556280787969
118,1790233872.8878558,0.09656718749999998,0.7198470703125001,0.023135888671874653,0.7266638120092309
119,1790233872.9078557,0.21631816406249998,0.628836328125,0.056666162109374654,0.66741271309536
120,1790233872.9168184,-0.013603710937500017,0.83001796875,0.09019643554687466,0.8350151414103271
121,1790233872.9368184,-0.03276386718750002,0.7533773437500001,0.013555810546874653,0.7542112787995607
122,1790233872.962291,-0.027973828125000016,0.7773275390625001,-0.015184423828125349,0.7779789230897723
123,1790233872.982291,-0.008813671875000017,0.628836328125,0.056666162109374654,0.6314458506553502
124,1790233873.0076718,0.1300974609375,0.44202480468750005,-0.01039438476562535,0.46088970539171603
125,1790233873.0276718,-0.2531056640625,0.513875390625,-0.02955454101562535,0.5735885852814365
126,1790233873.0377257,-0.08066425781250001,0.09714199218750001,-0.05350473632812535,0.13713513752550802
127,1790233873.0577257,0.565991015625,-0.223790625,-0.2786365722656254,0.6693776310947706
128,1790233873.0824878,-0.16688496093750002,0.19294277343750002,-0.20678598632812537,0.3283868879090044
129,1790233873.1024878,-0.22436542968750003,0.4276546875,0.22431752929687465,0.5324910625817427
130,1790233873.1273081,0.5516208984375001,0.4276546875,0.17641713867187467,0.7199285757287933
131,1790233873.147308,-0.07108417968750003,0.56177578125,-0.20199594726562536,0.6012049165739
132,1790233873.1578655,-0.23873554687500004,0.006131250000000006,0.14767690429687466,0.2807858999860501
133,1790233873.1778655,0.19236796875,0.5090853515625,0.32490834960937465,0.6338286568327459
134,1790233873.2029033,0.27858867187499997,0.609676171875,-0.07745493164062535,0.6747710345626025
135,1790233873.2229033,0.22110820312499999,0.22168300781250003,-0.02955454101562535,0.31449270951264907
136,1790233873.2479782,0.21152812499999998,-0.2669009765625,-0.20678598632812537,0.39842279440027956
137,1790233873.2679782,0.2546384765625,-0.329171484375,-0.19241586914062536,0.4584958959127704
138,1790233873.2928216,0.1732078125,-0.19984042968750002,-0.12535532226562535,0.2926620926410501
139,1790233873.3128216,0.15404765625,-0.2956412109375,-0.24031625976562537,0.4109577967485823
140,1790233873.3228688,0.508510546875,0.552195703125,0.25305776367187466,0.7921750454207928
141,1790233873.3428688,0.680951953125,0.4803451171875,0.032715966796874656,0.8339648245304352
142,1790233873.368065,0.34564921875,0.149832421875,-0.0008143066406253486,0.3767277533746595
143,1790233873.388065,0.30732890625,-0.31959140625,-0.04871469726562535,0.4460525140556382
144,1790233873.411842,0.5324607421875001,0.034871484375000004,-0.06787485351562535,0.5379009742816486
145,1790233873.431842,0.4941404296875,0.2695833984375,-0.16846567382812536,0.5875633210329108
146,1790233873.4430816,0.4654001953125,0.09714199218750001,-0.08703500976562535,0.4833311508355032
147,1790233873.4630816,0.34564921875,0.015711328125000007,0.027925927734374655,0.34713122258558404
148,1790233873.4879181,0.2258982421875,0.0013412109375000056,-0.09182504882812535,0.24385170547377533
149,1790233873.5079181,0.451030078125,0.18815273437500002,-0.18283579101562536,0.5217839680390174
150,1790233873.5327988,0.508510546875,0.11151210937500002,-0.08224497070312535,0.5270504359416956
151,1790233873.5527987,0.2258982421875,0.16899257812500001,0.032715966796874656,0.2840050030689439
152,1790233873.5624347,0.1300974609375,0.19294277343750002,0.04229604492187465,0.23651896029741895
153,1790233873.5824347,0.27858867187499997,0.149832421875,-0.01997446289062535,0.3169548578422065
154,1790233873.6079028,0.4366599609375,0.039661523437500006,-0.07745493164062535,0.44524625137419893
155,1790233873.6279027,0.30732890625,0.1258822265625,-0.07745493164062535,0.3410229581957904
156,1790233873.652698,0.06782695312499999,0.31269375000000005,-0.005604345703125349,0.3200145083430494
157,1790233873.672698,0.20673808593749998,0.2791634765625,-0.06308481445312535,0.35306171788817303
158,1790233873.6827662,0.38396953125,0.22647304687500003,-0.10140512695312535,0.4571713482509268
159,1790233873.7027662,0.23068828125,0.19773281250000002,-0.05829477539062535,0.3093761934653065
160,1790233873.727967,0.2354783203125,0.20731289062500002,0.10456655273437465,0.3307005260159716
161,1790233873.747967,0.3025388671875,0.130672265625,0.16683706054687467,0.36937733002255
162,1790233873.7728179,0.2450583984375,0.034871484375000004,0.10935659179687465,0.27060765553970684
163,1790233873.7928178,0.4270798828125,0.08277187500000001,0.013555810546874653,0.43523806082848165
164,1790233873.8023684,0.680951953125,0.3079037109375,-0.07266489257812535,0.7508531442880333
165,1790233873.8223684,0.623471484375,0.46118496093750005,-0.03913461914062535,0.7764919693332127
166,1790233873.8476286,0.61389140625,0.2791634765625,-0.02955454101562535,0.6750321297602866
167,1790233873.8676286,0.3408591796875,0.006131250000000006,-0.07745493164062535,0.34960240136368037
168,1790233873.8926184,0.42228984375,-0.017818945312499994,-0.09661508789062535,0.4335674136216449
169,1790233873.9126184,0.5037205078125,0.1450423828125,-0.13972543945312535,0.5424894849056335
170,1790233873.922169,0.489350390625,0.24084316406250003,-0.21636606445312537,0.5867567710111323
171,1790233873.942169,0.4749802734375,0.22647304687500003,-0.13972543945312535,0.5444442116011311
172,1790233873.9675786,0.06782695312499999,-0.6357339843750001,-0.6378895019531253,0.9031396410088198
173,1790233873.9875786,0.7719626953125001,0.08277187500000001,0.37280874023437466,0.8612571875115452
174,1790233874.012454,0.9252439453125,0.9641390625,0.13809682617187466,1.343395408498393
175,1790233874.032454,-0.14293476562500002,0.8827083984375,0.13809682617187466,0.9048067181973811
176,1790233874.0580404,0.010346484374999984,0.1258822265625,-0.17325571289062536,0.2144083178248771
177,1790233874.0780404,0.5564109375,-0.2190005859375,-0.08703500976562535,0.6042594483626216
178,1790233874.0879815,0.95877421875,0.4276546875,0.10935659179687465,1.0555071759347843
179,1790233874.1079814,0.6330515625,0.533035546875,-0.08224497070312535,0.8316522171087982
180,1790233874.1330714,0.5228806640625,0.17378261718750002,-0.2786365722656254,0.6174487236126699
181,1790233874.1530714,0.44145,-0.444132421875,-0.35527719726562534,0.719967775360447
182,1790233874.1777582,0.7240623046875,-0.520773046875,-0.23552622070312537,0.9224659278583369
183,1790233874.1977582,0.6857419921875,-0.1615201171875,-0.18762583007812536,0.7290639753945127
184,1790233874.207845,0.5228806640625,-0.008238867187499995,-0.11098520507812536,0.5345931008993735
185,1790233874.227845,0.7240623046875,-0.070509375,0.032715966796874656,0.7282225810256908
186,1790233874.2524676,0.9491941406250001,0.07798183593750001,0.15246694335937466,0.9645189744895465
187,1790233874.2724676,0.7049021484375,0.37496425781250003,0.24347768554687466,0.8347254739541289
188,1790233874.2976174,0.6378416015625,0.3174837890625,0.16683706054687467,0.7317598443295578
189,1790233874.3176174,1.0162546875,0.10193203125000001,0.023135888671874653,1.0216158760537695
190,1790233874.3279538,0.8869236328125,-0.175890234375,-0.20199594726562536,0.9264843591240771
191,1790233874.3479538,0.585151171875,-0.42976230468750004,-0.19720590820312536,0.7523215420996643
192,1790233874.3728626,0.7144822265625,-0.60699375,-0.22594614257812537,0.9643536301371529
193,1790233874.3928626,0.6713718750000001,-0.5447232421875,-0.15409555664062535,0.8781850862413125
194,1790233874.4178903,0.585151171875,-0.31959140625,-0.13014536132812535,0.6793219972669563
195,1790233874.4378903,0.6282615234375,-0.252530859375,-0.23073618164062537,0.7153485599949021
196,1790233874.4474292,0.61389140625,-0.5543033203125001,-0.13972543945312535,0.8388313465813219
197,1790233874.4674292,0.6186814453125,-0.923136328125,0.027925927734374655,1.1116327039620133
198,1790233874.492533,0.125307421875,-0.7315347656250001,0.05187612304687465,0.7440001313422985
199,1790233874.512533,0.15404765625,-0.6022037109375,-0.14451547851562535,0.6381729494373876
200,1790233874.5382216,0.3264890625,-0.836915625,-0.12056528320312536,0.9063988409166901
201,1790233874.5582216,0.3600193359375,-1.2775992187500003,-0.21157602539062537,1.3441123838874427
202,1790233874.5677795,0.3791794921875,-1.6368521484375003,-0.14930551757812535,1.6868177674898088
203,1790233874.5877795,0.26900859375,-1.4548306640625002,-0.20199594726562536,1.4932180843130802
204,1790233874.612344,0.3695994140625,-1.4069302734375002,-0.19241586914062536,1.4673378574436784
205,1790233874.632344,0.024716601562499985,-1.3446597656250001,-0.26426645507812535,1.3706048135633548
206,1790233874.6576495,-0.03755390625000002,-1.4644107421875001,-0.19241586914062536,1.4774752060207035
207,1790233874.6776495,-0.17167500000000002,-1.6129019531250002,-0.14930551757812535,1.628869900759024
208,1790233874.702737,-0.33932636718750003,-1.9098843750000003,-0.07266489257812535,1.9411545265514538
209,1790233874.722737,-0.18125507812500002,-2.111066015625,-0.02955454101562535,2.1190390738652174
210,1790233874.7327762,0.182787890625,-0.9949869140625001,-0.35527719726562534,1.072209055647112
211,1790233874.7527761,0.2642185546875,-1.1578482421875,-0.09182504882812535,1.191157351557771
212,1790233874.7773528,-0.07108417968750003,-2.8008316406250002,0.032715966796874656,2.801924548272389
213,1790233874.7973528,-0.6602589843750001,-1.306339453125,-0.24031625976562537,1.4833127107749635
214,1790233874.8232994,-0.3632765625,-1.191378515625,-0.4989783691406254,1.341764525252059
215,1790233874.8432994,0.489350390625,-1.8476138671875002,-0.16367563476562536,1.9183144998785575
216,1790233874.852863,-0.056714062500000016,-1.4883609375000002,-0.02476450195312535,1.4896469533812768
217,1790233874.872863,-0.47344746093750006,-1.3590298828125003,-0.03434458007812535,1.4395465504200504
218,1790233874.8978345,-0.37764667968750004,-1.3686099609375002,-0.005604345703125349,1.4197681671833255
219,1790233874.9178345,-0.26747578125000004,-1.229698828125,-0.10140512695312535,1.2625313862315168
220,1790233874.9425602,-0.04713398437500002,-1.4500406250000002,-0.01039438476562535,1.4508437096627982
221,1790233874.9625602,-0.056714062500000016,-1.3254996093750002,-0.03913461914062535,1.3272894250139318
222,1790233874.9726026,-0.018393750000000018,-0.9183462890625,-0.34569711914062534,0.9814299439369348
223,1790233874.9926026,0.2498484375,-1.2057486328125,-0.24510629882812537,1.255520252714239
224,1790233875.0178752,0.010346484374999984,-0.9566666015625,-0.005604345703125349,0.956738963863616
225,1790233875.0378752,-0.30579609375000005,-0.39144199218750003,-0.02955454101562535,0.4976058230116705
226,1790233875.0630295,-0.09503437500000002,-0.1711001953125,-0.0008143066406253486,0.19572294797218143
227,1790233875.0830295,0.22110820312499999,0.1450423828125,0.07582631835937466,0.275092276985435
228,1790233875.092627,0.1588376953125,0.1258822265625,0.08540639648437466,0.2199318098342424
229,1790233875.112627,-0.09024433593750002,0.28395351562500004,0.09498647460937466,0.31272363128378206
230,1790233875.1371944,-0.04234394531250002,0.8395980468750001,0.018345849609374652,0.840865304444673
231,1790233875.1571944,0.07740703125,1.0359896484375,0.05187612304687465,1.0401718763257193
232,1790233875.1830478,-0.35848652343750004,1.0647298828125,0.018345849609374652,1.1236097547805977
233,1790233875.2030478,-0.44949726562500003,1.2084310546875001,0.023135888671874653,1.2895304087465844
234,1790233875.2122939,-0.392016796875,1.2275912109375,0.05187612304687465,1.2897086811933567
235,1790233875.2322938,-0.32495625000000006,1.0886800781250001,0.04229604492187465,1.136930003270365
236,1790233875.2575366,-0.44470722656250006,0.9497689453125,-0.07745493164062535,1.0515820620723726
237,1790233875.2775366,-0.5309279296875,0.92581875,-0.005604345703125349,1.067265774333918
238,1790233875.3031223,-0.57403828125,0.8731283203125001,0.07103627929687466,1.0473390879025404
239,1790233875.3231223,-0.6410988281250001,0.6240462890625,0.12372670898437466,0.9031886717801713
240,1790233875.3331747,-0.42075703125,0.7725375000000001,-0.04871469726562535,0.8810356349105553
241,1790233875.3531747,-0.353696484375,0.46118496093750005,0.05187612304687465,0.5835099856870768
242,1790233875.3778646,-0.20999531250000003,0.26479335937500004,0.11414663085937465,0.3567113788171285
243,1790233875.3978646,-0.22915546875000004,0.16899257812500001,-0.03913461914062535,0.287406052014651
244,1790233875.4225676,-0.013603710937500017,0.18336269531250002,-0.05350473632812535,0.19149333093629656
245,1790233875.4425676,0.08698710937499998,0.05882167968750001,0.027925927734374655,0.10865820097214281
246,1790233875.46814,-0.22915546875000004,0.08277187500000001,-0.02476450195312535,0.24490139384257129
247,1790233875.4881399,-0.372856640625,0.11151210937500002,0.03750600585937466,0.39097790918534747
248,1790233875.4979272,-0.09024433593750002,-0.10403964843749999,0.18599721679687467,0.2314373636040269
249,1790233875.5179272,0.039086718749999985,0.30311367187500005,0.04708608398437465,0.3092293145307708
250,1790233875.542963,0.1779978515625,0.2983236328125,0.11893666992187465,0.3671868141796735
251,1790233875.562963,0.07261699218749999,-0.1088296875,0.09977651367187465,0.16453717244507662
252,1790233875.5874765,-0.2914259765625,-0.233370703125,-0.015184423828125349,0.37365967352586477
253,1790233875.6074765,-0.372856640625,-0.21421054687500002,-0.08224497070312535,0.43780414348953456
254,1790233875.6180506,-0.32495625000000006,-0.39144199218750003,0.023135888671874653,0.5092726843317034
255,1790233875.6380506,-0.411176953125,-0.175890234375,-0.05829477539062535,0.4510012662593026
256,1790233875.6631804,-0.23394550781250004,0.2695833984375,-0.01997446289062535,0.35749781608637743
257,1790233875.6831803,-0.19083515625000003,0.0013412109375000056,0.032715966796874656,0.19362383683626094
258,1790233875.70827,-0.3105861328125,-0.1615201171875,0.12372670898437466,0.3712960983740494
259,1790233875.72827,-0.18604511718750003,-0.1615201171875,0.027925927734374655,0.2479544138050377
260,1790233875.738326,-0.22915546875000004,-0.1519400390625,0.032715966796874656,0.27689048162008106
261,1790233875.758326,-0.15730488281250002,-0.008238867187499995,-0.02476450195312535,0.1594552778874816
262,1790233875.7833138,-0.20041523437500003,-0.1088296875,-0.01997446289062535,0.2289304396944688
263,1790233875.8033137,-0.22436542968750003,-0.19984042968750002,0.061456201171874655,0.30668046569519075
264,1790233875.8276632,-0.10940449218750002,0.04924160156250001,0.07582631835937466,0.1419285340979114
265,1790233875.8476632,0.010346484374999984,-0.1327798828125,0.07582631835937466,0.153255269320701
266,1790233875.8577356,-0.13814472656250001,-0.12798984375,0.04229604492187465,0.1930137844720178
267,1790233875.8777356,0.019926562499999984,-0.12798984375,-0.01997446289062535,0.13106276040120926
268,1790233875.9033072,-0.008813671875000017,-0.1615201171875,-0.005604345703125349,0.16185746123964764
269,1790233875.9233072,-0.11419453125000002,-0.060929296875,-0.03434458007812535,0.13391161400652252
270,1790233875.947994,-0.07587421875000001,-0.1711001953125,0.023135888671874653,0.18859332769622544
271,1790233875.967994,-0.12377460937500002,-0.1136197265625,0.04229604492187465,0.17325862635408476
272,1790233875.9775412,0.034296679687499984,-0.0369791015625,0.018345849609374652,0.053668299654884316
273,1790233875.9975412,0.07261699218749999,-0.0752994140625,0.018345849609374652,0.10620640051524696
274,1790233876.0231268,-0.08545429687500002,-0.14715,0.013555810546874653,0.1707024292562452
275,1790233876.0431268,-0.15251484375000002,-0.19505039062500001,0.018345849609374652,0.24827807524012627
276,1790233876.0682101,-0.09982441406250002,-0.0369791015625,0.003975732421874652,0.10652780878053152
277,1790233876.08821,0.0007664062499999837,0.020501367187500008,0.018345849609374652,0.027522057208474317
278,1790233876.1126893,-0.05192402343750002,-0.0321890625,0.03750600585937466,0.07168640338369894
279,1790233876.1326892,-0.15730488281250002,-0.008238867187499995,-0.0008143066406253486,0.15752259579023128
280,1790233876.157678,-0.10461445312500002,0.034871484375000004,-0.005604345703125349,0.1104156370987318
281,1790233876.1776779,0.0007664062499999837,-0.1854703125,0.018345849609374652,0.18637702217622612
282,1790233876.187384,-0.04234394531250002,-0.2381607421875,0.023135888671874653,0.24299962586095933
283,1790233876.2073839,-0.12377460937500002,-0.252530859375,0.03750600585937466,0.28372290943477463
284,1790233876.232197,-0.11419453125000002,-0.1136197265625,-0.005604345703125349,0.16118697814124017
285,1790233876.252197,0.06303691406249999,-0.08966953125,-0.01997446289062535,0.11141479496407426
286,1790233876.263366,-0.04713398437500002,-0.20942050781250002,-0.02955454101562535,0.21668417678767504
287,1790233876.283366,-0.07587421875000001,-0.21421054687500002,-0.01039438476562535,0.22748867817556395
288,1790233876.3080502,-0.04234394531250002,-0.1615201171875,0.04708608398437465,0.1734902223927196
289,1790233876.3280501,-0.04234394531250002,-0.070509375,0.008765771484374652,0.0827128793915125
290,1790233876.3524868,-0.08066425781250001,-0.16631015625,-0.0008143066406253486,0.1848416989092176
291,1790233876.3724868,-0.14293476562500002,-0.1854703125,-0.005604345703125349,0.2342242360087476
292,1790233876.3827136,-0.15730488281250002,-0.1136197265625,-0.0008143066406253486,0.19404878643293957
293,1790233876.4027135,-0.027973828125000016,-0.12798984375,0.013555810546874653,0.13171064938986224
294,1790233876.4287221,-0.008813671875000017,-0.1711001953125,0.032715966796874656,0.17442273971976827
295,1790233876.4487221,-0.09503437500000002,-0.118409765625,0.023135888671874653,0.15358279321475254
296,1790233876.4725418,-0.13814472656250001,-0.12798984375,0.061456201171874655,0.19809651749249715
297,1790233876.4925418,-0.06629414062500003,-0.056139257812499996,0.05187612304687465,0.101181329756631
298,1790233876.5026083,-0.03755390625000002,-0.12798984375,0.032715966796874656,0.1373391075449284
299,1790233876.5226083,-0.1285646484375,-0.1519400390625,-0.005604345703125349,0.19911316628724518
300,1790233876.5481236,-0.10461445312500002,-0.070509375,-0.005604345703125349,0.12628208287913845
301,1790233876.5681236,-0.03276386718750002,-0.080089453125,0.023135888671874653,0.08957154034390104
302,1790233876.593172,-0.1333546875,-0.099249609375,0.04229604492187465,0.17153108480781548
303,1790233876.613172,-0.23394550781250004,-0.1854703125,0.018345849609374652,0.2991091901670458
304,1790233876.6229086,-0.17646503906250002,-0.0369791015625,0.018345849609374652,0.18122895508607098
305,1790233876.6429086,-0.04234394531250002,0.17857265625000002,-0.0008143066406253486,0.18352620074559825
306,1790233876.668025,-0.15730488281250002,0.030081445312500007,0.04229604492187465,0.16564623426077796
307,1790233876.688025,-0.25789570312500004,0.04445156250000001,0.003975732421874652,0.26172875567525994
308,1790233876.7129786,-0.20520527343750003,0.09714199218750001,-0.0008143066406253486,0.22703839760714578
309,1790233876.7329786,-0.16688496093750002,0.08756191406250001,0.08540639648437466,0.20691044328850525
310,1790233876.742526,-0.15730488281250002,-0.118409765625,0.11414663085937465,0.2275854830356456
311,1790233876.762526,-0.07108417968750003,-0.027399023437499996,0.027925927734374655,0.08113892115994013
312,1790233876.788143,-0.08545429687500002,-0.482452734375,0.2865880371093747,0.5676229212906393
313,1790233876.808143,0.06303691406249999,-0.77943515625,-0.09182504882812535,0.7873529417772391
314,1790233876.8482492,0.1300974609375,-0.2573208984375,0.20036733398437467,0.3511217205515382
315,1790233876.8682492,0.489350390625,-0.923136328125,-0.05350473632812535,1.0461870014096382
316,1790233876.8782616,0.11572734374999999,-1.6368521484375003,-0.12056528320312536,1.6453612859945808
317,1790233876.8982615,-0.34890644531250004,-1.6033218750000002,-0.4989783691406254,1.715038237271799
318,1790233876.9078004,-0.7704298828125,-2.2595572265625004,-0.4798182128906254,2.4350331788012367
319,1790233876.9278004,-0.3632765625,-2.5325894531250004,-0.12535532226562535,2.561580206779035
320,1790233876.9524624,0.4941404296875,-1.8907242187500002,-0.2786365722656254,1.9739937120020121
321,1790233876.9724624,0.6570017578125,-1.268019140625,-0.12535532226562535,1.4336100612022775
322,1790233876.9974365,0.19236796875,-1.9242544921875002,-0.16367563476562536,1.9407602890415667
323,1790233877.0174365,-0.16688496093750002,-2.3218277343750002,-0.2882166503906254,2.3455923464793385
324,1790233877.0279202,0.1588376953125,-2.1733365234375004,-0.35048715820312537,2.2071389411690623
325,1790233877.0479202,0.34564921875,-2.2499771484375004,-0.33611704101562534,2.301053066788015
326,1790233877.0723257,0.2929587890625,-2.3074576171875,-0.3792273925781254,2.356692369081545
327,1790233877.0923257,0.42228984375,-2.168546484375,-0.46065805664062537,2.2567960501953848
328,1790233877.1172512,0.3695994140625,-2.00568515625,-0.38401743164062535,2.0752942106315415
329,1790233877.1372511,0.19715800781249998,-1.7470230468750003,-0.25468637695312535,1.7764644541792873
330,1790233877.1628828,0.30732890625,-1.3877701171875,-0.15409555664062535,1.4297210900563135
331,1790233877.1828828,0.3216990234375,-1.2201187500000001,0.003975732421874652,1.2618224249990544
332,1790233877.1929262,0.1396775390625,-1.1674283203125,0.023135888671874653,1.1759821288314116
333,1790233877.2129261,0.015136523437499985,-1.133898046875,-0.005604345703125349,1.1340129204464444
334,1790233877.2375002,0.19715800781249998,-1.0524673828125,0.08540639648437466,1.074175555712023
335,1790233877.2575002,-0.6219386718750001,-0.7746451171875001,-0.25468637695312535,1.0255476194509858
336,1790233877.267045,-1.0099318359375,-0.3722818359375,0.056666162109374654,1.0778530199137966
337,1790233877.287045,-0.027973828125000016,-0.1711001953125,0.29616811523437464,0.34318124129594335
338,1790233877.312229,0.3887595703125,-0.41060214843750004,-0.08224497070312535,0.5713951023740127
339,1790233877.332229,0.4654001953125,-0.9470865234375,-0.11098520507812536,1.0610786683465447
340,1790233877.357541,-0.09982441406250002,-0.4585025390625,0.008765771484374652,0.4693253996103312
341,1790233877.377541,-0.401596875,0.2504232421875,0.12372670898437466,0.48918314438824345
342,1790233877.3875926,-0.23873554687500004,0.05403164062500001,0.027925927734374655,0.2463613950483314
343,1790233877.4075925,-0.34890644531250004,-0.017818945312499994,0.12372670898437466,0.3706231521488621
344,1790233877.432163,-0.2626857421875,0.04445156250000001,0.07103627929687466,0.27572793390157757
345,1790233877.452163,0.024716601562499985,0.030081445312500007,-0.02476450195312535,0.04614200149402553
346,1790233877.478042,-0.28663593750000005,0.006131250000000006,-0.03434458007812535,0.2887512823760428
347,1790233877.4980419,-0.6027785156250001,0.09235195312500001,0.12851674804687466,0.6232073304074852
348,1790233877.5227015,-0.506977734375,0.130672265625,0.07582631835937466,0.5290097302616615
349,1790233877.5427015,-0.5117677734375,0.11630214843750002,-0.04871469726562535,0.5270726376791307
350,1790233877.5520134,-0.28663593750000005,-0.31959140625,0.023135888671874653,0.4299233617285688
351,1790233877.5720134,-0.30579609375000005,-0.099249609375,0.06624624023437466,0.32825340860231655
352,1790233877.5972834,-0.6746291015625,-0.2190005859375,-0.19241586914062536,0.7349214570368297
353,1790233877.6172833,-0.056714062500000016,-0.1615201171875,0.18120717773437467,0.24928151637049806
354,1790233877.642637,-0.1333546875,-0.1088296875,0.05187612304687465,0.17977348442399618
355,1790233877.662637,-0.22915546875000004,-0.10403964843749999,0.11414663085937465,0.2763438630430884
356,1790233877.672809,-0.2531056640625,-0.1423599609375,0.19078725585937467,0.34746023176328555
357,1790233877.6928089,0.07740703125,0.006131250000000006,0.03750600585937466,0.08623306320098122
358,1790233877.718373,-0.43512714843750006,0.11630214843750002,-0.13972543945312535,0.47157716597487787
359,1790233877.738373,-0.14772480468750002,-0.35791171875,-0.19720590820312536,0.4345268536796761
360,1790233877.7621012,-0.11419453125000002,0.1258822265625,-0.17804575195312536,0.24614429857360834
361,1790233877.7821012,-0.32016621093750003,0.418074609375,-0.02955454101562535,0.527414687437484
362,1790233877.7923534,-0.41596699218750005,0.3270638671875,0.22431752929687465,0.5747326906997832
363,1790233877.8123534,-0.27705585937500005,0.42286464843750005,0.15246694335937466,0.5280346853470339
364,1790233877.8529828,-0.33453632812500006,0.7390072265625001,0.25305776367187466,0.8497555339634842
365,1790233877.8729827,-0.05192402343750002,0.571355859375,0.16204702148437466,0.5961567406513494
366,1790233877.882852,-0.5309279296875,0.52345546875,-0.005604345703125349,0.7456014370810301
367,1790233877.902852,-0.372856640625,0.33185390625,-0.06308481445312535,0.5031190548628917
368,1790233877.9125962,-0.05192402343750002,0.8252279296875,-0.11098520507812536,0.834275108038403
369,1790233877.9325962,-0.43512714843750006,0.94497890625,-0.03913461914062535,1.0410822671528308
370,1790233877.9571743,-1.1296828125,0.6432064453125,0.12851674804687466,1.306297953254921
371,1790233877.9771743,-0.871020703125,0.7581673828125001,0.08061635742187466,1.1575810307348238
372,1790233878.0020714,-0.17167500000000002,0.9928792968750001,-0.01039438476562535,1.007665443995501
373,1790233878.0220714,-0.6171486328125001,0.94497890625,-0.02955454101562535,1.129039874908955
374,1790233878.0327446,-0.8662306640625,0.5042953125,0.11893666992187465,1.0093637882467041
375,1790233878.0527446,-0.8949708984375001,0.7773275390625001,0.15725698242187466,1.1958013089788047
376,1790233878.077667,-0.34411640625,0.23605312500000003,0.20036733398437467,0.46290846546664777
377,1790233878.097667,0.7911228515625001,0.37496425781250003,-0.3073768066406254,0.9278761028078312
378,1790233878.1222699,0.06782695312499999,0.40370449218750004,-0.2786365722656254,0.495193045171805
379,1790233878.1422698,-0.6650490234375,0.7725375000000001,-0.02955454101562535,1.0197930492879754
380,1790233878.152124,-0.16209492187500002,0.52345546875,0.23389760742187465,0.5958090988056678
381,1790233878.172124,-0.11419453125000002,0.7006869140625,-0.33132700195312537,0.783441206938391
382,1790233878.1977084,-0.7225294921875001,0.5761458984375001,0.2865880371093747,0.9675358734337891
383,1790233878.2177083,-0.49739765625000004,-0.405812109375,0.9571935058593747,1.152522149122411
384,1790233878.2430668,-0.430337109375,1.1653207031250001,-0.4989783691406254,1.33870899814232
385,1790233878.2630668,0.22110820312499999,2.257449609375,-0.4558680175781254,2.3136082697395244
386,1790233878.2874093,-0.32495625000000006,0.9880892578125,0.16204702148437466,1.052699474204522
387,1790233878.3074093,-0.401596875,1.0886800781250001,0.28179799804687466,1.1941166083005665
388,1790233878.3171356,0.2258982421875,0.7964876953125001,0.04229604492187465,0.828982279680123
389,1790233878.3371356,0.1779978515625,0.43244472656250005,-0.25468637695312535,0.532500542063659
390,1790233878.3623242,0.19236796875,0.7869076171875,0.07103627929687466,0.8131882846949122
391,1790233878.3823242,0.04866679687499999,0.3270638671875,-0.05350473632812535,0.33496565069758627
392,1790233878.4072921,0.27858867187499997,0.11151210937500002,-0.08703500976562535,0.3124447016021249
393,1790233878.427292,-0.04234394531250002,0.667156640625,0.06624624023437466,0.6717734418536162
394,1790233878.4373946,0.4797703125,0.83001796875,-0.36485727539062535,1.0257827316784458
395,1790233878.4573946,0.374389453125,0.3079037109375,0.44465932617187465,0.6577948572100163
396,1790233878.4825628,0.518090625,0.6240462890625,0.12851674804687466,0.8211992578747936
397,1790233878.5025628,0.4941404296875,0.8587582031250001,-0.48460825195312535,1.1029440482396602
398,1790233878.5273075,-0.14293476562500002,-0.008238867187499995,0.11414663085937465,0.18310565117809252
399,1790233878.5473075,-0.24352558593750004,0.09235195312500001,0.21952749023437465,0.3406257671122494
400,1790233878.5729752,0.585151171875,0.5665658203125,-0.21157602539062537,0.8415242938936205
401,1790233878.5929751,0.6905320312500001,1.012039453125,-0.21157602539062537,1.2433112061683893
402,1790233878.602917,-0.027973828125000016,0.9737191406250001,0.04708608398437465,0.9752582217979192
403,1790233878.622917,-0.65067890625,0.08277187500000001,0.06624624023437466,0.6592592712089095
404,1790233878.6479523,-0.18125507812500002,1.1270003906250001,0.056666162109374654,1.142888593758468
405,1790233878.6679523,0.3408591796875,1.0743099609375,-0.0008143066406253486,1.127088078032091
406,1790233878.6781685,0.1875779296875,1.2611214843749998,-0.005604345703125349,1.2750075634084732
407,1790233878.6981685,-0.21957539062500003,0.1258822265625,-0.06308481445312535,0.2608435947978006
408,1790233878.7227578,-0.8470705078125,0.5186654296875001,-0.12056528320312536,1.0005389850837876
409,1790233878.7427578,0.125307421875,0.9737191406250001,-0.01039438476562535,0.9818039305437231
410,1790233878.7678435,0.336069140625,0.9497689453125,0.027925927734374655,1.0078607910819184
411,1790233878.7878435,0.12051738281249999,0.5378255859375001,0.11414663085937465,0.5628589999151975
412,1790233878.797919,-0.027973828125000016,0.2600033203125,0.03750600585937466,0.2641797912578004
413,1790233878.817919,-0.33932636718750003,0.22168300781250003,-0.09661508789062535,0.4166775907456223
414,1790233878.8425827,0.259428515625,0.42286464843750005,-0.11577524414062536,0.5094325988522749
415,1790233878.8625827,0.316908984375,0.56177578125,-0.08224497070312535,0.6502211685131452
416,1790233878.8871667,0.2258982421875,0.6048861328125,0.023135888671874653,0.646105656094188
417,1790233878.9071667,-0.10461445312500002,0.542615625,-0.05350473632812535,0.555192450512726
418,1790233878.9327517,-0.11898457031250002,0.571355859375,-0.02955454101562535,0.5843614608350206
419,1790233878.9527516,-0.03755390625000002,0.686316796875,0.008765771484374652,0.6873993601227093
420,1790233878.962311,0.10614726562499999,0.743797265625,0.018345849609374652,0.7515571731736588
421,1790233878.982311,0.05824687499999999,0.7533773437500001,0.013555810546874653,0.7557472332219644
422,1790233879.0079515,-0.08545429687500002,0.6911068359375,-0.02955454101562535,0.6969968195254462
423,1790233879.0279515,-0.12377460937500002,0.7485873046875,-0.04392465820312535,0.7600213696097572
424,1790233879.053151,-0.08545429687500002,0.8060677734375,-0.03434458007812535,0.81131204995959
425,1790233879.0731509,-0.11419453125000002,0.8539681640625001,-0.03434458007812535,0.8622537714503934
426,1790233879.0824702,-0.21478535156250003,0.8348080078125001,0.04229604492187465,0.863033088919385
427,1790233879.1024702,-0.24831562500000004,0.743797265625,0.08061635742187466,0.7882854933679415
428,1790233879.1277993,-0.056714062500000016,0.7342171875000001,0.003975732421874652,0.7364150797980407
429,1790233879.1477993,-0.05192402343750002,0.7773275390625001,-0.04871469726562535,0.7805814044188999
430,1790233879.172231,-0.21478535156250003,0.7725375000000001,-0.01039438476562535,0.8019070889989268
431,1790233879.192231,-0.17167500000000002,0.7485873046875,0.04229604492187465,0.7691841221582315
432,1790233879.2030478,-0.04713398437500002,0.743797265625,-0.01039438476562535,0.7453616760130248
433,1790233879.2230477,-0.14772480468750002,0.667156640625,-0.05829477539062535,0.68579798912496
434,1790233879.247278,-0.11898457031250002,0.6911068359375,-0.06308481445312535,0.7041062991243425
435,1790233879.267278,-0.08545429687500002,0.686316796875,-0.005604345703125349,0.6916390613737202
436,1790233879.2923424,-0.09982441406250002,0.7533773437500001,0.023135888671874653,0.7603141489301409
437,1790233879.3123424,-0.06150410156250002,0.7485873046875,0.027925927734374655,0.751628608215608
438,1790233879.3222713,-0.19562519531250003,0.7342171875000001,0.04229604492187465,0.7610079177495443
439,1790233879.3422713,-0.17167500000000002,0.7198470703125001,0.027925927734374655,0.7405619269867408
440,1790233879.3674574,-0.10461445312500002,0.7773275390625001,-0.0008143066406253486,0.7843359929793547
441,1790233879.3874574,0.11093730468749999,0.724637109375,-0.04871469726562535,0.7346966364319116
442,1790233879.4132357,-0.06629414062500003,0.743797265625,0.013555810546874653,0.7468688274603626
443,1790233879.4332356,-0.19562519531250003,0.6144662109375001,0.061456201171874655,0.6477768181151746
444,1790233879.4426124,-0.09982441406250002,0.6527865234375,0.003975732421874652,0.6603869814531701
445,1790233879.4626124,-0.008813671875000017,0.628836328125,-0.03913461914062535,0.6301145346656707
446,1790233879.4881933,-0.14772480468750002,0.571355859375,-0.07745493164062535,0.5952053447320167
447,1790233879.5081933,-0.18125507812500002,0.5569857421875001,-0.05350473632812535,0.5881745295027679
448,1790233879.532787,0.12051738281249999,0.628836328125,-0.01997446289062535,0.6405923401801463
449,1790233879.552787,0.015136523437499985,0.49471523437500003,0.027925927734374655,0.49573393559883583
450,1790233879.5623422,-0.20999531250000003,0.456394921875,0.013555810546874653,0.5025715033553363
451,1790233879.5823421,-0.06150410156250002,0.571355859375,0.061456201171874655,0.5779335058755748
452,1790233879.6072223,0.08219707031249998,0.6815267578125,0.08540639648437466,0.6917581459894943
453,1790233879.6272223,0.10614726562499999,0.5090853515625,0.027925927734374655,0.5207830590706691
454,1790233879.652624,0.015136523437499985,0.46118496093750005,-0.09182504882812535,0.47048116022746866
455,1790233879.6726239,0.06303691406249999,0.360594140625,-0.10140512695312535,0.3798483731174648
456,1790233879.697213,0.1684177734375,0.360594140625,-0.04392465820312535,0.40040236795127565
457,1790233879.717213,0.043876757812499986,0.40849453125,0.018345849609374652,0.4112535983249068
458,1790233879.7274165,-0.07108417968750003,0.5090853515625,0.023135888671874653,0.5145445803057267
459,1790233879.7474165,0.10135722656249999,0.513875390625,-0.005604345703125349,0.5238058926331379
460,1790233879.772911,0.07261699218749999,0.47555507812500003,-0.005604345703125349,0.4811000608767312
461,1790233879.792911,0.05345683593749999,0.4276546875,-0.0008143066406253486,0.43098355901875934
462,1790233879.8182492,-0.018393750000000018,0.48513515625000003,-0.03913461914062535,0.4870584854861439
463,1790233879.8382492,0.08698710937499998,0.43244472656250005,-0.06308481445312535,0.44559498711690965
464,1790233879.8475468,0.09177714843749998,0.41328457031250004,-0.0008143066406253486,0.4233530962789946
465,1790233879.8675468,-0.004023632812500016,0.552195703125,0.03750600585937466,0.5534825965161384
466,1790233879.8930838,0.019926562499999984,0.609676171875,0.032715966796874656,0.6108784141944084
467,1790233879.9130838,0.034296679687499984,0.49471523437500003,-0.02476450195312535,0.49652059969077267
468,1790233879.9372263,0.015136523437499985,0.42286464843750005,-0.03913461914062535,0.4249413414287039
469,1790233879.9572263,-0.056714062500000016,0.44202480468750005,-0.005604345703125349,0.44568354416002015
470,1790233879.96821,0.12051738281249999,0.5282455078125,-0.01997446289062535,0.5421869928832945
471,1790233879.98821,0.09656718749999998,0.46118496093750005,-0.015184423828125349,0.47143117909571464
472,1790233880.027911,-0.008813671875000017,0.47076503906250006,0.013555810546874653,0.4710426337551837
473,1790233880.047911,0.0007664062499999837,0.5474056640625,0.05187612304687465,0.5498587823874609
474,1790233880.057458,0.12051738281249999,0.533035546875,0.08061635742187466,0.5524041372729538
475,1790233880.077458,0.09656718749999998,0.552195703125,0.12372670898437466,0.5740676047012908
476,1790233880.0883155,0.07740703125,0.52345546875,0.15246694335937466,0.5506756259982564
477,1790233880.1083155,0.125307421875,0.40849453125,0.013555810546874653,0.42749677430092875
478,1790233880.1331487,0.30732890625,0.44202480468750005,0.008765771484374652,0.5384364617348644
479,1790233880.1531487,0.08698710937499998,0.7006869140625,0.6458409667968746,0.9568905178383623
480,1790233880.1781113,0.1396775390625,0.7485873046875,1.0625743652343747,1.307270840075264
481,1790233880.1981113,0.3025388671875,0.039661523437500006,0.9955138183593747,1.0412255111861892
482,1790233880.207913,-0.22915546875000004,0.22168300781250003,0.4973497558593747,0.5907726842569897
483,1790233880.227913,0.11572734374999999,0.8060677734375,0.10935659179687465,0.8216428285060047
484,1790233880.2531796,0.2450583984375,0.7485873046875,0.19557729492187467,0.8115953731219803
485,1790233880.2731795,0.2498484375,0.44681484375,0.35364858398437465,0.6222017898324318
486,1790233880.2978108,0.10614726562499999,0.12109218750000002,0.5356700683593747,0.5593505001422066
487,1790233880.3178108,0.09656718749999998,0.590516015625,0.3488585449218747,0.6926302554583457
488,1790233880.3427894,0.451030078125,0.7869076171875,0.13330678710937466,0.9167455638565025
489,1790233880.3627894,0.22110820312499999,0.10672207031250001,0.13809682617187466,0.2816898492663472
490,1790233880.3730085,0.1779978515625,-0.1136197265625,0.38238881835937466,0.4368224877811145
491,1790233880.3930085,0.6474216796875,0.3366439453125,0.3488585449218747,0.808817817317322
492,1790233880.417645,0.7911228515625001,0.379754296875,0.07582631835937466,0.8808168497567156
493,1790233880.437645,0.5564109375,0.37017421875,-0.06308481445312535,0.6712687817941387
494,1790233880.4622283,0.316908984375,0.6384164062500001,-0.08224497070312535,0.7174754681190968
495,1790233880.4822283,0.3025388671875,0.762957421875,-0.10619516601562536,0.827593624334026
496,1790233880.492515,0.642631640625,0.49471523437500003,-0.31216684570312536,0.8690032958575757
497,1790233880.512515,0.6857419921875,0.25521328125000003,-0.47023813476562537,0.8697699708333965
498,1790233880.5369477,0.4797703125,0.20252285156250002,-0.41275766601562536,0.6645027833019367
499,1790233880.5569477,0.5516208984375001,0.45160488281250005,-0.32174692382812536,0.7821468332518825
500,1790233880.5820298,0.76717265625,0.5857259765625,-0.25468637695312535,0.9982454381179432
501,1790233880.6020298,0.6091013671875,0.36538417968750003,-0.16367563476562536,0.7289031401300995
502,1790233880.6120837,0.38396953125,0.44202480468750005,-0.08224497070312535,0.5912552444531255
503,1790233880.6320837,0.4366599609375,0.27437343750000004,0.032715966796874656,0.5167427204856975
504,1790233880.656552,0.5803611328125,0.05882167968750001,-0.03434458007812535,0.5843445769932412
505,1790233880.676552,0.7480125,0.010921289062500006,-0.12056528320312536,0.7577453148815151
506,1790233880.7024317,0.661791796875,0.08756191406250001,-0.25468637695312535,0.7144932622571324
507,1790233880.7224317,0.4797703125,-0.051349218749999995,-0.30258676757812536,0.5695393286999252
508,1790233880.731972,0.508510546875,-0.47287265625,-0.3600672363281254,0.7822019815808551
509,1790233880.751972,0.5612009765625,-0.51119296875,-0.5468787597656254,0.9355966894324342
510,1790233880.7770553,0.7863328125,-0.4680826171875,-0.6330994628906254,1.1127603328837967
511,1790233880.7970552,0.7240623046875,-0.7267447265625,-0.6139393066406253,1.1955524208056076
512,1790233880.822171,0.642631640625,-0.865655859375,-0.7432703613281254,1.3094985003548079
513,1790233880.842171,0.776752734375,-1.2728091796875003,-0.8438611816406254,1.713327088484776
514,1790233880.8524127,0.9444041015625,-1.6368521484375003,-0.7768006347656254,2.0431845949558283
515,1790233880.8724127,1.2030662109375,-1.6033218750000002,-0.8103309082031254,2.162092857289513
516,1790233880.896986,1.2605466796875,-1.5266812500000002,-0.7815906738281254,2.1285247360995943
517,1790233880.916986,1.054575,-1.5554214843750003,-0.6714197753906254,1.9955623115968912
518,1790233880.9426088,0.9635642578125,-1.6224820312500001,-0.6283094238281254,1.9888883208300336
519,1790233880.9626088,1.006674609375,-1.9961050781250003,-0.6091492675781254,2.3170869820245614
520,1790233880.9722967,1.1934861328125,-2.19728671875,-0.5468787597656254,2.5596004476272594
521,1790233880.9922967,1.22701640625,-2.2691373046875003,-0.40317758789062536,2.6109587388751323
522,1790233881.0173702,1.2030662109375,-2.1350162109375,-0.42233774414062536,2.4867713403108107
523,1790233881.0373702,0.9491941406250001,-1.7757632812500002,-0.46065805664062537,2.0655533381591766
524,1790233881.06267,0.9635642578125,-1.9913150390625003,-0.4079676269531254,2.2494953319293653
525,1790233881.08267,0.7480125,-2.3074576171875,-0.20199594726562536,2.4340677307718046
526,1790233881.1069725,0.61389140625,-1.8955142578125002,-0.05829477539062535,1.9932975796593744
527,1790233881.1269724,0.4845603515625,-1.6176919921875001,0.056666162109374654,1.689655932378584
528,1790233881.137532,0.5995212890625,-1.3686099609375002,-0.11577524414062536,1.498640353244343
529,1790233881.157532,0.661791796875,-1.7949234375000003,-0.25468637695312535,1.9299180499449629
530,1790233881.182118,0.412709765625,-1.9529947265625003,-0.4558680175781254,2.0475188404685776
531,1790233881.202118,0.2833787109375,-1.8380337890625003,-0.5420887207031254,1.937145292604972
532,1790233881.2278364,0.2737986328125,-1.5793716796875001,-0.5804090332031254,1.704774248911772
533,1790233881.2478364,0.374389453125,-1.6512222656250002,-0.5420887207031254,1.777797124033152
534,1790233881.2579267,0.259428515625,-1.7470230468750003,-0.6618396972656254,1.88611358775352
535,1790233881.2779267,0.15404765625,-1.7422330078125001,-0.8103309082031254,1.9276261864523452
536,1790233881.3027337,0.4654001953125,-1.7901333984375003,-0.7720105957031254,2.004289222112468
537,1790233881.3227336,0.59473125,-1.6799625000000002,-0.5995691894531254,1.880282551659269
538,1790233881.3472602,0.4031296875,-1.5266812500000002,-0.5037684082031254,1.6574232389914538
539,1790233881.3672602,0.2929587890625,-1.6608023437500001,-0.3073768066406254,1.7142257081128636
540,1790233881.3779724,0.029506640624999986,-1.9961050781250003,0.07103627929687466,1.9975866133246212
541,1790233881.3979723,0.2737986328125,-1.9865250000000003,0.3296983886718747,2.032227421930879
542,1790233881.4225533,0.364809375,-1.5218912109375002,0.4159190917968747,1.6193293145428567
543,1790233881.4425533,0.23068828125,-1.5697916015625002,0.5739903808593747,1.6872841233062463
544,1790233881.4822614,0.19715800781249998,-1.5506314453125003,0.4398692871093747,1.623827007097319
545,1790233881.5022614,0.1492576171875,-1.5841617187500001,0.13809682617187466,1.5971590155147952
546,1790233881.497878,-0.008813671875000017,-1.7326529296875002,-0.015184423828125349,1.732741879881014
547,1790233881.517878,-0.013603710937500017,-1.6943326171875002,0.09019643554687466,1.6967862197702093
548,1790233881.5425742,-0.008813671875000017,-1.6464322265625002,0.09019643554687466,1.6489245448051388
549,1790233881.5625741,-0.056714062500000016,-1.6895425781250002,-0.13014536132812535,1.695496512310702
550,1790233881.587761,-0.08066425781250001,-1.7757632812500002,-0.22115610351562537,1.7912989632237335
551,1790233881.607761,-0.07587421875000001,-1.6272720703125003,-0.13972543945312535,1.635021249501187
552,1790233881.6175523,-0.03276386718750002,-1.4787808593750003,-0.11098520507812536,1.4833017281703604
553,1790233881.6375523,-0.027973828125000016,-1.4404605468750002,-0.14930551757812535,1.4484478795395654
554,1790233881.6626227,0.039086718749999985,-1.3734000000000002,-0.13972543945312535,1.3810425518473395
555,1790233881.6826227,-0.1333546875,-1.3111294921875003,-0.02955454101562535,1.3182251282905812
556,1790233881.7076974,-0.22436542968750003,-1.2871792968750002,0.05187612304687465,1.3076167330241881
557,1790233881.7276974,-0.16688496093750002,-1.3590298828125003,-0.005604345703125349,1.3692495102263975
558,1790233881.7531698,-0.05192402343750002,-1.3350796875000002,-0.11577524414062536,1.341095739811613
559,1790233881.7731698,-0.10940449218750002,-1.3254996093750002,-0.17804575195312536,1.3418713973971712
560,1790233881.7827075,-0.20520527343750003,-1.2823892578125002,-0.10140512695312535,1.3026566748655741
561,1790233881.8027074,-0.09982441406250002,-1.2536490234375002,-0.03434458007812535,1.258085981874634
562,1790233881.8579488,0.039086718749999985,-1.2919693359375002,-0.07266489257812535,1.2946013761767818
563,1790233881.8779488,-0.06150410156250002,-1.2919693359375002,-0.08703500976562535,1.296357440074572
564,1790233881.874125,-0.03755390625000002,-1.2967593750000002,-0.03434458007812535,1.2977575747056027
565,1790233881.894125,-0.02318378906250002,-1.4117203125000002,0.05187612304687465,1.4128633553683694
566,1790233881.9178565,-0.06150410156250002,-1.5123111328125003,0.13809682617187466,1.5198481668694355
567,1790233881.9378564,0.015136523437499985,-1.5362613281250002,0.056666162109374654,1.5373805763578414
568,1790233881.9480155,0.10135722656249999,-1.4692007812500003,-0.04871469726562535,1.4734983355035507
569,1790233881.9680154,0.08219707031249998,-1.5218912109375002,-0.13493540039062535,1.5300708410316652
570,1790233881.9920895,0.019926562499999984,-1.5697916015625002,-0.22115610351562537,1.5854187971483873
571,1790233882.0120895,0.07261699218749999,-1.5745816406250002,-0.23552622070312537,1.5937544262484022
572,1790233882.0223384,0.1492576171875,-1.4692007812500003,-0.22115610351562537,1.4932309915201718
573,1790233882.0423384,0.125307421875,-1.4069302734375002,-0.23552622070312537,1.4320011679222107
574,1790233882.0675025,0.005556445312499984,-1.3494498046875003,-0.21636606445312537,1.3666967195770163
575,1790233882.0875025,-0.03276386718750002,-1.3829800781250001,-0.13493540039062535,1.3899334263777852
576,1790233882.1121347,-0.06150410156250002,-1.3015494140625001,-0.05350473632812535,1.3040998384192024
577,1790233882.1321347,-0.09503437500000002,-1.2201187500000001,0.023135888671874653,1.2240329104553689
578,1790233882.1427143,-0.08066425781250001,-1.114737890625,0.032715966796874656,1.1181313079271908
579,1790233882.1627142,-0.07587421875000001,-1.2440689453125002,-0.01997446289062535,1.2465405797364353
580,1790233882.1877475,-0.08545429687500002,-1.3207095703125002,-0.05350473632812535,1.3245523631699019
581,1790233882.2077475,-0.027973828125000016,-1.3781900390625001,-0.11098520507812536,1.3829345734984342
582,1790233882.232342,0.015136523437499985,-1.3542398437500003,-0.07266489257812535,1.3562724119273346
583,1790233882.252342,-0.08066425781250001,-1.3302896484375002,-0.08703500976562535,1.3355719239911086
584,1790233882.2626255,-0.056714062500000016,-1.3973501953125003,-0.09661508789062535,1.4018339874725714
585,1790233882.2826254,0.09177714843749998,-1.3446597656250001,-0.08703500976562535,1.3505954328335712
586,1790233882.3072832,0.1300974609375,-1.3734000000000002,-0.07266489257812535,1.3814604938092785
587,1790233882.3272831,0.010346484374999984,-1.4452505859375002,-0.10140512695312535,1.4488406764251167
588,1790233882.3525188,0.10135722656249999,-1.4213003906250001,-0.11577524414062536,1.4296055382248074
589,1790233882.3725188,0.1732078125,-1.3638199218750002,-0.12535532226562535,1.380478063003714
590,1790233882.3823416,0.1348875,-1.3207095703125002,-0.18283579101562536,1.3401109406491645
591,1790233882.4023416,0.06782695312499999,-1.4452505859375002,-0.17804575195312536,1.4577551377071056
592,1790233882.4271286,0.05345683593749999,-1.4452505859375002,-0.12056528320312536,1.451255620824597
593,1790233882.4471285,0.12051738281249999,-1.3398697265625001,-0.09661508789062535,1.3487437855006994
594,1790233882.4877303,0.1396775390625,-1.2823892578125002,-0.08224497070312535,1.292592843349138
595,1790233882.5077302,0.09177714843749998,-1.3398697265625001,-0.06308481445312535,1.3444900977502858
596,1790233882.5170016,0.08219707031249998,-1.3446597656250001,-0.08703500976562535,1.349978272633875
597,1790233882.5370016,0.034296679687499984,-1.3542398437500003,-0.09182504882812535,1.3577826248077782
598,1790233882.5473242,-0.013603710937500017,-1.3350796875000002,-0.10140512695312535,1.3389943363206391
599,1790233882.5673242,-0.04713398437500002,-1.2775992187500003,-0.05829477539062535,1.2797967249026376
600,1790233882.5928888,0.05345683593749999,-1.2728091796875003,-0.05350473632812535,1.2750543510042065
601,1790233882.6128888,0.06303691406249999,-1.3111294921875003,-0.16846567382812536,1.3234103222646936
602,1790233882.6377366,-0.027973828125000016,-1.3829800781250001,-0.24031625976562537,1.4039830256304162
603,1790233882.6577365,-0.027973828125000016,-1.3302896484375002,-0.16367563476562536,1.3406128438948604
604,1790233882.66756,0.07261699218749999,-1.3494498046875003,-0.07745493164062535,1.353620060933254
605,1790233882.68756,0.10614726562499999,-1.2775992187500003,-0.07745493164062535,1.2843388463274517
606,1790233882.712992,0.07740703125,-1.1865884765625,-0.11577524414062536,1.1947334298301335
607,1790233882.732992,-0.04234394531250002,-1.1434781250000001,-0.09182504882812535,1.1479403606679361
608,1790233882.7575634,-0.04234394531250002,-1.2392789062500003,-0.01997446289062535,1.2401629716890412
609,1790233882.7775633,0.05824687499999999,-1.3015494140625001,-0.02955454101562535,1.3031872645895322
610,1790233882.7877417,0.10135722656249999,-1.2584390625000001,-0.12535532226562535,1.268722238404703
611,1790233882.8077416,0.015136523437499985,-1.2249087890625001,-0.15409555664062535,1.234656266513364
612,1790233882.8331554,0.024716601562499985,-1.3494498046875003,-0.05350473632812535,1.3507362594427805
613,1790233882.8531554,0.019926562499999984,-1.2871792968750002,-0.03913461914062535,1.2879282311572988
614,1790233882.8776126,0.06303691406249999,-1.2823892578125002,-0.12535532226562535,1.2900425643782987
615,1790233882.8976126,-0.008813671875000017,-1.3398697265625001,-0.20678598632812537,1.3557614130488758
616,1790233882.907659,0.029506640624999986,-1.3877701171875,-0.13493540039062535,1.3946268684770702
617,1790233882.927659,0.06782695312499999,-1.3973501953125003,-0.03434458007812535,1.3994168835950374
618,1790233882.9677837,-0.09503437500000002,-1.3254996093750002,0.013555810546874653,1.3289712212401372
619,1790233882.9877837,-0.013603710937500017,-1.2440689453125002,-0.03913461914062535,1.2447586593623317
620,1790233882.997329,0.1396775390625,-1.16263828125,-0.07266489257812535,1.1732509427057372
621,1790233883.017329,0.1300974609375,-1.153058203125,-0.05350473632812535,1.1616072167242164
622,1790233883.0272896,-0.03276386718750002,-1.1578482421875,-0.015184423828125349,1.1584112351219475
623,1790233883.0472896,-0.10940449218750002,-1.2728091796875003,-0.005604345703125349,1.2775147590138958
624,1790233883.072475,-0.03755390625000002,-1.3159195312500003,-0.10619516601562536,1.3207315858587394
625,1790233883.092475,0.005556445312499984,-1.229698828125,-0.13972543945312535,1.237624046472465
626,1790233883.1178632,0.07740703125,-1.2536490234375002,-0.11577524414062536,1.2613610227086287
627,1790233883.1378632,-0.11419453125000002,-1.3446597656250001,-0.10140512695312535,1.3533045762246085
628,1790233883.1630409,-0.09982441406250002,-1.3302896484375002,-0.09661508789062535,1.3375238082333347
629,1790233883.1830409,0.0007664062499999837,-1.268019140625,-0.03913461914062535,1.2686231303208946
630,1790233883.1925988,0.024716601562499985,-1.2775992187500003,0.04229604492187465,1.2785380829523396
631,1790233883.2125988,-0.004023632812500016,-1.3590298828125003,-0.015184423828125349,1.3591206637842572
632,1790233883.2378438,0.04866679687499999,-1.3398697265625001,-0.07745493164062535,1.3429886848786907
633,1790233883.2578437,0.19715800781249998,-1.2392789062500003,-0.12056528320312536,1.260642485018905
634,1790233883.2824461,0.04866679687499999,-1.3207095703125002,-0.01997446289062535,1.3217568631941619
635,1790233883.3024461,-0.027973828125000016,-1.3590298828125003,0.06624624023437466,1.3609310496063036
636,1790233883.313,-0.06150410156250002,-1.3302896484375002,0.06624624023437466,1.333357366797877
637,1790233883.333,-0.05192402343750002,-1.2584390625000001,-0.05350473632812535,1.2606457611261617
638,1790233883.3582313,-0.1333546875,-1.3446597656250001,-0.09182504882812535,1.3543726213864449
639,1790233883.3782313,-0.14772480468750002,-1.2488589843750002,-0.11577524414062536,1.262883719084991
640,1790233883.4027565,-0.09503437500000002,-1.191378515625,-0.13972543945312535,1.2033027459267422
641,1790233883.4227564,-0.13814472656250001,-1.16263828125,-0.15888559570312535,1.1815482939884088
642,1790233883.4329216,-0.06629414062500003,-1.1195279296875,-0.15409555664062535,1.132026121168576
643,1790233883.4529216,0.043876757812499986,-1.1961685546875,-0.13972543945312535,1.2051006512029145
644,1790233883.4778411,-0.027973828125000016,-1.2584390625000001,-0.10619516601562536,1.2632216046169147
645,1790233883.4978411,-0.018393750000000018,-1.2967593750000002,-0.07745493164062535,1.2992007054819927
646,1790233883.5222557,0.07261699218749999,-1.2536490234375002,-0.07745493164062535,1.2581368637614954
647,1790233883.5422556,0.024716601562499985,-1.3350796875000002,-0.07266489257812535,1.337284139209498
648,1790233883.5528014,-0.008813671875000017,-1.5266812500000002,-0.10619516601562536,1.5303956132969572
649,1790233883.5728014,0.08698710937499998,-1.4644107421875001,-0.13493540039062535,1.4731846935500454
650,1790233883.5979848,0.1875779296875,-1.4165103515625002,-0.12535532226562535,1.434364323527982
651,1790233883.6179848,0.1588376953125,-1.4644107421875001,-0.05829477539062535,1.4741528130164032
652,1790233883.642474,0.09177714843749998,-1.4356705078125003,-0.01997446289062535,1.4387396676069268
653,1790233883.662474,0.163627734375,-1.4069302734375002,0.008765771484374652,1.4164404924038747
654,1790233883.6730418,0.1732078125,-1.4452505859375002,0.04708608398437465,1.4563541127654038
655,1790233883.6930418,0.3408591796875,-1.3590298828125003,0.03750600585937466,1.401625450407532
656,1790233883.7176323,0.3983396484375,-1.3638199218750002,-0.01997446289062535,1.420942727201984
657,1790233883.7376323,0.364809375,-1.2201187500000001,-0.17325571289062536,1.285221065124087
658,1790233883.7625442,0.1588376953125,-1.1291080078125,-0.10619516601562536,1.145160128560013
659,1790233883.7825441,0.043876757812499986,-1.1195279296875,-0.04871469726562535,1.1214459759418633
660,1790233883.8076718,0.144467578125,-1.0572574218750002,-0.02476450195312535,1.0673693914461204
661,1790233883.8276718,0.1684177734375,-1.04767734375,-0.01039438476562535,1.061178781474336
662,1790233883.837465,0.22110820312499999,-1.1051578125000001,-0.06308481445312535,1.1288234236733117
663,1790233883.857465,0.19715800781249998,-1.2344888671875003,-0.15888559570312535,1.2601899363891178
664,1790233883.8824944,0.20194804687499998,-1.1770083984375002,-0.22594614257812537,1.2153943569784134
665,1790233883.9024944,0.240268359375,-0.8800259765625,-0.22594614257812537,0.9398011828506446
666,1790233883.9278538,0.240268359375,-0.9518765625000001,-0.10619516601562536,0.9874590057509511
667,1790233883.9478538,0.30732890625,-1.1578482421875,-0.015184423828125349,1.1980376351686526
668,1790233883.972436,0.6522117187500001,-1.229698828125,0.008765771484374652,1.3919828205536675
669,1790233883.992436,0.853393359375,-1.268019140625,0.17162709960937467,1.5380535192694167
670,1790233884.0028627,0.5133005859375,-1.2440689453125002,0.28179799804687466,1.374989143200034
671,1790233884.0228627,0.44145,-1.2584390625000001,0.3296983886718747,1.373771452614557
672,1790233884.0482676,0.92045390625,-1.1578482421875,0.2578478027343747,1.50144378344396
673,1790233884.0682676,1.054575,-1.2344888671875003,0.17162709960937467,1.6326503162512185
674,1790233884.0775447,0.6091013671875,-1.7757632812500002,0.4350792480468747,1.9270790483595848
675,1790233884.0975447,0.431869921875,-1.1386880859375001,0.5548302246093747,1.3382670752194479
676,1790233884.122405,0.09656718749999998,-0.9375064453125,0.3488585449218747,1.0049606166756724
677,1790233884.142405,0.09177714843749998,-1.076417578125,0.28179799804687466,1.11647120839502
678,1790233884.1680398,0.240268359375,-1.4404605468750002,0.13809682617187466,1.4668763427838503
679,1790233884.1880398,0.80549296875,-1.1817984375000001,-0.01997446289062535,1.4303375296589609
680,1790233884.1972613,1.1839060546875,-0.6213638671875,-0.09661508789062535,1.3405450671201025
681,1790233884.2172613,1.2509666015624998,-0.463292578125,-0.18283579101562536,1.3464718257902202
682,1790233884.2433295,1.217436328125,-0.62615390625,-0.27384653320312535,1.396141773280202
683,1790233884.2633295,0.9108738281250001,-0.9183462890625,-0.2786365722656254,1.3231361898164127
684,1790233884.2879038,0.6282615234375,-1.2775992187500003,-0.14930551757812535,1.4315252156919525
685,1790233884.3079038,0.8965037109375,-0.999776953125,-0.26426645507812535,1.3686159501497035
686,1790233884.3326688,1.8832517578124999,-0.013028906249999994,-0.6283094238281254,1.9853411968155934
687,1790233884.3526688,2.347885546875,-0.046559179687499994,-0.7049500488281254,2.4518745624073977
688,1790233884.363029,1.3850876953125,-0.8752359375000001,-0.5612488769531254,1.731908245802514
689,1790233884.383029,0.8629734375,-0.9758267578125001,-0.9205018066406254,1.5950813744514971
690,1790233884.4081047,1.619799609375,-0.54951328125,-1.1025232910156253,2.0350118496051737
691,1790233884.4281046,2.520326953125,-0.9087662109375,-1.4761463378906254,3.0589069923189807
692,1790233884.4380822,2.520326953125,-1.4021402343750002,-1.5815271972656255,3.2892664019796864
693,1790233884.4580822,2.3814158203124998,-1.4117203125000002,-1.7827088378906255,3.292741464289764
694,1790233884.4826622,2.050903125,-1.6081119140625002,-1.8401893066406254,3.1903799523816954
695,1790233884.5026622,1.3994578125,-2.5469595703125,-2.0174207519531255,3.537721259820343
696,1790233884.528117,1.1360056640625,-2.2212369140625,-1.6629578613281255,2.9983047119545727
697,1790233884.548117,1.1360056640625,-1.3877701171875,-1.8162391113281255,2.552477086372896
698,1790233884.5730915,1.1599558593750001,-4.664156835937501,0.04229604492187465,4.806417121030689
699,1790233884.5930915,3.1765623046875002,-10.3930435546875,2.8013585449218747,11.22290123374521
700,1790233884.6031365,5.039887500000001,1.1892708984375,-0.3600672363281254,5.190807229825007
701,1790233884.6231365,3.0855515625,-1.5362613281250002,-2.8604676269531253,4.479174294218235
702,1790233884.6482172,2.1802341796875,1.9987875,-2.3958338378906254,3.80638835738231
703,1790233884.6682172,1.945522265625,0.7869076171875,-2.8460975097656256,3.5361775293563014
704,1790233884.707686,4.0052390625,-2.5230093750000004,-1.4378260253906254,4.947207286278227
705,1790233884.727686,-0.46386738281250006,1.8694564453125,-0.4558680175781254,1.9793574713043567
706,1790233884.722784,-0.31537617187500006,-1.5027310546875001,-0.30258676757812536,1.564998883201555
707,1790233884.742784,2.5059568359375,-3.4570669921875004,-0.6618396972656254,4.320782757433064
708,1790233884.767869,-3.8456349609375002,3.081336328125,0.5069298339843746,4.953838882764663
709,1790233884.787869,-0.5979884765625001,-3.9360708984375004,2.5714366699218747,4.739465252857861
710,1790233884.8129551,0.2929587890625,-2.2499771484375004,0.7464317871093747,2.388594237912167
711,1790233884.8329551,0.7240623046875,-2.5182193359375002,-2.0413709472656256,3.3215794720733443
712,1790233884.8435283,-0.832700390625,-3.9696011718750004,-0.9109217285156254,4.157030406405551
713,1790233884.8635283,2.4101560546875,-3.7157291015625002,1.3068663574218746,4.6177261330991035
714,1790233884.8881001,1.715600390625,-2.2547671875,0.8470226074218747,2.9571450873474343
715,1790233884.9081001,0.38396953125,-1.2057486328125,-0.5372986816406253,1.3747553381421407
716,1790233884.9324417,1.044994921875,-1.8571939453125001,0.3775987792968747,2.1642006781665226
717,1790233884.9524417,-0.7464796875,-2.5996500000000005,1.4553575683593747,3.071396701523757
718,1790233884.962433,-0.9572414062500001,-2.5277994140625,0.7943321777343747,2.8172760951242304
719,1790233884.982433,0.3264890625,-1.9865250000000003,0.29137807617187467,2.034152862208431
720,1790233885.0081751,0.76717265625,-2.0487955078125,0.11893666992187465,2.1909502159525363
721,1790233885.028175,0.08219707031249998,-1.8236636718750001,0.3584386230468747,1.8603719501691875
722,1790233885.052869,-1.0913625,-1.5506314453125003,-0.06308481445312535,1.8972373808811507
723,1790233885.072869,-1.5176759765625003,-1.7087027343750003,-0.005604345703125349,2.2853964235962
724,1790233885.0828419,-0.39680683593750005,-1.7326529296875002,0.18120717773437467,1.7867226648430543
725,1790233885.1028419,0.240268359375,-1.6991226562500001,-0.23073618164062537,1.7314692809914087
726,1790233885.1282954,0.144467578125,-1.7422330078125001,-0.12056528320312536,1.7523648941229517
727,1790233885.1482954,-0.76563984375,-1.12431796875,-0.5612488769531254,1.4714943313084135
728,1790233885.172552,-1.4937257812500002,-0.7171646484375,-0.8773914550781254,1.8749286941063963
729,1790233885.192552,-1.5895265625000001,-0.5255630859375,-0.5660389160156254,1.7672609611026207
730,1790233885.2026076,-1.5224660156250003,-0.6596841796875,-0.16846567382812536,1.6677729668397308
731,1790233885.2226076,-1.9727296875000002,-0.7267447265625,-0.02476450195312535,2.102482722423002
732,1790233885.2483077,-2.1068507812500004,-0.386651953125,-0.17804575195312536,2.1494232335902734
733,1790233885.2683077,-2.308032421875,-0.118409765625,-0.22594614257812537,2.3220866031152845
734,1790233885.2932174,-2.2745021484375,0.039661523437500006,-0.11098520507812536,2.2775536822288998
735,1790233885.3132174,-1.7236476562500003,0.16899257812500001,-0.08703500976562535,1.7340976983095144
736,1790233885.3382075,-1.4410353515625003,0.34622402343750003,-0.11577524414062536,1.48655906913043
737,1790233885.3582075,-1.7236476562500003,0.10672207031250001,-0.04871469726562535,1.7276353680443066
738,1790233885.367254,-1.5703664062500002,0.0013412109375000056,0.17162709960937467,1.579717794432172
739,1790233885.387254,-1.4362453125000003,-0.156730078125,0.38238881835937466,1.494518692915405
740,1790233885.4127684,-1.5895265625000001,-0.156730078125,0.29616811523437464,1.6244613146405231
741,1790233885.4327683,-1.4410353515625003,-0.1854703125,0.06624624023437466,1.4544313959815696
742,1790233885.4569807,-1.2542238281250002,-0.0752994140625,-0.01039438476562535,1.2565251513715678
743,1790233885.4769807,-1.3931349609375003,0.11151210937500002,-0.03913461914062535,1.3981385798049042
744,1790233885.4873416,-1.4506154296875002,-0.1423599609375,0.26263784179687466,1.4810570952091273
745,1790233885.5073416,-1.5655763671875003,-0.5351431640625001,0.4781895996093747,1.7222290384015155
746,1790233885.5323734,-1.7954982421875003,-0.40102207031250003,0.35364858398437465,1.873419322930742
747,1790233885.5523734,-1.6996974609375002,-0.1854703125,0.30095815429687467,1.736072148896472
748,1790233885.5772147,-1.6038966796875003,-0.080089453125,0.12372670898437466,1.6106542702052955
749,1790233885.5972147,-1.6805373046875003,-0.19505039062500001,0.10935659179687465,1.6953492712413927
750,1790233885.6071818,-1.9104591796875003,-0.1231998046875,0.05187612304687465,1.9151301786744548
751,1790233885.6271818,-1.9823097656250002,-0.2381607421875,0.10456655273437465,1.9993015555344058
752,1790233885.652245,-1.8433986328125003,-0.3339615234375,0.07103627929687466,1.8747519760139033
753,1790233885.672245,-1.8002882812500003,-0.4872427734375,0.09498647460937466,1.8674757953536814
754,1790233885.6976743,-1.9008791015625002,-0.42976230468750004,-0.08703500976562535,1.9507978086445228
755,1790233885.7176743,-1.8721388671875003,-0.3339615234375,-0.17804575195312536,1.9100090384496475
756,1790233885.727644,-1.7907082031250003,-0.3722818359375,-0.19241586914062536,1.8390904003896342
757,1790233885.747644,-1.4889357421875002,-0.367491796875,-0.21157602539062537,1.54814220265903
758,1790233885.7727478,-1.6996974609375002,-0.2669009765625,-0.12535532226562535,1.7250859534607892
759,1790233885.7927477,-1.8338185546875003,-0.0944595703125,-0.07745493164062535,1.8378825774176186
760,1790233885.8182955,-1.7236476562500003,-0.137569921875,0.27221791992187466,1.7504254689153163
761,1790233885.8382955,-1.6949074218750002,-0.47287265625,0.5835704589843747,1.8538808479390265
762,1790233885.8477342,-1.8817189453125003,-0.43934238281250004,0.42070913085937467,1.9775955327800991
763,1790233885.8677342,-1.7475978515625001,-0.42018222656250004,0.16204702148437466,1.8046912731757871
764,1790233885.8923187,-1.7044875000000002,-0.30043125,-0.06308481445312535,1.7319111603795958
765,1790233885.9123187,-1.8386085937500003,-0.24295078125,-0.18762583007812536,1.8640574280943827
766,1790233885.9377542,-1.7954982421875003,-0.24295078125,-0.07745493164062535,1.8135154496843533
767,1790233885.9577541,-1.9200392578125003,-0.367491796875,0.14767690429687466,1.9604615375911616
768,1790233885.967808,-2.0876906250000005,-0.4680826171875,0.26263784179687466,2.1555816194636916
769,1790233885.987808,-2.058950390625,-0.444132421875,0.20994741210937468,2.1167447260042525
770,1790233886.0128129,-1.9727296875000002,-0.463292578125,0.10456655273437465,2.029097483326099
771,1790233886.0328128,-2.06853046875,-0.42018222656250004,0.04708608398437465,2.1113001925285517
772,1790233886.0570912,-2.14517109375,-0.3722818359375,-0.10619516601562536,2.1798234332428517
773,1790233886.0770912,-2.0206300781250004,-0.42018222656250004,-0.09182504882812535,2.065897106763731
774,1790233886.1021898,-2.0254201171875,-0.530353125,0.023135888671874653,2.09383293451262
775,1790233886.1221898,-2.1212208984375,-0.5159830078125001,0.023135888671874653,2.1831976167227434
776,1790233886.1327336,-2.0206300781250004,-0.43934238281250004,-0.03434458007812535,2.068126493263783
777,1790233886.1527336,-1.9296193359375002,-0.38186191406250003,0.05187612304687465,1.967724684801644
778,1790233886.1777828,-1.9487794921875004,-0.310011328125,0.13330678710937466,1.9777813914145876
779,1790233886.1977828,-1.9056691406250001,-0.2764810546875,0.10935659179687465,1.9287238037886523
780,1790233886.2375035,-1.8338185546875003,-0.2956412109375,0.06624624023437466,1.8586776970378525
781,1790233886.2575035,-1.8817189453125003,-0.24295078125,0.05187612304687465,1.898046997152691
782,1790233886.252057,-1.9296193359375002,-0.2669009765625,0.13809682617187466,1.9528793220044705
783,1790233886.272057,-1.7954982421875003,-0.329171484375,0.14288686523437466,1.8310064063461249
784,1790233886.2971141,-1.7380177734375002,-0.377071875,0.027925927734374655,1.7786705251789852
785,1790233886.317114,-1.7954982421875003,-0.30043125,-0.13014536132812535,1.8251056650918034
786,1790233886.3428743,-1.7954982421875003,-0.30043125,-0.15409555664062535,1.8269697080825806
787,1790233886.3628743,-1.7811281250000002,-0.386651953125,-0.01039438476562535,1.822642360353794
788,1790233886.3721197,-1.8721388671875003,-0.42976230468750004,0.11893666992187465,1.9245117583471694
789,1790233886.3921196,-1.9344093750000002,-0.3722818359375,0.16204702148437466,1.976560809241356
790,1790233886.4323785,-1.8242384765625002,-0.20463046875000002,0.12851674804687466,1.8401728730313518
791,1790233886.4523785,-1.7811281250000002,-0.1711001953125,0.10456655273437465,1.792380215928736
792,1790233886.4625223,-1.7763380859375002,-0.348331640625,0.14767690429687466,1.8161829190572503
793,1790233886.4825222,-1.8673488281250001,-0.5255630859375,0.09019643554687466,1.9419947477234125
794,1790233886.4928784,-1.8577687500000002,-0.5926236328125001,0.05187612304687465,1.950691833885307
795,1790233886.5128784,-1.8481886718750002,-0.5064029296875,-0.02476450195312535,1.9164703427395235
796,1790233886.5528178,-1.8673488281250001,-0.41060214843750004,-0.07745493164062535,1.9135268580912983
797,1790233886.5728178,-2.0350001953125,-0.30043125,-0.09661508789062535,2.059324939417427
798,1790233886.582364,-2.0541603515625004,-0.3435416015625,0.09498647460937466,2.0848544343177102
799,1790233886.602364,-1.9631496093750003,-0.41060214843750004,0.22431752929687465,2.018134997229016
800,1790233886.6122594,-1.8865089843750003,-0.367491796875,0.09498647460937466,1.9243151507112157
801,1790233886.6322594,-1.8721388671875003,-0.3339615234375,0.013555810546874653,1.9017407807507247
802,1790233886.6574607,-2.0062599609375003,-0.329171484375,0.013555810546874653,2.033129768850519
803,1790233886.6774607,-2.0158400390625,-0.3243814453125,0.032715966796874656,2.042034456034957
804,1790233886.7030551,-1.9535695312500003,-0.2573208984375,-0.04871469726562535,1.971045681847762
805,1790233886.7230551,-1.8529787109375002,-0.2573208984375,0.04229604492187465,1.871238387639671
806,1790233886.762693,-1.8290285156250004,-0.28127109375000003,0.18599721679687467,1.8598531403863308
807,1790233886.782693,-1.8673488281250001,-0.223790625,0.12851674804687466,1.885096932326358
808,1790233886.7928562,-1.8769289062500003,-0.1519400390625,-0.01997446289062535,1.883174679565044
809,1790233886.8128562,-1.8002882812500003,-0.233370703125,-0.0008143066406253486,1.815351327919321
810,1790233886.8223286,-1.7140675781250003,-0.367491796875,0.04229604492187465,1.7535298225481522
811,1790233886.8423285,-1.7428078125000002,-0.3387515625,0.061456201171874655,1.7764877024819803
812,1790233886.867438,-1.7859181640625001,-0.28127109375000003,0.023135888671874653,1.8080797510763538
813,1790233886.887438,-1.8242384765625002,-0.30043125,0.027925927734374655,1.849022664216818
814,1790233886.8969948,-1.8865089843750003,-0.35791171875,0.056666162109374654,1.9209966164661456
815,1790233886.9169948,-1.7475978515625001,-0.3243814453125,0.10456655273437465,1.780521198076463
816,1790233886.9425297,-1.6374269531250003,-0.27169101562500003,0.07582631835937466,1.6615452643089512
817,1790233886.9625297,-1.7332277343750002,-0.252530859375,0.09977651367187465,1.7543675689045002
818,1790233886.9880924,-1.8481886718750002,-0.3148013671875,0.08540639648437466,1.8767513208176096
819,1790233887.0080924,-1.8290285156250004,-0.3722818359375,0.07103627929687466,1.867882552334255
820,1790233887.0166457,-1.8194484375000002,-0.377071875,0.018345849609374652,1.8582013846284524
821,1790233887.0366457,-1.7811281250000002,-0.310011328125,0.003975732421874652,1.807910458977472
822,1790233887.0626345,-1.8386085937500003,-0.2285806640625,0.027925927734374655,1.8529734316590813
823,1790233887.0826344,-1.9344093750000002,-0.137569921875,0.03750600585937466,1.9396576538059773
824,1790233887.107673,-1.9200392578125003,-0.1806802734375,0.16204702148437466,1.9353178937638602
825,1790233887.127673,-1.9535695312500003,-0.223790625,0.18599721679687467,1.9751230650069427
826,1790233887.1378186,-1.8865089843750003,-0.118409765625,0.06624624023437466,1.8913819246963721
827,1790233887.1578186,-1.8098683593750002,-0.0657193359375,-0.01039438476562535,1.8110909840804457
828,1790233887.182211,-1.8290285156250004,-0.19984042968750002,0.032715966796874656,1.840204293764834
829,1790233887.202211,-1.8865089843750003,-0.30043125,0.013555810546874653,1.9103295119177057
830,1790233887.2272155,-1.9631496093750003,-0.223790625,-0.07266489257812535,1.9771997418673959
831,1790233887.2472155,-1.9391994140625002,-0.16631015625,-0.02476450195312535,1.9464754599350154
832,1790233887.257763,-1.9296193359375002,-0.14715,0.04708608398437465,1.9357946697490576
833,1790233887.277763,-1.8290285156250004,-0.1088296875,0.12851674804687466,1.8367650275359892
