imu_index,t_imu,ax,ay,az,mag,vx,vy,vz,velocity
0,1790596933.3683028,0.018633251953124937,-0.050870214843750025,0.008574169921874826,0.0548497331483673,0.0,0.0,0.0,0.0
1,1790596933.3883028,0.018633251953124937,-0.022129980468750022,0.0037841308593748258,0.029176253362225325,7.965707613262902e-05,-0.00017435965061205218,2.9469489717942615e-05,0.00019394583873801543
2,1790596933.3990731,0.009053173828124934,0.011400292968749979,-0.015376025390625174,0.021174248344362226,0.0001384836091875632,-0.0002628380390147768,3.359519487731458e-05,0.00029898190896037813
3,1790596933.419073,0.004263134765624935,-0.002969824218750022,-0.010585986328125175,0.011792255104915567,0.0002513104497410865,-0.000389847534032767,1.1642693270014876e-06,0.0004638312165686591
4,1790596933.4442086,0.009053173828124934,0.01619033203124998,-0.0010059082031251743,0.018576831241023856,0.0003969423291345441,-0.0005006039376920964,-5.533302705827174e-05,0.0006412715953283916
5,1790596933.4642086,0.009053173828124934,0.04493056640624998,0.0037841308593748258,0.04598951402558586,0.0005225974942827701,-0.0004838309062348283,-8.937669219063464e-05,0.000717766452243057
6,1790596933.4887202,0.023423291015624934,0.05451064453124998,0.018154248046874828,0.062045448272717046,0.0007132015775332651,-0.00028354816107386866,-8.451062305288355e-05,0.0007721386502779776
7,1790596933.5087202,0.037793408203124934,0.02577041015624998,0.008574169921874826,0.0465400057271007,0.0009372198487963113,-2.4220755626424314e-05,-4.104317596336891e-05,0.0009384307285431651
8,1790596933.5186806,0.023423291015624934,0.011400292968749979,-0.010585986328125175,0.02811903889387472,0.0010777815757496024,0.00011332485794482189,-2.4145514306774154e-05,0.0010839919991930977
9,1790596933.5386806,0.009053173828124934,-0.002969824218750022,-0.005795947265625175,0.011152256137590653,0.0013664006446132164,0.0003607272007329432,-1.987822421241307e-05,0.001413354158994085
10,1790596933.5641954,0.009053173828124934,-0.03171005859375002,0.008574169921874826,0.034073511152073674,0.0017140224479832737,0.0005626419161935104,-9.93440936709502e-06,0.001804033694402062
11,1790596933.5841954,0.004263134765624935,-0.017339941406250024,0.018154248046874828,0.02546418284865082,0.0019656097403243085,0.000623598370607053,3.678352695247756e-05,0.0020624862683025626
12,1790596933.6087778,0.013843212890624935,-0.03171005859375002,0.018154248046874828,0.03907350868941363,0.0022618384603858457,0.0005968503202177689,0.00015253341314215642,0.002344229077489967
13,1790596933.6287777,0.013843212890624935,-0.026920019531250023,0.0037841308593748258,0.030506419669619048,0.00250822544941395,0.0004904076348566525,0.0002654879474800879,0.0025694704519940866
14,1790596933.6388261,0.018633251953124937,0.006610253906249979,0.0037841308593748258,0.02012990763552084,0.0026379219399675787,0.0004296445128433315,0.0003194296304174085,0.002691702408805123
15,1790596933.658826,0.028213330078124935,0.0018202148437499782,0.008574169921874826,0.02954355371352302,0.0029276137987592045,0.0003394904372585174,0.0004292262394586408,0.002978323601678482
16,1790596933.6840935,-0.0005269042968750654,-0.007759863281250022,-0.020166064453125174,0.02161395988266279,0.003291170659938363,0.00023142128314336367,0.0005251656128550619,0.00334083208857558
17,1790596933.7040935,-0.024477099609375066,-0.026920019531250023,-0.010585986328125175,0.03789299359234375,0.003498267217030658,0.0001066921443889681,0.0005435859792742814,0.0035418557921362806
18,1790596933.729155,-0.019687060546875065,-0.017339941406250024,0.05647456054687483,0.06227061835176474,0.0036358378997845037,-0.00010935120435117679,0.000649458974793949,0.0036950063436133433
19,1790596933.749155,-0.019687060546875065,0.01619033203124998,0.06605463867187483,0.07080199498835034,0.003670094786469712,-0.00025762381589728616,0.0009050691894119278,0.003788814591638446
20,1790596933.7737408,-0.0053169433593750655,0.03056044921874998,0.013364208984374827,0.03377592374631142,0.003659783995586398,-0.0003263478818904242,0.001318597575218196,0.003903744535665213
21,1790596933.7937407,0.004263134765624935,0.011400292968749979,-0.020166064453125174,0.02355442959043604,0.003651073810256089,-0.00031092660122871113,0.0015943321160002736,0.003996111887247336
22,1790596933.8034153,-0.0005269042968750654,-0.03650009765625002,-0.010585986328125175,0.038007865812132974,0.0036502034303092573,-0.0003227980498286082,0.0016853921197750139,0.004033451408039315
23,1790596933.8234153,-0.0053169433593750655,-0.06524033203125003,0.0037841308593748258,0.06556592450805086,0.003639908247588069,-0.0004962688939977563,0.001835198724663465,0.004106478932737366
24,1790596933.8484833,-0.0005269042968750654,-0.046080175781250024,0.013364208984374827,0.04798189564770249,0.003617952795313023,-0.0008903775618216482,0.002027042271192724,0.004241609953886724
25,1790596933.8684833,0.004263134765624935,-0.03171005859375002,0.022944287109374826,0.03937184838188783,0.0036086679674993873,-0.001274328999118998,0.0022116043478750524,0.004420134917532679
26,1790596933.8786793,0.018633251953124937,0.011400292968749979,0.013364208984374827,0.025607944858969243,0.0036221533971789893,-0.0014562371862012413,0.002319345504443413,0.004540923424167432
27,1790596933.8986793,0.013843212890624935,0.0018202148437499782,0.022944287109374826,0.02685866780333671,0.0036933526251172,-0.00173970628331844,0.0025534475854180677,0.004815342785010755
28,1790596933.923703,-0.0005269042968750654,-0.017339941406250024,0.013364208984374827,0.021898704936326587,0.003794065335986424,-0.0020703050686136626,0.0028705600366168214,0.005188565290586866
29,1790596933.943703,0.03300336914062493,0.0018202148437499782,0.008574169921874826,0.03414750278657203,0.00391119970624472,-0.0023181786914196543,0.00311889961546805,0.005513526131147623
30,1790596933.9681005,0.06174360351562494,-0.06045029296875003,-0.010585986328125175,0.08705500331193868,0.004206026262227809,-0.002682481263307297,0.0033727215326462487,0.006021761634548515
31,1790596933.9881005,0.042583447265624935,-0.046080175781250024,-0.03932622070312518,0.07404920131808358,0.004567948546600841,-0.003096118784835594,0.003474713575747639,0.006521176265650968
32,1790596933.9992054,-0.0053169433593750655,-0.04129013671875002,0.008574169921874826,0.04250484286277335,0.004769797562515188,-0.003364104627059183,0.0034972370662934077,0.006804324788473383
33,1790596934.0192053,-0.03405717773437507,-0.03650009765625002,0.027734326171874827,0.057108154692255136,0.005019740034826041,-0.0038910400188469554,0.0035861801822814595,0.007293741889132912
34,1790596934.043843,-0.029267138671875068,-0.007759863281250022,-0.0010059082031251743,0.030295094248006093,0.005164443191144369,-0.0045245805299136115,0.003728702308677985,0.007813227460721422
35,1790596934.063843,-0.029267138671875068,-0.012549902343750023,-0.024956103515625175,0.04045828169310984,0.005176486868687559,-0.004992187366242512,0.0037880994299503263,0.008128200802917955
36,1790596934.089086,-0.029267138671875068,-0.017339941406250024,-0.029746142578125176,0.045189290460120095,0.005078588942003344,-0.0055504384881402075,0.0037482586266960774,0.008405288560487877
37,1790596934.109086,-0.019687060546875065,-0.017339941406250024,0.0037841308593748258,0.026506104340498278,0.004939228137790298,-0.005978413716433768,0.0036824847691210045,0.00858475970757429
38,1790596934.1336856,-0.014897021484375066,-0.007759863281250022,0.06605463867187483,0.06815681930167786,0.004729722460827008,-0.006472162395075599,0.0037425695713607043,0.008846806634100084
39,1790596934.1536856,0.023423291015624934,0.006610253906249979,0.07563471679687483,0.07945411508317998,0.004597729009345174,-0.006815101130392505,0.003996626136010546,0.009140992064972705
40,1790596934.1642368,0.028213330078124935,-0.012549902343750023,0.018154248046874828,0.0358199492613034,0.004579401756463313,-0.006973584417330868,0.004184771026689651,0.009333493912708163
41,1790596934.1842368,0.023423291015624934,-0.03171005859375002,-0.04411625976562518,0.05916437064424698,0.004627327974649303,-0.0072953205762247885,0.00444896473034451,0.009717363514179667
42,1790596934.208974,0.023423291015624934,-0.07961044921875003,-0.06327641601562518,0.10435697873451637,0.004764627890935521,-0.00784010215242069,0.004527475213503689,0.010230684850407743
43,1790596934.2289739,0.018633251953124937,-0.07482041015625003,-0.024956103515625175,0.08104380887508136,0.0049220686729931126,-0.008446136107471395,0.004449080980276474,0.010740497974332946
44,1790596934.2541475,0.013843212890624935,-0.017339941406250024,-0.0010059082031251743,0.022210807333828794,0.005151828062788328,-0.009268521802358752,0.0043161914991264655,0.011448857490879361
45,1790596934.2741475,0.009053173828124934,0.0018202148437499782,-0.010585986328125175,0.014047641972192599,0.005341331028336038,-0.009847165238706703,0.0042090623070319706,0.01196715028305136
46,1790596934.2841997,0.023423291015624934,0.006610253906249979,-0.020166064453125174,0.03160721712260267,0.005446774815568259,-0.010088016897530815,0.004140110229923417,0.012189173619745206
47,1790596934.3041997,0.037793408203124934,0.011400292968749979,-0.005795947265625175,0.03989863892524743,0.005716923122619932,-0.010468322148338653,0.003984557580842368,0.012575598502910006
48,1790596934.3286347,0.06653364257812494,0.03056044921874998,0.027734326171874827,0.07829341925968884,0.006188662228244615,-0.010786367033027173,0.0038632225515819233,0.013021894732700313
49,1790596934.3486347,0.11443403320312494,0.04014052734374998,0.05168452148437483,0.1318245032292443,0.006788312497776194,-0.010901586317763107,0.003897935326925498,0.013420866984811302
50,1790596934.374297,0.13359418945312493,0.04014052734374998,0.06605463867187483,0.1543433985667794,0.007919688313473807,-0.010872735483712835,0.004162402899159874,0.014080605021670635
51,1790596934.394297,0.13359418945312493,-0.022129980468750022,0.032524365234374825,0.13926585304762867,0.009069953501654288,-0.010826607375276303,0.004485468530222666,0.014818870122791953
52,1790596934.4033499,0.11443403320312494,-0.06524033203125003,0.08042475585937484,0.15433596545757472,0.00968092574413428,-0.010868181673889933,0.00468645840691167,0.015290539184732235
53,1790596934.4233499,0.10485395507812494,-0.050870214843750025,0.08042475585937484,0.14159898307832147,0.011157159693623152,-0.011120416811960469,0.005305157354891359,0.01662199076708022
54,1790596934.448559,0.05695356445312494,-0.007759863281250022,0.037314404296874826,0.0685294735868486,0.013044711964491503,-0.011501510654473225,0.006190634319044699,0.018460043630599655
55,1790596934.468559,0.004263134765624935,0.006610253906249979,-0.029746142578125176,0.030768535438222024,0.014409420344909104,-0.011760228232466184,0.006799113976747745,0.019803088487020948
56,1790596934.4938018,-0.014897021484375066,-0.007759863281250022,-0.020166064453125174,0.02624513064888844,0.015853374953992302,-0.012039962143173695,0.007357408968941989,0.021223139555145796
57,1790596934.5138018,-0.014897021484375066,-0.04129013671875002,0.10916499023437483,0.11765964360064224,0.01678112754437532,-0.012301926273662295,0.007866895779715473,0.022244812449470547
58,1790596934.539062,0.004263134765624935,0.0018202148437499782,0.09958491210937483,0.09969273905324899,0.017756979503396546,-0.012657936861352215,0.008809340393407538,0.023518889532393866
59,1790596934.559062,0.009053173828124934,-0.03650009765625002,0.04210444335937483,0.056453531651091925,0.018433697001153476,-0.012949549822636785,0.009656134316368276,0.02450985425650328
60,1790596934.568109,0.03300336914062493,-0.14667099609375003,-0.024956103515625175,0.152395572679943,0.01872243085341391,-0.01318596137112875,0.00999336152108998,0.02498532106723799
61,1790596934.588109,0.013843212890624935,-0.22810166015625002,0.018154248046874828,0.22924131091781866,0.019335251092722737,-0.014192353105722418,0.010616831469405638,0.026229600300917786
62,1790596934.6142552,0.023423291015624934,-0.25684189453125006,0.08042475585937484,0.270156530003338,0.020089303410061644,-0.016261625492637752,0.011502949431044254,0.028290253105574748
63,1790596934.6342552,0.06653364257812494,-0.20894150390625002,0.09958491210937483,0.24083278923176363,0.020714516051835302,-0.018305720394796273,0.012349108823264378,0.030276906433171616
64,1790596934.644235,0.12880415039062493,-0.18499130859375004,0.14748530273437482,0.2693774451132258,0.021125899243977994,-0.019467550755795242,0.012892924735917924,0.031488357523729596
65,1790596934.6642349,0.21981489257812495,-0.09877060546875002,0.20496577148437484,0.3163624297921311,0.02234959889192619,-0.02187231564471475,0.014347965227444302,0.034405913277516305
66,1790596934.6892362,0.339565869140625,0.04493056640624998,0.25286616210937485,0.4257523120580077,0.024698740906900173,-0.024528467629702067,0.016752505923195993,0.0386305576112259
67,1790596934.7092361,0.36351606445312495,0.19821181640625,0.21454584960937484,0.4663279692053243,0.027350695588187493,-0.025969843019884344,0.01908862518590195,0.04227137219351868
68,1790596934.733439,0.339565869140625,0.20300185546875,0.17143549804687483,0.4311668618986892,0.03135479442946752,-0.02672418421374343,0.02219224437083289,0.04679530816031694
69,1790596934.753439,0.32519575195312495,0.25090224609375,0.19059565429687483,0.45280339841933703,0.03516440177781938,-0.026573175486330425,0.024915262497697432,0.05063041687709462
70,1790596934.7790356,0.28687543945312494,0.28922255859375,0.31034663085937486,0.5121154532395051,0.04048373252244355,-0.025371996886522776,0.028839199875235297,0.05580654329379528
71,1790596934.7990355,0.23418500976562495,0.32275283203125,0.31992670898437486,0.5112387979258723,0.044798153784877275,-0.023656272401247156,0.0323906903845084,0.060130280475319646
72,1790596934.8091097,0.21502485351562495,0.35149306640625,0.2576562011718748,0.4859730253454466,0.046984784042746974,-0.022412249232006784,0.03434766443856644,0.06236698565399422
73,1790596934.8291097,0.27250532226562496,0.49040419921875,0.09479487304687483,0.568982861983073,0.051405990000583414,-0.019050130896632555,0.03817870994680515,0.06680641577214867
74,1790596934.8537457,0.25813520507812493,0.74427626953125,0.08521479492187484,0.7923651372704738,0.05701560106755522,-0.013248562565510213,0.04252254253857278,0.07234963579100846
75,1790596934.8737457,0.29166547851562497,0.92150771484375,0.10437495117187483,0.9721827761827659,0.061711188638125504,-0.006746542378197579,0.045804369373985715,0.07714808416895164
76,1790596934.8993268,0.36351606445312495,0.76343642578125,0.28160639648437485,0.8912245889034108,0.06807324622871588,0.003555152557000521,0.05011290491700764,0.08460442778625701
77,1790596934.9193268,0.32040571289062497,0.65805556640625,0.19538569335937483,0.7575437403217874,0.07332704560673774,0.012533399827669281,0.05369163800695004,0.09174275840916371
78,1790596934.9433975,0.329985791015625,0.73469619140625,0.17622553710937483,0.824454095670914,0.07987587667322629,0.02423255573968612,0.05802358028479069,0.10165681630396951
79,1790596934.9633975,0.488057080078125,0.87360732421875,0.09479487304687483,1.0051743820347803,0.08572805823691483,0.03490754916320084,0.06148954903680328,0.11112516185996123
80,1790596934.972948,0.497637158203125,0.8400770507812501,0.22891596679687484,1.0028831997437953,0.08880950256527052,0.04046802538588298,0.0631282563838201,0.11623237749691169
81,1790596934.992948,0.478477001953125,0.69637587890625,0.34866694335937487,0.9140285791549805,0.09575863254419607,0.05267033082538668,0.0669115232733341,0.12814457227189913
82,1790596935.0189815,0.478477001953125,0.65805556640625,0.23849604492187484,0.8478547831555108,0.10531575081750989,0.06881574747679267,0.07224384650104018,0.14507304307937913
83,1790596935.0389814,0.42099653320312497,0.53351455078125,0.018154248046874828,0.6798569214081124,0.1129058214346976,0.0811461650739338,0.0761108639971327,0.15850958405863022
84,1790596935.0486486,0.329985791015625,0.29401259765625,-0.1686572753906252,0.47305317501838295,0.11656872682068335,0.08681216169908122,0.07759052572861366,0.16475712177112461
85,1790596935.0686486,0.25334516601562496,0.14552138671874998,-0.058486376953125176,0.29796124483753855,0.12388504999292012,0.09743528486885857,0.07985183953909507,0.17668462476118663
86,1790596935.0935116,0.24855512695312496,-0.046080175781250024,-0.06806645507812517,0.261793957228996,0.13255195910135067,0.10884594346925262,0.08200533541788887,0.19011137869238218
87,1790596935.1135116,0.25334516601562496,-0.28558212890625,-0.20697758789062518,0.43425873322609415,0.13923077457802788,0.11615044439986352,0.08306521426800237,0.19943912390820548
88,1790596935.1388829,0.3587260253906249,-0.39575302734375006,-0.3698389160156252,0.6496811862320709,0.1475970987225092,0.12273027749824711,0.08311046797031718,0.20917689751103966
89,1790596935.1588829,0.37788618164062493,-0.50592392578125,-0.43210942382812517,0.7651637335328416,0.15430785018602747,0.12578656378502556,0.08193786873584562,0.2152835028302226
90,1790596935.169099,0.39225629882812496,-0.60172470703125,-0.6764014160156252,0.986638993051727,0.15781169118338553,0.1262648741026252,0.080579376712151,0.21757845540776957
91,1790596935.189099,0.449736767578125,-0.8508067382812501,-0.7290918457031252,1.2073566935612647,0.16490512823706077,0.12488199519470933,0.07621058591031749,0.2204478792084123
92,1790596935.2143419,0.646128369140625,-1.12862900390625,-0.6237109863281252,1.4423247527284349,0.17458981447930944,0.11965092633545958,0.06896251823788507,0.22260677531145337
93,1790596935.2343419,0.808989697265625,-1.2340098632812502,-0.7386719238281252,1.6501154153601745,0.18329472448545198,0.11258406323906675,0.0620376725013105,0.22387675209587035
94,1790596935.2586415,0.962270947265625,-1.28670029296875,-0.8153125488281252,1.801748476384527,0.19551266112258212,0.10069194435223956,0.05205405002004774,0.22599489472144668
95,1790596935.2786415,1.120342236328125,-1.48788193359375,-0.8009424316406252,2.0274289515585444,0.20718423056624863,0.08821036401012404,0.04264514050364779,0.22918329285247413
96,1790596935.2899163,1.211352978515625,-1.58368271484375,-0.8919531738281252,2.184263593103088,0.21474872146426136,0.07963209022461956,0.036705047202889717,0.2319602199823134
97,1790596935.3099163,1.398164501953125,-1.5166221679687502,-0.8248926269531253,2.221588310398146,0.2300686114388054,0.06204745434630845,0.025173403993564436,0.23961459227029652
98,1790596935.348401,1.460435009765625,-1.70343369140625,-0.6285010253906252,2.330143836265073,0.26337686614181305,0.02399167405432192,0.0021171598848838506,0.2644758144114306
99,1790596935.368401,1.561025830078125,-1.9908360351562502,-0.6045508300781252,2.601098127175503,0.28262238448752325,0.0016398080217683297,-0.00991710349266839,0.28280107872044263
100,1790596935.379055,1.709517041015625,-2.07226669921875,-0.6189209472656252,2.756773644167756,0.29394996545357055,-0.011727602704150134,-0.016343761586396423,0.29463746774321603
101,1790596935.399055,1.599346142578125,-1.9477256835937502,-0.5566504394531252,2.580969417496772,0.31698808068424783,-0.03908725978210392,-0.02836179730353911,0.320645674724366
102,1790596935.4087572,1.537075634765625,-1.81839462890625,-0.4608496582031252,2.4251892587777935,0.32876997803478536,-0.05310932941372283,-0.03405776347049734,0.3347689211685889
103,1790596935.4287572,1.5418656738281251,-1.7225938476562501,-0.3363086425781252,2.3361898088951083,0.3540323577998085,-0.08298995812104448,-0.0452338419742587,0.36643190906084666
104,1790596935.453814,1.613716259765625,-1.57889267578125,-0.3794189941406252,2.289310162861799,0.38686485533388026,-0.1210146990382757,-0.058480474719010696,0.4095472373233513
105,1790596935.473814,1.517915478515625,-1.6315831054687502,-0.4943799316406252,2.282661242229639,0.4138377309700465,-0.15162855366155875,-0.06877844044320906,0.4460755090001387
106,1790596935.498848,1.345474072265625,-1.74175400390625,-0.5422803222656252,2.266732325877718,0.44791150459954565,-0.19053357491858428,-0.08168127613885229,0.49355809181448546
107,1790596935.518848,1.359844189453125,-1.5932627929687502,-0.5710205566406252,2.1711119324332815,0.47510819896481626,-0.2219556060211343,-0.09211324666357454,0.5324255271666686
108,1790596935.543666,1.359844189453125,-1.49267197265625,-0.5901807128906252,2.103701288541463,0.5088565628867827,-0.2608424125260414,-0.10527790659901652,0.5814268684737807
109,1790596935.5636659,1.216143017578125,-1.54536240234375,-0.5949707519531252,2.0545410654112857,0.5358377510674002,-0.2920364402880673,-0.11607326101172857,0.6211927074966286
110,1790596935.5742304,1.230513134765625,-1.62200302734375,-0.6476611816406252,2.136474058290235,0.5498907447864145,-0.3085520242126786,-0.12190490542940781,0.6422188013560891
111,1790596935.5942304,1.326313916015625,-1.7130137695312502,-0.6764014160156252,2.2695910763854155,0.5763393737847762,-0.34013061676681683,-0.1332749951993626,0.6823621725903285
112,1790596935.6190126,1.340684033203125,-1.74175400390625,-0.6811914550781252,2.301122005779073,0.6091532772299408,-0.37981182101118954,-0.14777377887739865,0.7329132447046645
113,1790596935.6390126,1.374214306640625,-1.74175400390625,-0.6285010253906252,2.305902320050937,0.635735174449688,-0.4122574358704356,-0.15968413484326416,0.7743477438358578
114,1790596935.6637852,1.465225048828125,-1.80881455078125,-0.6045508300781252,2.405031440330772,0.6689971474792271,-0.45301419714528945,-0.17451476127730448,0.8265799707555274
115,1790596935.6837852,1.618506298828125,-1.77049423828125,-0.28361821289062517,2.415502386216311,0.6964484425563153,-0.4863520825344131,-0.18602438537297147,0.8695883240235402
116,1790596935.6947649,1.6999369628906251,-1.58368271484375,-0.10159672851562518,2.3255447779696157,0.7119908476033726,-0.50467080637213,-0.19171240101170633,0.8935195770529811
117,1790596935.7147648,1.498755322265625,-1.4016612304687501,-0.10159672851562518,2.054566527582834,0.7408534532722181,-0.5375120117499459,-0.20082404289759878,0.9370769969466656
118,1790596935.7388957,1.412534619140625,-1.37292099609375,-0.029746142578125176,1.9700383104863934,0.7757226988319709,-0.5762141383223078,-0.2104062922211921,0.9889586677369009
119,1790596935.7588956,1.513125439453125,-1.4304014648437502,-0.06806645507812517,2.0833218638641173,0.8046763084657664,-0.6076844778541574,-0.21730363424125188,1.031506304142359
120,1790596935.7839074,1.599346142578125,-1.3968711914062502,-0.10638676757812518,2.126140953341515,0.841292674656409,-0.6464411319729699,-0.22496277355612132,1.0845587817278932
121,1790596935.8039074,1.455644970703125,-1.30586044921875,-0.1782373535156252,1.963655353608507,0.8707625373990758,-0.6768373150783197,-0.23059546658686006,1.1267255286140088
122,1790596935.8138683,1.201772900390625,-1.17173935546875,-0.3075684082031252,1.7064083763836315,0.8852235251590138,-0.6915561135566131,-0.23334293015831983,1.1473096664577305
123,1790596935.8338683,1.201772900390625,-1.01366806640625,-0.3315186035156252,1.6067624707597672,0.9135090208078605,-0.7199544005951672,-0.2389905822318687,1.1874129729917937
124,1790596935.8590531,1.235303173828125,-0.8460166992187501,-0.28361821289062517,1.5238626832198825,0.9483879352244577,-0.7538634278081401,-0.2461975022757464,1.2362697737924218
125,1790596935.879053,1.163452587890625,-0.84122666015625,-0.24050786132812518,1.4557225866859593,0.9755296050731833,-0.7792831486338535,-0.25184841795339696,1.273722050427236
126,1790596935.9038708,1.177822705078125,-0.8843370117187501,-0.28361821289062517,1.499919186348542,1.0085152566551505,-0.8093065272896708,-0.2587843113790993,1.318730221779961
127,1790596935.9238708,1.225723095703125,-0.86038681640625,-0.24050786132812518,1.51674210482414,1.0347155515354238,-0.8324894504160566,-0.2643215464250874,1.354083024614013
128,1790596935.9339285,1.335893994140625,-0.75979599609375,-0.06806645507812517,1.5383548880437141,1.0478472194468107,-0.8436211874212757,-0.2669212151902912,1.3714690803248748
129,1790596935.9539285,1.335893994140625,-0.76458603515625,-0.1447070800781252,1.5460092845004791,1.0740506693329983,-0.8647231513622193,-0.27163445938758873,1.4053882909442703
130,1790596935.9790027,1.254463330078125,-0.9274473632812501,-0.19739750976562517,1.572514748747913,1.1068458863222101,-0.8903925779055162,-0.27730050911082715,1.4473431974520603
131,1790596935.9990027,1.292783642578125,-1.09509873046875,-0.20218754882812517,1.7062856094138985,1.1329014481187725,-0.9108299036258032,-0.2817413879957281,1.4806940987923065
132,1790596936.0235188,1.283203564453125,-1.1573692382812502,-0.1686572753906252,1.7362488928973046,1.164786150596209,-0.9362659091916461,-0.2870503726023041,1.5217485159336661
133,1790596936.0435188,1.225723095703125,-1.14778916015625,-0.30277836914062517,1.7063094104914556,1.1906590609521437,-0.9573615052459563,-0.2914388870890036,1.5553606257270114
134,1790596936.0534105,1.211352978515625,-1.24837998046875,-0.4177393066406252,1.7889479429280282,1.203344045697119,-0.9680077603659043,-0.29381835577174603,1.572070336413653
135,1790596936.0734105,1.264043408203125,-1.2771202148437502,-0.3889990722656252,1.8385217048508935,1.2288575834995803,-0.9900926879360668,-0.29911782306321594,1.606189890175807
136,1790596936.0989296,1.283203564453125,-1.1238389648437501,-0.3985791503906252,1.7517108054277652,1.261403917458044,-1.0186404887630927,-0.30637280889296403,1.6500401771941726
137,1790596936.1189296,1.287993603515625,-0.9705577148437501,-0.3650488769531252,1.6535327281625316,1.286941977386999,-1.0407996609906995,-0.312351276235931,1.6843535576728923
138,1790596936.1434417,1.321523876953125,-0.9945079101562501,-0.2788281738281252,1.6772645859377397,1.3183439363097198,-1.0674968561300515,-0.3197631297705307,1.7262180428360712
139,1790596936.1634417,1.307153759765625,-0.9849278320312501,-0.23571782226562518,1.6535708868121852,1.3440653289177091,-1.0889814651286567,-0.3256753331407346,1.7602433531784047
140,1790596936.1737235,1.283203564453125,-0.9513975585937501,-0.2596680175781252,1.6183930862668399,1.357302500524363,-1.0998629129013207,-0.32864083925311544,1.7776313752661035
141,1790596936.1937234,1.240093212890625,-0.94181748046875,-0.2500879394531252,1.5771478436195536,1.3829738506787195,-1.1206941752717423,-0.33430865573786683,1.8111693414615861
142,1790596936.2186208,1.216143017578125,-0.93702744140625,-0.2548779785156252,1.5562734493284214,1.4147242080031825,-1.1462448896643487,-0.3412489097693489,1.8525044534927941
143,1790596936.2386208,1.254463330078125,-0.9897178710937501,-0.3219385253906252,1.6299889953627704,1.4401093626841832,-1.1665811169303348,-0.3468529620417031,1.8855061538340772
144,1790596936.2787328,1.297573681640625,-0.9849278320312501,-0.3171484863281252,1.6596275051879579,1.4910625720033668,-1.2071900797354158,-0.35832916998787473,1.9516596210161992
145,1790596936.2987328,1.283203564453125,-0.94181748046875,-0.24050786132812518,1.6098060708365893,1.5165283525245299,-1.2272907900180536,-0.3640294166412545,1.9845952593549332
146,1790596936.3082902,1.244883251953125,-0.9274473632812501,-0.28361821289062517,1.5780786461181213,1.5286845491667596,-1.2367954787578834,-0.3667205194749189,2.000255845271068
147,1790596936.3282902,1.249673291015625,-1.05677841796875,-0.29319829101562517,1.6626572697994138,1.5540487144561905,-1.2566778881733836,-0.3723724317200283,2.0329702283683204
148,1790596936.3387268,1.240093212890625,-1.0424083007812501,-0.3363086425781252,1.6545542436764613,1.5672479101286316,-1.2671399112640236,-0.3753720955611017,2.0500765294609598
149,1790596936.3587267,1.240093212890625,-0.99929794921875,-0.3698389160156252,1.6349949210226327,1.5924682449060692,-1.2872439690349704,-0.3813174430608244,2.0828718489704463
150,1790596936.383793,1.244883251953125,-1.0424083007812501,-0.31235844726562517,1.653456130687849,1.6240077235349484,-1.3124996269578213,-0.3889336686157302,2.12398817215362
151,1790596936.403793,1.259253369140625,-1.02803818359375,-0.2788281738281252,1.6493412943169399,1.649153958732198,-1.332733648448264,-0.3949857620788973,2.156826722190113
152,1790596936.4283648,1.307153759765625,-0.94181748046875,-0.2548779785156252,1.6311449666164333,1.6801436479904441,-1.357494161131879,-0.4022894949987186,2.1971595101803842
153,1790596936.4483647,1.287993603515625,-0.90349716796875,-0.2500879394531252,1.5930406877053163,1.7054766862217625,-1.3773927745680998,-0.40810005537573685,2.2298895124817397
154,1790596936.458495,1.192192822265625,-0.94181748046875,-0.19739750976562517,1.5320932311187367,1.7182677354197005,-1.3873617754423098,-0.410941673185138,2.2463503211438294
155,1790596936.478495,1.192192822265625,-0.9513975585937501,-0.24050786132812518,1.5441259894582606,1.74330966527486,-1.4069311174332828,-0.4163672038913865,2.2785840793613787
156,1790596936.503342,1.254463330078125,-0.9322374023437501,-0.3075684082031252,1.5929039979119664,1.7743133489541827,-1.4311065440123156,-0.42311791837198903,2.31846556442819
157,1790596936.523342,1.278413525390625,-0.9274473632812501,-0.30277836914062517,1.6081587279800729,1.7993249385536934,-1.4504365503737489,-0.42865218017738843,2.3505486833359104
158,1790596936.5489068,1.220933056640625,-0.96097763671875,-0.2500879394531252,1.5737533239142922,1.8312924400538544,-1.4750595951589074,-0.4357252573979013,2.3915035668389093
159,1790596936.5689068,1.216143017578125,-0.9897178710937501,-0.22134770507812518,1.5835214271078637,1.8562055880176112,-1.4943593048050678,-0.44113581821591286,2.4234705954391758
160,1790596936.5779438,1.268833447265625,-0.9657676757812501,-0.1782373535156252,1.6044980756212022,1.867458329279562,-1.503097196056128,-0.44348470121288597,2.4379049351025337
161,1790596936.5979438,1.292783642578125,-1.00887802734375,-0.1734473144531252,1.6490022411948333,1.8924688426248257,-1.5224964436999358,-0.44843082836660114,2.469923875186087
162,1790596936.6238747,1.278413525390625,-1.13341904296875,-0.13033696289062519,1.7134665426443072,1.9250325225490372,-1.5480420206023098,-0.4544725791994319,2.5117184626598132
163,1790596936.6438746,1.302363720703125,-1.1956895507812502,-0.1590771972656252,1.7751423372622945,1.9502520538810517,-1.5682830627435242,-0.45886760147844663,2.544318045025435
164,1790596936.6688726,1.321523876953125,-1.22921982421875,-0.24050786132812518,1.820783008754811,1.981965019537716,-1.5943337588576203,-0.46428609464861154,2.5856618206927733
165,1790596936.6888726,1.331103955078125,-1.2387999023437501,-0.26445805664062516,1.8374985716983967,2.0075105223750644,-1.6157516943685544,-0.4687284168636309,2.6192476713890467
166,1790596936.6992152,1.350264111328125,-1.2771202148437502,-0.2548779785156252,1.8759562887859327,2.0208192482626823,-1.6271177662040592,-0.4710839340013455,2.6368812510463995
167,1790596936.7192152,1.350264111328125,-1.3202305664062501,-0.2548779785156252,1.905566766803596,2.0467454035578134,-1.6496960421572635,-0.47572029782137765,2.6715114785929024
168,1790596936.7436745,1.331103955078125,-1.33939072265625,-0.29319829101562517,1.9109606183845709,2.078615102462994,-1.678045647124539,-0.4815453284099833,2.7144730319777235
169,1790596936.7636745,1.302363720703125,-1.3154405273437502,-0.2788281738281252,1.8719722734331343,2.104715688434492,-1.7017317084875914,-0.4864519367261591,2.749973531428804
170,1790596936.7884388,1.345474072265625,-1.25317001953125,-0.21655766601562518,1.8513867234322312,2.1371040190472073,-1.731431640696089,-0.4925361533821533,2.794219207045103
171,1790596936.8084388,1.345474072265625,-1.28670029296875,-0.23571782226562518,1.8765556252876068,2.163374100745416,-1.7556295971903333,-0.4973912068194708,2.8301626799405115
172,1790596936.818965,1.326313916015625,-1.32981064453125,-0.26445805664062516,1.8966926524472691,2.177235644766005,-1.7685205096658656,-0.4999580491276015,2.849206538114766
173,1790596936.838965,1.335893994140625,-1.3585508789062501,-0.3075684082031252,1.9299926372612257,2.2036156132862152,-1.7933721199361874,-0.5049615877524628,2.8856700325554696
174,1790596936.8635182,1.335893994140625,-1.3489708007812502,-0.3506787597656252,1.9306244009366909,2.2360636284978477,-1.824291072054382,-0.5113950218299921,2.930792270806784
175,1790596936.8835182,1.335893994140625,-1.33460068359375,-0.29319829101562517,1.910951853418704,2.2625373603504366,-1.849723800711804,-0.5168151574803274,2.9677687499033105
176,1790596936.9089968,1.249673291015625,-1.37292099609375,-0.27403813476562516,1.8766172478954521,2.2961449662429025,-1.882437207100541,-0.5237682351223587,3.014993318201932
177,1790596936.9289968,1.182612744140625,-1.42561142578125,-0.24529790039062518,1.8684517387018367,2.3222172582244127,-1.90846223503444,-0.5291865121926927,3.0520418512259337
178,1790596936.954068,1.192192822265625,-1.38729111328125,-0.31235844726562517,1.8556584163118488,2.35446335971028,-1.9414817449379387,-0.5360084011195883,3.0984115420996385
179,1790596936.974068,1.1442924316406249,-1.2387999023437501,-0.3363086425781252,1.7196318996313251,2.379833189414971,-1.9678104077039635,-0.5416071171749325,3.1351590198080244
180,1790596936.9842377,0.991011181640625,-1.09030869140625,-0.3458887207031252,1.5134448162395622,2.3924270609345255,-1.980966521861547,-0.5445472966984418,3.153484954929963
181,1790596937.0042377,0.919160595703125,-1.09509873046875,-0.4512695800781252,1.4992470323704092,2.4163445273402013,-2.0062366993415495,-0.550657906167932,3.188562481466698
182,1790596937.0284858,0.962270947265625,-1.1573692382812502,-0.5374902832031252,1.598238009249242,2.4444141706604987,-2.0363751442142832,-0.5587533394644484,3.230199631611376
183,1790596937.0484858,1.077231884765625,-1.10467880859375,-0.5901807128906252,1.6519857982379553,2.4671526143987013,-2.060897810199314,-0.5661204273105654,3.264143707779572
184,1790596937.0740154,1.120342236328125,-1.01845810546875,-0.5566504394531252,1.6131594313145423,2.496031796465268,-2.091570364732531,-0.5763096539196174,3.307109634831291
185,1790596937.0940154,1.225723095703125,-1.0040879882812501,-0.5135400878906252,1.6656269742716858,2.5187813210403807,-2.115028804137899,-0.5846998674732992,3.340580805874662
186,1790596937.1039605,1.374214306640625,-1.02324814453125,-0.41294926757812517,1.7623929253874488,2.5303361085969063,-2.1264561327465787,-0.5889372104353255,3.357270251975586
187,1790596937.1239605,1.470015087890625,-1.0855186523437501,-0.3267285644531252,1.8563530531776207,2.5543538971521533,-2.149152853499882,-0.5972899282194619,3.3912146906315868
188,1790596937.148395,1.537075634765625,-1.1908995117187502,-0.3363086425781252,1.9733085559726453,2.5848064234978314,-2.1768944654358187,-0.6071790526167964,3.433476396094399
189,1790596937.168395,1.570605908203125,-1.4399815429687501,-0.3506787597656252,2.1594733977347307,2.610654830612837,-2.2001415943898097,-0.615089742969362,3.4690743825799397
190,1790596937.1941767,1.5418656738281251,-1.61242294921875,-0.3554687988281252,2.2591183214336206,2.6449958017885304,-2.23151614499609,-0.6251230703366296,3.516595789954293
191,1790596937.2141767,1.589766064453125,-1.6699034179687502,-0.42252934570312517,2.3440274343554095,2.6723371165392362,-2.2571274925367386,-0.6329058774987976,3.5547967637786195
192,1790596937.2242656,1.642456494140625,-1.77049423828125,-0.5470703613281253,2.4762066075300546,2.6865062354955414,-2.2707123566108867,-0.6369766520118745,3.5747992412204144
193,1790596937.2442656,1.5801859863281251,-1.89024521484375,-0.5901807128906252,2.5334419270027824,2.7152153743456378,-2.2990941619803826,-0.6455418436185131,3.6159304150657525
194,1790596937.2683659,1.675986767578125,-1.9237754882812501,-0.7386719238281252,2.656215349978363,2.7505067147591746,-2.335058549404891,-0.656716791426863,3.6672963557948486
195,1790596937.2883658,1.647246533203125,-1.8758750976562502,-0.8248926269531253,2.6292159228861727,2.7803855290775545,-2.3661267459866986,-0.6669447724481525,3.711322513319665
196,1790596937.314006,1.527495556640625,-1.8662950195312502,-0.7290918457031252,2.5194988975895174,2.81904990899137,-2.4071783842924432,-0.6810786635345516,3.7690076026868184
197,1790596937.334006,1.355054150390625,-1.8279747070312502,-0.5758105957031252,2.347173006440052,2.8490089650776973,-2.439937817977127,-0.6924070599309577,3.814390668944426
198,1790596937.3440938,1.196982861328125,-1.7609141601562501,-0.5806006347656252,2.2069625612688366,2.863784096581131,-2.4566980132052305,-0.6981387877079915,3.8371893681208795
199,1790596937.3640938,1.182612744140625,-1.6699034179687502,-0.6859814941406253,2.158175372450288,2.892252748694498,-2.4900887544435872,-0.7096978483986212,3.8819246519425037
200,1790596937.404247,1.201772900390625,-1.5501524414062502,-0.6811914550781252,2.0763555799001545,2.9480155068050546,-2.55676774996572,-0.7335407976901096,3.9706345660994384
201,1790596937.424247,1.019751416015625,-1.38250107421875,-0.5806006347656252,1.8133668321032335,2.9749564800511754,-2.5893971038940014,-0.7455280492167079,4.013870388044685
202,1790596937.4333045,0.823359814453125,-1.18131943359375,-0.3363086425781252,1.4786955370580124,2.9865793257093456,-2.60369925150721,-0.750765351722621,4.032685764400803
203,1790596937.4533045,0.9958012207031249,-0.8843370117187501,-0.1638672363281252,1.341836239110906,3.011122882407816,-2.633641309463439,-0.7613454622671517,4.072170732273763
204,1790596937.4642906,1.211352978515625,-0.5681944335937501,-0.2692480957031252,1.3648133535269054,3.0244010958018657,-2.6488183565778245,-0.7666422821207834,4.092796240123191
205,1790596937.4842906,1.010171337890625,-0.44844345703125005,-0.29319829101562517,1.1434653050724177,3.0482802177334523,-2.6738284246594155,-0.7756823022863989,4.128323359963713
206,1790596937.5090237,0.789829541015625,-0.35264267578125,-0.1734473144531252,0.8821969913427011,3.0767198735514056,-2.701603914815574,-0.7860503949792229,4.169261819111389
207,1790596937.5290236,0.7562992675781249,-0.055660253906250026,-0.020166064453125174,0.7586127577095207,3.0985867290800346,-2.7213075266602402,-0.7934672019198353,4.199564807549835
