imu_index,t_imu,ax,ay,az,mag,vx,vy,vz,velocity
0,1791341573.900817,0.0061312499999998694,0.037122802734375,0.054271142578124654,0.06603825880618715,0.0,0.0,0.0,0.0
1,1791341573.920817,-0.09445957031250013,0.094603271484375,0.08301137695312466,0.15736352214799423,-0.00012467501781927476,0.0002449204512398865,0.00027511922370959506,0.0003888707687116072
2,1791341573.94522,-0.03218906250000013,0.07544311523437501,0.04469106445312465,0.09340819355307886,-0.00048577593404387743,0.0008101597830430911,0.0007941794352296333,0.0012341224037745564
3,1791341573.96522,0.05403164062499987,0.013172607421875001,-0.0032093261718753488,0.05570669214194518,-0.0007045666513163262,0.001336847202583571,0.0012179960799567184,0.0019408990339511618
4,1791341573.9914684,-0.02739902343750013,0.017962646484375,0.015950830078124652,0.036438882175946576,-0.0008962110330094986,0.0019856927562358407,0.0017158725065572157,0.0027731549535888514
5,1791341574.0114684,-0.08008945312500014,0.061072998046875,0.015950830078124652,0.10197382297666592,-0.0011815633327885568,0.0025244751814613477,0.0020861778789588482,0.0034815520955260664
6,1791341574.0214834,-0.06571933593750014,0.013172607421875001,0.011160791015624652,0.06794933376017223,-0.0014125409646606297,0.0028095694434892957,0.002264158291143176,0.00387496647753055
7,1791341574.0414834,-0.003448828125000131,-0.001197509765625,-0.007999365234375349,0.008793081895870875,-0.001908366177159611,0.003311465431763429,0.0025710133407813415,0.004606275542167074
8,1791341574.0656738,-0.08966953125000013,0.027542724609375003,0.006370751953124652,0.09402027969513206,-0.0025870641006141646,0.003875259373623008,0.002883534437087008,0.005479535265276268
9,1791341574.0856738,-0.22379062500000013,0.061072998046875,0.006370751953124652,0.2320619344243526,-0.003534213397588605,0.004404392799261355,0.0031222729681297822,0.006452745830837755
10,1791341574.1113298,-0.14715000000000014,0.041912841796875,-0.01278940429687535,0.15353624220280646,-0.005280729954174439,0.00517951475031385,0.0033702380188761244,0.008128467641659896
11,1791341574.1313298,-0.03218906250000013,0.013172607421875001,0.0015807128906246515,0.03481597311812981,-0.006707002504277288,0.005775748565942033,0.0035177298125456946,0.009524577529918902
12,1791341574.1406586,0.01092128906249987,-0.034727783203125,0.035110986328124656,0.050577414345967575,-0.007287365859992571,0.005997059703161241,0.003601878624315214,0.010101680844540897
13,1791341574.1606586,-0.02739902343750013,0.07065307617187501,0.08780141601562466,0.11598125845250276,-0.00836968074070538,0.006454243700102778,0.003939591744818694,0.011279592215922283
14,1791341574.1859722,-0.060929296875000136,0.12334350585937501,0.11654165039062465,0.18029962820575687,-0.009701760418706316,0.007314402441998434,0.004690863189637714,0.01302416353434597
15,1791341574.2059722,-0.060929296875000136,0.104183349609375,0.11175161132812465,0.16448395723578454,-0.010779139137323169,0.0082333532437147,0.005537837646403604,0.014650788100832134
16,1791341574.2309365,0.02529140624999987,0.056282958984375006,0.03990102539062465,0.07348141621772572,-0.011988947666492281,0.009508791466885868,0.006720407978986697,0.016712745576793787
17,1791341574.2509365,0.03487148437499987,0.032332763671875,0.011160791015624652,0.04884660976231235,-0.012722547808032688,0.010510251226684907,0.007602296602981605,0.01816930150598571
18,1791341574.2606628,-0.051349218750000133,0.080233154296875,0.0015807128906246515,0.09527119169982132,-0.013037814335309695,0.011006335813291307,0.007976135302975758,0.01883461613753575
19,1791341574.2806628,-0.13756992187500014,0.099393310546875,0.03990102539062465,0.17434622282511442,-0.013872227969551416,0.012142851338591363,0.008691767783881482,0.02038220730635558
20,1791341574.3054383,-0.13756992187500014,0.108973388671875,0.03990102539062465,0.17997992852134498,-0.015262086768848071,0.013726735957332281,0.009593585347641693,0.0226581431808666
21,1791341574.3254383,-0.003448828125000131,0.032332763671875,0.015950830078124652,0.036217827133586,-0.016427281509087927,0.015025494738880719,0.010296155036114488,0.024528185388541488
22,1791341574.350649,0.07798183593749987,-0.0059875488281250005,0.006370751953124652,0.07847040179329126,-0.01753481585564347,0.0164668799282284,0.011091138050121139,0.026488511564617255
23,1791341574.370649,-0.003448828125000131,0.027542724609375003,0.035110986328124656,0.04475798761425071,-0.018169840156034678,0.017471155997625814,0.01168942718807276,0.02778537549097513
24,1791341574.3959532,-0.10882968750000013,0.056282958984375006,0.054271142578124654,0.1340038405051126,-0.019065843606718015,0.01871026385174742,0.012502471850792429,0.029493934430958744
25,1791341574.4159532,-0.04655917968750013,0.061072998046875,0.03032094726562465,0.08256529626114904,-0.01990088671314488,0.019718764724210355,0.013175585872390774,0.030959183408141314
26,1791341574.425664,0.06361171874999988,-0.0059875488281250005,0.006370751953124652,0.06420971876395745,-0.02023309692683476,0.02017510126148217,0.0134801089300009,0.03159313626290431
27,1791341574.445664,0.0061312499999998694,-0.001197509765625,0.03990102539062465,0.04038710293428508,-0.020710059251301375,0.020963199444997915,0.014082623282318213,0.032660106608443054
28,1791341574.4711792,-0.11840976562500014,0.06586303710937501,0.06864125976562466,0.15188954801055382,-0.021442139823248475,0.021941561838995163,0.014943702896983463,0.03412494325867076
29,1791341574.4911792,-0.15673007812500014,0.07544311523437501,0.059061181640624655,0.18369595586763116,-0.022342609445608428,0.02280537027169506,0.015708964277556168,0.03558157765953668
30,1791341574.5156403,-0.051349218750000133,0.041912841796875,0.03032094726562465,0.07288887718170742,-0.02366047054831563,0.02391867961015048,0.01666850446166368,0.03754677272215605
31,1791341574.5356402,-0.02260898437500013,0.027542724609375003,0.03990102539062465,0.0534963520307707,-0.024687297899864912,0.024796593155546203,0.017440700773331128,0.03909618591606128
32,1791341574.5454152,-0.08487949218750014,0.080233154296875,0.04948110351562465,0.12684741561245153,-0.02519267941966527,0.025240321422461274,0.017827025627383843,0.03986913297992049
33,1791341574.5654151,-0.16631015625000015,0.07544311523437501,0.054271142578124654,0.19051532385848072,-0.02644839397140442,0.0262455422551669,0.01865452778895805,0.04166938251238409
34,1791341574.5908606,-0.11840976562500014,0.07544311523437501,0.04469106445312465,0.1473425514696552,-0.02834972752724978,0.027620574102148913,0.019738276471626612,0.04422898057464101
35,1791341574.6108606,-0.08966953125000013,0.080233154296875,0.04469106445312465,0.12835604826019786,-0.02993211749272377,0.02877274009575876,0.020596396542494445,0.04634666957562303
36,1791341574.635305,-0.017818945312500133,0.07544311523437501,0.03032094726562465,0.08323784170316917,-0.03177310087948084,0.030255113947172983,0.021625406494292163,0.04891380240277238
37,1791341574.655305,-0.04655917968750013,0.056282958984375006,0.04469106445312465,0.08563188615908858,-0.03314999240186037,0.031483629854808716,0.022453556379498446,0.05093430218590727
38,1791341574.6654415,-0.08966953125000013,0.089813232421875,0.059061181640624655,0.1399830872978852,-0.03384673290083056,0.032123950940626506,0.02288920555664035,0.05197562200791905
39,1791341574.6854415,-0.07529941406250014,0.12334350585937501,0.059061181640624655,0.15611484673990614,-0.03526268164852864,0.03351756095279157,0.023797011212261937,0.05415885294119602
40,1791341574.7113945,0.0061312499999998694,0.06586303710937501,0.035110986328124656,0.07488867233946109,-0.03695911580641979,0.03542300754796195,0.02498163032985378,0.05696356343201143
41,1791341574.7313945,0.02529140624999987,0.027542724609375003,0.03032094726562465,0.048141632212620245,-0.038023194162282836,0.03681123740293367,0.025855737122482812,0.05890118534957288
42,1791341574.75627,0.0013412109374998694,0.003592529296875,0.03990102539062465,0.04008487171927893,-0.03909845649179814,0.03833696944473032,0.026910857716770813,0.06101316898260163
43,1791341574.77627,-0.051349218750000133,0.051492919921875005,0.06385122070312466,0.09677417761776708,-0.039908308489560375,0.039462291020847175,0.027787561024918514,0.06262662410529185
44,1791341574.7858298,-0.06571933593750014,0.061072998046875,0.054271142578124654,0.1048537034311842,-0.0403212841978088,0.040000212048365714,0.028228453646930586,0.063424510392841
45,1791341574.8058298,-0.04176914062500013,0.032332763671875,0.054271142578124654,0.07573259293030637,-0.04121689709215111,0.041096886804607595,0.029175290929085197,0.06510748276298559
46,1791341574.8306253,-0.03218906250000013,0.022752685546875002,0.04948110351562465,0.06326294372970524,-0.042298241399238844,0.04235501534017574,0.030366023002345807,0.06712066673472336
47,1791341574.8506253,-0.02260898437500013,0.027542724609375003,0.03990102539062465,0.0534963520307707,-0.04312181532638045,0.0432930397756203,0.03131646999181329,0.06866221335497454
48,1791341574.8755863,-0.060929296875000136,0.032332763671875,0.03990102539062465,0.079686125841118,-0.044151888093391975,0.04440022808231789,0.032474140693159396,0.07053608501846675
49,1791341574.8955863,-0.12798984375000014,0.051492919921875005,0.035110986328124656,0.14235765615576787,-0.045136809903454936,0.04528003031715752,0.033375104071034244,0.07212149697237086
50,1791341574.9056458,-0.10403964843750013,0.051492919921875005,0.011160791015624652,0.11662046349236356,-0.045732955882322124,0.0457338746706279,0.03379520647777217,0.07297401268258705
51,1791341574.9256458,-0.060929296875000136,-0.001197509765625,0.03032094726562465,0.06806741577587223,-0.046987852392477734,0.046576281649162464,0.03456737152621834,0.07464657700759623
52,1791341574.9502213,-0.051349218750000133,0.022752685546875002,0.04469106445312465,0.07177547079458052,-0.04850548709573627,0.04749587046744061,0.03551212508260498,0.07661430034750116
53,1791341574.9702213,-0.08487949218750014,0.080233154296875,0.03990102539062465,0.1234260064559221,-0.04975964766675174,0.04828647094478644,0.03629254256759469,0.07826081048801917
54,1791341574.995916,-0.08487949218750014,0.094603271484375,0.04469106445312465,0.13472786798397576,-0.05145636029043561,0.04948675050451771,0.03730779260918762,0.08055164107084135
55,1791341575.0159159,-0.03218906250000013,0.080233154296875,0.03990102539062465,0.0952133741670693,-0.05275453646621991,0.05054312996824784,0.03810638706754068,0.08239991407819641
56,1791341575.0414796,0.01092128906249987,0.051492919921875005,0.035110986328124656,0.06327382332213746,-0.05420572791145661,0.05194339855324936,0.03911784614458272,0.08465567599791415
57,1791341575.0614796,0.044451562499999875,0.027542724609375003,0.035110986328124656,0.06298670056871548,-0.0550877173856011,0.05299313665398845,0.03989580372300553,0.08622415145357322
58,1791341575.0707421,-0.02739902343750013,0.046702880859375004,0.04469106445312465,0.07020795402122897,-0.05542307443735909,0.05345795360752207,0.04025749177831531,0.08689151643442616
59,1791341575.090742,-0.07529941406250014,0.022752685546875002,0.020740869140624653,0.0813502926267591,-0.056192617375197276,0.054415235692253296,0.04101946145322729,0.08832453985632531
60,1791341575.1161509,-0.06571933593750014,-0.044307861328125,0.015950830078124652,0.0808495310544196,-0.057292358980643256,0.05540790171971891,0.041912213443136004,0.0900504503389734
61,1791341575.1361508,-0.013028906250000132,-0.034727783203125,0.020740869140624653,0.0424965289992378,-0.058146274738642735,0.05595350184929034,0.04256455590148933,0.0912333549436349
62,1791341575.1603627,-0.06571933593750014,0.032332763671875,0.035110986328124656,0.08122327304203564,-0.0591679574496313,0.05651057857862865,0.043337241122590166,0.09258730554547023
63,1791341575.1803627,-0.07050937500000014,0.037122802734375,0.03032094726562465,0.08525863175556335,-0.060089658369351776,0.05700590427550624,0.04397791740335038,0.09377898157022978
64,1791341575.190835,-0.056139257812500135,-0.001197509765625,0.025530908203124654,0.06168368966796249,-0.06059935529591644,0.057254576933857104,0.04430693246012654,0.09441118951788444
65,1791341575.210835,-0.02260898437500013,-0.0059875488281250005,0.054271142578124654,0.0590963098016561,-0.061544883313884934,0.057647476877091194,0.044960735082800365,0.09556396785190656
66,1791341575.2352467,-0.04655917968750013,0.061072998046875,0.07343129882812466,0.10625358323930476,-0.06265250441922192,0.058155964134314925,0.04587286086915363,0.09701428677629431
67,1791341575.2552466,-0.08966953125000013,0.089813232421875,0.059061181640624655,0.1399830872978852,-0.06362818060880938,0.05873639735393379,0.04670679225272171,0.09838716473323832
68,1791341575.2811599,-0.060929296875000136,0.051492919921875005,0.035110986328124656,0.08715894320548115,-0.06499539390270413,0.059650263905760684,0.04780823523881124,0.10034033371104602
69,1791341575.3011599,-0.02260898437500013,-0.001197509765625,0.020740869140624653,0.030704785568641958,-0.06601764057479463,0.06032523512264074,0.048614597766398523,0.10178822120291414
70,1791341575.3101382,-0.04655917968750013,-0.0059875488281250005,0.06385122070312466,0.07925015040630043,-0.06645428672264102,0.06057795302735374,0.04897925276099012,0.10239544822805463
71,1791341575.3301382,-0.08487949218750014,0.017962646484375,0.08780141601562466,0.12343530093566961,-0.06747820708809009,0.061074421419932974,0.049897183237001534,0.10379365240027758
72,1791341575.3553863,-0.12798984375000014,0.013172607421875001,0.07343129882812466,0.1481454465619029,-0.06898000803449028,0.06166611127667155,0.05118747315362973,0.10574075938955019
73,1791341575.3753862,-0.04176914062500013,-0.001197509765625,0.035110986328124656,0.054579084813906144,-0.07024583687673265,0.06208246973053594,0.05221906271038869,0.10731048949989441
74,1791341575.4002752,-0.003448828125000131,0.003592529296875,0.011160791015624652,0.012221454016570413,-0.0716692165630034,0.06252735742239324,0.05339663513747497,0.10907496354795185
75,1791341575.4202752,-0.04655917968750013,0.056282958984375006,0.011160791015624652,0.07389243493960808,-0.07271644269687938,0.06292104319906971,0.05423443739319873,0.11039978675298485
76,1791341575.430003,-0.060929296875000136,0.085023193359375,0.03032094726562465,0.10890676044117906,-0.07322781696898281,0.06318689802112822,0.05461107278581134,0.11107324849122081
77,1791341575.450003,-0.04655917968750013,0.108973388671875,0.04469106445312465,0.12665010025166898,-0.07428271808870668,0.06394249576272873,0.05538179199171384,0.11257756372930759
78,1791341575.4757743,-0.10882968750000013,0.132923583984375,0.059061181640624655,0.18166123207053766,-0.07573847902531111,0.0652376417879807,0.056426486812274634,0.11478769762086954
79,1791341575.4957743,-0.10403964843750013,0.19040405273437502,0.054271142578124654,0.22365891142855995,-0.07701806940042716,0.06657697049484708,0.05728561375035769,0.116815741906628
80,1791341575.520313,-0.14715000000000014,0.228724365234375,0.06385122070312466,0.27936523788250206,-0.07881484287213007,0.06874512058850807,0.05839898878520992,0.11978360886541256
81,1791341575.540313,-0.19984042968750015,0.199984130859375,0.07822133789062466,0.29334012278354216,-0.08058009856263647,0.07089023593336458,0.05938342250218363,0.122657933714559
82,1791341575.5508952,-0.21900058593750013,0.204774169921875,0.06385122070312466,0.306546400555349,-0.08170643196599164,0.07217623208248458,0.05993892406022459,0.12441070741594257
83,1791341575.5708952,-0.19026035156250015,0.228724365234375,0.054271142578124654,0.30242221073408126,-0.08412974180881858,0.07489239144308957,0.061008503136140646,0.12809653081873806
84,1791341575.5957794,-0.16152011718750015,0.243094482421875,0.059061181640624655,0.29777827123047435,-0.08734912090404379,0.07864551212799045,0.062351183157940485,0.13305132671934614
85,1791341575.6157794,-0.19505039062500015,0.300574951171875,0.09259145507812466,0.3700853059882607,-0.09008333718704095,0.0820250090957536,0.06349593135400132,0.13738574545572269
86,1791341575.6403391,-0.22379062500000013,0.33410522460937503,0.09738149414062465,0.41375318772213965,-0.09370878108196642,0.08672156184209923,0.06504073424333452,0.14329083031064135
87,1791341575.660339,-0.19984042968750015,0.329315185546875,0.09738149414062465,0.39732586647551393,-0.09685372010809257,0.09096759451990338,0.06640217429805885,0.1485429066062196
88,1791341575.6709156,-0.19984042968750015,0.324525146484375,0.12133168945312466,0.39996768232438384,-0.09858441513060014,0.09339484092858798,0.06718763439097404,0.15151125843901486
89,1791341575.6909156,-0.11840976562500014,0.34368530273437503,0.10217153320312465,0.37759698371155415,-0.10184360102440175,0.09829855988455954,0.06878538838791388,0.15737266471872433
90,1791341575.7154803,-0.13756992187500014,0.358055419921875,0.07822133789062466,0.3914687022502861,-0.10571780513323922,0.10471091114135458,0.07078579551418966,0.1647763881168017
91,1791341575.7354803,-0.18068027343750015,0.377215576171875,0.059061181640624655,0.4224040427042766,-0.10887631556952698,0.11025147209748686,0.07237609705118993,0.17101970242057318
92,1791341575.7605693,-0.21900058593750013,0.386795654296875,0.04469106445312465,0.4467319398317848,-0.11299625685372892,0.11759690921642141,0.07426703929636605,0.17920039131111606
93,1791341575.7805693,-0.24774082031250014,0.37242553710937504,0.06864125976562466,0.45253499011958065,-0.11648798469536017,0.12371290859812158,0.07571831446866724,0.18603117340427017
94,1791341575.805912,-0.24774082031250014,0.40116577148437504,0.08780141601562466,0.47960252179707424,-0.12119056898155277,0.1317706100706824,0.07757878448534418,0.19511308385317425
95,1791341575.825912,-0.21900058593750013,0.425115966796875,0.06864125976562466,0.4831112339915334,-0.12504519227815095,0.1384151690271976,0.07906145880860763,0.2025975651325864
96,1791341575.8344624,-0.19984042968750015,0.439486083984375,0.04469106445312465,0.484852046087834,-0.12671452832374247,0.14138420481199415,0.07967292945648545,0.20589764628767993
97,1791341575.8544624,-0.18547031250000015,0.444276123046875,0.07822133789062466,0.4877490010546501,-0.13061148100326297,0.1486129072678377,0.08107302865830551,0.21381765865403887
98,1791341575.879998,-0.25732089843750017,0.468226318359375,0.10696157226562465,0.5448767823266023,-0.1356887207543781,0.1582055491636837,0.08294716151022974,0.22432266120199823
99,1791341575.899998,-0.27648105468750017,0.5161267089843751,0.11654165039062465,0.5970012643235564,-0.13986952948694945,0.16606825432416752,0.08453009568308406,0.23299675416058557
100,1791341575.9254313,-0.23337070312500013,0.520916748046875,0.07343129882812466,0.5755069931116161,-0.14536117508226548,0.176545338938537,0.08660348808471101,0.2445368930665854
101,1791341575.9454312,-0.22858066406250013,0.549656982421875,0.07822133789062466,0.6004086075413761,-0.14972479615276726,0.18515423162795935,0.08821685204199474,0.2539327018265409
102,1791341575.9549825,-0.29085117187500015,0.5736071777343751,0.10696157226562465,0.6519665455151746,-0.15186821434592643,0.1894534864074771,0.08900442011893339,0.2586085165675639
103,1791341575.9749825,-0.31959140625000015,0.621507568359375,0.10217153320312465,0.7062926777716962,-0.15659886852253144,0.19889824222348332,0.09071988292238559,0.2689122785214165
104,1791341576.0004845,-0.29085117187500015,0.6167175292968751,0.08780141601562466,0.6874910935986382,-0.16289367670398522,0.2115030835690381,0.09294251216268352,0.2826768735437417
105,1791341576.0204844,-0.3052212890625001,0.650247802734375,0.08301137695312466,0.7230996673775412,-0.16798399573015113,0.22180610132565182,0.0946803682625404,0.293906348249035
106,1791341576.0450332,-0.36749179687500017,0.722098388671875,0.11654165039062465,0.8185708643536644,-0.17453341695663063,0.23508218942228332,0.09686092326720726,0.3083951813409334
107,1791341576.0650332,-0.33396152343750013,0.731678466796875,0.12133168945312466,0.8133910847657916,-0.18012105979666232,0.2464565226803549,0.09872776383605875,0.32082952654958935
108,1791341576.07576,-0.23337070312500013,0.746048583984375,0.08780141601562466,0.7866126514342984,-0.18312480086141464,0.25283074203731126,0.09974707597742438,0.3277309200788297
109,1791341576.0957599,-0.31001132812500015,0.779578857421875,0.09738149414062465,0.8445906546405088,-0.18870029298192653,0.26522123698887623,0.10164028684392812,0.3409997845029972
110,1791341576.1201952,-0.36270175781250014,0.822689208984375,0.09738149414062465,0.9043523954193269,-0.19572328917578058,0.28102516213017437,0.10396331884601358,0.3578981968962052
111,1791341576.1401951,-0.29085117187500015,0.7939489746093751,0.08780141601562466,0.8500932108414276,-0.20158961905906178,0.29444513953186574,0.10585726037063013,0.3722124047899168
112,1791341576.165401,-0.33396152343750013,0.798739013671875,0.11175161132812465,0.8729276795546399,-0.20905509318227547,0.3118321650855323,0.10826338739256083,0.3907227817994393
113,1791341576.185401,-0.35312167968750013,0.8753796386718751,0.09738149414062465,0.9489297064944718,-0.2151207757715452,0.32606994959037794,0.11019988937035192,0.40588492927387787
114,1791341576.1954646,-0.39144199218750014,0.918489990234375,0.09259145507812466,1.0027082691201592,-0.21827707833342344,0.33351349319233853,0.11117152840450586,0.4138058020314908
115,1791341576.2154646,-0.37707187500000017,0.928070068359375,0.06864125976562466,1.0040960478175396,-0.22476162148188394,0.3488573115390818,0.1130547152043395,0.43011693635030923
116,1791341576.255872,-0.35791171875000016,0.918489990234375,0.08301137695312466,0.9892499933196741,-0.23812504663302209,0.3808036154025175,0.11674833569807457,0.464052912097185
117,1791341576.275872,-0.36749179687500017,0.9376501464843751,0.09259145507812466,1.0113412853859327,-0.2448353364818634,0.39702809353729834,0.11856569908521607,0.4812831537126715
118,1791341576.285345,-0.41060214843750015,0.9568103027343751,0.10696157226562465,1.0466713226518016,-0.24808976416285142,0.40490615303631794,0.11943916013775137,0.4896562435254561
119,1791341576.305345,-0.4058121093750002,0.980760498046875,0.11654165039062465,1.0677811474830936,-0.25515463763163004,0.4219501266873653,0.12134188956644137,0.5078086772397322
120,1791341576.3155386,-0.34833164062500016,0.985550537109375,0.09259145507812466,1.0493893322359276,-0.25879189466267555,0.43083733255762424,0.1223260911413248,0.5172598229539792
121,1791341576.3355386,-0.34354160156250013,0.942440185546875,0.11175161132812465,1.0093080590048749,-0.26589560698167714,0.4485506310253958,0.12427397191602804,0.5360430603050663
122,1791341576.360933,-0.36749179687500017,0.947230224609375,0.09738149414062465,1.0206754991597495,-0.27491661514998966,0.47126700316862,0.12677456226058537,0.5601281310534427
123,1791341576.380933,-0.34354160156250013,0.9328601074218751,0.06385122070312466,0.9961555051338917,-0.28202216309942074,0.48929432159537434,0.12869039941710927,0.5792293608985036
124,1791341576.4050517,-0.28127109375000015,0.9136999511718751,0.07822133789062466,0.9592078016009917,-0.29043588661566205,0.5111133599495135,0.13091121200553527,0.6022687243929115
125,1791341576.4250517,-0.34833164062500016,0.928070068359375,0.13570180664062464,1.0005318405581147,-0.2973106836368265,0.5292551117368777,0.13279743110135722,0.6214014592928888
126,1791341576.4508848,-0.4249722656250002,0.961600341796875,0.14528188476562465,1.06131214538201,-0.3063568501392878,0.5528343131023031,0.1354127297637642,0.6463875809084172
127,1791341576.4708848,-0.38186191406250014,0.928070068359375,0.09259145507812466,1.007822281332148,-0.3135201026426065,0.5711855591559463,0.13749058659486577,0.6659215112545335
128,1791341576.4804475,-0.20942050781250013,0.8562194824218751,0.03990102539062465,0.8823609482510275,-0.31685543686428946,0.5799235084059174,0.13843008602790105,0.6751825917409157
129,1791341576.5004475,-0.22379062500000013,0.8131091308593751,0.08301137695312466,0.8474193715206378,-0.32343458724637225,0.5979612412192692,0.1402846337675554,0.6941522575768355
130,1791341576.5255265,-0.34833164062500016,0.889749755859375,0.11654165039062465,0.9625858487366684,-0.33152315362834833,0.6203898728656057,0.14263666466568933,0.7177300424622339
131,1791341576.5455265,-0.39144199218750014,0.928070068359375,0.10696157226562465,1.012907529330209,-0.33811570436337574,0.6383200049691694,0.14456625978906987,0.7366641444718095
132,1791341576.5700107,-0.3052212890625001,0.8753796386718751,0.07822133789062466,0.9303591375375834,-0.34625505658626415,0.6602893964014941,0.14691420698907307,0.7599068597052105
133,1791341576.5900106,-0.23337070312500013,0.808319091796875,0.06864125976562466,0.8441286997742665,-0.3527143065466373,0.6780688587170594,0.14876474113739013,0.7786627687325274
134,1791341576.599805,-0.25732089843750017,0.8370593261718751,0.08780141601562466,0.8801087710949963,-0.3557635245826393,0.6866785071347576,0.14964997523481965,0.7877119858628938
135,1791341576.619805,-0.3148013671875001,0.908909912109375,0.08301137695312466,0.9654574137772441,-0.3619141464543622,0.7042409754997837,0.15144266932347922,0.8061464402132513
136,1791341576.6459599,-0.33396152343750013,0.884959716796875,0.10217153320312465,0.9513795360879791,-0.37002366138468024,0.7272818994623829,0.1537986450603975,0.8303676863248896
137,1791341576.6659598,-0.36749179687500017,0.8562194824218751,0.12612172851562467,0.9402492825059581,-0.37634683656072526,0.7448697307597926,0.1556724140907349,0.8489415514040224
138,1791341576.6899526,-0.31959140625000015,0.8514294433593751,0.10217153320312465,0.9151556076237446,-0.38403091783086823,0.7658767795951664,0.15799388930532293,0.8712112582094569
139,1791341576.7099526,-0.19984042968750015,0.846639404296875,0.06864125976562466,0.8726087902308021,-0.39025458915494987,0.7833083388539037,0.15989498000594687,0.8896274516367303
140,1791341576.7206993,-0.2956412109375001,0.8322692871093751,0.10217153320312465,0.8891090563407933,-0.39349652353817216,0.7926231650369451,0.16090095219178918,0.8994332172018309
141,1791341576.7406993,-0.42018222656250015,0.846639404296875,0.11654165039062465,0.9523304787220443,-0.399698598691401,0.8098764337768936,0.16282034578884683,0.9176978112569781
142,1791341576.7660377,-0.42976230468750015,0.827479248046875,0.11654165039062465,0.9396805312202142,-0.40799272945344434,0.8316376573791614,0.16533025614119704,0.9409640556650848
143,1791341576.7860377,-0.28127109375000015,0.803529052734375,0.08301137695312466,0.8553731673785291,-0.41462395607603364,0.8486841534078892,0.1673135281957059,0.9592557708531658
144,1791341576.8107882,-0.19026035156250015,0.8131091308593751,0.08301137695312466,0.8391879102842392,-0.4224746139111936,0.8696162365802035,0.16970790979057063,0.9815895134774072
145,1791341576.8307881,-0.3148013671875001,0.8514294433593751,0.10217153320312465,0.9134938532904596,-0.42862446902106477,0.8864903471595014,0.17163027675963902,0.9995203964658016
146,1791341576.8409696,-0.37228183593750014,0.880169677734375,0.10696157226562465,0.9616304929200008,-0.43181024090679776,0.8951142226926233,0.1726218017175378,1.0087060236990828
147,1791341576.8609695,-0.26690097656250017,0.8705895996093751,0.09738149414062465,0.9157759210850047,-0.43808831477660737,0.9121396907715834,0.17458387061516442,1.0268396734172576
148,1791341576.885152,-0.17589023437500015,0.8514294433593751,0.10217153320312465,0.8753904807369252,-0.445343752891598,0.9327609926088468,0.17696233365245578,1.0486609533609692
149,1791341576.905152,-0.25732089843750017,0.865799560546875,0.11654165039062465,0.9107166848650653,-0.45109403559758077,0.9498333065311614,0.17896242776072974,1.0666286559518476
150,1791341576.9302478,-0.33875156250000016,0.8705895996093751,0.10217153320312465,0.9397435257777947,-0.4583490191853341,0.9713102884582349,0.18150732182453855,1.0892531421707692
151,1791341576.9502478,-0.29085117187500015,0.803529052734375,0.07822133789062466,0.8581211572212062,-0.4642079933042253,0.9883701049186402,0.18350183790949412,1.1072657539455384
152,1791341576.975103,-0.17589023437500015,0.731678466796875,0.054271142578124654,0.7544773755650022,-0.47126715647694856,1.0092529796893719,0.18585571756107738,1.1292593402473532
153,1791341576.995103,-0.23816074218750014,0.808319091796875,0.09259145507812466,0.8477461122506609,-0.4767164358758282,1.0258460789376114,0.18768597687034896,1.1466668059290814
154,1791341577.0060315,-0.36270175781250014,0.884959716796875,0.11175161132812465,0.9629094911298335,-0.4797399430431248,1.0349409215913419,0.18870356162946714,1.1562275547257135
155,1791341577.0260315,-0.36749179687500017,0.8562194824218751,0.10217153320312465,0.9373372098910174,-0.4855384356531867,1.0517001305282867,0.19060734555239334,1.1739471441373706
156,1791341577.0509562,-0.23816074218750014,0.769998779296875,0.08301137695312466,0.8102527679321017,-0.492812977451681,1.072493194432389,0.19297020266843737,1.195969808133332
157,1791341577.0709562,-0.16631015625000015,0.769998779296875,0.08780141601562466,0.7926324979742667,-0.4983813003823775,1.0889851433305542,0.1948380134831339,1.213356672402452
158,1791341577.0801792,-0.24774082031250014,0.846639404296875,0.11175161132812465,0.889191890196773,-0.5008503649779799,1.0965678785459652,0.1957081883328605,1.221316459947177
159,1791341577.1001792,-0.3052212890625001,0.865799560546875,0.11654165039062465,0.9253922793150517,-0.5062308351601101,1.113113179340847,0.19765455107970056,1.238692023891213
160,1791341577.12603,-0.2956412109375001,0.8131091308593751,0.12133168945312466,0.8736541439019386,-0.5133070935812227,1.1345459027588558,0.200254130548672,1.2612613902714669
161,1791341577.14603,-0.25732089843750017,0.8178991699218751,0.06385122070312466,0.8597965313473029,-0.5187900246177461,1.1510869992412534,0.20224143995265437,1.2786891606247541
162,1791341577.1701236,-0.19505039062500015,0.798739013671875,0.059061181640624655,0.8243281446252286,-0.5252218821516437,1.1709460548396153,0.20449851078793027,1.299535428431967
163,1791341577.1901236,-0.26211093750000014,0.803529052734375,0.09259145507812466,0.8502554085090053,-0.5304458140072456,1.1873616085740495,0.20631853373397963,1.3167261250827762
164,1791341577.214703,-0.3148013671875001,0.841849365234375,0.11175161132812465,0.9057034156737357,-0.5369664114459243,1.2075429982394343,0.20859648493866462,1.3379108763841345
165,1791341577.234703,-0.29085117187500015,0.846639404296875,0.12612172851562467,0.9040461135876848,-0.5423847426407863,1.2240338220336946,0.2105287983478705,1.355272069167562
166,1791341577.244872,-0.21900058593750013,0.808319091796875,0.11654165039062465,0.8455311745169801,-0.5451153118353826,1.2324230938751106,0.2115489874098092,1.364100567989106
167,1791341577.264872,-0.22379062500000013,0.827479248046875,0.07822133789062466,0.8607686840769195,-0.5503443026779232,1.248901479306399,0.21354662356481427,1.3813891258221536
168,1791341577.2908335,-0.24774082031250014,0.846639404296875,0.06864125976562466,0.8848081246798595,-0.557031885899057,1.2703427637934033,0.21603669330580036,1.4038258838919544
169,1791341577.3108335,-0.33396152343750013,0.880169677734375,0.07822133789062466,0.9446414867245292,-0.5622835864857078,1.286973107666455,0.21788752874762363,1.4212450832532824
170,1791341577.3353245,-0.34833164062500016,0.8562194824218751,0.09738149414062465,0.9294782887944981,-0.5690031889728401,1.3074726116601212,0.2201365633004067,1.442813004448017
171,1791341577.3553245,-0.26211093750000014,0.8131091308593751,0.16923208007812465,0.8709122224263397,-0.5745831285951933,1.3242059197081926,0.22209760528437664,1.4604774684087103
172,1791341577.36598,-0.18068027343750015,0.884959716796875,0.25066274414062467,0.9373531206875898,-0.5774638914310896,1.333140703624928,0.22332123422694788,1.4698983145867448
173,1791341577.38598,-0.17589023437500015,1.052611083984375,0.3560436035156247,1.1250308957000446,-0.5825948113154203,1.350301907835135,0.22618351110426432,1.4879149630171438
174,1791341577.4110823,-0.07050937500000014,0.9711804199218751,0.36562368164062464,1.0401171359894832,-0.5885326348375743,1.3724205217972247,0.23059580433829263,1.5109874836997985
175,1791341577.4310822,-0.06571933593750014,0.765208740234375,0.29377309570312465,0.8222931831203165,-0.5927582265278801,1.390004404802091,0.23457301851596862,1.5292151782863608
176,1791341577.4557855,-0.20463046875000013,0.722098388671875,0.2985631347656247,0.8077373688919188,-0.5976955210518174,1.4112211435807755,0.23984610272165632,1.5512289337701262
177,1791341577.4757855,-0.24295078125000014,0.9520202636718751,0.34167348632812466,1.0402444115742546,-0.6017645779550421,1.4283329894163481,0.24443522195440745,1.5690775359007445
178,1791341577.4853473,-0.12319980468750014,0.9711804199218751,0.11175161132812465,0.9853212788472093,-0.603680723448992,1.4366660226452337,0.24662529571050523,1.5777400650840643
179,1791341577.5053473,-0.17110019531250015,0.789158935546875,0.06864125976562466,0.8104065183176061,-0.6075289081924274,1.4541219163095478,0.25078963985293085,1.5957623147695892
180,1791341577.5309432,-0.2956412109375001,0.765208740234375,0.24108266601562467,0.8550257268578951,-0.6126110672907514,1.4760948159214307,0.2559143003405902,1.6185303069377632
181,1791341577.5509431,-0.49203281250000014,1.014290771484375,0.5476451660156246,1.2533145198055076,-0.6171679854017047,1.4933577627124928,0.2605010272320224,1.6367267685375588
182,1791341577.5907423,-0.36749179687500017,1.215472412109375,0.5093248535156247,1.3681502884471832,-0.627441497650903,1.529213199514298,0.2714143229861391,1.6750646486823093
183,1791341577.6107423,-0.15194003906250014,1.244212646484375,0.44226430664062466,1.3291909577146088,-0.632608910828747,1.5482181479879586,0.2775032510338698,1.6953411226515933
184,1791341577.605231,-0.10882968750000013,1.239422607421875,0.4374742675781247,1.3188616437908882,-0.632608910828747,1.5482181479879586,0.2775032510338698,1.6953411226515933
185,1791341577.625231,-0.04176914062500013,1.191522216796875,0.3895738769531247,1.2542877101500194,-0.6369007459607817,1.5687622689478042,0.28426473819447445,1.7168180037675618
186,1791341577.6504333,-0.13277988281250014,1.057401123046875,0.3991539550781247,1.1380033005905577,-0.6418276480422955,1.595017877969913,0.2929977815459476,1.7440964597252056
187,1791341577.6704333,-0.12319980468750014,0.841849365234375,0.33209340820312466,0.9133315812959308,-0.6455350178829014,1.6155772529026804,0.2999854530451468,1.765445153905482
188,1791341577.6952786,-0.08966953125000013,0.6981481933593751,0.24587270507812467,0.7455903109804932,-0.6498463979388333,1.64015612537029,0.3084409204683255,1.7909629415270174
189,1791341577.7152786,-0.013028906250000132,0.664617919921875,0.21234243164062466,0.6978366858760039,-0.6529504283024947,1.6590179159943543,0.31491374126775756,1.810484844413208
190,1791341577.7258613,0.03008144531249987,0.8131091308593751,0.19318227539062466,0.8362838893366752,-0.654332976533365,1.6686741550263788,0.31814685220769967,1.8203962479091413
191,1791341577.7458613,0.06361171874999988,0.942440185546875,0.17881215820312465,0.9613603601237242,-0.6564133568924758,1.6868192204084675,0.32389849986191094,1.8387897692936719
192,1791341577.7710123,0.05403164062499987,0.966390380859375,0.09259145507812466,0.9723183449671416,-0.6584152015162614,1.7098155047497836,0.33055850177144724,1.8617863897246216
193,1791341577.7910123,0.08277187499999987,0.7747888183593751,-0.08943002929687535,0.7843128371292748,-0.659563076107824,1.7279708374475486,0.3350648486126888,1.8796742056031526
194,1791341577.8159468,0.19773281249999988,0.726888427734375,-0.21397104492187535,0.7831019471168942,-0.6602549311553204,1.7500186514818503,0.33927292069284976,1.900949228507886
195,1791341577.8359468,0.21210292968749989,0.8705895996093751,-0.12775034179687536,0.9051154918347443,-0.6601118743852308,1.7674467307746184,0.341629338693692,1.9173748297833053
196,1791341577.8604212,0.2791634765624999,0.966390380859375,-0.07984995117187535,1.0090681986695151,-0.6590613139927037,1.7889466821281617,0.3436993290575017,1.9372199864480346
197,1791341577.8804212,0.3318539062499999,0.798739013671875,-0.21876108398437535,0.8921700728677927,-0.6574150662055418,1.8065283082253956,0.34468923481643565,1.953087239805761
198,1791341577.8904362,0.4803451171874999,0.611927490234375,-0.33372202148437535,0.8464969418338332,-0.6561042963353837,1.8150713108592311,0.34469559236500846,1.9605539427850132
199,1791341577.9104362,0.3510140624999999,0.741258544921875,-0.3289319824218754,0.883669254615342,-0.652632291961595,1.8316024109086708,0.34371240393022373,1.9745466610776745
200,1791341577.9355369,0.38454433593749987,0.678988037109375,-0.36246225585937536,0.8603940886372489,-0.6475436955461665,1.8519111657374083,0.34136197071568875,1.9913351798417491
201,1791341577.9555368,0.4037044921874999,0.444276123046875,-0.3672522949218754,0.7037278157407971,-0.6429149642078988,1.8673505928216834,0.33867551947613167,2.003756221501599
202,1791341577.980334,0.5426156249999999,0.42032592773437505,-0.3864124511718754,0.7876675595964078,-0.6362768705438755,1.8852299062762075,0.33444265850171967,2.017620367495581
203,1791341578.000334,0.6671566406249999,0.520916748046875,-0.38162241210937536,0.9284868911029087,-0.6299113984853821,1.898899121575256,0.3303887246500381,2.0277482470062616
204,1791341578.0104415,0.6815267578124999,0.511336669921875,-0.3193519042968754,0.9099063415534872,-0.6261545952848528,1.905553518863011,0.32811589347205977,2.0324526636545586
205,1791341578.0304415,0.7581673828125,0.444276123046875,-0.3097718261718754,0.9317497722887709,-0.6176764328780561,1.918179066591769,0.3233495001674065,2.040953210267776
206,1791341578.0555317,0.858758203125,0.35326538085937503,-0.44389291992187535,1.0292244677935745,-0.605593193216922,1.9331429201091703,0.31684870596683157,2.05040917080268
207,1791341578.0755317,0.7916976562499999,0.281414794921875,-0.47263315429687536,0.9640340057556466,-0.5949304612939506,1.9442337621466745,0.31106927736913015,2.0568790122341656
208,1791341578.100991,0.7342171874999999,0.26225463867187504,-0.4199427246093754,0.8855530847316108,-0.580479510077616,1.957272392154776,0.30311148911478486,2.0639157573759186
209,1791341578.120991,0.7198470703125,0.195194091796875,-0.28103159179687537,0.797031551256148,-0.5686490523862376,1.9666648758349559,0.29674635832079654,2.068620525809251
210,1791341578.131022,0.7054769531249999,-0.077838134765625,-0.40557260742187534,0.8174629328020344,-0.5625332187530371,1.9707573434660488,0.29351624445080815,2.07038158675702
211,1791341578.151022,0.7725374999999999,-0.269439697265625,-0.48221323242187536,0.9497060286697115,-0.5499514071088636,1.9771721253762344,0.2867103404432358,2.072162875563326
212,1791341578.1757154,0.7246371093749999,-0.192799072265625,-0.3959925292968754,0.8479861471797626,-0.5339743344458533,1.9830482024442837,0.2779412718620094,2.0724044281145195
213,1791341578.1957154,0.6815267578124999,-0.07304809570312501,-0.27624155273437534,0.7390021254078838,-0.5208658359372037,1.986694758133637,0.2708959447767796,2.071627836735821
214,1791341578.221119,0.7869076171874999,-0.379610595703125,-0.26187143554687536,0.9120879623770788,-0.5039154957273205,1.98976932750202,0.26226421257922716,2.0692741047772656
215,1791341578.241119,0.8108578124999999,-0.6334826660156251,-0.3959925292968754,1.10254286242916,-0.49017570765330715,1.9903071862631017,0.25550107534821664,2.0656417210077986
216,1791341578.2505233,0.5713558593749999,-0.652642822265625,-0.3001917480468754,0.9178808512505441,-0.48370915663252073,1.989615017197345,0.2523068880009584,2.063056283914732
217,1791341578.2705233,0.5042953124999999,-0.729283447265625,-0.12775034179687536,0.895817089865071,-0.4704063637790059,1.9862909242910771,0.2458909747218651,2.0559903099126116
218,1791341578.2955017,0.7246371093749999,-0.7723937988281251,-0.28582163085937534,1.0969891181860516,-0.45398208792326317,1.979948911794479,0.23830517293323683,2.0452595886385785
219,1791341578.3155017,0.7054769531249999,-1.026265869140625,-0.4199427246093754,1.3142569221829656,-0.4406587636950543,1.9729346310779226,0.23208372630323262,2.0348253145030966
220,1791341578.3403347,0.6911068359374999,-1.169967041015625,-0.46305307617187536,1.4355729473261318,-0.4239962023870875,1.9614413224125185,0.2238730440318919,2.0191938937977567
221,1791341578.3603346,0.5809359374999999,-1.251397705078125,-0.4582630371093754,1.4537839560727415,-0.4106813956588222,1.9499412666494826,0.21687025741741445,2.0044856848266996
222,1791341578.3712242,0.6144662109374999,-1.534010009765625,-0.6546546386718753,1.7774498953218414,-0.403542927635336,1.9423440942864694,0.21272039314178154,1.9951935847712665
223,1791341578.3912241,0.5042953124999999,-1.687291259765625,-0.4965833496093754,1.8297159835887673,-0.3907207028036825,1.9256519652519357,0.20451505579387302,1.9755061546156765
224,1791341578.4155402,0.4851351562499999,-1.687291259765625,-0.49179331054687536,1.823230258472538,-0.3756653491467693,1.9022475060045674,0.19423287277468212,1.9486909548505804
225,1791341578.4355402,0.4132845703124999,-1.7160314941406252,-0.5588538574218753,1.8514550653192219,-0.36379214075668226,1.8807798749056195,0.18546836825193025,1.9245976657858548
226,1791341578.4604943,0.20731289062499988,-1.8741027832031252,-0.5109534667968754,1.953538666589617,-0.35003853336473256,1.8512932533441915,0.1741709735591277,1.8921282231255863
227,1791341578.4804943,0.07319179687499987,-1.821412353515625,-0.49179331054687536,1.8880573775623914,-0.3402481226648206,1.825662205618356,0.16497049727230162,1.8644105070961399
228,1791341578.4904354,0.16420253906249987,-1.663341064453125,-0.47263315429687536,1.736965189366569,-0.3359347044895695,1.8122349883115385,0.16036426224310013,1.8500714783882783
229,1791341578.5104353,0.2456332031249999,-1.735191650390625,-0.43431284179687535,1.8055064050322465,-0.3279437022422123,1.7841757057483194,0.1511268578591282,1.820348688572938
230,1791341578.5356574,0.2743734374999999,-1.7591418457031252,-0.44389291992187535,1.8349119163780403,-0.3183941646400189,1.747487802318189,0.13956366450614513,1.7817313152599785
231,1791341578.5556574,0.2600033203124999,-1.9507434082031252,-0.48221323242187536,2.0262110385505805,-0.31115609330951394,1.7171948771337993,0.13038077065666476,1.750021572957096
232,1791341578.581068,0.18336269531249988,-1.9938537597656252,-0.41515268554687534,2.0448536489638,-0.3024943445866628,1.6769623100896696,0.1187534710477226,1.7081591860403638
233,1791341578.601068,0.07319179687499987,-1.8836828613281251,-0.3001917480468754,1.908856528602017,-0.2963147155482781,1.6442300156663807,0.10990167416011908,1.6743276659757853
234,1791341578.626101,0.06361171874999988,-1.9220031738281251,-0.19960092773437535,1.9333864542093333,-0.28948334209765064,1.6022609370085352,0.09954586927347724,1.6312418875522132
235,1791341578.646101,0.14983242187499987,-1.974693603515625,-0.19960092773437535,1.9904032538063425,-0.28452396989573675,1.5679145696286045,0.09191440875613759,1.5961698674125735
236,1791341578.6549742,0.18815273437499988,-1.907633056640625,-0.19960092773437535,1.9272534500146228,-0.2824288028321152,1.55237847228416,0.08877082486738404,1.5803560387545967
237,1791341578.6749742,0.16899257812499988,-1.7926721191406252,-0.30498178710937535,1.8262655088113289,-0.277879008295132,1.517062807610774,0.08199123941283262,1.5444801289843202
238,1791341578.715603,0.2264730468749999,-1.811832275390625,-0.27624155273437534,1.846709406096453,-0.26881768979954807,1.4450986471242975,0.06851363831084988,1.471484681844915
239,1791341578.735603,0.2168929687499999,-1.7926721191406252,-0.22355112304687536,1.8195304315270047,-0.2643611966663658,1.4095805892420787,0.06212464046965264,1.4355012193740564
240,1791341578.7455614,0.14983242187499987,-1.7112414550781252,-0.16128061523437537,1.7253430120046291,-0.26220119330858876,1.3919314286041256,0.05913322631675811,1.4176456913358142
241,1791341578.7655613,0.14025234374999987,-1.787882080078125,-0.15170053710937537,1.799779460142582,-0.2580786758592639,1.356553465940426,0.0535570440973223,1.3819226700002776
242,1791341578.775741,0.2360531249999999,-1.735191650390625,-0.21397104492187535,1.7641980471229886,-0.2560078069738911,1.3385577366829253,0.05086538027544432,1.3637683449090108
243,1791341578.795741,0.2695833984374999,-1.615440673828125,-0.22834116210937536,1.6536213187077744,-0.25179104503982314,1.3034793002426723,0.045706890121630706,1.3283622007298928
244,1791341578.8206515,0.14983242187499987,-1.7160314941406252,-0.15649057617187537,1.7296540532597957,-0.24654319193852126,1.2601177949691145,0.03952664681507415,1.2846177480081384
245,1791341578.8406515,0.2264730468749999,-1.969903564453125,-0.22355112304687536,1.9954411038217823,-0.2423973691154253,1.2249971043626062,0.03473891567539139,1.249232237221387
246,1791341578.8799872,0.2695833984374999,-2.0082238769531253,-0.22834116210937536,2.039063028695095,-0.23400305121254927,1.1545471963502902,0.025401766895796967,1.178296187865567
247,1791341578.8999872,0.15941249999999987,-1.7639318847656251,-0.21397104492187535,1.7839987800763824,-0.2297317296242886,1.1184421614899724,0.0207030013554593,1.141979925593989
248,1791341578.8948047,0.02529140624999987,-1.744771728515625,-0.17565073242187534,1.7537734231245055,-0.2297317296242886,1.1184421614899724,0.0207030013554593,1.141979925593989
249,1791341578.9148047,0.03487148437499987,-1.8357824707031252,-0.16607065429687537,1.8436086250562995,-0.2263199582710156,1.0825118547860095,0.01629879436896495,1.1060372009846335
250,1791341578.940378,0.01571132812499987,-1.692081298828125,-0.12296030273437536,1.6966158091105525,-0.2225148082012696,1.0366940649499718,0.010957659307829475,1.0603619638919772
251,1791341578.960378,-0.11840976562500014,-1.625020751953125,-0.09901010742187535,1.6323346220200559,-0.22013935788343647,1.0012607480088391,0.0070741503436120914,1.0251997200524567
252,1791341578.9855344,-0.08966953125000013,-1.744771728515625,-0.18044077148437535,1.756367809280241,-0.2179922309716509,0.9570192265367118,0.0023948378481038245,0.9815356070837381
253,1791341579.0055344,0.03008144531249987,-1.783092041015625,-0.28103159179687537,1.805353393569592,-0.21663065101118606,0.9218303831239463,-0.0014595047941350341,0.9469436225891255
254,1791341579.015088,-0.003448828125000131,-1.648970947265625,-0.27145151367187537,1.6711681553979782,-0.21605872384950517,0.9050834477592095,-0.003420357064168022,0.9305208855268219
255,1791341579.035088,-0.11840976562500014,-1.6777111816406252,-0.20918100585937535,1.694842876142119,-0.21522381348984365,0.87029361382209,-0.007630483002621388,0.8965436344224845
256,1791341579.060673,-0.23816074218750014,-1.8309924316406252,-0.17565073242187534,1.8547525451242524,-0.21500017719944964,0.825731764517918,-0.01294685116678275,0.8533613795367141
257,1791341579.080673,-0.20942050781250013,-1.744771728515625,-0.11338022460937536,1.7609487241405752,-0.21552295266321855,0.7907588755327075,-0.01691287317777839,0.8197778892099686
258,1791341579.1055567,-0.09445957031250013,-1.739981689453125,-0.0032093261718753488,1.742546753986891,-0.21664294484476657,0.7472694087450885,-0.021324769315512006,0.778331857618334
259,1791341579.1255567,-0.03697910156250013,-1.941163330078125,0.035110986328124656,1.9418329766880824,-0.2176052546672386,0.7120367278192199,-0.024291019309338482,0.7449418784317219
260,1791341579.1356277,0.05403164062499987,-2.2141955566406253,-0.08463999023437535,2.216471364394901,-0.21800426184848454,0.6938177920641557,-0.025598043009109544,0.7277116507070496
261,1791341579.1556277,0.0061312499999998694,-2.309996337890625,-0.20918100585937535,2.3194562652714543,-0.21858754447877687,0.6562778211974061,-0.028245039123231924,0.6922997005863492
262,1791341579.180213,-0.08008945312500014,-2.242935791015625,-0.19002084960937535,2.252394993425225,-0.21933337238337353,0.6086581597550327,-0.031746902247151806,0.6477497583787559
263,1791341579.200213,-0.09445957031250013,-2.281256103515625,-0.20918100585937535,2.2927731491500096,-0.22011091398827765,0.5689442665056306,-0.03476714103206476,0.6110279428487116
264,1791341579.2258003,-0.02739902343750013,-2.4201672363281252,-0.21397104492187535,2.429762080193533,-0.22119031366992278,0.5167346488530028,-0.03886358592798514,0.563427218456667
265,1791341579.2458003,-0.051349218750000133,-2.568658447265625,-0.12775034179687536,2.5723458381027435,-0.22202557928895614,0.4745638205498148,-0.04209780839154732,0.5256219203047042
266,1791341579.2708824,-0.16631015625000015,-2.520758056640625,-0.08943002929687535,2.527820796324486,-0.22332541646324625,0.42003610932356444,-0.045954010287996935,0.47792922680634325
267,1791341579.2908823,-0.31001132812500015,-2.281256103515625,-0.04631967773437535,2.302690154132452,-0.2249208928566424,0.375875671649531,-0.04877126509334335,0.4407386582547762
268,1791341579.3004274,-0.35791171875000016,-2.185455322265625,0.07343129882812466,2.215786072635468,-0.22604627818099127,0.3547636197454737,-0.049894722614731914,0.42360787188057564
269,1791341579.3204274,-0.3243814453125001,-2.142344970703125,0.22192250976562466,2.178098917841124,-0.22907404971790032,0.31067095764085795,-0.05145259163728252,0.38940818348083
270,1791341579.3455358,-0.4249722656250002,-2.041754150390625,0.2985631347656247,2.106775114393766,-0.23371612788112114,0.25574025875840556,-0.05213486232897463,0.35034890074270525
271,1791341579.3655357,-0.6788443359375002,-1.888472900390625,0.3368834472656247,2.0348587137651046,-0.23851484121013947,0.21265325414208072,-0.05164363516983343,0.3236939928825823
272,1791341579.3905609,-0.6980044921875002,-1.663341064453125,0.2889830566406247,1.8268620568711103,-0.2462027904944717,0.16016090600065036,-0.049946501921626064,0.2979294931899507
273,1791341579.4105608,-0.5734634765625002,-1.371148681640625,0.19797231445312466,1.499367234337839,-0.25333254159066393,0.1199502564006857,-0.048063178907633536,0.2843861983396573
274,1791341579.4202454,-0.6405240234375001,-1.2370275878906252,0.28419301757812465,1.4217151434247375,-0.257148876902058,0.10150535346949051,-0.04693779684903709,0.28041404823581406
275,1791341579.4402454,-0.9566666015625002,-1.189127197265625,0.4087340332031247,1.5799677173032483,-0.2662437383081278,0.06548850885414376,-0.043922946174437455,0.27767552679497814
276,1791341579.4949555,-0.9997769531250001,-1.031055908203125,0.31293325195312466,1.46988348586493,-0.29541875972574255,-0.027367258203675512,-0.033951675488370914,0.29862003731824543
277,1791341579.5149555,-1.0189371093750001,-0.662222900390625,0.20276235351562466,1.2320245836290962,-0.3075123284509032,-0.05876007498877426,-0.03007977829440415,0.3145176809405523
278,1791341579.5094817,-0.9470865234375002,-0.159268798828125,0.15007192382812465,0.9720396162083925,-0.3075123284509032,-0.05876007498877426,-0.03007977829440415,0.3145176809405523
279,1791341579.5294816,-0.9422964843750001,0.214354248046875,0.18839223632812466,0.9845618532270779,-0.32159068140504593,-0.08240615793860395,-0.026324773541115832,0.33302302463156347
280,1791341579.5404572,-0.9279263671875002,0.405955810546875,0.18360219726562466,1.0293479634600375,-0.3296972292414428,-0.09292556993625196,-0.024266986563866413,0.3434010936999948
281,1791341579.5604572,-0.6788443359375002,0.731678466796875,0.09738149414062465,1.0028290814539194,-0.3446635248686677,-0.10751252050843671,-0.020658228043945553,0.3616333085141458
282,1791341579.5851753,-0.5159830078125002,0.9951306152343751,0.059061181640624655,1.1225023959461142,-0.36260092210267336,-0.11963512313838998,-0.016577140591503385,0.38218685611652997
283,1791341579.6051753,-0.5064029296875001,1.253792724609375,0.04469106445312465,1.3529365893202225,-0.3764710515475077,-0.1245991336542358,-0.013614720118741713,0.39678805093473263
284,1791341579.6313405,-0.47287265625000013,1.4932946777343752,0.04948110351562465,1.5671585507484131,-0.39381669322269763,-0.12472836624091624,-0.01013563443528902,0.4132208662342625
285,1791341579.6513405,-0.4249722656250002,1.766326904296875,-0.02715952148437535,1.8169341757478965,-0.4064332030263606,-0.1199229030307848,-0.007841733902950173,0.4238289088585187
286,1791341579.6602595,-0.09445957031250013,1.914818115234375,-0.21876108398437535,1.9295873747305057,-0.4115630515527827,-0.11563894419016427,-0.007136715264233942,0.4275598712714012
287,1791341579.6802595,-0.10403964843750013,2.063309326171875,-0.26666147460937534,2.083069361772594,-0.4216385033893239,-0.1015063561256217,-0.0065210537460564585,0.4337338953969927
288,1791341579.7052553,-0.27648105468750017,2.226170654296875,-0.41515268554687534,2.2813656673077363,-0.4330552409100835,-0.0784515623436061,-0.007145209529385568,0.4401619512555146
289,1791341579.7252553,-0.20942050781250013,2.087259521484375,-0.4965833496093754,2.1557143322409154,-0.44154876994444275,-0.05630154661434372,-0.008937309056145539,0.44521349472335475
290,1791341579.750072,0.2312630859374999,2.029779052734375,-0.7696155761718754,2.183069800286505,-0.4504663503176814,-0.025276774085490776,-0.013184180428431537,0.45136755608956924
291,1791341579.770072,0.6240462890624999,2.115999755859375,-0.8654163574218754,2.3697751389916637,-0.4552921129454856,0.002194493737286394,-0.018545919988730116,0.4556749664633292
292,1791341579.7802615,0.5905160156249999,2.005828857421875,-0.6498645996093754,2.1896078570834145,-0.4564537496345323,0.017241042654780804,-0.022025851624535887,0.45730997938710494
293,1791341579.8002615,0.63841640625,2.039359130859375,-0.5396937011718754,2.2040486527010397,-0.4565484007966622,0.04841213632253028,-0.029616025584078755,0.4600622633782277
294,1791341579.8251755,1.0743099609375,1.996248779296875,-0.6594446777343754,2.360935908491798,-0.45344830368097183,0.08895830237134585,-0.03989351184557004,0.46381077602759
295,1791341579.8451755,1.63474453125,1.751956787109375,-0.8893665527343754,2.555917669149969,-0.44726938724706244,0.12224711571246646,-0.04922952713648209,0.46628082569462526
296,1791341579.8702807,1.6491146484374999,1.603465576171875,-0.8941565917968753,2.467832447374243,-0.4344934913844803,0.16408330251741993,-0.06254899224078367,0.4686366403204472
297,1791341579.8902807,1.471883203125,1.5028747558593751,-0.8270960449218754,2.2603452309252,-0.4211608154871172,0.19707213564397988,-0.07415012962190368,0.47086314452502853
298,1791341579.8998516,1.797605859375,1.234632568359375,-0.9228968261718754,2.3680040025876474,-0.4133907224004389,0.21245572285212336,-0.08012518665704482,0.4716453848774535
299,1791341579.9198515,2.5975423828125,0.841849365234375,-1.2007190917968753,2.9828950906222422,-0.3929965534094207,0.24289519322577094,-0.09392366803676759,0.47145097444097955
300,1791341579.9450898,2.63107265625,0.683778076171875,-1.1623987792968755,2.9565633262337894,-0.3612241101367938,0.278433228751531,-0.11319737833140261,0.4699165533136959
301,1791341579.9650898,2.3676205078125,0.549656982421875,-1.0809681152343753,2.660120623861407,-0.33232481262822733,0.3042210700526685,-0.1295448006731345,0.46879856648012397
302,1791341579.9898906,2.5735921875,0.348475341796875,-1.3348401855468754,2.920035981345487,-0.2926730254190043,0.3330729112532435,-0.15126908468857386,0.4684841512806416
303,1791341580.0098906,3.0286458984375,-0.029937744140625,-1.6270325683593754,3.438142990794395,-0.25708989367589347,0.35332755015543665,-0.1706030548703724,0.4690852518042196
304,1791341580.0502594,3.349578515625,-0.384400634765625,-1.7228333496093755,3.786237556053642,-0.17672969572236644,0.3868234610825208,-0.21391612656644404,0.4760523969051848
305,1791341580.0702593,3.2681478515625,-0.5760021972656251,-1.6605628417968754,3.7108001647197235,-0.13296207458149617,0.3994885538858787,-0.23723108444210755,0.48326866791508877
306,1791341580.0651414,3.28251796875,-0.724493408203125,-1.9144349121093756,3.868446192775549,-0.13296207458149617,0.3994885538858787,-0.23723108444210755,0.48326866791508877
307,1791341580.0851414,3.6321908203125,-0.906514892578125,-2.2545276855468757,4.370065730687088,-0.0826158240594777,0.4045344430026542,-0.2648876972292764,0.49054967343167505
308,1791341580.1259837,3.828582421875,-1.0071057128906251,-2.3599085449218755,4.608847319929622,0.027628788759252634,0.4074313439406777,-0.3270288353498896,0.5231744538334373
309,1791341580.1459837,3.8142123046875,-1.112486572265625,-2.3646985839843753,4.623596140646214,0.08498061273012475,0.4054577494867798,-0.35998104260636804,0.5488205919923554
310,1791341580.1551979,3.761521875,-1.289718017578125,-2.5467200683593756,4.722097255198536,0.11267502215829196,0.4030248125545082,-0.37627929838472174,0.5627706198317983
311,1791341580.1751978,4.0824544921875,-1.577120361328125,-2.8245423339843754,5.2088177844274375,0.1755367201746332,0.3942358291631261,-0.4144062068571642,0.5983038804882915
312,1791341580.1851487,4.4273373046875,-1.907633056640625,-3.0736243652343753,5.717302355729322,0.20847271842048803,0.3879181307165946,-0.43493245301520683,0.6189568556451331
313,1791341580.2051487,4.43212734375,-2.233355712890625,-3.1167347167968753,5.86051753912609,0.278029453730049,0.3709135566150787,-0.4792848295239317,0.6667767178254358
314,1791341580.2307768,4.221365625,-2.2141955566406253,-2.9778235839843754,5.620500244667932,0.37042322947059414,0.34384359362810424,-0.5393076016369722,0.7391173621245387
315,1791341580.2507768,4.384226953125,-2.252515869140625,-3.0065638183593757,5.7736210224698485,0.44461954030161394,0.3191871056300489,-0.5880993206302176,0.8033851846681205
316,1791341580.2757528,4.7722201171875005,-2.429747314453125,-3.1215247558593755,6.1985218931955215,0.5405294300345145,0.2842438752811184,-0.6513699776458323,0.8928882870474879
317,1791341580.2957528,4.58540859375,-2.329156494140625,-2.8053821777343755,5.858422237171325,0.6198471531711435,0.25332133393154377,-0.7033256520211073,0.9711071847690879
318,1791341580.3058252,4.35548671875,-2.1279748535156253,-2.6664710449218756,5.532504800522928,0.6605557808087659,0.23671692692159116,-0.7297004870709165,1.0123396879914435
319,1791341580.3258252,4.47044765625,-2.204615478515625,-2.8772327636718753,5.755319281475936,0.742501355363772,0.202193674447616,-0.7825306157950817,1.0975175212087946
320,1791341580.3500643,4.527928125,-2.429747314453125,-2.8724427246093756,5.886996884950723,0.843276919401806,0.15820421427922618,-0.8474066691642642,1.2059198145629668
321,1791341580.3700643,4.3602767578125,-2.228565673828125,-2.7814319824218754,5.631596775349259,0.9272878098069937,0.12036489462217506,-0.9013880703964161,1.2987882211996815
322,1791341580.3951628,4.288426171875,-2.314786376953125,-2.8532825683593757,5.6471281566344596,1.0331816298009673,0.07144970373106238,-0.9695762290929438,1.4186780481643932
323,1791341580.4151628,4.1111947265625,-2.3674768066406253,-2.6568909667968756,5.4374569533140615,1.1175060031697106,0.0312946388611571,-1.0240272981043423,1.516057693099003
324,1791341580.425537,4.31716640625,-2.228565673828125,-2.3742786621093757,5.407553042473688,1.1612432165540971,0.010013872754465112,-1.0519498545968862,1.5669028630476294
325,1791341580.445537,4.6285189453125,-2.0944445800781253,-2.0533460449218754,5.479609083349986,1.2463322417394511,-0.03134261938489494,-1.104346917843682,1.6655054882947795
326,1791341580.470448,4.7722201171875005,-1.586700439453125,-1.9144349121093756,5.381148963200429,1.353980887241313,-0.08200492954525793,-1.1672335781691423,1.7895315804673677
327,1791341580.490448,4.7051595703125,-1.222657470703125,-2.2162073730468754,5.342751444070443,1.441659694785483,-0.12079248338623139,-1.2163453297794076,1.8900977384484012
328,1791341580.5154545,4.5806185546875,-1.414259033203125,-2.7574817871093753,5.530452130050847,1.5522582432275351,-0.16696057797348557,-1.2778683549873378,2.0175056433485183
329,1791341580.5354545,4.1111947265625,-2.036964111328125,-2.9347132324218754,5.446437976063451,1.640483244984809,-0.2035234807395335,-1.3282313275438187,2.120567269330789
330,1791341580.560859,4.0920345703125,-2.448907470703125,-2.7622718261718755,5.511083411304994,1.751368814722493,-0.25154717560154144,-1.3934623994943602,2.2521780936551536
331,1791341580.580859,4.115984765625,-2.415377197265625,-2.8676526855468754,5.567657453620153,1.837882503133288,-0.29097977370611183,-1.4455581749028692,2.3562936491570943
