imu_index,t_imu,ax,ay,az,mag,vx,vy,vz,velocity
0,1790995019.9924102,-0.0713715820312499,0.054989648437500004,0.020836669921874565,0.09247665094690892,0.0,0.0,0.0,0.0
1,1790995020.0124102,0.03879931640625011,0.021459375000000003,-0.036643798828125435,0.05752095028369282,-0.00013985703214915656,0.00018478516068903264,2.8560580672619412e-06,0.00023176216714581652
2,1790995020.03714,-0.004311035156249891,0.002299218750000002,0.025626708984374566,0.026088304742711784,-0.0002228823590570523,0.00042306280711559813,-1.4575906787524197e-05,0.00047840478864873956
3,1790995020.0571399,-0.05700146484374989,0.011879296875000002,0.08789721679687457,0.10543341694744797,-0.00037192521041833223,0.0006081300170107452,0.00014372654528594782,0.0007271917213184179
4,1790995020.0671973,0.06753955078125011,0.002299218750000002,0.049576904296874565,0.08381376239171508,-0.0004276834156693506,0.0006979304938957275,0.00031508958838040056,0.0008770983565449584
5,1790995020.0871973,0.08190966796875011,0.002299218750000002,0.0016765136718745644,0.08195908010527705,-0.00029775721468500946,0.0008566167928985788,0.000681622500872974,0.0011344870746152857
6,1790995020.1124132,-0.12406201171874989,0.026249414062500004,0.030416748046874567,0.13040549471580887,-0.00023823660391681634,0.001080667855580966,0.0011351212010558811,0.0015852759490443068
7,1790995020.1324131,-0.1575922851562499,0.035829492187500006,0.016046630859374564,0.16240866729679157,-0.0006205901531351761,0.001324836449303601,0.0015105551018928351,0.002102879091014552
8,1790995020.1574867,-0.009101074218749892,0.007089257812500002,-0.007903564453125437,0.013984043025248251,-0.001341505324010366,0.0016657381804067945,0.0019259403715513384,0.0028781185755254075
9,1790995020.1774867,-0.023471191406249894,0.0454095703125,0.011256591796874564,0.05234153953482993,-0.0018791479456780067,0.0019756195105223224,0.0022126033008916476,0.003511393287459972
10,1790995020.1875358,-0.11448193359374989,0.11247011718750001,0.03520678710937457,0.164302033578707,-0.0022127412164523208,0.002226957121791696,0.00237005206555127,0.003933536386854644
11,1790995020.2075357,-0.12406201171874989,0.12205019531250001,-0.017483642578125437,0.1749094356669253,-0.0031348936539690904,0.003003922925657268,0.0026629914750523854,0.0050933912829456435
12,1790995020.2321768,-0.047421386718749896,0.0933099609375,0.0016765136718745644,0.10468212563078277,-0.004417527905854916,0.004215598852032193,0.0029405580240604613,0.006777367333495244
13,1790995020.2521768,-0.009101074218749892,0.059779687500000005,0.054366943359374566,0.08131546667008863,-0.005387207777006192,0.005281174836339672,0.00321611778266605,0.008200989505944032
14,1790995020.2773142,-0.042631347656249895,0.10768007812500001,0.044786865234374564,0.1241704245201577,-0.0065206885706326975,0.006735286985165097,0.003697445077787765,0.010077428754943952
15,1790995020.2973142,-0.06179150390624989,0.0645697265625,0.03520678710937457,0.09605705284838245,-0.0074438751804925315,0.007977051092004904,0.004142948352856558,0.011670845851164612
16,1790995020.3073063,-0.018681152343749893,0.04061953125000001,-0.012693603515625436,0.04647643856915047,-0.00789622774119327,0.008583215410794773,0.0043490098631956756,0.012447324456246344
17,1790995020.3273063,-0.004311035156249891,0.031039453125000005,-0.04622387695312544,0.05584513832908981,-0.008700320854045662,0.009721994527847697,0.004611214124719352,0.013837487353810072
18,1790995020.3519237,0.010059082031250109,-0.0216509765625,0.016046630859374564,0.028765331205435046,-0.009530984117011856,0.010930766996628498,0.004829826739384248,0.015285566777381404
19,1790995020.3719237,0.02921923828125011,-0.0599712890625,0.03520678710937457,0.07543100991050847,-0.010045695213990671,0.011643071923224736,0.005057673419893655,0.016188180149852485
20,1790995020.3975067,0.10106982421875012,-0.122241796875,-0.022273681640625438,0.1601695450598076,-0.010355341009501565,0.012067929456503484,0.005330221604857266,0.01677138250553891
21,1790995020.4175067,0.03400927734375011,-0.0599712890625,-0.012693603515625436,0.0701021684933779,-0.010358482921692712,0.012076928934709838,0.005458879647558882,0.01682111018748655
22,1790995020.4275713,0.01963916015625011,-0.007280859374999999,0.0016765136718745644,0.021012335019539106,-0.0103193305995867,0.012030013467850507,0.005505596412474538,0.016778599462329492
23,1790995020.4475713,0.08190966796875011,-0.0168609375,-0.003113525390625436,0.08368499841959648,-0.010100875841644567,0.011914556522593628,0.00558234955664927,0.01658755486715928
24,1790995020.4727676,0.03879931640625011,-0.012070898437499998,-0.03185375976562544,0.05163095538421623,-0.009638838186957932,0.01173624693251124,0.005598461726349625,0.016186088698528736
25,1790995020.4927676,-0.1096918945312499,0.011879296875000002,0.006466552734374565,0.11052260277592853,-0.009433439581815717,0.011615653831852396,0.005571251852729402,0.015967217775546733
26,1790995020.5175412,-0.1288520507812499,0.069359765625,0.06873706054687456,0.16167378133362698,-0.009660399103346089,0.011639627688826164,0.005682332955403829,0.01615837712725158
27,1790995020.5375412,0.04358935546875011,0.069359765625,0.054366943359374566,0.09831873436928198,-0.00994403577234989,0.011864157977941367,0.005943214166961807,0.016582035056099103
28,1790995020.5475187,0.0052690429687501095,0.0454095703125,0.03520678710937457,0.057700171129185046,-0.010027749557338848,0.012045253499214962,0.006120869870611075,0.016825841465377418
29,1790995020.5675187,-0.1959125976562499,0.0933099609375,0.03999682617187457,0.2206541203657901,-0.010456347711408362,0.012561886495304103,0.006536368255735799,0.017602849478347792
30,1790995020.5925462,-0.1959125976562499,0.1412103515625,0.03999682617187457,0.24478941033600218,-0.011647715632466877,0.0135516232106443,0.007128474729681514,0.019238786943822486
31,1790995020.6125462,-0.009101074218749892,0.11247011718750001,0.020836669921874565,0.11474547322460407,-0.012764474660909755,0.014604424003826985,0.007621914279522955,0.020840215717140766
32,1790995020.6370463,-0.004311035156249891,0.10289003906250001,0.03520678710937457,0.10883227012686092,-0.013951952237968879,0.01609638617663896,0.008238691866219396,0.022839147594964405
33,1790995020.6570463,-0.1288520507812499,0.069359765625,0.06394702148437456,0.1596961165301517,-0.014975655497578661,0.01738999314769423,0.008815387851599455,0.024584409332606257
34,1790995020.6672087,-0.0857416992187499,0.04061953125000001,0.03520678710937457,0.10119833576918708,-0.0155813516982832,0.018032526199970294,0.009140035803452533,0.025524317353978383
35,1790995020.6872087,0.057959472656250115,-0.0216509765625,-0.003113525390625436,0.06194965130699767,-0.016636257373770225,0.019135833511242217,0.009731259484950438,0.02715957648307025
36,1790995020.7120752,0.010059082031250109,-0.0216509765625,0.011256591796874564,0.026394332276130927,-0.017624259908684176,0.020221084683767612,0.01037126958792418,0.028758825358181
37,1790995020.7320752,-0.0905317382812499,0.031039453125000005,0.03520678710937457,0.1019752967393997,-0.018420414553961054,0.020977096979992976,0.010878506099465925,0.02996151139385208
38,1790995020.757761,-0.03305126953124989,0.007089257812500002,0.03520678710937457,0.04880739546958271,-0.019527608894741005,0.021875847979603485,0.01156787642037559,0.031522944006703614
39,1790995020.777761,0.08669970703125011,-0.026441015624999998,0.011256591796874564,0.09133825795069424,-0.02017992623114032,0.02244165331467376,0.01209382702336807,0.03251334923168361
40,1790995020.787502,0.01963916015625011,-0.012070898437499998,0.006466552734374565,0.023942002944568545,-0.020372293796304734,0.022647758297988343,0.01232451653004153,0.03286099539189772
41,1790995020.807502,-0.11448193359374989,0.050199609375,0.025626708984374566,0.12760424018870287,-0.020850275169972874,0.023064643020837595,0.012775252675099097,0.0336142650262487
42,1790995020.832765,-0.1288520507812499,0.0166693359375,0.049576904296874565,0.1390632488862262,-0.0218245272296529,0.02363894307252265,0.01340169032223419,0.034852760606254606
43,1790995020.852765,-0.02826123046874989,0.035829492187500006,0.011256591796874564,0.04700170759561172,-0.022715789003450657,0.024104148275833723,0.013914481859646798,0.035925337014078344
44,1790995020.8773425,0.053169433593750114,0.026249414062500004,-0.012693603515625436,0.0606394918969204,-0.023600833855434412,0.024704503800564603,0.014447464085184058,0.03709502776918509
45,1790995020.8973424,-0.1049018554687499,0.0645697265625,0.03999682617187457,0.12951214218352525,-0.024290611117114343,0.02525599367096138,0.014857078577697372,0.038060895793640935
46,1790995020.9218554,-0.1767524414062499,0.10768007812500001,0.06873706054687456,0.21808532335006087,-0.02552703817479169,0.02614721493005554,0.015483721078146894,0.03968692662580012
47,1790995020.9418554,-0.06179150390624989,0.050199609375,0.06394702148437456,0.10211470165026065,-0.026742326709126713,0.027002103958350548,0.01611732905558163,0.041279946122556144
48,1790995020.9523993,0.07232958984375011,-0.007280859374999999,-0.003113525390625436,0.07276176551295134,-0.0272785798183343,0.027419130351479967,0.016449363295661403,0.042029884355888225
49,1790995020.9723992,-0.042631347656249895,-0.002490820312499998,-0.007903564453125437,0.043429279522942975,-0.028098642416837093,0.02807685152293396,0.016968182073902414,0.04319447302610901
50,1790995020.9975,-0.1671723632812499,0.069359765625,0.030416748046874567,0.1835280760383549,-0.029368436330585963,0.028904380383102255,0.017564030408425163,0.04479356451570729
51,1790995021.0175,-0.0953217773437499,0.04061953125000001,0.06873706054687456,0.12434215314030016,-0.030622171869778538,0.02962981054142878,0.018116311828461722,0.0463016612769918
52,1790995021.0423784,0.08669970703125011,0.0166693359375,0.006466552734374565,0.08852413379507464,-0.03196388108275263,0.030503729523800722,0.018840581088023115,0.048032642072531447
53,1790995021.0623784,0.02442919921875011,-0.007280859374999999,-0.022273681640625438,0.033851345343070806,-0.03271400493858,0.0311149787506096,0.019311778258743337,0.049104916263926116
54,1790995021.0719402,-0.1384321289062499,0.031039453125000005,0.06394702148437456,0.15561530618977917,-0.033100592502112836,0.031380413792755656,0.019533146779149576,0.04961777319561307
55,1790995021.0919402,-0.1096918945312499,0.0454095703125,0.10705737304687457,0.15986125836336457,-0.03416009626489154,0.03196700696306247,0.020183226539796782,0.05095256955797125
56,1790995021.116937,0.08669970703125011,0.026249414062500004,0.030416748046874567,0.09555652515488527,-0.03532877884053049,0.03272452513397019,0.02113157790439859,0.0525885989957579
57,1790995021.136937,0.057959472656250115,0.0166693359375,0.025626708984374566,0.06552782191220503,-0.03590659675764897,0.03330408188106657,0.021860604974077227,0.053631442368165375
58,1790995021.1626122,-0.11927197265624989,0.059779687500000005,0.025626708984374566,0.13585338682668424,-0.03665517858313255,0.034083708724693115,0.022754816157582704,0.054982569744933235
59,1790995021.1826122,-0.1336420898437499,0.0645697265625,0.05915698242187457,0.15977799077289373,-0.037530196123152185,0.03478643482960653,0.023474061676840196,0.05629958473030531
60,1790995021.1918614,0.06274951171875011,0.031039453125000005,0.03520678710937457,0.07836113022286913,-0.03792333588377807,0.03512899391582172,0.02382225048008525,0.05691858427638209
61,1790995021.2118614,0.0052690429687501095,-0.002490820312499998,0.06394702148437456,0.06421205927517634,-0.03854389627262095,0.035801438022848305,0.024610949630210904,0.05807816927279293
62,1790995021.252541,-0.1623823242187499,0.002299218750000002,0.22680834960937457,0.278953998139607,-0.040096125067340754,0.036963434408882744,0.026861610555565116,0.06079096026840221
63,1790995021.272541,-0.1623823242187499,0.11726015625000001,0.26033862304687455,0.32847246781488443,-0.04123194569891068,0.03762836987591918,0.02853287819825091,0.06269045145724444
64,1790995021.2827413,0.010059082031250109,0.19390078125000004,0.13100756835937458,0.23422570539568877,-0.0418408673372261,0.038154671314935724,0.029556779555245764,0.06387519346631779
65,1790995021.3027413,0.07232958984375011,0.30886171875,0.30823901367187456,0.44231032140973076,-0.04273212680215475,0.03978596003762312,0.03192210558997738,0.06654305450194213
66,1790995021.3273165,0.010059082031250109,0.5962640625000001,0.3992497558593746,0.7176575680044667,-0.0435111472769775,0.043158032767314496,0.035696569251311705,0.07092306244105023
67,1790995021.3473165,0.3405717773437501,0.6824847656249999,0.3226091308593746,0.8281613623848513,-0.043524090996446045,0.04740879455289863,0.039390351929748164,0.07545555064523272
68,1790995021.3578682,0.04358935546875011,0.5579437500000001,0.2938688964843746,0.6321077348009496,-0.0432258793532948,0.050296683573536394,0.04153468521604793,0.07825192074548863
69,1790995021.3778682,-0.1096918945312499,0.5004632812500001,0.20764819335937457,0.5528232808147497,-0.04284457992742306,0.05653701284557426,0.04574172685382417,0.08440614566622404
70,1790995021.4019623,-0.12406201171874989,0.328021875,0.17890795898437456,0.3936975882808701,-0.04287653598470781,0.06442423330963717,0.050748268628838085,0.09254331928565789
71,1790995021.4219623,-0.1480122070312499,0.43340273437500004,0.16932788085937459,0.4882801192249332,-0.04330719403467444,0.07113132460035525,0.05480306809795289,0.09969229994090269
72,1790995021.4330919,-0.21986279296874991,0.4669330078125,0.17890795898437456,0.5462363401539688,-0.04381797236374686,0.07505536995130696,0.057011705445309,0.10394064565116147
73,1790995021.4530919,-0.1049018554687499,0.5435736328125,0.07831713867187456,0.5591156121765111,-0.04508530949061245,0.08256492890078647,0.060771135612634086,0.11199456924291194
74,1790995021.477154,0.20166064453125013,0.6010541015625,0.044786865234374564,0.6355618867233822,-0.04620672558258668,0.09231018993656719,0.06483785026869725,0.12190233583756951
75,1790995021.497154,0.2878813476562501,0.6872748046875,0.06394702148437456,0.7478713452481939,-0.04626469703035894,0.10112773676350732,0.0678740966944167,0.13028482005323247
76,1790995021.5227306,0.18250048828125012,0.5148333984375001,0.21722827148437457,0.5878332912498999,-0.045425405047347135,0.11301840189616927,0.07171387822857495,0.14134888369372595
77,1790995021.5427306,0.18250048828125012,0.5052533203125,0.3417692871093746,0.6367052626772851,-0.044320052206790236,0.122451894594812,0.0751045599660398,0.15033106280860264
78,1790995021.5671709,0.30225146484375015,0.6010541015625,0.19327807617187456,0.6999845682113269,-0.04228334674079991,0.1342784739352378,0.07960725942156353,0.16172787553972
79,1790995021.5871708,0.46511279296875013,0.5914740234375,0.14537768554687458,0.766358990316876,-0.039715625873694545,0.144293503509275,0.08324719487260997,0.17125431833293644
80,1790995021.597183,0.43158251953125015,0.280121484375,0.22201831054687457,0.5603781289374914,-0.03794967899171376,0.149209557432643,0.08507193024026316,0.17590026571788775
81,1790995021.617183,0.42200244140625015,0.07893984375,0.18848803710937456,0.4688766358195458,-0.03367083901177246,0.15809529099108868,0.08878597198618451,0.1844201595673457
82,1790995021.641845,0.43158251953125015,0.29449160156250004,-0.012693603515625436,0.5226374480708401,-0.027607194987398234,0.16809947291882427,0.09300395406629469,0.19408587141423822
83,1790995021.661845,0.37410205078125014,0.24180117187500003,-0.07975415039062544,0.45252720981548816,-0.022218887611671224,0.17579997844648973,0.09577281541818854,0.20142428741741336
84,1790995021.687475,0.5369633789062501,0.031039453125000005,-0.03185375976562544,0.5388021714395019,-0.014598238791957107,0.18471242154085893,0.09857433113809015,0.20987778826411532
85,1790995021.707475,0.5225932617187501,-0.15577207031249998,-0.16118481445312544,0.5686380214983632,-0.00795424595270933,0.19043680950236602,0.10014297592990794,0.21530922894807542
86,1790995021.7175424,0.4794829101562501,-0.007280859374999999,-0.32883618164062545,0.5814551628467423,-0.0043548694476218605,0.1927629748397156,0.10044415306864897,0.21740643330555065
87,1790995021.7375424,0.45074267578125016,0.07893984375,-0.19471508789062544,0.49730717283583353,0.0031183983276239146,0.19679844122886814,0.10016739660120057,0.22084577926712615
88,1790995021.7621336,0.5704936523437502,-0.0312310546875,-0.10370434570312544,0.5806831988779412,0.012812422200832046,0.2011040086384003,0.09932776379117862,0.2246619351666907
89,1790995021.7821336,0.6615043945312501,0.0933099609375,-0.20908520507812545,0.7000081683643952,0.021361928552974908,0.20417358002317734,0.09827813894975085,0.22760003375748813
90,1790995021.8079922,0.6519243164062501,0.20827089843750002,-0.21866528320312545,0.7184682230523651,0.03330503963335152,0.20813190366774145,0.09629502984308919,0.2317344336990482
91,1790995021.8279922,0.6519243164062501,0.22264101562500002,-0.16597485351562544,0.7086056647810695,0.04311244906622475,0.21138055147691265,0.09441433488786971,0.23548776494648369
92,1790995021.8372126,0.7046147460937502,0.17953066406250004,-0.25698559570312546,0.7712034726000477,0.04789372044580286,0.21293169790205257,0.09338486633074948,0.23739092166551704
93,1790995021.8572125,0.6423442382812501,-0.11266171875,-0.3240461425781255,0.7282202179592285,0.0587295959660005,0.21589191766907775,0.0906152433908925,0.24139098552338734
94,1790995021.882348,0.7141948242187501,-0.1940923828125,-0.40547680664062546,0.8438942710613484,0.07286243204024799,0.21847592178395012,0.08628129437086958,0.24593723622192531
95,1790995021.902348,0.7812553710937501,-0.08871152343750001,-0.5587580566406255,0.9645933107347592,0.08466411091252538,0.21979936400430583,0.08190375000804848,0.24937521199727658
96,1790995021.942449,0.8052055664062502,-0.22762265625,-0.6785090332031255,1.0772848211815462,0.10954907499132814,0.22110350170454934,0.0707219389862752,0.2566892108201039
97,1790995021.962449,0.7237749023437502,-0.48149472656250003,-0.6258186035156255,1.0711378088166104,0.12239199225872896,0.2205926879544783,0.06402515955979975,0.2602693889121432
98,1790995021.956969,0.7956254882812501,-0.4240142578125,-0.7072492675781255,1.1458662814311529,0.12239199225872896,0.2205926879544783,0.06402515955979975,0.2602693889121432
99,1790995021.976969,0.8099956054687502,-0.57250546875,-0.7647297363281255,1.252464355681162,0.1360166629787468,0.21757432400170287,0.055279110109273735,0.2624783783231395
100,1790995022.0017266,0.8962163085937501,-0.7114166015625001,-0.9898615722656254,1.5129914689172312,0.15352067307582493,0.21201438696368752,0.042818553445233026,0.26523975165948416
101,1790995022.0217266,0.8387358398437501,-0.7688970703125001,-1.1000324707031255,1.5826408153383285,0.16814234152761243,0.20597615153911747,0.03112759285740378,0.2677068341569748
102,1790995022.046774,0.7716752929687501,-0.8359576171875001,-0.9132209472656255,1.4588627056844437,0.1867325077850897,0.19653358529993092,0.014900439980338145,0.27150783179525684
103,1790995022.066774,0.8818461914062502,-1.0371392578125,-0.7216193847656255,1.5407936532394895,0.2018302153388683,0.18731512979750173,0.001434567136317134,0.2753624005881295
104,1790995022.0772977,1.0494975585937503,-1.0898296875000002,-0.7120393066406254,1.6721763804849814,0.210107222675579,0.181513283106015,-0.00571976773085548,0.2777135803436062
105,1790995022.0972977,1.0494975585937503,-1.1329400390625002,-0.7264094238281255,1.7066543026141794,0.2266262669891907,0.16880691477634577,-0.019434444986953917,0.2832541915271782
106,1790995022.1224954,0.9297465820312502,-1.2095806640625002,-0.7455695800781255,1.6980542065583606,0.24805703332585238,0.1507726315660554,-0.036903354886411985,0.29262012202452686
107,1790995022.1424954,0.7812553710937501,-1.2191607421875001,-0.6880891113281254,1.6031779362511007,0.2650820771971815,0.13496246076470478,-0.05083946663033731,0.3017747915815603
108,1790995022.1671994,0.8914262695312501,-1.2766412109375,-0.6353986816406255,1.6817208627192006,0.28605615543773466,0.11373882616638216,-0.06792342702720526,0.3152431388319879
109,1790995022.1871994,1.0973979492187502,-1.2383208984375,-0.8030500488281255,1.8391873986571978,0.30347265017578423,0.09536139374052396,-0.08183738412693738,0.3284612644766336
110,1790995022.2126658,1.00638720703125,-1.2958013671875,-0.8365803222656255,1.841679404587892,0.3263411489559325,0.07063091161745802,-0.10002847165950382,0.3485584116332978
111,1790995022.2326658,0.7860454101562502,-1.367651953125,-0.6114484863281254,1.6918062841671,0.3442955362820124,0.05012703771206272,-0.11434387353499005,0.3662330646302855
112,1790995022.2429261,0.7620952148437502,-1.2287408203124999,-0.4916975097656255,1.5272064566062096,0.3533161505940521,0.03918802445408264,-0.12143521876250976,0.37565212083403876
113,1790995022.262926,0.9489067382812502,-1.0562994140625002,-0.5012775878906255,1.5058126278610449,0.3708285733336614,0.017636020845559708,-0.13467406764723666,0.3949202002032768
114,1790995022.287498,1.0638676757812502,-0.9652886718750001,-0.41505688476562547,1.4952822038711444,0.39282623747044515,-0.008596446734729968,-0.15018818999457664,0.4206457466271312
115,1790995022.307498,0.8243657226562502,-0.9892388671875001,-0.26177563476562543,1.3140391409702818,0.4108775952268569,-0.029677080205958564,-0.16193683146330579,0.44263378173534257
116,1790995022.332214,0.7381450195312501,-1.0179791015625002,-0.18513500976562544,1.2709895723087987,0.4327358499869358,-0.055541756381221635,-0.1751064809313032,0.4701143288924213
117,1790995022.352214,1.0303374023437502,-1.0515093750000002,-0.29530590820312547,1.5014901624056785,0.4504228763652994,-0.0764359442881112,-0.18488534561050007,0.49285475766590614
118,1790995022.362738,1.1021879882812502,-1.03234921875,-0.48690747070312546,1.5867079617849404,0.4600167765888114,-0.08742587326303145,-0.18987644689468391,0.505283863926322
119,1790995022.3827379,0.8099956054687502,-0.9940289062500001,-0.4437971191406255,1.3568869629769376,0.47838289308243864,-0.10821840548769716,-0.19933505328577072,0.52942976790946
120,1790995022.4077604,0.9010063476562502,-0.9700787109375001,-0.30967602539062544,1.3596927537619492,0.501125495162625,-0.13401639805873244,-0.21080791367175034,0.5599349366821638
121,1790995022.4277604,1.0207573242187502,-0.8407476562500001,-0.3240461425781255,1.3615461942056368,0.5194591824977458,-0.15425947437511411,-0.21955301647782,0.5846685854056319
122,1790995022.452294,0.7716752929687501,-0.7641070312500001,-0.3336262207031255,1.1360672375017007,0.5418735808233902,-0.1783196153114222,-0.229881544350006,0.6150368990816084
123,1790995022.472294,0.6758745117187501,-0.7545269531250001,-0.31925610351562544,1.062093093007922,0.5595763419667426,-0.19726937452931104,-0.23801773514326072,0.639291272315518
124,1790995022.4828458,0.8387358398437501,-0.8072173828125001,-0.22824536132812545,1.1862435066717414,0.5687137248975843,-0.20700327111979464,-0.24209966788982748,0.6518419320153814
125,1790995022.5028458,0.8818461914062502,-0.7545269531250001,-0.28093579101562544,1.1941057520016307,0.5860159667657939,-0.22502830855387349,-0.2494399004400299,0.6754796198898952
126,1790995022.5272229,0.7285649414062502,-0.6251958984375001,-0.38631665039062546,1.034851361132795,0.6068858622872332,-0.24622527708515857,-0.2582645136859159,0.7040155509285319
127,1790995022.5472229,0.6471342773437502,-0.6730962890625001,-0.37673657226562546,1.0068623700116015,0.6235035511333672,-0.26295494801339786,-0.26556315649732265,0.7269290013814759
128,1790995022.5872655,0.7573051757812501,-0.7305767578125001,-0.27135571289062543,1.0866864548890238,0.6560015724831803,-0.2956412403430039,-0.27993043673913004,0.7720769751164162
129,1790995022.6072655,0.8818461914062502,-0.658726171875,-0.29051586914062544,1.1384078113898086,0.6722572359754961,-0.311602061423765,-0.28687282961519084,0.7945575223836094
130,1790995022.6022954,0.8483159179687502,-0.6251958984375001,-0.42942700195312544,1.1379443563323672,0.6722572359754961,-0.311602061423765,-0.28687282961519084,0.7945575223836094
131,1790995022.6222954,0.7237749023437502,-0.6635162109375001,-0.37673657226562546,1.0516816611132929,0.688566041415958,-0.32670382005364296,-0.2940158789614876,0.8168867219574463
132,1790995022.646768,0.7381450195312501,-0.7018365234375001,-0.26656567382812546,1.0528484382631096,0.7082119743552291,-0.34491706950587275,-0.3026260539106887,0.8438687776912982
133,1790995022.666768,0.8866362304687502,-0.5581353515625,-0.22824536132812545,1.0722568819137681,0.724296201959486,-0.3594588692022036,-0.3093493324898456,0.8657440016153599
134,1790995022.6924782,0.8147856445312501,-0.582085546875,-0.22824536132812545,1.0270322173051725,0.745151904749571,-0.3775470507886443,-0.3175759600375491,0.8936708718006244
135,1790995022.7124782,0.7477250976562502,-0.7018365234375001,-0.31925610351562544,1.0740539031761231,0.7612858338935453,-0.39143316259712047,-0.32383680534137227,0.9152301995462564
136,1790995022.722663,0.7860454101562502,-0.7497369140625001,-0.30009594726562544,1.1269562567823657,0.7694410341236075,-0.3985526016936371,-0.3270199271345868,0.9261888112329386
137,1790995022.742663,0.8483159179687502,-0.639566015625,-0.24261547851562545,1.0897462344220177,0.7855048931168399,-0.4125200242501725,-0.3331471273405704,0.9477223833872107
138,1790995022.7677476,0.8914262695312501,-0.6060357421875,-0.31446606445312547,1.1228575245826125,0.8059036814382649,-0.42975414346158086,-0.34072741719473476,0.9748151313999697
139,1790995022.7877476,0.7812553710937501,-0.658726171875,-0.37673657226562546,1.0891329437944561,0.822237008802672,-0.4433308880471555,-0.3469014005997731,0.9964720551423051
140,1790995022.8127677,0.7381450195312501,-0.677886328125,-0.37673657226562546,1.070662593257109,0.8424563228697418,-0.4602759695096607,-0.3548804435450316,1.023487544263233
141,1790995022.8327677,0.7908354492187502,-0.6826763671875001,-0.36715649414062546,1.1073714919786313,0.858487854056982,-0.473830188881673,-0.3614176624337368,1.045054625451737
142,1790995022.842461,0.8195756835937501,-0.6635162109375001,-0.3623664550781254,1.1150190631020203,0.8662631264914266,-0.48039279720290645,-0.3646411613667492,1.0555340925266345
143,1790995022.862461,0.7716752929687501,-0.6251958984375001,-0.3623664550781254,1.0571954015069147,0.8822860541989296,-0.4938351809199574,-0.3713815412155359,1.0771379282635025
144,1790995022.8879921,0.7525151367187501,-0.6251958984375001,-0.32883618164062545,1.0321250780646203,0.9025906294115249,-0.5108154056070203,-0.38001886550490455,1.1045435985268268
145,1790995022.9079921,0.7764653320312501,-0.6156158203125001,-0.30967602539062544,1.0381620734582664,0.9184040041406322,-0.52398299166634,-0.3867278398641599,1.1258696694125627
146,1790995022.932568,0.8052055664062502,-0.5964556640625001,-0.32883618164062545,1.0546319726425113,0.9378360687787134,-0.5399703418675335,-0.3949121247068229,1.1519809235570309
147,1790995022.952568,0.6758745117187501,-0.620405859375,-0.26656567382812546,0.955388425930173,0.953499478491278,-0.5528546030085921,-0.4014665629004345,1.1730238141990195
148,1790995022.9774995,0.6854545898437502,-0.6299859375000001,-0.27135571289062543,0.9697237746410043,0.9726417121558079,-0.568844650545093,-0.40941739546208883,1.1988489230866877
149,1790995022.9974995,0.9057963867187502,-0.5868755859375,-0.37673657226562546,1.1431624960803606,0.9880810928108816,-0.5815730677845505,-0.4158109636715932,1.219602491245479
150,1790995023.007551,0.8866362304687502,-0.5868755859375,-0.38152661132812543,1.1296500846283513,0.9960278677631261,-0.5878953496162446,-0.419113849211832,1.2301824555984873
151,1790995023.027551,0.7237749023437502,-0.5868755859375,-0.36715649414062546,1.0015372952725348,1.011883784089357,-0.6003487874674364,-0.4258230104674857,1.2512604426578067
152,1790995023.0524485,0.7620952148437502,-0.57250546875,-0.34799633789062545,1.0147182266135193,1.0314362818902703,-0.6156913006485312,-0.43425771364735133,1.277308241246462
153,1790995023.0724485,0.9201665039062502,-0.6251958984375001,-0.38152661132812543,1.1760692417904852,1.0473100542002953,-0.6279636692684678,-0.441111185026059,1.2983742900663264
154,1790995023.0975475,0.8531059570312501,-0.6347759765625001,-0.4533771972656255,1.1559762961858322,1.0675808262976665,-0.6434265360342978,-0.44999349894989044,1.325224764728108
155,1790995023.1175475,0.6854545898437502,-0.6874664062500001,-0.42463696289062547,1.0596105910725546,1.0836183856425552,-0.6558831466535192,-0.45732665334600026,1.3466845122846522
156,1790995023.1277783,0.7333549804687501,-0.6539361328125001,-0.3527863769531255,1.0439828642941422,1.0916803181677155,-0.6623286569857344,-0.4611116950899137,1.3575968334848107
157,1790995023.1477783,0.8339458007812501,-0.5868755859375,-0.30009594726562544,1.0629892424551706,1.1074273842011995,-0.6749000605674982,-0.46838043550648023,1.3788639292540668
158,1790995023.1728632,0.7908354492187502,-0.562925390625,-0.30009594726562544,1.0160527942565702,1.1272723451232918,-0.6904657935247218,-0.4772589141645682,1.405440152854981
159,1790995023.1928632,0.8052055664062502,-0.5533453125,-0.3527863769531255,1.0387517830555313,1.1431152536908884,-0.7026890319174298,-0.4842551456036432,1.4265298471610905
160,1790995023.2178674,0.8243657226562502,-0.582085546875,-0.30488598632812547,1.054209605927874,1.163007106557363,-0.7178076763180748,-0.4929232224141777,1.4528615533763913
161,1790995023.2378674,0.7908354492187502,-0.5772955078125,-0.21866528320312545,1.0032473858225686,1.1789541088568027,-0.7298257089454231,-0.499601857247757,1.4738318669351111
162,1790995023.2479265,0.7812553710937501,-0.49107480468750003,-0.29051586914062544,0.9674264255664264,1.186957697163909,-0.735769588087285,-0.5028412035295006,1.4842758293449974
163,1790995023.2679265,0.8339458007812501,-0.486284765625,-0.37673657226562546,1.0362764673590221,1.2029066196568414,-0.7472808254672576,-0.509316600254466,1.5049306851214252
164,1790995023.292956,0.8099956054687502,-0.543765234375,-0.30967602539062544,1.0235588657694883,1.2229585169002757,-0.7614596720350978,-0.5174934287126111,1.5307670675042153
165,1790995023.312956,0.7764653320312501,-0.5868755859375,-0.29530590820312547,1.0171169768692074,1.238957325832262,-0.7727858131527285,-0.5239545501087344,1.5513676349670311
166,1790995023.33754,0.7812553710937501,-0.582085546875,-0.37673657226562546,1.0445640160497842,1.2585451965681218,-0.7867748293359731,-0.531944317700805,1.5766785978808482
167,1790995023.35754,0.7812553710937501,-0.639566015625,-0.41505688476562547,1.0916395287807312,1.2744341919019713,-0.7982808659125802,-0.5386570203078191,1.5973685347777036
168,1790995023.3665934,0.7333549804687501,-0.677886328125,-0.3432062988281255,1.0559971424167856,1.2815762807235314,-0.8036026391893334,-0.5417547539975667,1.6067710410958325
169,1790995023.3865933,0.6662944335937502,-0.591665625,-0.23303540039062545,0.9210439630549,1.2970866783276915,-0.815499826865856,-0.5484358279927257,1.627346206601248
170,1790995023.4127023,0.7620952148437502,-0.57250546875,-0.28093579101562544,0.9937185451172652,1.3170945577211806,-0.8309809845389403,-0.5568558110482947,1.653891128503419
171,1790995023.4327023,0.8578959960937501,-0.591665625,-0.37673657226562546,1.1081444837216765,1.3325519995541057,-0.842807274339468,-0.5633247072579987,1.6743218504823016
172,1790995023.4575074,0.8052055664062502,-0.6730962890625001,-0.3336262207031255,1.101236157080746,1.3519414899741586,-0.857627681419236,-0.5714658688243633,1.6999541968774532
173,1790995023.4775074,0.6279741210937502,-0.6443560546875001,-0.25698559570312546,0.9357284960792842,1.3673797116494817,-0.8697609223336732,-0.5779312749128872,1.7205277958730503
174,1790995023.487047,0.6567143554687501,-0.591665625,-0.25698559570312546,0.9205343844117214,1.3745580413621379,-0.8755644822670677,-0.5809202986796569,1.7301709063265909
175,1790995023.507047,0.8435258789062502,-0.562925390625,-0.33841625976562545,1.0690867451561759,1.3896004909735302,-0.8876385598382103,-0.5871399691541769,1.7503214221404866
176,1790995023.5323474,0.7908354492187502,-0.5964556640625001,-0.3336262207031255,1.0452208006320534,1.4088764840201464,-0.902821451396811,-0.5951030350602677,1.7759975063792057
177,1790995023.5523474,0.6471342773437502,-0.5868755859375,-0.26656567382812546,0.9133799782927937,1.4239854151032716,-0.9147981770591874,-0.6013538873067618,1.7961672151992425
178,1790995023.5769303,0.6375541992187501,-0.515025,-0.26177563476562543,0.8603793294375497,1.4421394123838098,-0.9293427230031102,-0.6088587175282248,1.8204815075851968
179,1790995023.5969303,0.7620952148437502,-0.543765234375,-0.29051586914062544,0.9802393671064091,1.4567930634557669,-0.9409890130383591,-0.6148770292681452,1.8400489432385658
180,1790995023.606753,0.7237749023437502,-0.5293951171875,-0.24740551757812546,0.9302251283924619,1.4640052031001567,-0.9466416168520116,-0.6177857957742097,1.849621819432528
181,1790995023.626753,0.6758745117187501,-0.49586484375,-0.27135571289062543,0.8810914945547087,1.4785864207112178,-0.9579622280205884,-0.6235980162239005,1.868899119713037
182,1790995023.6523423,0.6854545898437502,-0.505444921875,-0.29530590820312547,0.9014034297731297,1.4970567769915408,-0.9721955876361503,-0.63100658962162,1.8932809010554685
183,1790995023.6723423,0.7477250976562502,-0.543765234375,-0.28572583007812546,0.9676841952588568,1.5114771671458072,-0.9832252116725594,-0.636799958550642,1.912278544271666
184,1790995023.6970952,0.7381450195312501,-0.5485552734375,-0.30009594726562544,0.9673823108989191,1.5294058440257727,-0.9968562008299339,-0.6439821244586221,1.9358505875959322
185,1790995023.7170951,0.6231840820312501,-0.515025,-0.3336262207031255,0.8745945379790468,1.54376105020987,-1.0078131804042023,-0.649865337909039,1.954791688174764
186,1790995023.7420695,0.6998247070312501,-0.5006548828125,-0.37194653320312543,0.9374188795928942,1.5614759159604163,-1.0213454816014842,-0.6574314351221818,1.9782744301029116
187,1790995023.7620695,0.7525151367187501,-0.5102349609375,-0.32883618164062545,0.9668257240628829,1.5757128947138253,-1.0320732232790142,-0.663632834313196,1.9971116151971882
188,1790995023.772619,0.7141948242187501,-0.505444921875,-0.3240461425781255,0.9330352182580458,1.5832566152534542,-1.0376866937934923,-0.6669298403570026,2.0070601874828045
189,1790995023.792619,0.6567143554687501,-0.4240142578125,-0.28093579101562544,0.8306544132071992,1.5974692476279937,-1.0481266652110224,-0.6731502474769839,2.025736596678317
190,1790995023.8171906,0.7237749023437502,-0.4240142578125,-0.26177563476562543,0.8787290157084472,1.6148555169810828,-1.0605918999983672,-0.6806463453339598,2.0483878945363014
191,1790995023.8371906,0.7525151367187501,-0.4431744140625,-0.28572583007812546,0.9188698723128935,1.6290986989435576,-1.0705167964410964,-0.6866537973001743,2.066751610549475
192,1790995023.8617675,0.7429350585937502,-0.438384375,-0.26656567382812546,0.902879072741905,1.6467324930868714,-1.0825084916225147,-0.6939467181878356,2.0892856640264927
193,1790995023.8817675,0.7525151367187501,-0.3856939453125,-0.27614575195312546,0.8895478215156947,1.661173062389123,-1.0920393319881385,-0.6998053395916725,2.107551508062703
194,1790995023.8918152,0.7237749023437502,-0.371323828125,-0.26656567382812546,0.8560308131484241,1.6684520651185857,-1.0966797240571438,-0.7027161006037095,2.1166597810711596
195,1790995023.9118152,0.7094047851562502,-0.36174375,-0.25219555664062543,0.835294133018976,1.6829174119252648,-1.1056305532804815,-0.7084190520795602,2.134593049988179
196,1790995023.9373684,0.7237749023437502,-0.4335943359375,-0.26656567382812546,0.8848228160955329,1.7013736463162887,-1.1168755306836864,-0.7156067341777597,2.15735398889939
197,1790995023.9573684,0.6471342773437502,-0.438384375,-0.27135571289062543,0.827404106876282,1.715708523551454,-1.1256645267090697,-0.7211954178677051,2.1750630324732287
198,1790995023.982337,0.6758745117187501,-0.4048541015625,-0.26177563476562543,0.8302046025528792,1.7333977581054105,-1.1365702118151524,-0.7281243142902176,2.1969580449455566
199,1790995024.002337,0.7094047851562502,-0.4240142578125,-0.24740551757812546,0.8627008346808126,1.7475194584688343,-1.1452386908291428,-0.7336056510763381,2.214401311413628
200,1790995024.0118816,0.6327641601562501,-0.4527544921875,-0.28093579101562544,0.8272255020535699,1.7542086607584924,-1.1493826589782337,-0.7362073462743268,2.2226852631329215
201,1790995024.0318816,0.6662944335937502,-0.41922421875,-0.3432062988281255,0.8587710878807372,1.7680714390766563,-1.1580714809750288,-0.7417774588702506,2.239964278111216
202,1790995024.0570064,0.7237749023437502,-0.47191464843750003,-0.33841625976562545,0.9279434840260207,1.7854935662628248,-1.1690286700330863,-0.749009671965015,2.26177602675915
203,1790995024.0770063,0.6998247070312501,-0.4431744140625,-0.30967602539062544,0.8843401057018451,1.799417157688372,-1.1778151771825727,-0.7548752837495993,2.279251498409281
204,1790995024.1021106,0.6950346679687501,-0.4335943359375,-0.31925610351562544,0.8792051509559597,1.8168989692184758,-1.1888405913874742,-0.7623176659345356,2.301215339744101
205,1790995024.1221106,0.6998247070312501,-0.45754453125,-0.29530590820312547,0.8867396450299434,1.8308294950976383,-1.1976434289191316,-0.768279300286953,2.3187366185494325
206,1790995024.131815,0.7285649414062502,-0.447964453125,-0.26177563476562543,0.894430270097574,1.8376145557543817,-1.2019330834169697,-0.7711435475417747,2.3272586369907216
207,1790995024.151815,0.8004155273437501,-0.5006548828125,-0.27614575195312546,0.9836548197506729,1.8517940242829067,-1.2108705840345257,-0.776967987961882,2.3450006255793476
208,1790995024.1765985,0.6902446289062502,-0.5102349609375,-0.26656567382812546,0.8987962069124801,1.8695001177157653,-1.2221635060880438,-0.7841116733537529,2.367180906065758
209,1790995024.1965985,0.6615043945312501,-0.524605078125,-0.27135571289062543,0.886810281231038,1.8836729952157616,-1.2314619921840764,-0.7898186692758252,2.385065223727797
210,1790995024.2221947,0.7620952148437502,-0.543765234375,-0.27614575195312546,0.9760769554314853,1.9018236759838383,-1.243628191856135,-0.7970779953526683,2.408085900624699
211,1790995024.2421947,0.8099956054687502,-0.5198150390625,-0.28093579101562544,1.0026093328848533,1.9162368017301092,-1.2533038877985798,-0.8027349851258568,2.426338305311294
212,1790995024.251989,0.6902446289062502,-0.467124609375,-0.26656567382812546,0.8750430314453775,1.9233383710013612,-1.2580564223580664,-0.8054919144941629,2.435313876180649
213,1790995024.2719889,0.6710844726562502,-0.49586484375,-0.26656567382812546,0.8759529503180932,1.9377066505326228,-1.2677499423303065,-0.8110768495660753,2.4535163817873484
214,1790995024.2971826,0.7333549804687501,-0.5293951171875,-0.30967602539062544,0.9560167143842324,1.9557449661821666,-1.2800663692939775,-0.8181456474479669,2.4764633215499887
215,1790995024.3171825,0.6519243164062501,-0.4527544921875,-0.26656567382812546,0.8372868104664972,1.9699946237021853,-1.2898503656865534,-0.823779832227763,2.494635443358899
216,1790995024.3422422,0.6183940429687501,-0.4527544921875,-0.22824536132812545,0.7996835421233852,1.9875585890169578,-1.3019725800041995,-0.8307104408249721,2.5170620930667345
217,1790995024.3622422,0.6471342773437502,-0.390483984375,-0.22345532226562545,0.7881578496820466,2.001371911608866,-1.311460896760455,-0.8360895731757687,2.5346528335616108
218,1790995024.3869872,0.7285649414062502,-0.38090390625,-0.30488598632812547,0.8768409914585856,2.0184519959842935,-1.3228710069294214,-0.8427271424164345,2.55623261805979
219,1790995024.4069872,0.6567143554687501,-0.47191464843750003,-0.23782543945312545,0.8429342321555682,2.0322640533517475,-1.33198906102047,-0.8481012664282305,2.573629304958474
220,1790995024.4175117,0.5225932617187501,-0.41922421875,-0.18513500976562544,0.6950738339351497,2.0393729510326986,-1.3367709051986234,-0.850838928860232,2.5826198654183297
221,1790995024.4375117,0.5896538085937502,-0.467124609375,-0.16597485351562544,0.7703535984678689,2.0525241472730236,-1.345824422225759,-0.8557876718098714,2.5993213133085162
222,1790995024.4618108,0.6758745117187501,-0.4767046875,-0.19950512695312544,0.8507972792364314,2.068411924305843,-1.3568941901242013,-0.8615643749073985,2.619500506568569
223,1790995024.4818108,0.5178032226562501,-0.48149472656250003,-0.16597485351562544,0.7262953952079196,2.0813177255530695,-1.366076035132566,-0.8661540476670906,2.6359571397795905
224,1790995024.5078814,0.49385302734375014,-0.4048541015625,-0.13244458007812543,0.6521803607596881,2.097595456577973,-1.3779826047463195,-0.8718229091224571,2.6568436053540583
225,1790995024.5278814,0.5657036132812502,-0.4144341796875,-0.14681469726562543,0.716471089930299,2.1097990919129654,-1.3869755126928538,-0.8759383206228402,2.6724934466864347
226,1790995024.5369258,0.5944438476562501,-0.4767046875,-0.24261547851562545,0.7996706306450211,2.11527698331805,-1.391036763074803,-0.8777843967788301,2.6795308245305014
227,1790995024.5569258,0.6375541992187501,-0.5581353515625,-0.23782543945312545,0.8800859999206495,2.1274212917575386,-1.4002225986165147,-0.8819749652781331,2.6952596382680953
228,1790995024.5817792,0.5321733398437501,-0.6347759765625001,-0.29051586914062544,0.8778089053341053,2.1424293856028767,-1.4121489510674259,-0.8873861848263634,2.7150732169347185
229,1790995024.6017792,0.5082231445312502,-0.6826763671875001,-0.33841625976562545,0.9158948366637459,2.1542556428786632,-1.4222828543701638,-0.8920309023868032,2.731194797798743
230,1790995024.6267757,0.6423442382812501,-0.524605078125,-0.32883618164062545,0.8921602113990755,2.168976317120417,-1.4353119752265993,-0.8982161564960515,2.7516124353274516
231,1790995024.6467757,0.6519243164062501,-0.5006548828125,-0.30009594726562544,0.8750532575626513,2.1809291609968087,-1.4457108912123855,-0.9033661082785914,2.768140587441823
232,1790995024.6722257,0.5657036132812502,-0.5868755859375,-0.3240461425781255,0.8771826685295994,2.196181810136685,-1.459034448631163,-0.9101277590705857,2.789324040569423
233,1790995024.6922257,0.5178032226562501,-0.6443560546875001,-0.27135571289062543,0.8700280601934736,2.207995472671111,-1.4697811111558303,-0.9155374815705795,2.8060130794789946
234,1790995024.7018151,0.48427294921875014,-0.5677154296875,-0.20908520507812545,0.7749436892012546,2.213530847150583,-1.4750326585822786,-0.9180877578380247,2.8139518983563905
235,1790995024.721815,0.5321733398437501,-0.49586484375,-0.14681469726562543,0.7420545547605384,2.224868532211943,-1.4859378808138215,-0.9231426932748922,2.8302374111390756
236,1790995024.7468972,0.6040239257812502,-0.4767046875,-0.16118481445312544,0.7861760657835841,2.239091766582034,-1.499392304128768,-0.9291106035430063,2.850430798050021
237,1790995024.7668972,0.6375541992187501,-0.486284765625,-0.13244458007812543,0.8127052337794398,2.250594259582405,-1.5099558349629403,-0.9335959370708339,2.8664860925040387
238,1790995024.7774522,0.6423442382812501,-0.5293951171875,-0.11328442382812544,0.8400587308260992,2.2567673555937793,-1.515498560141641,-0.935802534811276,2.874971507202173
239,1790995024.7974522,0.5848637695312502,-0.639566015625,-0.11807446289062544,0.8746724507149238,2.2685505859942703,-1.5261791418119226,-0.939703530465438,2.8911221453418277
240,1790995024.821756,0.5417534179687501,-0.697046484375,-0.17076489257812544,0.8991836385286317,2.2827751393620823,-1.5396475357438795,-0.9442593861367902,2.9108766135855366
241,1790995024.8417559,0.49385302734375014,-0.7018365234375001,-0.18992504882812544,0.8789407502327954,2.2942783670571285,-1.5511667578235249,-0.9479871597200734,2.927201938902952
242,1790995024.8673375,0.4794829101562501,-0.7353667968750001,-0.26177563476562543,0.9160756901233927,2.3086523560234404,-1.5664481213663253,-0.9529067077600406,2.9481632606758317
243,1790995024.8873374,0.5992338867187501,-0.7976373046875,-0.35757641601562545,1.059795930409142,2.3198225138221065,-1.5789026957640857,-0.9571049691864878,2.964887879898409
244,1790995024.8968287,0.5561235351562501,-0.8455376953125001,-0.30488598632812547,1.0569592448189917,2.325150724246406,-1.5850962580528898,-0.959270017128857,2.9730548268606243
245,1790995024.9168286,0.4363725585937501,-0.7641070312500001,-0.30009594726562544,0.9296978770894325,2.3361829852848413,-1.5986041989695066,-0.9640553718018994,2.990432926115787
246,1790995024.9425948,0.38368212890625014,-0.7449468750000001,-0.30009594726562544,0.8900648292004079,2.3498487153077705,-1.6163124148117014,-0.9704554775370983,3.0126464513762263
247,1790995024.9625947,0.36452197265625014,-0.7353667968750001,-0.17555493164062544,0.83932123082807,2.359987397719499,-1.6302164124097216,-0.9753916158620399,3.0296096898740665
248,1790995024.9870298,0.45074267578125016,-0.6347759765625001,-0.16597485351562544,0.7960258489464084,2.37201039841054,-1.6471665418463513,-0.9811436449230214,3.049956360133474
249,1790995025.0070298,0.3788920898437501,-0.5772955078125,-0.21866528320312545,0.7243230116218591,2.3816195088500987,-1.6607772159737297,-0.985722414578434,3.066258489533323
250,1790995025.0176404,0.20166064453125013,-0.5389751953125,-0.18513500976562544,0.6045132327383951,2.3864147382653496,-1.66780327182515,-0.9881085528694825,3.0745571337632636
251,1790995025.0376403,0.19208056640625013,-0.438384375,-0.12765454101562546,0.4953498622963334,2.3946881358414993,-1.6805262656286977,-0.9924007427067814,3.089265128073818
252,1790995025.0623472,0.27351123046875014,-0.41922421875,-0.21866528320312545,0.5462342399167052,2.4042382961601234,-1.6954750998738617,-0.9975494562700464,3.106461414007887
253,1790995025.0823472,0.2495610351562501,-0.333003515625,-0.35757641601562545,0.5486646926652455,2.4115940625339545,-1.7068892533366522,-1.0019564825067793,3.119803461508839
254,1790995025.106771,0.37410205078125014,-0.2132525390625,-0.46774731445312545,0.6357802607768278,2.420371870124288,-1.7197379306528529,-1.0080428557987893,3.135577927422962
255,1790995025.126771,0.3309916992187501,-0.3234234375,-0.43421704101562547,0.6345885782019697,2.427539220621973,-1.7294861455323565,-1.0136321642505692,3.148256526976415
256,1790995025.151802,0.40284228515625015,-0.22762265625,-0.5108576660156254,0.6892528819491055,2.436541657956673,-1.7408910105203181,-1.021352414130768,3.163952830767149
257,1790995025.171802,0.47469287109375014,-0.1940923828125,-0.5300178222656254,0.7375120791229509,2.4439720076080853,-1.74926925082558,-1.0281569703329323,3.1764837228451173
258,1790995025.1815562,0.7525151367187501,-0.0982916015625,-0.4533771972656255,0.8840198826547933,2.4479500626398996,-1.7529563736530467,-1.031697236060787,3.1827212796606927
259,1790995025.2015562,0.9584868164062501,-0.0216509765625,-0.39589672851562546,1.0372559769218366,2.4574496794628806,-1.7595623551937651,-1.0391412650447847,3.1960809091176214
260,1790995025.2270522,0.7716752929687501,0.0645697265625,-0.39589672851562546,0.8697046780465983,2.471051703269579,-1.766638403932952,-1.0487215433713672,3.2135532741831865
261,1790995025.2470522,0.5896538085937502,0.15558046875000003,-0.32883618164062545,0.6928420675749786,2.4821631227148186,-1.771026279264016,-1.0561964883357469,3.2269519475167097
262,1790995025.2872982,0.6327641601562501,0.23701113281250002,-0.30009594726562544,0.7393391217976782,2.504858536846375,-1.777346533144442,-1.0708804612878706,3.2527007164602235
263,1790995025.3072982,0.8004155273437501,0.23701113281250002,-0.38152661132812543,0.9178245195251435,2.5165948863004064,-1.7793051865361662,-1.0781054295870716,3.2651934224319668
264,1790995025.3019924,0.7812553710937501,0.18911074218750004,-0.39110668945312543,0.8939168139197986,2.5165948863004064,-1.7793051865361662,-1.0781054295870716,3.2651934224319668
265,1790995025.3219924,0.6231840820312501,0.19869082031250002,-0.28572583007812546,0.7137756595369583,2.529197684423864,-1.7795953069502028,-1.085325823513349,3.2774582417780938
266,1790995025.346805,0.43158251953125015,0.39029238281250006,-0.24740551757812546,0.6322982724747089,2.5444507182193234,-1.7788051810386363,-1.0939321547276226,3.2916659746523105
267,1790995025.366805,0.26393115234375014,0.6010541015625,-0.10370434570312544,0.6645903080096168,2.5559443355108584,-1.7767768218615285,-1.100355295452022,3.301600989999201
268,1790995025.3921003,0.49385302734375014,0.8501361328125,-0.022273681640625438,0.9834217680241817,2.5697381686608525,-1.7718431180924104,-1.1074994879944629,3.312029197714275
269,1790995025.4121003,0.6375541992187501,1.0225775390625,-0.12286450195312544,1.2112951193564556,2.5807055902830247,-1.7657182949738004,-1.1125185360672925,3.3189606707547092
270,1790995025.4218662,0.43158251953125015,0.950726953125,-0.05101391601562544,1.0453456988912984,2.58604069238069,-1.7617308629812416,-1.1147290453837897,3.321734929348169
271,1790995025.4418662,0.1393901367187501,0.8788763671875,0.03999682617187457,0.890759802145894,2.596184260686707,-1.7520453150867161,-1.1185935280069,3.325821249323784
272,1790995025.4671135,-0.004311035156249891,1.0034173828125,0.09747729492187457,1.0081502131030333,2.607324218160284,-1.7380883807950094,-1.1224798531030236,3.32852096563653
273,1790995025.4871135,0.053169433593750114,1.2333392578125002,-0.05580395507812544,1.2357454409920072,2.61489845947939,-1.7253355184374797,-1.1250341525108343,3.3286902001966756
274,1790995025.5122373,0.17771044921875012,1.180648828125,-0.041433837890625436,1.1946670758151883,2.623421005704911,-1.7071698234459682,-1.1279447654033183,3.3270145736168715
275,1790995025.5322373,0.22561083984375013,1.0608978515625,0.025626708984374566,1.0849245276600121,2.6297927479844545,-1.6915157317053617,-1.1299379354640091,3.3247248165764067
276,1790995025.5422168,0.07232958984375011,0.9746771484375,0.09747729492187457,0.9822061577278508,2.6327181829213213,-1.6833528345286324,-1.1306911572445162,3.3231527634568754
277,1790995025.5622168,0.21603076171875013,0.9650970703125,-0.036643798828125435,0.9896587356897882,2.6381341805187075,-1.6665377390429148,-1.1318830150009536,3.3193763193893866
278,1790995025.5874581,0.14897021484375012,1.0992181640625,-0.036643798828125435,1.109871823729246,2.6446352276611895,-1.6445912246856922,-1.1333003326632505,3.31408289391113
279,1790995025.607458,0.18729052734375012,0.969887109375,-0.05580395507812544,0.9893800220172503,2.6495180523588573,-1.6267066638332284,-1.1343935629887871,3.309527041086883
280,1790995025.632019,0.7046147460937502,0.778285546875,-0.25219555664062543,1.0797281749016985,2.6562578939025383,-1.6048177800317034,-1.1361020775692112,3.3048258708565132
281,1790995025.652019,0.8866362304687502,0.6681146484375,-0.37673657226562546,1.1723614773264481,2.6633097870742786,-1.5874976685808668,-1.1382280327760104,3.302867076385678
282,1790995025.6625729,0.9776469726562501,0.5914740234375,-0.3432062988281255,1.1930740492947516,2.667948483162082,-1.5787319198990464,-1.1397514674887794,3.3029346029489908
283,1790995025.6825728,1.3321098632812503,0.5387835937500001,-0.3623664550781254,1.4819291131870118,2.6788850667455746,-1.5629167805418192,-1.1432637545324622,3.3054781917536995
284,1790995025.7075324,1.4087504882812503,0.4286126953125,-0.42942700195312544,1.533849513747081,2.6956172041120343,-1.5443294233920646,-1.148471738602418,3.3121432356448155
285,1790995025.7275324,1.28420947265625,0.47172304687500005,-0.4533771972656255,1.4412728699359851,2.711052915455739,-1.5303190537888633,-1.153343106722391,3.319922384426232
286,1790995025.7525926,1.5237114257812503,0.586683984375,-0.4725373535156255,1.6997606175711941,2.732770376089056,-1.5134079000554341,-1.160271667579438,3.3323666879513256
287,1790995025.7725925,2.15120654296875,0.47172304687500005,-0.6401887207031255,2.293480721867986,2.753015144962254,-1.5003483313064199,-1.1666408584920736,3.3453233620008427
288,1790995025.797183,2.0266655273437504,0.29449160156250004,-0.6545588378906255,2.1500106361074343,2.781878085308997,-1.4852866966132943,-1.1756851662654686,3.3655843271021375
289,1790995025.817183,1.5380815429687502,0.27533144531250003,-0.6593488769531255,1.6959490496882121,2.8071788281355685,-1.4740195016918665,-1.183908567955432,3.3844683425582227
290,1790995025.8269212,1.7344731445312502,0.21785097656250002,-0.7743098144531255,1.9119131324011016,2.8200403135770262,-1.4689960971273763,-1.188359116507404,3.394521217102838
291,1790995025.8469212,2.4386088867187503,0.11247011718750001,-1.0186018066406255,2.645186660735945,2.848752220593807,-1.459731260640335,-1.1988178021835698,3.4180943068413154
292,1790995025.8721724,2.55356982421875,-0.012070898437499998,-1.1718830566406255,2.8096573549440227,2.889019487709628,-1.4495983309515126,-1.2141902208411532,3.452828813284797
293,1790995025.8921723,2.19431689453125,-0.103081640625,-1.1958332519531254,2.501133667906615,2.923250685601752,-1.4429492063516645,-1.2280910578552253,3.483633825384921
294,1790995025.9172792,2.09851611328125,-0.05518125,-1.1958332519531254,2.415953644946317,2.967860381007974,-1.4361523059899166,-1.2474274214942085,3.525167210084174
295,1790995025.9372792,2.5344096679687502,-0.4048541015625,-1.2437336425781256,2.852019036108648,3.0050151603946116,-1.4322401508288938,-1.2641794949732141,3.5608394739665754
296,1790995025.9471414,2.9176127929687503,-0.4767046875,-1.6029865722656256,3.362926957226886,3.024620998948851,-1.4312524545899437,-1.2733066293653825,3.580240990273967
297,1790995025.9671414,2.58710009765625,-0.6922564453125001,-1.5742463378906255,3.1065346342398508,3.0666737105254707,-1.4313033488972478,-1.29380541208663,3.6231270151261863
298,1790995025.992734,2.28053759765625,-0.7114166015625001,-1.5790363769531255,2.863620295193434,3.1217569674240426,-1.4340529754588802,-1.3221541766490776,3.6810278682609323
299,1790995026.012734,2.4386088867187503,-0.8455376953125001,-1.7610578613281256,3.1245915073051753,3.1654249966567134,-1.4382148572419697,-1.3459951153717975,3.7282811368853923
300,1790995026.0376606,2.64937060546875,-1.2958013671875,-1.7323176269531255,3.4204078921934666,3.221198191358315,-1.4466271215956958,-1.3777826926841246,3.7904001062165253
301,1790995026.0576606,2.5152495117187503,-1.4251324218749999,-1.7610578613281256,3.385086013239,3.2669824329325405,-1.4564456826762038,-1.4047018786462397,3.842862944673964
302,1790995026.0668068,2.56314990234375,-1.5496734375,-1.9095490722656254,3.55212652423423,3.2882630384301743,-1.4623029149254663,-1.4176836667091313,3.867923293417206
303,1790995026.0868068,2.75954150390625,-1.7843853515625,-1.9334992675781255,3.81280996279347,3.3358011355406836,-1.478190782573851,-1.4475773649561139,3.9253149469939475
304,1790995026.1127715,2.87929248046875,-1.693374609375,-1.9430793457031255,3.864375770995609,3.399240351553498,-1.5024955164031777,-1.4881142076811347,4.003350052086834
305,1790995026.1327715,2.7978618164062503,-1.6263140625,-1.8376984863281256,3.721567398320501,3.449291856513543,-1.5233881687595614,-1.5203261990224473,4.065675537418265
306,1790995026.1573565,2.83618212890625,-1.6215240234375,-1.7179475097656256,3.6911533256181652,3.5119773417507134,-1.5512067557568066,-1.5605395137858893,4.144334786448009
307,1790995026.1773565,3.05652392578125,-1.7460650390625,-1.7035773925781255,3.9106594791688063,3.564162003916437,-1.57549406547108,-1.5934784043105588,4.210060066733057
308,1790995026.1871917,3.14274462890625,-1.7748052734375,-1.6269367675781254,3.9590025014943095,3.590547949186332,-1.588243264273126,-1.609703533698046,4.243311997522113
309,1790995026.2071917,3.02299365234375,-1.712534765625,-1.5119758300781254,3.78910765963773,3.6454040260721037,-1.6155109559788914,-1.6424566480128648,4.312367099725184
310,1790995026.2327535,2.9271928710937503,-1.578413671875,-1.5981965332031256,3.6897262747914628,3.716405773055474,-1.6514431695507894,-1.6840015314386103,4.401681220868181
311,1790995026.2527535,2.9319829101562505,-1.578413671875,-1.6077766113281255,3.6976829416465637,3.772414524478045,-1.680075268564186,-1.7164400776430992,4.472128217378543
312,1790995026.2775047,2.9176127929687503,-1.616733984375,-1.5263459472656256,3.6682455120482564,3.842190442580411,-1.7161254072238787,-1.7563810354170921,4.559867119988081
313,1790995026.2975047,2.80265185546875,-1.60715390625,-1.3730646972656255,3.510428430293688,3.898695381681728,-1.7457217353618144,-1.7881629993203105,4.630863522994314
314,1790995026.306941,2.6924809570312505,-1.4682427734375,-1.2437336425781256,3.3093902639924493,3.9252455225662817,-1.7597677695548886,-1.8027610113963093,4.6641486124909735
315,1790995026.326941,2.6110502929687502,-1.26227109375,-1.3299543457031255,3.1905627259440688,3.981031918009436,-1.7891680105564167,-1.832920423318561,4.73384986880938
316,1790995026.3521907,2.6350004882812503,-1.2574810546875,-1.3826447753906255,3.2305096735740335,4.0508316843019125,-1.8254895515758838,-1.870421841262045,4.820801520673413
317,1790995026.3721907,2.7978618164062503,-1.2574810546875,-1.2006232910156256,3.2940530708431615,4.1059753490620885,-1.8537163461912718,-1.8995454753611376,4.889127823263289
318,1790995026.397797,2.90324267578125,-1.0562994140625002,-1.0856623535156256,3.2746372673118076,4.176935552642082,-1.8888783663366486,-1.9356306982528766,4.976074586836389
319,1790995026.417797,2.7787016601562504,-1.0083990234375002,-1.3155842285156254,3.2355545689949134,4.232568660102497,-1.9153193374331918,-1.9631894017443103,5.043530336376351
320,1790995026.4273334,2.3859184570312504,-1.0994097656250001,-1.5023957519531255,3.0263016557905784,4.25881013657098,-1.9275431906500007,-1.976374191251057,5.075326735789941
321,1790995026.4473333,2.2326372070312503,-1.3197515625,-1.4497053222656255,2.971204908172234,4.3125177679699,-1.9529629844418994,-2.0043064229605494,5.140925807165204
322,1790995026.4719853,2.3092778320312504,-1.3149615234375,-1.4784455566406256,3.0410013445545254,4.377185401969462,-1.984466908439997,-2.0389851934813796,5.220662943836182
323,1790995026.4919853,2.4529790039062505,-1.329331640625,-1.4736555175781254,3.15529542021981,4.428923480248757,-2.010158401398977,-2.067327767089967,5.284878814996125
