imu_index,t_imu,ax,ay,az,mag,vx,vy,vz,velocity
0,1791286338.5271733,0.06169570312499998,-0.030799951171875,-0.028644433593750088,0.07466927314621975,0.0,0.0,0.0,0.0
1,1791286338.5471733,0.05211562499999998,-0.030799951171875,-0.03343447265625009,0.06915590591650175,0.0002493787758455145,-0.00013166966568966745,-0.00012963988857268158,0.00031037586151982477
2,1791286338.5715096,-0.0005748046875000218,-0.069120263671875,0.028836035156249915,0.0748963161579445,0.000601383696854801,-0.000450231898506284,-0.00027211900762533,0.0007990118069129607
3,1791286338.5915096,-0.01973496093750002,-0.040380029296875,0.043206152343749915,0.06234410196299616,0.0008168097262472007,-0.0008370116672080875,-0.0002635836511473688,0.001198850700081819
4,1791286338.6170154,0.01858535156249998,-0.0020597167968749988,-0.004694238281250087,0.019279356810490415,0.0010481317120678622,-0.001337464088897635,-0.00018066061865521307,0.0017088090981926486
5,1791286338.6370153,0.08085585937499998,-0.011639794921874998,-0.009484277343750088,0.08223810757687855,0.0013514729419030526,-0.0016915723444310734,-0.00014665893315314455,0.0021701163452252387
6,1791286338.6460743,0.05211562499999998,0.0027303222656250015,0.019255957031249913,0.05562629692873806,0.0015586047626653958,-0.001833959377857016,-0.00012692899708552434,0.0024101383313274954
7,1791286338.6660743,0.01858535156249998,0.026680517578125004,0.05757626953124992,0.06612330999030143,0.0020533586458199886,-0.0020570459415902255,2.5344330343925534e-05,0.0029066066244432007
8,1791286338.6915925,0.023375390624999978,0.012310400390625002,0.03362607421874991,0.04276292450258418,0.002670238057268459,-0.002224365301920712,0.0003650371831303168,0.0034944562415261935
9,1791286338.7115924,0.023375390624999978,-0.006849755859374999,0.024045996093749914,0.03422773685689744,0.003151323738112661,-0.002327641012232851,0.0006778455625514362,0.00397595631149179
10,1791286338.7361689,0.03295546874999998,0.0027303222656250015,0.004885839843749913,0.03342736919329978,0.003757648128039711,-0.0024431054683334294,0.0010579017111269505,0.0046051970439891475
11,1791286338.7561688,0.009005273437499978,0.017100439453125,-0.009484277343750088,0.021528388140018936,0.0042399953629140485,-0.002493228327647026,0.001313896171227914,0.005091175828831842
12,1791286338.7820406,-0.01973496093750002,0.026680517578125004,9.580078124991288e-05,0.03318626039840852,0.0047495408576318,-0.002463389186448608,0.001577157801961409,0.005577979147909527
13,1791286338.8020406,-0.024525000000000022,0.041050634765625,0.014465917968749914,0.049958913342258986,0.005017966518220741,-0.0023421856536971907,0.0017719860604772362,0.00581427176978295
14,1791286338.8105912,0.047325585937499984,0.012310400390625002,-0.01906435546875009,0.05248529976616364,0.005130135108438336,-0.0022639196202297986,0.0018398382081069656,0.005901578001662208
15,1791286338.8305912,0.08564589843749998,-0.064330224609375,-0.014274316406250088,0.1080618055851601,0.005552600403905399,-0.0021863444747893877,0.001924730662542403,0.006270252110658981
16,1791286338.8568919,0.03774550781249998,-0.054750146484375,0.014465917968749914,0.0680555999368356,0.006268219182281466,-0.0023345245728655156,0.0020199996503559416,0.006987200819059975
17,1791286338.8768919,0.01379531249999998,-0.035589990234375,0.03362607421874991,0.05086915488997671,0.006808085407928285,-0.002565813934480911,0.0021537166599298603,0.007587616458367008
18,1791286338.886403,0.07606582031249998,-0.040380029296875,9.580078124991288e-05,0.08611948074402043,0.007090416082505237,-0.0027135001535855733,0.0022318240315787104,0.007913161303454522
19,1791286338.906403,0.07127578124999998,-0.026009912109374998,-0.009484277343750088,0.07646374328705359,0.007816054457175625,-0.003077053217018255,0.00235734721920384,0.00872445125436468
20,1791286338.931819,0.03295546874999998,-0.035589990234375,0.043206152343749915,0.06495753940664979,0.008798556905594744,-0.0035871760135351353,0.002557214816369358,0.009839806044334907
21,1791286338.951819,-0.0005748046875000218,0.012310400390625002,0.047996191406249916,0.04955311037373588,0.009504296298078538,-0.003963302253915972,0.0028277040542089146,0.010678732279430662
22,1791286338.9758158,0.02816542968749998,0.021890478515625002,0.014465917968749914,0.03849347037879472,0.010273712648987148,-0.004285347260372192,0.0032159838445172326,0.011586885898468744
23,1791286338.9958158,0.07127578124999998,-0.006849755859374999,-0.028644433593750088,0.07712107185482868,0.010967949047537746,-0.004490931327559466,0.0034697836792046163,0.012349241647919677
24,1791286339.0060728,0.07127578124999998,-0.016429833984375,-0.004694238281250087,0.07329537714339919,0.011380244184620145,-0.0045984585996981155,0.0035547742835068973,0.012778583622663356
25,1791286339.0260727,0.023375390624999978,0.012310400390625002,0.038416113281249914,0.04662351986161773,0.012205559673839966,-0.004782853681482968,0.0037462206622260272,0.013633984947191074
26,1791286339.0507274,-0.014944921875000022,0.026680517578125004,0.043206152343749915,0.05293365950355046,0.013085932683381192,-0.004903969032959255,0.00409774999984191,0.014563038883811708
27,1791286339.0707273,0.01858535156249998,-0.006849755859374999,0.004885839843749913,0.02040112445463575,0.013698432601071436,-0.004957734992339075,0.00441227621737611,0.015221510220696989
28,1791286339.0964322,0.06169570312499998,-0.030799951171875,-0.01906435546875009,0.07154331852602923,0.014522333803541631,-0.005089055559978578,0.004728548523076672,0.016098317822962976
29,1791286339.1164322,0.06169570312499998,-0.030799951171875,9.580078124991288e-05,0.06895655120485439,0.015252310174045047,-0.005268304561712012,0.004909263320166891,0.016866797708722594
30,1791286339.1415105,0.02816542968749998,-0.026009912109374998,0.014465917968749914,0.040976453483647396,0.01619935719600634,-0.005566205374033111,0.005129263056490945,0.0178804685434247
31,1791286339.1615105,0.06648574218749999,-0.083490380859375,-0.004694238281250087,0.10683179996287324,0.016983314581178636,-0.005932395567203723,0.005293053176641528,0.018752138631628345
32,1791286339.1715486,0.10480605468749998,-0.083490380859375,-0.03343447265625009,0.13810436907282936,0.017446726254029425,-0.006214333272023535,0.0053342239290428825,0.019273301220185193
33,1791286339.1915486,0.08085585937499998,-0.011639794921874998,-0.009484277343750088,0.08223810757687855,0.018510024903054634,-0.0068345010823300635,0.005339570167164155,0.020441194596357206
34,1791286339.2170227,0.047325585937499984,-0.0020597167968749988,0.014465917968749914,0.04952995356639885,0.019906101945739406,-0.007532098861825665,0.005354875967112558,0.02194675612844972
35,1791286339.2370226,0.06648574218749999,-0.054750146484375,0.009675878906249913,0.08666922802755109,0.021008483235952374,-0.008082851679210539,0.005401302870672084,0.023148713395006192
36,1791286339.2618895,0.09043593749999998,-0.045170068359375,-0.004694238281250087,0.10119797300408574,0.022466185525386432,-0.008851262089876874,0.005459659534862256,0.02475645804394051
37,1791286339.2818894,0.10480605468749998,-0.026009912109374998,-0.004694238281250087,0.10808728186117829,0.023755593667345677,-0.009483349021746112,0.005485471857010111,0.026160132657353577
38,1791286339.2921443,0.07606582031249998,-0.021219873046875,0.004885839843749913,0.07912119477685989,0.02445667012890081,-0.009795157822013472,0.005496869055565416,0.026912625289370294
39,1791286339.3121443,0.05211562499999998,-0.0020597167968749988,0.004885839843749913,0.05238465646926327,0.02581115091676669,-0.010346977900398782,0.005530420255629204,0.028352442778768118
40,1791286339.336741,0.03295546874999998,0.007520361328125002,0.024045996093749914,0.041482872166454667,0.02738400651065291,-0.010913755207708827,0.005618865407974544,0.03000942374958582
41,1791286339.356741,0.04253554687499998,0.007520361328125002,0.014465917968749914,0.04555317074737477,0.028584320836423094,-0.011282921836736208,0.005737762021663733,0.03126163200907331
42,1791286339.3812547,0.047325585937499984,-0.011639794921874998,9.580078124991288e-05,0.048736075836496015,0.030000061607329702,-0.011675105938645992,0.005888404718636237,0.032725908776573984
43,1791286339.4012547,0.03774550781249998,0.0027303222656250015,0.004885839843749913,0.038158216031104475,0.031109468061699147,-0.011960445297180617,0.006000346149538031,0.03386525370793795
44,1791286339.4110904,0.05211562499999998,0.021890478515625002,-0.01906435546875009,0.05965468186339211,0.031639509156098096,-0.012061560180382517,0.0060366805454229715,0.03439449499020581
45,1791286339.4310904,0.06648574218749999,-0.030799951171875,-0.014274316406250088,0.07465083398916814,0.032733530035571314,-0.012249690572104248,0.006049472678946646,0.03547019914513127
46,1791286339.456731,0.11438613281249999,-0.045170068359375,-0.009484277343750088,0.1233469658002282,0.03427354595038071,-0.012600796745592438,0.006017723605295415,0.03700903981497386
47,1791286339.476731,0.11438613281249999,-0.049960107421875004,-0.02385439453125009,0.12707962799700318,0.03563774552767286,-0.012976277763726212,0.005946665783502772,0.038390044605824895
48,1791286339.5016024,0.09522597656249998,-0.078700341796875,-0.0669647460937501,0.14052048829486455,0.03747075018324142,-0.01361317064734059,0.0057021457027919146,0.04027269546459947
49,1791286339.5216024,0.05211562499999998,-0.073910302734375,-0.01906435546875009,0.09242413574855025,0.03894465175398337,-0.014277413347739035,0.00540596860340187,0.04183007206164249
50,1791286339.5320847,0.10001601562499998,-0.030799951171875,0.009675878906249913,0.10509739771420859,0.039720874758892244,-0.014655652986416415,0.005266641134582782,0.04266466412513215
51,1791286339.5520847,0.1335462890625,-0.045170068359375,-0.009484277343750088,0.14129719712254943,0.041330079423485724,-0.015383028704484814,0.005040970286141724,0.044387210080161665
52,1791286339.5763814,0.10959609374999998,-0.006849755859374999,0.009675878906249913,0.11023540970668291,0.04343483349557802,-0.016228920042272103,0.004808288711988985,0.046616330259522665
53,1791286339.5963814,0.03295546874999998,0.05542075195312501,0.07673642578124992,0.10022974463333383,0.04512131724801583,-0.016747917786543456,0.004775104149166989,0.048365562542126
54,1791286339.6213381,0.01379531249999998,0.084160986328125,0.08152646484374991,0.11798282390506971,0.046997610520389865,-0.01703713589855206,0.0050361355800018345,0.050243427986475526
55,1791286339.641338,0.01858535156249998,0.036260595703125,0.014465917968749914,0.0432378176614617,0.04832427317054687,-0.017053513021419386,0.005357933163373013,0.05152441296721903
56,1791286339.6512675,0.009005273437499978,0.021890478515625002,-0.02385439453125009,0.033605358765823594,0.048904672640991693,-0.01701711870190365,0.005486740307541236,0.05207066020552877
57,1791286339.6712675,-0.01973496093750002,0.021890478515625002,9.580078124991288e-05,0.029473223621405576,0.04988226990315567,-0.016889137251336585,0.00567163090868744,0.052968398172402134
58,1791286339.696566,0.023375390624999978,0.021890478515625002,0.009675878906249913,0.03345481384080307,0.05094028133657258,-0.016668462951190923,0.00588896441307056,0.05392058810568372
59,1791286339.716566,0.04253554687499998,0.0027303222656250015,0.004885839843749913,0.04290220085972586,0.051750103213874736,-0.016483244520224625,0.006056849309412825,0.054648476246983664
60,1791286339.7411685,0.09043593749999998,-0.059540185546875,-0.009484277343750088,0.10869058838369298,0.05284221230444356,-0.01639440394962082,0.006223905404778952,0.05567596322093463
61,1791286339.7611685,0.07606582031249998,-0.030799951171875,-0.01906435546875009,0.0842501968035819,0.05384659949022392,-0.016468526215699702,0.006296516331785533,0.056659639517863264
62,1791286339.771487,0.03295546874999998,-0.021219873046875,-0.01906435546875009,0.04358664453816764,0.05437143121262999,-0.016541289163730644,0.006298851557008154,0.05717991177192504
63,1791286339.791487,0.06648574218749999,-0.035589990234375,9.580078124991288e-05,0.07541227020117688,0.05538526463950267,-0.016746382427253542,0.006274246086790607,0.0582008163821194
64,1791286339.8163118,0.1335462890625,-0.064330224609375,-0.03822451171875009,0.15308201206149044,0.05682734966215829,-0.01714880548841224,0.006177295415125233,0.0596790430381581
65,1791286339.8363118,0.11438613281249999,-0.069120263671875,-0.04301455078125009,0.14039960758058104,0.05818678318783398,-0.017624559065256274,0.005989045425273178,0.061091697349956585
66,1791286339.861352,0.10959609374999998,-0.049960107421875004,0.014465917968749914,0.12131190741861525,0.0600541435100166,-0.018354493805002772,0.005735093744485586,0.06305774255250177
67,1791286339.881352,0.09043593749999998,-0.016429833984375,0.004885839843749913,0.0920460192905527,0.06162195905956359,-0.01894963790976096,0.005591711263730651,0.06471183701693618
68,1791286339.9069347,0.07606582031249998,-0.035589990234375,-0.014274316406250088,0.08518457920047608,0.06364606575615879,-0.01969653093841956,0.005417802090155387,0.06684405431101184
69,1791286339.9269347,0.07127578124999998,-0.030799951171875,-0.004694238281250087,0.07778759449956583,0.06521211422103204,-0.020292432583871346,0.005273785146712019,0.06849974796392738
70,1791286339.9374843,0.047325585937499984,-0.006849755859374999,0.043206152343749915,0.06444689162412773,0.06600810089387948,-0.020589397769703456,0.005239685509895355,0.06934296639442425
71,1791286339.9574842,0.01858535156249998,-0.026009912109374998,0.05278623046874992,0.061711562512539855,0.0673896538206666,-0.02111722949417462,0.005328724348759779,0.07082159364744617
72,1791286339.9821973,-0.0005748046875000218,-0.006849755859374999,0.014465917968749914,0.016016002573689098,0.06887408816227679,-0.02173251855666609,0.0055468926766367305,0.07243417978666589
73,1791286340.0021973,-0.0005748046875000218,0.0027303222656250015,-0.01906435546875009,0.019267452077059932,0.06989349916482848,-0.02216195215879918,0.005690071995527982,0.07354339037810995
74,1791286340.0409513,0.01379531249999998,-0.0020597167968749988,0.009675878906249913,0.01697573894899414,0.07161094202320657,-0.022867299903948823,0.005898606851752809,0.07540446926502259
75,1791286340.0609512,-0.0005748046875000218,0.007520361328125002,0.004885839843749913,0.008986526910497972,0.0723841533467425,-0.023168519701347375,0.006011926170744619,0.07623902686392933
76,1791286340.0561652,-0.005364843750000022,0.017100439453125,-0.014274316406250088,0.02291206421991805,0.0723841533467425,-0.023168519701347375,0.006011926170744619,0.07623902686392933
77,1791286340.0761652,0.02816542968749998,0.05542075195312501,0.014465917968749914,0.06382800293922657,0.07296942632975137,-0.023245977830542042,0.00608211648458445,0.0768238557033108
78,1791286340.1018898,0.09043593749999998,0.041050634765625,0.038416113281249914,0.10648761038638471,0.07383812788254712,-0.02314453575286312,0.006260883338111397,0.07763335188299152
79,1791286340.1218898,0.11917617187499999,-0.011639794921874998,0.024045996093749914,0.12213375740041522,0.07472662207593354,-0.02303338213274969,0.00647271344011306,0.07846337208296933
80,1791286340.1467109,0.10480605468749998,-0.016429833984375,-0.009484277343750088,0.1065091548208253,0.07608085089095067,-0.022968380507505114,0.006723279804905293,0.0797561588014597
81,1791286340.1667109,0.08564589843749998,-0.021219873046875,0.014465917968749914,0.08941345376379696,0.07729404266943556,-0.02298033526638633,0.006902365681112851,0.08093273437327969
82,1791286340.176395,0.10001601562499998,-0.011639794921874998,0.03362607421874991,0.10615743532456134,0.07792820835572427,-0.023009121723218683,0.007011002302425999,0.08155598992895427
83,1791286340.196395,0.06648574218749999,-0.006849755859374999,-0.01906435546875009,0.06950340077287312,0.0792912105288926,-0.023087389372937667,0.007223551636842591,0.0828993565321525
84,1791286340.2212806,0.06169570312499998,-0.064330224609375,-0.014274316406250088,0.09026900736823525,0.08097201888684609,-0.023303020503339655,0.007386128495937668,0.08458163808622608
85,1791286340.2412806,0.09522597656249998,-0.054750146484375,0.009675878906249913,0.1102687071881716,0.08235560143892635,-0.023628943655103853,0.0074902909742787975,0.08600509592752469
86,1791286340.2665584,0.09043593749999998,-0.006849755859374999,0.009675878906249913,0.09120965178886145,0.0841939827957021,-0.024095869579551062,0.007638881559928298,0.08790671294778533
87,1791286340.2865584,0.06169570312499998,-0.026009912109374998,-0.01906435546875009,0.06961555114674023,0.08565853714756845,-0.024459178312234507,0.0077247297167968,0.08941648527631026
88,1791286340.2962785,0.047325585937499984,-0.054750146484375,-0.01906435546875009,0.07483808705349888,0.08634302777720937,-0.024668137246950668,0.007732397862621325,0.09013004725215788
89,1791286340.3162785,0.05211562499999998,-0.035589990234375,-0.03822451171875009,0.07378210535191032,0.08768933198157917,-0.02516910685866805,0.007659875877046661,0.09155095074268982
90,1791286340.3417737,0.02816542968749998,-0.073910302734375,-0.009484277343750088,0.07966163315236285,0.08930163026346079,-0.025921313563089736,0.007490068406338633,0.09328878169040213
91,1791286340.3617737,-0.005364843750000022,-0.006849755859374999,-0.009484277343750088,0.012870595189350324,0.09041089414451776,-0.026544016820307922,0.00734838981882051,0.09451303318536196
92,1791286340.3864748,0.03295546874999998,-0.021219873046875,-0.004694238281250087,0.03947634488777895,0.09162651169026684,-0.02724973113034065,0.00717338895548323,0.09586147818758645
93,1791286340.4064748,0.10001601562499998,-0.10744057617187501,9.580078124991288e-05,0.14678790811042441,0.09266258989400236,-0.0279284134661833,0.007046050936147778,0.0970360689558112
94,1791286340.4165921,0.08085585937499998,-0.09786049804687501,-0.014274316406250088,0.12774233120668316,0.09324533335337609,-0.028376018744148912,0.00698053884082727,0.09771703308256356
95,1791286340.436592,0.047325585937499984,-0.049960107421875004,0.024045996093749914,0.07289673069537221,0.09441678326087534,-0.02934985604853547,0.006885117037228431,0.09911280365329797
96,1791286340.4615505,0.06169570312499998,0.0027303222656250015,0.05757626953124992,0.08443246565686352,0.0958634520035161,-0.030471244662623995,0.006936687009088608,0.10082864577084226
97,1791286340.4815505,0.06648574218749999,0.031470556640625,0.06236630859374991,0.09643809567336109,0.09704109855727994,-0.03118375876425454,0.007151726741021237,0.10217900378869026
98,1791286340.5219936,0.08564589843749998,0.065000830078125,0.028836035156249915,0.11131866309628553,0.09952673245039023,-0.03211583353652362,0.0077979834355858925,0.10487042376980713
99,1791286340.5419936,0.138336328125,0.065000830078125,0.043206152343749915,0.15883582464388904,0.10090752276173394,-0.03231262176992269,0.008177695697485192,0.10626997874506516
100,1791286340.5370212,0.08085585937499998,0.031470556640625,0.047996191406249916,0.09915493089123675,0.10090752276173394,-0.03231262176992269,0.008177695697485192,0.10626997874506516
101,1791286340.5570211,0.09522597656249998,-0.021219873046875,-0.009484277343750088,0.09802153406849161,0.10244873603623803,-0.03231642435706311,0.0086260885000946,0.10777060917272399
102,1791286340.5822184,0.07606582031249998,-0.040380029296875,-0.03822451171875009,0.09422138335838039,0.10442290443872665,-0.03243690768162918,0.009016105743697708,0.1097159337295523
103,1791286340.6022184,0.10001601562499998,-0.049960107421875004,-0.05738466796875009,0.12566708333127344,0.106018950364311,-0.03265370492727048,0.00913582726277787,0.11130923421532826
104,1791286340.627609,0.09043593749999998,-0.126600732421875,-0.04301455078125009,0.16142074160457767,0.1081039247181151,-0.033223875652458275,0.009073829145770984,0.11345756399727851
105,1791286340.647609,0.07127578124999998,-0.136180810546875,0.024045996093749914,0.1555752553658272,0.10974246125480154,-0.033999798457089545,0.009003866256582536,0.11524089423876731
106,1791286340.6713617,0.10480605468749998,-0.09786049804687501,0.024045996093749914,0.1453932464225292,0.11171022921655316,-0.03520001825889609,0.009018912962684601,0.11747151734812122
107,1791286340.6913617,0.10001601562499998,-0.088280419921875,-0.03343447265625009,0.13752999630947554,0.11342580880349383,-0.036338235979796664,0.009015599305394858,0.11944522814949772
108,1791286340.702156,0.1622865234375,-0.088280419921875,-0.03343447265625009,0.1877450723529498,0.11442520727433064,-0.03700334771259337,0.008959943357126994,0.12059293671967501
109,1791286340.722156,0.26287734375,-0.088280419921875,-0.03822451171875009,0.2799268541865448,0.11663689413683666,-0.03831566587925167,0.008764803041716491,0.12308158716078606
110,1791286340.7467294,0.1670765625,0.021890478515625002,-0.06217470703125009,0.1796092007133299,0.1197391125133802,-0.03980856475884691,0.008375969160750044,0.12646079927405593
111,1791286340.7667294,-0.010154882812500023,0.050630712890625006,0.028836035156249915,0.0591448024451937,0.12212062927426663,-0.040732580045457684,0.008056963440917457,0.1289864559998094
112,1791286340.7913165,-0.029315039062500024,-0.049960107421875004,0.15816708984374991,0.1684405300350306,0.12453642327968463,-0.041696897871907196,0.008068457403341934,0.1315790713613171
113,1791286340.8113165,0.06169570312499998,-0.088280419921875,0.16774716796874992,0.19934619305922727,0.12625531598680015,-0.0425710044885872,0.008565275448248954,0.133514265835522
114,1791286340.821788,0.1670765625,-0.083490380859375,0.1342168945312499,0.22999868741032536,0.12719996717108556,-0.043094922644464455,0.009023533798380697,0.13460471079523234
115,1791286340.841788,0.19581679687499998,-0.09786049804687501,-0.04780458984375009,0.22406734216859137,0.12927789103241563,-0.04421749829608463,0.009897106981762377,0.13698873308400886
116,1791286340.8668725,0.19581679687499998,-0.29425209960937504,-0.1819256835937501,0.39752417588615147,0.13222994403361216,-0.04615196330765696,0.010396216330010108,0.14043804018236614
117,1791286340.8868725,0.11438613281249999,-0.33257241210937505,-0.1723456054687501,0.39165240252095596,0.13469588033003588,-0.048403203172079384,0.010203060708902976,0.14349199525768155
118,1791286340.91214,0.11438613281249999,-0.29425209960937504,-0.1148651367187501,0.3359501229911095,0.13777749576729673,-0.052008593636696,0.009451358506378103,0.1475698489854568
119,1791286340.9321399,0.07606582031249998,-0.25593178710937503,-0.03343447265625009,0.2690816839448823,0.1401364967592064,-0.05525958997203866,0.008723161021150453,0.15089053497824778
120,1791286340.9413154,-0.029315039062500024,-0.18408120117187501,-0.0669647460937501,0.19806447778316189,0.14108858689758974,-0.056830152764729705,0.008370101290572918,0.1523342187810595
121,1791286340.9613154,-0.05805527343750003,-0.09786049804687501,-0.0669647460937501,0.132027910198131,0.14272151695972657,-0.06016292578755358,0.0075150756789750155,0.15506606787129454
122,1791286340.986937,-0.048475195312500025,-0.054750146484375,-0.06217470703125009,0.095984984737548,0.14429493774387403,-0.0640853135027159,0.00633586263519735,0.15801297295026745
123,1791286341.006937,-0.07242539062500003,0.026680517578125004,-0.004694238281250087,0.07732608291166464,0.14515755278968914,-0.06672992480112436,0.0054531506627966825,0.1598541048831911
124,1791286341.03198,-0.10116562500000002,0.132061376953125,-0.01906435546875009,0.16744593340489006,0.14574961584835927,-0.06924650809873639,0.004469030734334048,0.16142491021994432
125,1791286341.05198,-0.10595566406250002,0.079370947265625,-0.06217470703125009,0.1462601935291683,0.1458408452478098,-0.07063769585545718,0.0036791206785956264,0.16208877859781456
126,1791286341.0618455,-0.12990585937500002,0.007520361328125002,0.028836035156249915,0.13328017503738251,0.14570457909035547,-0.07115670804358708,0.003323255404905224,0.16218552800414768
127,1791286341.0818455,-0.10116562500000002,-0.030799951171875,0.08631650390624991,0.13650516298084908,0.1451231622798558,-0.07208597423647889,0.00288276726739796,0.1620661292770505
128,1791286341.1066906,-0.09637558593750002,-0.006849755859374999,0.038416113281249914,0.10397581680259751,0.1441411381893435,-0.07313735970136621,0.0026500723791624448,0.16165631440256592
129,1791286341.1266906,-0.14427597656250002,0.007520361328125002,0.014465917968749914,0.14519426996354648,0.1431082227405142,-0.07385575194917199,0.002570176606287432,0.1610628489742863
130,1791286341.1514618,-0.14427597656250002,-0.026009912109374998,0.1390069335937499,0.20202722719509283,0.14148470886145126,-0.07464640984644566,0.0027711922862407663,0.1599927774971748
131,1791286341.1714618,-0.07242539062500003,0.036260595703125,0.21085751953124993,0.2258786434145574,0.14004547231951062,-0.07517364638952242,0.003433941468670168,0.1589830285996025
132,1791286341.182074,-0.09158554687500002,0.09374106445312501,0.17732724609374992,0.22050000400995712,0.13926580700138821,-0.0753079704047144,0.004041818801804042,0.15837484555778378
133,1791286341.202074,-0.11553574218750003,0.09374106445312501,0.1342168945312499,0.20037482293250836,0.13770616321664583,-0.07524192392329765,0.005482905955543844,0.15701718619707256
134,1791286341.2267914,-0.10116562500000002,0.09374106445312501,0.07194638671874992,0.15555755657739512,0.1356660558571942,-0.07482498857895141,0.007378935546392431,0.15510804723638733
135,1791286341.2467914,-0.12032578125000003,0.06021079101562501,0.038416113281249914,0.13992651910123383,0.1339306824505195,-0.07430730294676514,0.008848522540007266,0.15341870591301845
136,1791286341.2716875,-0.13469589843750002,0.041050634765625,0.004885839843749913,0.14089716498753563,0.13161832686971733,-0.07357046998894369,0.010484327554499302,0.15114866571242982
137,1791286341.2916875,-0.06284531250000003,0.041050634765625,-0.03343447265625009,0.08217391240341995,0.12974305571806174,-0.07294418213809524,0.011558491186588443,0.14929069942017864
138,1791286341.301978,-0.048475195312500025,-0.0020597167968749988,-0.01906435546875009,0.0521299975379552,0.1288369855490877,-0.0726401809057063,0.011987760250522516,0.14838891846500393
139,1791286341.321978,-0.053265234375000026,-0.059540185546875,9.580078124991288e-05,0.07988884819403566,0.12718755813092367,-0.07223037432586481,0.01266845472778618,0.1468141398631331
140,1791286341.3470588,-0.05805527343750003,-0.083490380859375,0.028836035156249915,0.10570040394189073,0.12521998448172347,-0.07206259701671464,0.013448449620400382,0.14509970089420904
141,1791286341.3670588,0.004215234374999978,-0.117020654296875,0.019255957031249913,0.11866926145423781,0.12380557967842254,-0.07224964182693233,0.014049277355349568,0.1440319912305519
142,1791286341.3921084,0.04253554687499998,-0.174501123046875,0.009675878906249913,0.17987089071104403,0.12238761830874931,-0.07299646178852551,0.014743281192028623,0.14326401114459625
143,1791286341.4121084,0.009005273437499978,-0.19845131835937502,9.580078124991288e-05,0.19865555589020872,0.12150262918435124,-0.07406271970414624,0.015228924791723247,0.14310868421936127
144,1791286341.4371223,-0.01973496093750002,-0.136180810546875,0.024045996093749914,0.1396885527613095,0.12054167427698505,-0.07582403547299554,0.015790500070528374,0.14327916626427656
145,1791286341.4571223,0.01379531249999998,-0.10265053710937501,0.024045996093749914,0.10632804589550429,0.11987967983193204,-0.07737930905432955,0.01624429625245362,0.14360561363355354
146,1791286341.466377,0.009005273437499978,-0.09786049804687501,0.03362607421874991,0.10386763160403459,0.11963512688665928,-0.07813021195301498,0.016462815878640107,0.14383295141122607
147,1791286341.486377,-0.03410507812500002,-0.040380029296875,0.05278623046874992,0.0746999949600321,0.11914825694832908,-0.07971690903480565,0.016993833773021515,0.14436025459313104
148,1791286341.5113184,-0.08200546875000003,0.050630712890625006,0.07194638671874992,0.1202690673224169,0.11841497142143481,-0.08137965259890549,0.01779004519721306,0.1447799676128457
149,1791286341.5313184,-0.07242539062500003,0.021890478515625002,0.05757626953124992,0.09507711117804338,0.11768352101676108,-0.0824041899480144,0.01852702336024232,0.14485548741584436
150,1791286341.5567355,-0.05805527343750003,-0.045170068359375,0.028836035156249915,0.07900801714399615,0.11664465539401915,-0.08355530065184458,0.019487853511194635,0.1448006917576135
151,1791286341.5767355,-0.07242539062500003,-0.006849755859374999,0.028836035156249915,0.07825518057003872,0.115754098979179,-0.08440323999723325,0.020217003840356303,0.14467773013423008
152,1791286341.5866818,-0.08200546875000003,0.036260595703125,0.05278623046874992,0.10404861283435114,0.11526244115417687,-0.08473974123939006,0.020586118603989415,0.14453387964528036
153,1791286341.6066818,-0.03889511718750002,0.012310400390625002,0.03362607421874991,0.05286860094774343,0.11424076428057302,-0.08524202220673499,0.021346616339650702,0.1441278342391059
154,1791286341.6313195,-0.01973496093750002,-0.040380029296875,0.024045996093749914,0.05097279055890281,0.1130626248782572,-0.08581983005108819,0.022249503994731266,0.1436775584507571
155,1791286341.6513195,-0.010154882812500023,-0.09786049804687501,0.03362607421874991,0.10397361006660734,0.11220487533589216,-0.08642587738598051,0.022959003451237702,0.14347990162581511
156,1791286341.6763926,-0.01973496093750002,-0.040380029296875,0.06715634765624992,0.08080835649701236,0.1112346453125522,-0.087331643271436,0.023904569332040135,0.14342730098990553
157,1791286341.6963925,-0.01973496093750002,-0.035589990234375,0.07673642578124992,0.0868596288834395,0.11051760692740598,-0.08805972389578841,0.024761519109027796,0.14346354673626974
158,1791286341.7067666,-0.029315039062500024,-0.030799951171875,0.043206152343749915,0.06061996459729346,0.11016330227073834,-0.08843238848905902,0.02523266880760862,0.1435023626154928
159,1791286341.7267666,-0.04368515625000002,-0.093070458984375,0.038416113281249914,0.10975564209546118,0.10947320315857066,-0.08922887927275709,0.026127174944425142,0.1436273106921053
160,1791286341.751577,-0.048475195312500025,-0.054750146484375,0.05757626953124992,0.09307228327370444,0.10857404594787859,-0.09034379117829307,0.027248997509438794,0.14385003275365799
161,1791286341.771577,-0.01973496093750002,-0.011639794921874998,0.047996191406249916,0.053184470463974134,0.10785562986635663,-0.09120731167888517,0.028176026905037826,0.1440329791739074
162,1791286341.7966585,-0.005364843750000022,-0.035589990234375,0.038416113281249914,0.0526424421259372,0.1070426037188217,-0.0922166440603672,0.029326765016641453,0.14429860567241273
163,1791286341.8166585,-0.014944921875000022,-0.064330224609375,0.019255957031249913,0.06879331631293722,0.10646108126008111,-0.0930506357200195,0.030193227361334785,0.14458220364020813
164,1791286341.8267417,-0.029315039062500024,-0.088280419921875,0.009675878906249913,0.09352233257049837,0.1061784066019074,-0.09352344171642492,0.030586417377754156,0.14476193252029929
165,1791286341.8467417,-0.0005748046875000218,-0.093070458984375,-0.014274316406250088,0.09416048451902073,0.105656990506222,-0.09459260513567132,0.03124242682776429,0.14521449591302216
166,1791286341.8717854,-0.01973496093750002,-0.131390771484375,0.019255957031249913,0.1342527295650008,0.10506386898444736,-0.09615218015354475,0.03195001354501771,0.14596047985597901
167,1791286341.8917854,-0.005364843750000022,-0.20324135742187502,0.028836035156249915,0.20534689634538125,0.10462360125771245,-0.09771278623453199,0.03250246987787466,0.14680019442088726
168,1791286341.9171345,-0.005364843750000022,-0.21761147460937502,-0.009484277343750088,0.2178841135715538,0.10412888432550378,-0.10019420809256088,0.03313444418034018,0.14825516947921114
169,1791286341.9371345,0.03295546874999998,-0.227191552734375,-0.03343447265625009,0.23199122508446318,0.1038384964524532,-0.10252553673990422,0.033493889284905556,0.14971893550496912
170,1791286341.9471684,0.02816542968749998,-0.227191552734375,-0.028644433593750088,0.23071583525897083,0.10376065960535968,-0.10386164661926604,0.03360045388120092,0.15060712672787874
171,1791286341.9671683,-0.03410507812500002,-0.227191552734375,0.019255957031249913,0.2305427289440246,0.1036198739741099,-0.10680694348214692,0.03376691973785113,0.1525942539121032
172,1791286341.992019,-0.029315039062500024,-0.126600732421875,0.09589658203124991,0.16150316222993077,0.10335298084585416,-0.11057702054479338,0.034157353738491325,0.1551639163488199
173,1791286342.012019,0.09043593749999998,-0.054750146484375,0.11026669921874992,0.15275792054149823,0.10326208391519896,-0.11342810832054556,0.03473368929416387,0.1572749913484993
174,1791286342.0367029,0.12875625,0.09374106445312501,0.009675878906249913,0.15955933602104216,0.10357251647844305,-0.11634691230279871,0.03556035431062814,0.1597761214035749
175,1791286342.0567029,-0.014944921875000022,0.22786215820312503,0.014465917968749914,0.22880947666894053,0.10395703004796286,-0.11787470547385265,0.03616589605164596,0.16127455572457491
176,1791286342.0819201,-0.03889511718750002,0.27097250976562504,0.05757626953124992,0.2797390891578191,0.10426729959095166,-0.1185686519250341,0.03695113014361761,0.1621591224760412
177,1791286342.1019201,0.023375390624999978,0.34282309570312497,0.09110654296874991,0.3554918930243867,0.1044531850929484,-0.11811577636584936,0.037703511759024415,0.1621214338128428
178,1791286342.1123273,-0.010154882812500023,0.47215415039062497,0.11984677734374992,0.4872329149551689,0.10454572266292152,-0.11727934350288173,0.03820095293293702,0.16168971935334633
179,1791286342.1323273,-0.014944921875000022,0.496104345703125,0.06715634765624992,0.5008521214349628,0.10465923139837414,-0.11446065955452464,0.03929401829695129,0.1599963036337914
180,1791286342.1566267,-0.053265234375000026,0.510474462890625,0.05278623046874992,0.5159532426330856,0.10465214482683455,-0.10971529151257664,0.0406414437726257,0.15697529601969196
181,1791286342.1766267,-0.06763535156250003,0.481734228515625,0.07194638671874992,0.49175063829791954,0.10446583631596285,-0.10490709398512231,0.04177120888674284,0.15382926645296313
182,1791286342.202165,0.03295546874999998,0.424253759765625,0.06715634765624992,0.4307984338717215,0.10419719710467683,-0.0979530994848058,0.04326386003762762,0.14941093389878318
183,1791286342.2221649,0.03295546874999998,0.385933447265625,0.028836035156249915,0.3884098422573682,0.10411723870911821,-0.09210876353621895,0.044401459586666074,0.14593119382095432
184,1791286342.2318761,-0.04368515625000002,0.44341391601562496,-0.03343447265625009,0.4468133365900129,0.10407642263272415,-0.08909258461534007,0.04486763086721687,0.14416134947032014
185,1791286342.251876,-0.03410507812500002,0.275762548828125,-0.06217470703125009,0.2847346727824312,0.10388828711313447,-0.08273387134425933,0.04554026990641483,0.14039795529158758
186,1791286342.2768383,-0.04368515625000002,0.127271337890625,-0.009484277343750088,0.13489380208812313,0.10354305920117005,-0.07523340535889518,0.0461197112229064,0.1360450592778625
187,1791286342.2968383,0.004215234374999978,0.165591650390625,-0.0669647460937501,0.17866907986366187,0.1032487440076759,-0.06968607324155783,0.04639965438498641,0.13292621964848222
188,1791286342.3373415,-0.010154882812500023,0.17996176757812501,-0.19150576171875008,0.26299014469416415,0.1027240695409744,-0.05908724624113931,0.046096378408880985,0.127155075533125
189,1791286342.3573415,-0.11074570312500003,0.136851416015625,-0.1771356445312501,0.2497397793496937,0.10232250306318272,-0.054163499276437606,0.04541612617827689,0.12436319312411072
190,1791286342.3508635,-0.12511582031250001,0.165591650390625,-0.04301455078125009,0.21195474694017474,0.10232250306318272,-0.054163499276437606,0.04541612617827689,0.12436319312411072
191,1791286342.3708634,-0.03410507812500002,0.20391196289062502,0.014465917968749914,0.20724986790465896,0.10149281700749871,-0.049666222661180974,0.04460112980195066,0.12147751379229853
192,1791286342.397574,0.004215234374999978,0.21349204101562502,9.580078124991288e-05,0.2135336717139552,0.10049108127526575,-0.04372474373918731,0.04370511905464004,0.11798494845746184
193,1791286342.417574,0.07606582031249998,0.18954184570312502,0.028836035156249915,0.20626108992219855,0.09997394505278519,-0.039338721533686435,0.04317824805896342,0.11578724371347482
194,1791286342.4423964,0.11917617187499999,0.141641455078125,-0.028644433593750088,0.18731194653661257,0.09979186821301621,-0.03409510136386381,0.04262277897371356,0.11374354568896726
195,1791286342.4623964,0.11438613281249999,0.09374106445312501,-0.03822451171875009,0.1527504102801059,0.10001751371782923,-0.030150868572011137,0.042142055648784454,0.11264337876789782
196,1791286342.472296,0.11438613281249999,0.069790869140625,0.019255957031249913,0.1353726142038783,0.10028230729702714,-0.028369977617711137,0.04192571535150048,0.11233504526451155
197,1791286342.492296,0.14791640625,0.041050634765625,0.009675878906249913,0.15381170464299584,0.10113047396812123,-0.02514550431181038,0.041597605577596085,0.11220530264609321
198,1791286342.5166273,0.20060683593749998,0.007520361328125002,0.019255957031249913,0.20166916060853216,0.10264355091856142,-0.021722497912056216,0.041311109237478175,0.11275714259922275
199,1791286342.5366273,0.2485072265625,-0.0020597167968749988,9.580078124991288e-05,0.24851578071595115,0.10437438849972162,-0.01932269702859719,0.04113996559050918,0.11384145274871565
200,1791286342.5611036,0.22455703124999998,0.021890478515625002,-0.05738466796875009,0.232804753927707,0.107043295046289,-0.016789916462672232,0.040856768138867045,0.11579915289821222
201,1791286342.5811036,0.22455703124999998,0.031470556640625,-0.0717547851562501,0.23783398708322548,0.10957065200346008,-0.01495073465089379,0.04046636462297538,0.11775728815179287
202,1791286342.5915027,0.21497695312499998,0.050630712890625006,-0.01906435546875009,0.22167997002922973,0.11103045545589509,-0.014073852148345944,0.04022298816387511,0.11892739015831567
203,1791286342.6115026,0.176656640625,0.09374106445312501,-0.028644433593750088,0.20202836290388063,0.11400432598347333,-0.012423806811023322,0.039753564214430874,0.1213741454609447
204,1791286342.6371696,0.19581679687499998,0.09853110351562501,-0.01906435546875009,0.22003646504120783,0.1179653815995358,-0.010253732580224174,0.03914965429896994,0.12471433646329401
205,1791286342.6571696,0.20060683593749998,0.050630712890625006,-0.004694238281250087,0.20695073709873346,0.12118354111775038,-0.008592685532407149,0.038714028990814504,0.12750710146183217
206,1791286342.682355,0.1622865234375,0.065000830078125,-0.009484277343750088,0.17507705479876193,0.12531365870339523,-0.006596320361214559,0.038220963322914324,0.13117875794986913
207,1791286342.702355,0.11917617187499999,0.09853110351562501,0.004885839843749913,0.15471008284454224,0.12852366118758687,-0.005003486126025697,0.03788124879791842,0.13408338960872354
208,1791286342.712058,0.10480605468749998,0.084160986328125,-0.03822451171875009,0.13974438813426085,0.13001041712876105,-0.004213673929464799,0.0377168939539808,0.13543643416567835
209,1791286342.732058,0.03295546874999998,0.050630712890625006,-0.04780458984375009,0.07703772334690519,0.13282186307819574,-0.002627731646124673,0.03729989991429015,0.13798490793845203
210,1791286342.7570326,0.03295546874999998,0.069790869140625,-0.03822451171875009,0.08612747315504461,0.13592944781815655,-0.0007188185048615716,0.03669615316287389,0.14079751113263678
211,1791286342.7770326,0.08085585937499998,0.10811118164062501,-0.009484277343750088,0.13533532099099319,0.1382154707111713,0.0008474149871976761,0.0362136248539652,0.14288338280267202
212,1791286342.8021066,0.11438613281249999,0.11769125976562501,-0.014274316406250088,0.16473972233157505,0.14101872480183314,0.002941098677861711,0.03565474114608159,0.1454860521574565
213,1791286342.8221066,0.07127578124999998,0.065000830078125,-0.01906435546875009,0.09833002874545492,0.1431978022501761,0.004634638087528944,0.035225814304631564,0.14753965037544076
214,1791286342.8475068,0.06648574218749999,0.045840673828125005,-0.01906435546875009,0.0829769301714526,0.14581257095148,0.00667398167482532,0.03469014873236187,0.15003084448855736
215,1791286342.8675067,0.11917617187499999,0.069790869140625,-0.014274316406250088,0.13884337026681945,0.14784109278828383,0.008212333830055204,0.03428162706920979,0.15198572662682044
216,1791286342.8759596,0.12875625,0.122481298828125,-0.02385439453125009,0.17930106696598178,0.14872701669423946,0.008886878368214167,0.03411069402876008,0.1528471182228298
217,1791286342.8959596,0.10001601562499998,0.09374106445312501,-0.01906435546875009,0.13839812208171048,0.15085189532892734,0.010567817816350807,0.03370254500344518,0.1549317095930929
218,1791286342.921494,0.08564589843749998,0.074580908203125,0.004885839843749913,0.11367235028162431,0.15351339784327608,0.012714344537124963,0.033232463527537226,0.15758304003447127
219,1791286342.941494,0.08564589843749998,0.10332114257812501,9.580078124991288e-05,0.13420315793827464,0.1555422788217926,0.014410286420552818,0.03292697072037669,0.15964097925225587
220,1791286342.9664185,0.08564589843749998,0.079370947265625,-0.01906435546875009,0.11831490539424037,0.15801166057093197,0.016548299136567142,0.03256790568333772,0.1621795287984754
221,1791286342.9864185,0.09043593749999998,0.041050634765625,0.009675878906249913,0.0997869532492753,0.15996004641266529,0.018187181540535308,0.03230891954458877,0.16420065865540592
222,1791286342.9961975,0.07127578124999998,0.069790869140625,0.019255957031249913,0.10159623166924565,0.1608884121343349,0.018949606101985535,0.0322225024002475,0.1651740245664008
223,1791286343.0161974,0.09522597656249998,0.065000830078125,0.03362607421874991,0.12009915649367381,0.16275205554829866,0.02047720877756402,0.032151595941869116,0.1671564320812264
224,1791286343.0412068,0.10480605468749998,0.050630712890625006,0.028836035156249915,0.1199136985940498,0.1651081235771991,0.022317788645170936,0.03219338991116062,0.16969145681255196
225,1791286343.0612068,0.12875625,0.021890478515625002,0.019255957031249913,0.13201574468560515,0.16705998966332344,0.023677693338328115,0.03229393702797062,0.1717922340412982
226,1791286343.0868313,0.08564589843749998,0.041050634765625,0.024045996093749914,0.09797236580775182,0.16959770181118305,0.025279650501283397,0.03248665650999211,0.17452170077185306
227,1791286343.1068313,0.09522597656249998,0.031470556640625,0.019255957031249913,0.10212332950282185,0.1715525950907274,0.026451213168357742,0.03267946460721291,0.17662929249548345
228,1791286343.1163983,0.10959609374999998,-0.016429833984375,0.024045996093749914,0.11339952882685865,0.17249441772263208,0.026938361305402184,0.032788930461629,0.17763759009879587
229,1791286343.1363983,0.08085585937499998,-0.026009912109374998,0.014465917968749914,0.0861594353851381,0.17445365366494484,0.0277403326770315,0.03304121206545507,0.17970900096777365
230,1791286343.160655,0.06169570312499998,0.017100439453125,-0.05259462890625009,0.08285517366685248,0.17673278889920802,0.02855088519976173,0.033231926174965176,0.18208237870557473
231,1791286343.180655,0.05211562499999998,-0.016429833984375,-0.09091494140625009,0.10607310867885712,0.17850080676576216,0.029119955856204343,0.03315032142346956,0.18387347186468905
232,1791286343.2065797,0.07606582031249998,-0.045170068359375,-0.06217470703125009,0.10812972898248624,0.18069803870726442,0.029627186096935515,0.03276274926213418,0.18601867940582728
233,1791286343.2265797,0.10001601562499998,-0.0020597167968749988,-0.0717547851562501,0.12311049917697182,0.18240298530478213,0.02988895523545686,0.03230770666687424,0.187637913554901
234,1791286343.2368033,0.047325585937499984,0.036260595703125,-0.09091494140625009,0.10872013822643471,0.183256769804909,0.03002891939871676,0.03198525798489057,0.1884352313341219
235,1791286343.2568033,0.06648574218749999,-0.026009912109374998,-0.0717547851562501,0.10122064332427322,0.18484717091382902,0.030277029691044767,0.031205081649101005,0.1898918962001427
236,1791286343.281937,0.09043593749999998,-0.016429833984375,-0.03343447265625009,0.09780829309449972,0.1868418052898275,0.030462056201386856,0.030173429400469205,0.19169828615238937
237,1791286343.3019369,0.07606582031249998,-0.0020597167968749988,9.580078124991288e-05,0.07609376210233366,0.18844069744035333,0.030559470963205913,0.029425627861932434,0.19315704825976904
238,1791286343.3263035,0.047325585937499984,-0.006849755859374999,0.019255957031249913,0.05155019030857288,0.1903219790582628,0.0306440699301601,0.028686583151099575,0.19489595887914998
239,1791286343.3463035,0.06648574218749999,-0.030799951171875,0.009675878906249913,0.07390949559441609,0.19180521935932968,0.03064661802208245,0.028214367719706146,0.19627661071939978
240,1791286343.3560996,0.04253554687499998,0.012310400390625002,0.047996191406249916,0.06530278014937954,0.19250284547746943,0.03063409441497015,0.028060139507005432,0.19693441722233415
241,1791286343.3760996,0.01858535156249998,0.045840673828125005,0.07673642578124992,0.09129765446822576,0.19380516986620425,0.030699587784762387,0.02797959442469645,0.19820637290761647
242,1791286343.401591,0.01858535156249998,0.06021079101562501,0.06236630859374991,0.08865839551356562,0.1952871586849247,0.030973298194104673,0.028158277839119266,0.19972307868425454
243,1791286343.421591,-0.005364843750000022,0.026680517578125004,0.03362607421874991,0.04325903875565694,0.1962953113998795,0.0312861694810953,0.02842142827123985,0.20079454988458403
244,1791286343.4469314,0.004215234374999978,-0.006849755859374999,0.038416113281249914,0.03924901420172295,0.19737887129591436,0.03166080960907777,0.028841749862690984,0.20197195902969656
245,1791286343.4669313,0.03774550781249998,-0.030799951171875,0.03362607421874991,0.059195212809637396,0.19816873693516984,0.031855668804318456,0.02923179292955483,0.20283029766612126
246,1791286343.4910133,0.08085585937499998,-0.083490380859375,9.580078124991288e-05,0.11622531079374644,0.1991913628815374,0.03184867899059989,0.029691902260267536,0.20389493976036746
247,1791286343.5110133,0.08085585937499998,-0.10265053710937501,-0.01906435546875009,0.13205397537958413,0.20015582475164656,0.03156453361411462,0.02998825092080155,0.20483644489586655
248,1791286343.521241,0.08085585937499998,-0.09786049804687501,9.580078124991288e-05,0.12694233435320892,0.20069909915442108,0.031287214998600495,0.030102516491805044,0.20534161712352464
249,1791286343.541241,0.05211562499999998,-0.040380029296875,0.043206152343749915,0.07882484846486185,0.20180156213669556,0.03061890804481304,0.03035739638262239,0.206356389592857
250,1791286343.5668283,0.06169570312499998,0.026680517578125004,0.019255957031249913,0.06992139646427345,0.20321885842103826,0.02986585949270829,0.030754436467010378,0.2076913800416174
251,1791286343.5868282,0.05690566406249998,-0.026009912109374998,9.580078124991288e-05,0.06256819725804158,0.20433839911182444,0.029366546765056976,0.031047253910665023,0.20875944863857263
252,1791286343.6268754,0.08085585937499998,-0.035589990234375,0.06236630859374991,0.10813821640735306,0.20665763633725648,0.028331695733565882,0.031733238340344166,0.21099066817090795
253,1791286343.6468754,0.05211562499999998,0.0027303222656250015,0.08152646484374991,0.09679905732358131,0.20784160729756854,0.027843113032303995,0.03224027701120391,0.21216222125799286
254,1791286343.6408997,0.02816542968749998,0.0027303222656250015,0.06715634765624992,0.07287469464555428,0.20784160729756854,0.027843113032303995,0.03224027701120391,0.21216222125799286
255,1791286343.6608996,0.03295546874999998,-0.030799951171875,0.07673642578124992,0.0890122404751357,0.20889106582372616,0.02745496994257439,0.033012021810364965,0.21325816828325234
256,1791286343.6866677,0.02816542968749998,-0.030799951171875,0.06715634765624992,0.0790689790764905,0.2101584952251143,0.026910849663983025,0.03413528020353863,0.21460662687693494
257,1791286343.7066677,0.004215234374999978,-0.045170068359375,0.047996191406249916,0.06604345286197695,0.2110432290312248,0.026437921560445676,0.035049057575967796,0.21556123179580736
258,1791286343.7319033,-0.024525000000000022,-0.054750146484375,0.03362607421874991,0.0687733017414854,0.21195368067002032,0.025741582084237748,0.036183583014421004,0.21655540509885682
259,1791286343.7519033,0.023375390624999978,-0.078700341796875,0.028836035156249915,0.08701534122985882,0.21256528150604065,0.025072317835483273,0.03704154853013534,0.21722038656833334
260,1791286343.7619555,-0.005364843750000022,-0.049960107421875004,9.580078124991288e-05,0.05024741843972576,0.21284014748142138,0.02468939629437268,0.03742989992509682,0.2175120504195033
261,1791286343.7819555,0.004215234374999978,-0.078700341796875,-0.02385439453125009,0.0823440595200022,0.2133032680983941,0.023848820468558504,0.03805103020920346,0.2179791992809833
262,1791286343.806033,-0.01973496093750002,-0.10265053710937501,0.014465917968749914,0.10552660439304597,0.21374914970151884,0.02266118214497128,0.0386696735526853,0.21839773768746124
263,1791286343.8260329,-0.01973496093750002,-0.09786049804687501,0.024045996093749914,0.10268571317046843,0.2140047618884351,0.021521877694824866,0.03916423770275295,0.21862082893739687
264,1791286343.8510766,0.02816542968749998,-0.145760888671875,0.009675878906249913,0.148772143657691,0.21429265989051124,0.019851659285888716,0.03975397079402982,0.21885111526616885
265,1791286343.8710766,0.01379531249999998,-0.016429833984375,0.014465917968749914,0.02587494684835857,0.2145510295862195,0.01847460899685055,0.04019050140285248,0.2190633056381329
266,1791286343.8811204,-0.12511582031250001,0.29013266601562504,0.03362607421874991,0.31774462269119347,0.2145774618550729,0.018092972662014102,0.04041306798545673,0.2190982858443005
267,1791286343.9011204,-0.254446875,0.424253759765625,0.10068662109374991,0.5048487501616803,0.21405285694811968,0.01851860322295298,0.040991247432726335,0.21872779109905616
268,1791286343.927048,-0.27360703125,0.476944189453125,0.08631650390624991,0.5565852192154715,0.2124479478881262,0.02074005344208609,0.04199199576280506,0.21754909350948815
269,1791286343.947048,-0.33108750000000003,0.544004736328125,0.03362607421874991,0.6377231363774154,0.21048861182261033,0.023728019740013154,0.04282807286605701,0.21610811750883463
270,1791286343.9719725,-0.44604843750000006,0.5871150878906249,0.05278623046874992,0.7392223759817527,0.2069603705818051,0.029007597550358658,0.04387525733279995,0.21353939662980478
271,1791286343.9919724,-0.47478867187500007,0.496104345703125,0.06236630859374991,0.6895167591973114,0.20317264855230954,0.03423340720195476,0.044762227267171044,0.2108428520921044
272,1791286344.001523,-0.561009375,0.318872900390625,0.09589658203124991,0.6523860819228874,0.20089327867430007,0.036938324013522074,0.04523561065207866,0.20920996550954352
273,1791286344.021523,-0.5705894531250001,0.17996176757812501,0.11026669921874992,0.6083726709541841,0.19513861163426435,0.04250131777297504,0.04638747604972736,0.20502984586945308
274,1791286344.0466058,-0.5178990234375,0.012310400390625002,0.1437969726562499,0.5376323221127949,0.18695633729163452,0.04879329147423763,0.04809333655027919,0.19911410388752412
275,1791286344.0666058,-0.6089097656250001,-0.045170068359375,0.16295712890624992,0.6319544790651074,0.17972055729944164,0.05300841179086515,0.04970962088632464,0.19385669151534063
276,1791286344.0920017,-0.5514292968750001,-0.049960107421875004,0.16295712890624992,0.5771700855441405,0.16970070882878763,0.05737670517001341,0.052074883521092144,0.18655350537284182
277,1791286344.1120017,-0.4939488281250001,-0.045170068359375,0.1533770507812499,0.519182337515449,0.16142536119856277,0.060158143612740723,0.05413269005331702,0.18057546237910088
278,1791286344.1211414,-0.45562851562500006,-0.011639794921874998,0.1294268554687499,0.47379757280192236,0.15755995871388825,0.06119962574621598,0.05512588352435473,0.17779031980324406
279,1791286344.1411414,-0.4125181640625,0.069790869140625,0.1533770507812499,0.4456080349401856,0.14906809131475618,0.06322400904262229,0.057397428835305624,0.17179358545810156
280,1791286344.166246,-0.43646835937500006,0.17996176757812501,0.16774716796874992,0.5010289202100846,0.1384092457530705,0.0658541551561099,0.060425664000158294,0.16475785241110327
281,1791286344.186246,-0.45562851562500006,0.237442236328125,0.1437969726562499,0.533529501703743,0.1298532707357818,0.06826131180465513,0.0629436042410305,0.15963513374230645
282,1791286344.211425,-0.45083847656250003,0.309292822265625,0.11984677734374992,0.5597147772695605,0.11898559028036357,0.07186971996726134,0.06613596372442711,0.15393762711013137
283,1791286344.231425,-0.41730820312500005,0.304502783203125,0.09589658203124991,0.5254181533018648,0.11034593523990067,0.0752266697109096,0.06861493573957282,0.1501442195567593
284,1791286344.2560663,-0.40772812500000005,0.247022314453125,0.08152646484374991,0.4836412019500752,0.09977326548882436,0.07976152393464653,0.07153894684384622,0.14640500716234836
285,1791286344.2760663,-0.4125181640625,0.21828208007812502,0.047996191406249916,0.4691715427796469,0.09124882614669887,0.08358806987949918,0.07375050209291113,0.14405710762849225
286,1791286344.2865617,-0.35024765625000004,0.136851416015625,0.028836035156249915,0.3771382342028349,0.08684603288121465,0.08557446924609503,0.07479745849691376,0.1430380474263873
287,1791286344.3065617,-0.34545761718750007,0.05542075195312501,0.028836035156249915,0.3510611655302358,0.07867104304816214,0.08908035144385702,0.07657977618277556,0.1413821210332157
288,1791286344.3313541,-0.34545761718750007,0.050630712890625006,0.05278623046874992,0.3531158740240634,0.0687725144671975,0.0929716228243054,0.07860953869954103,0.13983147346459748
289,1791286344.3513541,-0.34545761718750007,0.10332114257812501,0.08152646484374991,0.3696793045957993,0.060948796365896445,0.0958707657638858,0.0802028003678336,0.13906275092003587
290,1791286344.377049,-0.35024765625000004,0.08895102539062501,0.047996191406249916,0.3645399018162033,0.05106434245262701,0.09940725304947406,0.08219229802696167,0.13872614347668655
291,1791286344.397049,-0.38856796875000005,0.127271337890625,0.06236630859374991,0.4136092554991746,0.04341646036612064,0.10207136383930394,0.08367411440365588,0.13894210941242607
292,1791286344.4065144,-0.34545761718750007,0.156011572265625,0.05757626953124992,0.3834000557730695,0.03981876152838172,0.10334419350376213,0.08435537119030455,0.1392170418779656
293,1791286344.4265144,-0.30713730468750006,0.17996176757812501,0.043206152343749915,0.35858936587815404,0.0323783935420698,0.10613415844456181,0.08573008365237524,0.1402229196677339
294,1791286344.4519966,-0.21612656250000004,0.22786215820312503,0.08152646484374991,0.3244663597801344,0.023320480016516685,0.1099350907141845,0.08745727283615971,0.14240204889844532
295,1791286344.4719965,-0.264026953125,0.31408286132812496,0.08152646484374991,0.4183357984041675,0.016557423765424593,0.11328373214743438,0.08885411568653528,0.14492206914557804
296,1791286344.4970222,-0.20654648437500003,0.20870200195312502,0.05278623046874992,0.2983359883654909,0.008481080750750306,0.11782653687168324,0.0905918770084352,0.1488687667101005
297,1791286344.5170221,-0.11074570312500003,0.156011572265625,0.038416113281249914,0.19514102388037427,0.0025188542213504814,0.12145955021181876,0.09190914787619851,0.15233534858191866
298,1791286344.52655,-0.18259628906250003,0.11290122070312501,0.043206152343749915,0.21898598588951562,-0.00010509270967842474,0.12312285544558954,0.0925008864567814,0.15399890445338735
299,1791286344.54655,-0.16343613281250002,0.050630712890625006,0.11026669921874992,0.20355240984354941,-0.005305860198333287,0.12633586873434852,0.09378689200596399,0.1574321599719865
300,1791286344.571252,-0.19696640625000003,0.026680517578125004,0.10547666015624992,0.2250176460791325,-0.01143353080194431,0.12985224667810077,0.09553668897435076,0.1616155640219443
301,1791286344.591252,-0.18738632812500003,0.017100439453125,0.05278623046874992,0.195428879965987,-0.016227126663317666,0.1323378918769891,0.09697829461404908,0.16486790740602708
302,1791286344.6315763,-0.18738632812500003,0.007520361328125002,0.05278623046874992,0.19482447980111667,-0.02557572916686738,0.1366722034924117,0.0997681748675789,0.1711347359430456
303,1791286344.6515763,-0.21612656250000004,0.08895102539062501,0.09589658203124991,0.25262448492057593,-0.030122205616436963,0.138644180581742,0.10116736370764455,0.17425381361662198
304,1791286344.64661,-0.19696640625000003,0.11769125976562501,0.09589658203124991,0.24868283467408064,-0.030122205616436963,0.138644180581742,0.10116736370764455,0.17425381361662198
305,1791286344.66661,-0.15864609375000002,0.10811118164062501,0.05757626953124992,0.20042863435896865,-0.03446714612540538,0.14067110603019023,0.10265302275336277,0.17752179391328118
306,1791286344.6921375,-0.15385605468750002,0.141641455078125,0.05278623046874992,0.2156858212487587,-0.039779358210096705,0.1433483221993655,0.10447613792550277,0.18178669426778454
307,1791286344.7121375,-0.18738632812500003,0.156011572265625,0.06715634765624992,0.252909512829173,-0.043828880673169576,0.1455776892592224,0.10587015233494886,0.18526284988238448
308,1791286344.7361352,-0.12032578125000003,0.127271337890625,0.06236630859374991,0.18591891654563647,-0.04851284672921602,0.14836129798422704,0.10752503633140678,0.18954209156651028
309,1791286344.7561352,-0.10116562500000002,0.065000830078125,0.07194638671874992,0.1401280634076195,-0.05216319606661045,0.15062160902787491,0.10889882182229213,0.19304616423102786
310,1791286344.7670763,-0.12990585937500002,0.021890478515625002,0.043206152343749915,0.13864161334156366,-0.05405019916470871,0.15174394148200337,0.1096321155926145,0.1948508367330013
311,1791286344.7870762,-0.15864609375000002,0.012310400390625002,0.047996191406249916,0.16620398132841666,-0.05741501993949709,0.15353910379327645,0.11090829834222488,0.19791763829801357
312,1791286344.8114915,-0.12032578125000003,0.017100439453125,0.05757626953124992,0.13448325351525367,-0.06141736159541011,0.15545570821220084,0.11242584687989217,0.20144016622252686
313,1791286344.8314915,-0.15864609375000002,0.026680517578125004,0.06236630859374991,0.17253982012272204,-0.06462259082003564,0.15685588314005247,0.11366240737142001,0.20420330597080497
314,1791286344.8565567,-0.22091660156250004,0.036260595703125,0.06236630859374991,0.23239735819126844,-0.06875056523853798,0.15846577162673378,0.11521416324590711,0.207635123257914
315,1791286344.8765566,-0.21133652343750003,0.069790869140625,0.03362607421874991,0.22508799261937035,-0.07219866439748684,0.15971672490056568,0.11641060057318386,0.21041270702966888
316,1791286344.9014468,-0.14906601562500002,0.079370947265625,0.014465917968749914,0.16949833942205444,-0.07651896681618739,0.16131847549701858,0.11776600886405292,0.21388696936248167
317,1791286344.9214468,-0.15385605468750002,0.09374106445312501,0.038416113281249914,0.18421419730424082,-0.0799241139297419,0.16267213814184847,0.11877107503579935,0.2166948471474448
318,1791286344.9317405,-0.21612656250000004,0.132061376953125,0.07194638671874992,0.2633005523402974,-0.08169944734685769,0.16343866943017354,0.11929597807993525,0.21821670134968107
319,1791286344.9517405,-0.19696640625000003,0.127271337890625,0.05278623046874992,0.24037500861489258,-0.08525103238563093,0.16509358723058226,0.12034994918967826,0.22137692142008822
320,1791286344.9765124,-0.15864609375000002,0.10332114257812501,0.028836035156249915,0.19150811598811032,-0.08965086001163583,0.1672643144308264,0.12161122395342676,0.22539724349310664
321,1791286344.9965124,-0.16343613281250002,0.10811118164062501,0.07673642578124992,0.2104468487436166,-0.09315340858634934,0.16907114585770572,0.12263514491002424,0.22869628038076087
322,1791286345.0219784,-0.18738632812500003,0.11769125976562501,0.08152646484374991,0.23582076469918672,-0.09761428531250439,0.17145795852809437,0.12404561302224713,0.2330529861421171
323,1791286345.0419784,-0.17780625000000003,0.084160986328125,0.03362607421874991,0.19957165887507733,-0.10113996321362831,0.17335407015263526,0.12515990955036507,0.23652891737796974
324,1791286345.051539,-0.17780625000000003,0.069790869140625,0.014465917968749914,0.19155962710640506,-0.10282752493710574,0.17423489841954157,0.12564716043528332,0.2381564793101563
325,1791286345.071539,-0.17780625000000003,0.127271337890625,0.024045996093749914,0.21998014891274345,-0.10636165096705842,0.17609672052544675,0.12657132472441288,0.24154327980456924
326,1791286345.0960896,-0.20654648437500003,0.122481298828125,0.05757626953124992,0.2469375337680194,-0.11075688378646151,0.17849922424664397,0.12768589326096094,0.24583072977272583
327,1791286345.1160896,-0.23528671875000004,0.127271337890625,0.038416113281249914,0.27024735193568333,-0.11446308828472262,0.18053745362409807,0.12860165868618212,0.24946734727732778
328,1791286345.1415832,-0.19696640625000003,0.10332114257812501,0.05278623046874992,0.2285987966324173,-0.11930516391722827,0.18318673212226305,0.12976825302788542,0.25422608138595804
329,1791286345.1615832,-0.19217636718750003,0.156011572265625,0.06715634765624992,0.25647873560337175,-0.12311773247948837,0.18534235668097307,0.13072609012060113,0.2580679675379481
330,1791286345.172082,-0.21612656250000004,0.18954184570312502,0.11505673828124992,0.30963665047040817,-0.12514039289584375,0.18657628288676972,0.13129695082801227,0.260210907854962
331,1791286345.192082,-0.22570664062500004,0.18475180664062502,0.1390069335937499,0.3231093394910382,-0.12907830859359856,0.18913574176126172,0.13260240473488197,0.2646071357738494
332,1791286345.2165303,-0.21133652343750003,0.165591650390625,0.11984677734374992,0.29401865732878646,-0.13397140577819908,0.19243756752475896,0.13443348858728113,0.27028303279114596
333,1791286345.2365303,-0.21133652343750003,0.122481298828125,0.12463681640624992,0.27422459901540325,-0.1380077883382645,0.19516557305503596,0.13607344224257897,0.27504859976314056
334,1791286345.2613945,-0.22091660156250004,0.146431494140625,0.1342168945312499,0.2970866912195714,-0.14307922434814369,0.19854980916764334,0.13828914365730116,0.28110065530703354
335,1791286345.2813945,-0.19696640625000003,0.17996176757812501,0.06715634765624992,0.27512175125098753,-0.14717345687050667,0.20135324607299204,0.14010610791516448,0.2860644640399808
336,1791286345.2914352,-0.16822617187500002,0.18475180664062502,0.06715634765624992,0.25873393668249056,-0.14919561063313266,0.20282421440837625,0.1409826111102898,0.2885707691677096
337,1791286345.3114352,-0.16822617187500002,0.160801611328125,0.028836035156249915,0.23449673778748162,-0.15312399175792502,0.20583303656878668,0.14261060474670456,0.29351657599057224
338,1791286345.336773,-0.18738632812500003,0.08895102539062501,0.06715634765624992,0.21802728250551787,-0.1580300612985259,0.20954770780042453,0.1445461316940147,0.2996286473388875
339,1791286345.356773,-0.20654648437500003,0.065000830078125,0.05757626953124992,0.22405710194424222,-0.16191262082151137,0.2122709436824278,0.14603184601503963,0.30430239953651234
340,1791286345.3818617,-0.23049667968750004,0.09853110351562501,0.05757626953124992,0.2572005531100272,-0.16687486112687036,0.21548237191270367,0.147832703076949,0.31005544662249424
341,1791286345.4018617,-0.20654648437500003,0.069790869140625,0.047996191406249916,0.22323944546737556,-0.17089280400588955,0.21791089557213675,0.14921130956155987,0.3145687902051342
342,1791286345.411922,-0.16822617187500002,0.074580908203125,0.07194638671874992,0.19758198129891277,-0.17289350481350158,0.2190581757529067,0.14989125097777747,0.3167744236685953
343,1791286345.431922,-0.16343613281250002,0.127271337890625,0.07194638671874992,0.21928439415302384,-0.17677179620719713,0.2212996360178024,0.15125605975849182,0.3210921868398468
344,1791286345.457029,-0.14427597656250002,0.10811118164062501,0.047996191406249916,0.1865669300768511,-0.18148957818899153,0.22413463044733511,0.152938241553708,0.3264428055364705
345,1791286345.477029,-0.12990585937500002,0.041050634765625,0.05757626953124992,0.14790440739799865,-0.18509524864791782,0.2262779404261465,0.15423560107942477,0.3305307520275
346,1791286345.5012662,-0.12990585937500002,0.069790869140625,0.11984677734374992,0.19002512401007265,-0.18928166035143149,0.22868720761303538,0.15589450257446527,0.3353035666439923
347,1791286345.5212662,-0.12990585937500002,0.136851416015625,0.11984677734374992,0.2235332020195687,-0.19260773408995924,0.23068703498756124,0.1574175989899733,0.339255873662327
348,1791286345.5313172,-0.13948593750000002,0.17996176757812501,0.07673642578124992,0.2402728523819915,-0.1942316022649965,0.23178012006968565,0.1582164071884371,0.3412922074726627
349,1791286345.5513172,-0.20175644531250003,0.22786215820312503,0.03362607421874991,0.3061985291171182,-0.19749002784060318,0.23424066707691354,0.15973303128571886,0.3455222749590019
350,1791286345.5769007,-0.22570664062500004,0.256602392578125,0.047996191406249916,0.34509695722875694,-0.20185311437435927,0.23784559251960438,0.1615386704833827,0.3512975202377164
351,1791286345.5969007,-0.18259628906250003,0.242232275390625,0.05278623046874992,0.3079030141902084,-0.2053647955779874,0.24098928073385975,0.16288967317173536,0.3560668172090828
352,1791286345.6214225,-0.16343613281250002,0.23265219726562503,0.05757626953124992,0.29009212539185475,-0.20966099588497752,0.24513894318031032,0.16450063112376956,0.36209293323559694
353,1791286345.6414225,-0.21612656250000004,0.242232275390625,0.047996191406249916,0.3281627654815387,-0.2132087199717366,0.2487280610699747,0.1657758011597944,0.3671583076627671
354,1791286345.6670167,-0.254446875,0.29013266601562504,0.014465917968749914,0.3861728095934234,-0.21797107565821808,0.2536540560819463,0.16728277526074412,0.3739455801174289
355,1791286345.6870167,-0.23528671875000004,0.29971274414062504,0.028836035156249915,0.38212443777384597,-0.22186888656158288,0.2578107256816545,0.1683486775930189,0.3795173913642115
356,1791286345.696775,-0.19696640625000003,0.26139243164062503,-0.009484277343750088,0.3274320082502199,-0.22380175955607265,0.2599452565723447,0.16880489722542777,0.38230074198481945
357,1791286345.716775,-0.20654648437500003,0.256602392578125,-0.014274316406250088,0.3297119867298671,-0.2277743189012448,0.2644408502703183,0.1695640472715387,0.3880232850870157
358,1791286345.7419138,-0.22091660156250004,0.22786215820312503,0.028836035156249915,0.3186798156621201,-0.23282455560281584,0.27015736947334906,0.17040257983923482,0.39525854473784006
359,1791286345.7619138,-0.23528671875000004,0.21828208007812502,0.06236630859374991,0.32695024537532535,-0.2369240489723705,0.2746923433525112,0.17110643530640912,0.40108141403114467
360,1791286345.786863,-0.22091660156250004,0.25181235351562503,0.05278623046874992,0.3391164878859512,-0.24212458049727198,0.2803806282627598,0.17206823943338526,0.4084667528792333
361,1791286345.806863,-0.19696640625000003,0.275762548828125,0.038416113281249914,0.3410521166726017,-0.24629494704939248,0.28504787832049594,0.1728603977408644,0.41448065212288154
362,1791286345.8164022,-0.19696640625000003,0.21828208007812502,0.06715634765624992,0.30158383031057906,-0.24826750225626043,0.2872935001610391,0.1732570794398446,0.4173635387613152
363,1791286345.8364022,-0.22091660156250004,0.20870200195312502,0.06715634765624992,0.3112404946270548,-0.2524096798610407,0.29193597014112416,0.1741654874271573,0.42340391372840624
364,1791286345.8616235,-0.21612656250000004,0.20870200195312502,0.05278623046874992,0.3050468861739267,-0.2576764257563958,0.2977018341313869,0.1753661010032915,0.43101831958384296
365,1791286345.8816235,-0.16822617187500002,0.175171728515625,0.05278623046874992,0.24853886115046248,-0.2618029071303548,0.30216401833601014,0.17633371095577557,0.4369638815489272
366,1791286345.9065602,-0.17301621093750003,0.141641455078125,0.08631650390624991,0.23968197656564766,-0.26681440109577614,0.3074856047047309,0.17761935039627513,0.44416883655646816
367,1791286345.9265602,-0.17780625000000003,0.170381689453125,0.10068662109374991,0.2660503304024259,-0.27075710070116965,0.31158150348687325,0.17877630882412301,0.4498370921700676
368,1791286345.9371755,-0.18259628906250003,0.136851416015625,0.06715634765624992,0.2378648563268749,-0.27282279538997345,0.3136739835000245,0.1794319021806538,0.4527907387848615
369,1791286345.9571755,-0.20654648437500003,0.11290122070312501,0.06715634765624992,0.24478176172757435,-0.27671462225743204,0.3173996208038237,0.18068327307667695,0.4582138655990076
370,1791286345.9819007,-0.24007675781250004,0.10811118164062501,0.12463681640624992,0.2913060473820948,-0.2816324529828906,0.3217244454240471,0.1823539003878156,0.46484019011184924
371,1791286346.0019007,-0.20654648437500003,0.18475180664062502,0.11505673828124992,0.30005455052134616,-0.28568367620973534,0.32513730298377164,0.18386209190031091,0.470249611889503
372,1791286346.0259626,-0.19217636718750003,0.18475180664062502,0.06236630859374991,0.27377827271346894,-0.2905461415009945,0.3292942244769177,0.1857246029729338,0.47680748186707855
373,1791286346.0459626,-0.254446875,0.17996176757812501,0.019255957031249913,0.31225028721892,-0.29465145565769263,0.33277820056106117,0.18716291879141836,0.4822766522032537
374,1791286346.057084,-0.26881699218750005,0.10332114257812501,0.024045996093749914,0.28899142499479863,-0.2970283540739898,0.33466124308900824,0.18787887862629848,0.48530656680459117
375,1791286346.077084,-0.27360703125,0.122481298828125,0.09110654296874991,0.31330955664291443,-0.301475239605826,0.337878304514894,0.18914600038660231,0.4907395217623074
376,1791286346.1017768,-0.28797714843750005,0.23265219726562503,0.10068662109374991,0.38366089008653675,-0.30718202678314266,0.3419121222981348,0.19083096646499112,0.4976757525889488
377,1791286346.1217768,-0.24965683593750004,0.275762548828125,0.08631650390624991,0.3818691633440772,-0.31191737093361704,0.34545186534588507,0.19227150240777224,0.503584916572402
378,1791286346.1470945,-0.24007675781250004,0.21349204101562502,0.07673642578124992,0.33030921915753486,-0.3179425289710135,0.35018964471463626,0.19413113090520795,0.511279898862044
379,1791286346.1670945,-0.23528671875000004,0.256602392578125,0.05278623046874992,0.35212357777357056,-0.32270126939110927,0.35407604905170015,0.1955740942100485,0.5174506586185548
380,1791286346.1766376,-0.24965683593750004,0.29013266601562504,0.10547666015624992,0.397027487030023,-0.3249784385624095,0.35604363786770826,0.19627261413464864,0.5204815046241146
381,1791286346.1966376,-0.254446875,0.285342626953125,0.10547666015624992,0.3965967130366727,-0.32979108580377564,0.36041186365237887,0.19783336979420307,0.5270644305406542
382,1791286346.2218053,-0.23528671875000004,0.25181235351562503,0.1294268554687499,0.3681312433355099,-0.3358632403350552,0.3660981639167069,0.19994619706572556,0.5355468826840402
383,1791286346.2418053,-0.21612656250000004,0.22786215820312503,0.10068662109374991,0.32980244060092817,-0.3406419069796125,0.37065859007448193,0.20171851461221194,0.542323757845871
384,1791286346.2669692,-0.22091660156250004,0.22307211914062502,0.08631650390624991,0.3256007586453251,-0.34657735783541754,0.37638685666686705,0.20396687794024226,0.5508043374306646
385,1791286346.2869692,-0.24965683593750004,0.170381689453125,0.043206152343749915,0.30532806525371403,-0.3512930334719632,0.3808468853712166,0.20568008992366144,0.5574544329843435
386,1791286346.311613,-0.2927671875,0.136851416015625,0.03362607421874991,0.3249179111860513,-0.3572346331066431,0.3860860273566361,0.20761645946059196,0.5654941183158484
387,1791286346.331613,-0.28797714843750005,0.156011572265625,0.06236630859374991,0.3334066663259706,-0.36220441439752277,0.39013941399490387,0.20909620455095707,0.5719458216640411
388,1791286346.3416557,-0.23528671875000004,0.18475180664062502,0.043206152343749915,0.3022579058973774,-0.3647197078647877,0.39212611822703963,0.20980729731649536,0.5751542922625499
389,1791286346.3616557,-0.21612656250000004,0.20391196289062502,0.043206152343749915,0.3002624705625486,-0.3696546549179807,0.3960721580652564,0.2111406362370277,0.5814620250434054
390,1791286346.3875382,-0.254446875,0.20391196289062502,0.06715634765624992,0.3329163195725021,-0.37599659969064997,0.4012044899321089,0.21282155195252822,0.589602831316215
391,1791286346.4075382,-0.264026953125,0.22307211914062502,0.07194638671874992,0.3530547901901971,-0.38093978949771257,0.40521595423694556,0.21413425527849367,0.5959602101435926
392,1791286346.4466977,-0.20654648437500003,0.22307211914062502,0.03362607421874991,0.3058648940511582,-0.39054870855838403,0.41320247171611607,0.2166290262877832,0.6084346402197383
393,1791286346.4666977,-0.19696640625000003,0.20391196289062502,0.014465917968749914,0.28387517782227156,-0.3953254125133203,0.4173100635499281,0.21778419711960442,0.6147030400395809
394,1791286346.4617238,-0.19696640625000003,0.160801611328125,0.028836035156249915,0.25589927768615117,-0.3953254125133203,0.4173100635499281,0.21778419711960442,0.6147030400395809
395,1791286346.4817238,-0.24965683593750004,0.18954184570312502,0.08152646484374991,0.32388456504253216,-0.39994877920208427,0.4212683226978949,0.21883956157530246,0.6207388979308497
396,1791286346.5059674,-0.20175644531250003,0.175171728515625,0.05757626953124992,0.2733236625494082,-0.4055332731471704,0.4260098771990237,0.22017988649911918,0.6280293253657426
397,1791286346.5259674,-0.17301621093750003,0.146431494140625,-0.004694238281250087,0.22671309533519796,-0.41001136541276545,0.429817133171018,0.22119906610677595,0.6338620627403905
398,1791286346.5516062,-0.254446875,0.175171728515625,0.024045996093749914,0.3098492481781392,-0.41571289603553085,0.4345841273273768,0.22234682773376,0.6411853768282711
399,1791286346.5716062,-0.33587753906250006,0.26139243164062503,0.1294268554687499,0.4448494526041465,-0.42037881838885427,0.43839975910070517,0.22333806752577154,0.6471418639956094
400,1791286346.5816662,-0.33587753906250006,0.256602392578125,0.21085751953124993,0.4723551658089185,-0.4228805924915473,0.440421975578064,0.22401862193097996,0.6503720896916951
401,1791286346.6016662,-0.34066757812500004,0.27097250976562504,0.23480771484374993,0.4945858497615743,-0.4281230250075982,0.4446305739041384,0.22583715205910299,0.6572580094925785
402,1791286346.6266985,-0.35024765625000004,0.31408286132812496,0.21085751953124993,0.51554084031389,-0.43499744625330145,0.4502063833292671,0.22860853848441484,0.6664611239264396
403,1791286346.6466985,-0.34066757812500004,0.247022314453125,0.18211728515624992,0.45852058642553273,-0.4407023916930688,0.45483469746761573,0.2310801107787883,0.6741596381139897
404,1791286346.671624,-0.24965683593750004,0.132061376953125,0.09589658203124991,0.2982698400079288,-0.44784939004044466,0.46044628863227577,0.23421805208875535,0.6836943445715243
405,1791286346.691624,-0.20175644531250003,0.10332114257812501,0.043206152343749915,0.23075461713503456,-0.45340099530693345,0.46462665028541406,0.23656688431663195,0.6909517186142901
406,1791286346.7017572,-0.14906601562500002,-0.011639794921874998,0.09589658203124991,0.17762971678582473,-0.4560584964513812,0.4664966599022437,0.23768415973105209,0.6943358306126081
407,1791286346.7217572,-0.08679550781250002,0.0027303222656250015,0.03362607421874991,0.09312157485496471,-0.46087062141529106,0.46962050060718,0.23975283063197256,0.7003046223396632
408,1791286346.7459414,-0.07242539062500003,0.084160986328125,-0.04780458984375009,0.12088749992052884,-0.466105468411695,0.4729888846932422,0.24185335670868233,0.706728971302224
409,1791286346.7659414,-0.14427597656250002,0.151221533203125,-0.1196551757812501,0.24083369907180505,-0.4701102868908129,0.47570971935794104,0.24307870443553126,0.7116113233235049
410,1791286346.7909179,-0.12511582031250001,0.10332114257812501,-0.1723456054687501,0.23671128980365322,-0.474866044045741,0.47907470930806456,0.2438324267626645,0.7172618693526294
411,1791286346.8109179,-0.12032578125000003,-0.006849755859374999,-0.11007509765625009,0.1632229760566474,-0.4784711616615932,0.481509760897498,0.24392180920359155,0.7213072517218397
412,1791286346.821227,-0.19217636718750003,0.007520361328125002,-0.009484277343750088,0.19255716932023995,-0.48029233996155707,0.482577178363431,0.24386852913977536,0.7232104288571591
413,1791286346.841227,-0.22091660156250004,0.050630712890625006,0.09589658203124991,0.24609707104923767,-0.4839151161604766,0.4844245846860962,0.243910288229014,0.7268653565832293
414,1791286346.8665864,-0.21133652343750003,0.10811118164062501,0.12463681640624992,0.2681146951180902,-0.48864178022276644,0.4867175932423259,0.24437473960981043,0.7316992676709737
415,1791286346.8865864,-0.22570664062500004,0.151221533203125,0.1294268554687499,0.30093645615487574,-0.4924659223561677,0.48864373873424627,0.24506718551101045,0.735767159841061
416,1791286346.9114163,-0.24486679687500004,0.146431494140625,0.1390069335937499,0.31737179817245204,-0.4973777463744384,0.49123064408996,0.2462977911644631,0.7411847072181438
417,1791286346.9314163,-0.21612656250000004,0.127271337890625,0.1294268554687499,0.28224102356508124,-0.5014321590060529,0.4934123453123209,0.24754298638233296,0.7457663727328824
418,1791286346.9409034,-0.24007675781250004,0.05542075195312501,0.10068662109374991,0.2661693165188053,-0.5033915210823947,0.4944220088061505,0.2482087886256559,0.7479730937945374
419,1791286346.9609034,-0.27360703125,-0.030799951171875,0.07194638671874992,0.2845799133872809,-0.5076730178361843,0.49626815129766694,0.24966078583814635,0.7525586216479242
420,1791286346.9863355,-0.28797714843750005,0.0027303222656250015,0.07194638671874992,0.2968409931996456,-0.5133719111067541,0.4982100431502362,0.2515046620810807,0.7582997832372629
421,1791286347.0063355,-0.30713730468750006,0.05542075195312501,0.043206152343749915,0.3150738886009175,-0.5180739824859883,0.4995953188857745,0.25290992182214034,0.7628627416105417
422,1791286347.0310392,-0.33108750000000003,0.017100439453125,9.580078124991288e-05,0.33152883262776667,-0.524193224757318,0.5011840995840937,0.2544655470903694,0.7685809997738663
423,1791286347.0510392,-0.31671738281250006,-0.030799951171875,-0.02385439453125009,0.319104324173525,-0.5293759135762781,0.5022568764859012,0.25550041933422896,0.7731631730314499
424,1791286347.0764108,-0.30234726562500003,-0.011639794921874998,0.05278623046874992,0.3071412378431747,-0.5361423625970574,0.5033328860369043,0.2566713671797883,0.778892045066154
425,1791286347.0964108,-0.2927671875,0.050630712890625006,0.1294268554687499,0.32407932066239853,-0.5415688327711411,0.5041123430449709,0.25772926979986627,0.7834860761691677
426,1791286347.1068811,-0.26881699218750005,0.041050634765625,0.1342168945312499,0.30325221298616745,-0.5444245690741356,0.5045311906501396,0.25840706198889213,0.7859542247714792
427,1791286347.1268811,-0.25923691406250005,0.031470556640625,0.1294268554687499,0.2914540863745909,-0.5498532930251507,0.5053200236286178,0.2599030073404294,0.7907190040433001
428,1791286347.1511548,-0.24007675781250004,0.045840673828125005,0.10068662109374991,0.26434071325857983,-0.5563627416304036,0.5062745545692302,0.26186519685461385,0.7965091375511504
429,1791286347.1711547,-0.21133652343750003,0.050630712890625006,0.08152646484374991,0.23210592344096065,-0.5615987382856429,0.5070877650630977,0.2635127311421621,0.8012303687421707
430,1791286347.1965342,-0.24486679687500004,0.050630712890625006,0.07194638671874992,0.260191275529214,-0.5681147853990755,0.5081576620439072,0.26558193392644786,0.8071631696943806
431,1791286347.2165341,-0.28797714843750005,0.069790869140625,0.07673642578124992,0.30608835730762296,-0.5732787168169002,0.5090549470212528,0.2671909791543882,0.8118968195426823
432,1791286347.2261028,-0.28797714843750005,0.084160986328125,0.06236630859374991,0.3064367244465448,-0.5757920662620273,0.509530329526093,0.26794515653473006,0.814218807930451
433,1791286347.2461028,-0.30234726562500003,0.08895102539062501,0.09589658203124991,0.3294272429448332,-0.5811428335162263,0.5106345741206918,0.26952244163864586,0.8192173141368204
434,1791286347.271024,-0.28797714843750005,0.050630712890625006,0.1533770507812499,0.33017999154455274,-0.5879134731132545,0.5120650266180503,0.2716589393653319,0.8256218400033584
435,1791286347.291024,-0.2927671875,0.074580908203125,0.1342168945312499,0.3305890390237943,-0.5934031810376919,0.5132286271367582,0.27354774193820885,0.8308786470344669
436,1791286347.3165622,-0.33108750000000003,0.08895102539062501,0.047996191406249916,0.34617170878597087,-0.600556481366254,0.5148047932272817,0.27594680529305443,0.8377581403915112
437,1791286347.3365622,-0.34545761718750007,0.084160986328125,0.07194638671874992,0.36276758324645286,-0.6063330260176315,0.5161136653884754,0.27772370031057736,0.8432932513394283
438,1791286347.3462386,-0.32629746093750006,0.017100439453125,0.06715634765624992,0.33357522850816795,-0.6091961444573903,0.5167254276749725,0.27855539963220305,0.8460013124646375
439,1791286347.3662386,-0.32150742187500003,0.007520361328125002,0.028836035156249915,0.3228855758294992,-0.6151978912733361,0.5178371271721304,0.2801605505364522,0.8515360648744905
440,1791286347.3916812,-0.3741978515625,0.045840673828125005,-0.014274316406250088,0.3772653649619497,-0.6230151907140106,0.5191410439309624,0.2819240053348184,0.8585665356500747
441,1791286347.4116812,-0.42209824218750003,0.11290122070312501,-0.009484277343750088,0.4370395442185596,-0.6294329191677462,0.5202503946873144,0.28306665518020047,0.8642760000018764
442,1791286347.4367733,-0.42209824218750003,0.084160986328125,0.047996191406249916,0.43307462644099304,-0.6378655908469711,0.5218042776601373,0.2843576715632155,0.8717863852732656
443,1791286347.4567733,-0.43646835937500006,0.09853110351562501,0.1294268554687499,0.4657942872256375,-0.6448665978200399,0.5231310755293741,0.2854984730366126,0.8780822451654231
444,1791286347.466343,-0.44125839843750003,0.18475180664062502,0.21564755859374993,0.524734288736735,-0.6483439444537177,0.5238740166500664,0.28621011671425073,0.8813115717726986
445,1791286347.486343,-0.3741978515625,0.22786215820312503,0.24438779296874993,0.5016678070268346,-0.6557444557491927,0.5258127338336023,0.28816436760637976,0.8885485496388795
446,1791286347.5118256,-0.31192734375000003,0.170381689453125,0.22043759765624993,0.4182359649053277,-0.6650706338459295,0.5286735146791189,0.2911692222580012,0.8981058674330817
447,1791286347.5318255,-0.24486679687500004,0.069790869140625,0.16295712890624992,0.30230041265038743,-0.6721275024610873,0.5309422567600679,0.29374891187680713,0.9055073068765713
448,1791286347.556289,-0.254446875,0.06021079101562501,0.16295712890624992,0.3080967013996759,-0.6803806203103325,0.5335395804771209,0.29702897838788755,0.9142256211853436
449,1791286347.576289,-0.2927671875,0.09853110351562501,0.16295712890624992,0.34925066971737523,-0.6869366525202458,0.5355826112039469,0.29979721534038994,0.9211997982661586
450,1791286347.5866194,-0.283187109375,0.09853110351562501,0.12463681640624992,0.3247116463572877,-0.6902612790559564,0.5366322721360035,0.3012354162003257,0.9247581331543929
451,1791286347.6066194,-0.21133652343750003,0.069790869140625,0.07673642578124992,0.23541956289937785,-0.6964741380976085,0.5386120986286832,0.30390420890430114,0.9314166554328681
452,1791286347.6318433,-0.23049667968750004,0.136851416015625,0.09110654296874991,0.283120878043567,-0.7039703048601555,0.5411254371764637,0.30708273238727074,0.9395162230716144
453,1791286347.6518433,-0.24486679687500004,0.175171728515625,0.07673642578124992,0.3106981842957175,-0.7097354768493241,0.5432873647501797,0.30947669890998686,0.9458654423140508
454,1791286347.6762676,-0.33587753906250006,0.074580908203125,0.1390069335937499,0.3710781059321897,-0.7167837446160243,0.5459890226181661,0.31235692218257105,0.9536507726629696
455,1791286347.6962676,-0.30713730468750006,0.09374106445312501,0.1533770507812499,0.355872492336597,-0.7226540510461567,0.5481219323165072,0.3148002110744106,0.9600862998045
456,1791286347.720972,-0.23049667968750004,0.160801611328125,0.1342168945312499,0.3114483140591646,-0.7298136695465447,0.5508329857496537,0.3178983826840285,0.9680415033251376
457,1791286347.740972,-0.16822617187500002,0.18954184570312502,0.05278623046874992,0.25886780854977753,-0.7353385323256316,0.5532240692931955,0.32031084525895037,0.9743606445041998
458,1791286347.7516832,-0.19217636718750003,0.165591650390625,9.580078124991288e-05,0.25367766941980824,-0.7381431198727088,0.5545978457842717,0.3214515435089579,0.9776324108724416
459,1791286347.7716832,-0.21612656250000004,0.122481298828125,0.004885839843749913,0.24846776654461572,-0.743206799840127,0.5572103074319176,0.32326944469869284,0.9835358701708729
460,1791286347.7961848,-0.09637558593750002,0.050630712890625006,0.024045996093749914,0.11148960750110296,-0.7490539571228905,0.5602488227614771,0.32521562244650654,0.9903159976342656
461,1791286347.8161848,-0.053265234375000026,0.017100439453125,0.019255957031249913,0.059164196129948575,-0.7533353667750317,0.5624586405379751,0.32663089697947467,0.9952696318141706
462,1791286347.8413815,-0.04368515625000002,0.017100439453125,-0.03343447265625009,0.057608001769532374,-0.7581033898226052,0.564889687653349,0.3281196704308354,1.0007415385609129
463,1791286347.8613815,-0.06763535156250003,-0.030799951171875,-0.028644433593750088,0.07964723064287683,-0.7614873005289121,0.5665093378279075,0.32903101042015276,1.0045183644568827
464,1791286347.8713174,0.023375390624999978,-0.026009912109374998,-0.07654482421875008,0.08415482475466335,-0.76294922102027,0.5671509403383564,0.3293374599574217,1.0060888954328664
465,1791286347.8913174,0.01858535156249998,-0.006849755859374999,-0.1531854492187501,0.1544607273723163,-0.7653875868486989,0.5681994156279214,0.3295171918423714,1.008588277614641
466,1791286347.9161742,-0.08679550781250002,0.06021079101562501,-0.1292352539062501,0.16691479977332732,-0.7680906752003387,0.5694065197839149,0.3291805576043784,1.0112106158495724
467,1791286347.9361742,-0.08679550781250002,0.08895102539062501,-0.07654482421875008,0.1459618279179619,-0.7701997486527719,0.5704558209467979,0.3286416580153586,1.0132289158230543
468,1791286347.9618664,-0.12032578125000003,0.132061376953125,0.004885839843749913,0.178724291430004,-0.7729017948652395,0.5720274470034113,0.32791514155853757,1.0159335237575857
469,1791286347.9818664,-0.10595566406250002,0.132061376953125,0.06236630859374991,0.1804338285280551,-0.7750291016706017,0.5734635413908747,0.32753529961397654,1.0182386332457243
470,1791286347.9911566,-0.10595566406250002,0.146431494140625,0.09110654296874991,0.20240846670754148,-0.7760166888107257,0.5742246056938051,0.32749225957292316,1.0194052085295364
471,1791286348.0111566,-0.13469589843750002,0.146431494140625,0.16295712890624992,0.25717735785544843,-0.7781848316627841,0.5760565560242408,0.32779459661147853,1.0221849566180412
472,1791286348.0367305,-0.10116562500000002,0.175171728515625,0.10547666015624992,0.22813360995370566,-0.7809937683130944,0.5786645434659398,0.3286380739433423,1.0260637912204686
473,1791286348.0567305,-0.21133652343750003,0.132061376953125,0.06715634765624992,0.258095541325168,-0.7833297274549156,0.5808590205162204,0.32945771447312056,1.0293420467733296
474,1791286348.0810885,-0.23049667968750004,0.017100439453125,0.10068662109374991,0.2521089844565805,-0.786555117211112,0.5834032780720178,0.330612844999545,1.033602046512513
475,1791286348.1010885,-0.14906601562500002,-0.026009912109374998,0.1437969726562499,0.20874568711078187,-0.7893755279878217,0.5851656046791531,0.33178575990426834,1.0371182669111676
476,1791286348.1264782,-0.07721542968750003,0.036260595703125,0.1342168945312499,0.15903216077317006,-0.7928498171160246,0.5870867840705215,0.33358080893144143,1.0414210870817509
477,1791286348.1464782,-0.09637558593750002,0.021890478515625002,0.10068662109374991,0.1410859393480295,-0.795436458744941,0.5884603611814371,0.3351350622301267,1.044662752527566
478,1791286348.156054,-0.10595566406250002,-0.016429833984375,0.047996191406249916,0.11747415282173718,-0.7966344659224053,0.5890232927802388,0.33587438477792286,1.046129300843399
479,1791286348.176054,-0.11074570312500003,-0.026009912109374998,0.024045996093749914,0.11627268044011323,-0.7990863383378132,0.5899590049995828,0.3372949663695647,1.048979741480491
480,1791286348.2019017,-0.13948593750000002,-0.006849755859374999,0.05757626953124992,0.151057183638257,-0.802264879727569,0.5909232093463296,0.3390137447669945,1.052496791315488
481,1791286348.2219017,-0.09158554687500002,0.026680517578125004,0.024045996093749914,0.09837668597167776,-0.8047020094812448,0.5915871115023106,0.3402666165380561,1.0551312737707366
482,1791286348.2318602,-0.09637558593750002,0.007520361328125002,-0.03822451171875009,0.10395154013019178,-0.8058738786058054,0.5918936436114016,0.34078628833159885,1.0563645620152036
483,1791286348.2518601,-0.15864609375000002,-0.030799951171875,-0.03822451171875009,0.16606725550348733,-0.8082568872233434,0.5923819996466535,0.3415587371702141,1.0587058138060108
484,1791286348.276322,-0.18738632812500003,-0.040380029296875,-0.004694238281250087,0.19174519187512323,-0.8113691648438607,0.5927591178938854,0.34228305438512296,1.061527664653621
485,1791286348.2963219,-0.14906601562500002,-0.049960107421875004,-0.014274316406250088,0.15786210899637626,-0.8140367575214957,0.5928856906649619,0.3427579745120624,1.0637914804523445
486,1791286348.3217065,-0.12990585937500002,-0.026009912109374998,-0.028644433593750088,0.13554538503321112,-0.8174458084983984,0.5928776080973042,0.34318863088976614,1.0665364243131938
487,1791286348.3417065,-0.14906601562500002,-0.054750146484375,0.014465917968749914,0.15946008383621235,-0.8201472904228307,0.5927510552695168,0.3434557715742613,1.0686240024155869
488,1791286348.3515038,-0.17301621093750003,-0.021219873046875,0.014465917968749914,0.17491184934695989,-0.821508818755133,0.5926425375239752,0.3435882646306272,1.069651724706316
489,1791286348.3715038,-0.17301621093750003,-0.035589990234375,0.043206152343749915,0.1818461664495673,-0.8243903420305807,0.5923690267097164,0.3439046698537842,1.0718166456001488
490,1791286348.3963132,-0.14906601562500002,-0.030799951171875,0.08631650390624991,0.17498529324803352,-0.8280279158474344,0.5919571053287308,0.3444792902203583,1.0745740669505002
491,1791286348.4163132,-0.09637558593750002,-0.035589990234375,0.10068662109374991,0.14384956251916697,-0.8308886329124183,0.5915752618537238,0.3451535386433068,1.0767860400183342
492,1791286348.4418545,-0.08200546875000003,0.007520361328125002,0.08631650390624991,0.11929791107144519,-0.8343356663170424,0.5911069981490703,0.3462436624994956,1.079540717699232
493,1791286348.4618545,-0.11553574218750003,0.045840673828125005,0.06715634765624992,0.14127933369874068,-0.8369262815581413,0.590875368972054,0.34719944479986636,1.0817239744453913
494,1791286348.486446,-0.13469589843750002,0.007520361328125002,0.038416113281249914,0.14026880854284285,-0.8400953474005145,0.5907317015207848,0.34839308213434833,1.0844823076402414
495,1791286348.506446,-0.14427597656250002,-0.0020597167968749988,0.06715634765624992,0.15915330620779916,-0.8427045693631676,0.5906405756543165,0.3493765981460759,1.0867710376003534
496,1791286348.5165083,-0.13948593750000002,-0.021219873046875,0.09589658203124991,0.17059532296536048,-0.8440345662784594,0.5905840365018514,0.34992025695428747,1.0879467080103886
497,1791286348.5365083,-0.15385605468750002,-0.035589990234375,0.09589658203124991,0.18475520943714185,-0.8467215378105222,0.590403301900929,0.3511264290315819,1.0903225168050992
498,1791286348.5618114,-0.13948593750000002,-0.054750146484375,0.05757626953124992,0.16052704480382604,-0.850167748803606,0.5900375012437097,0.3527147777194162,1.0933147618144416
499,1791286348.5818114,-0.13469589843750002,-0.069120263671875,0.05757626953124992,0.1619741421310512,-0.8528943687805617,0.5896059314920382,0.35395464338825733,1.0956038738176745
500,1791286348.6067834,-0.13469589843750002,-0.064330224609375,0.06715634765624992,0.1636805971540459,-0.8562926993097556,0.5888979634206044,0.35550413583549145,1.0983720630133773
501,1791286348.6267834,-0.13469589843750002,-0.045170068359375,0.07673642578124992,0.1614676412571795,-0.8590102437665033,0.5882517547819186,0.3567748116707925,1.100557582383822
502,1791286348.636316,-0.13469589843750002,-0.045170068359375,0.05757626953124992,0.15329170540055673,-0.8603038310865033,0.5879253611600626,0.35738564001160344,1.1015913070480394
503,1791286348.656316,-0.11074570312500003,-0.054750146484375,0.06236630859374991,0.13838983253231432,-0.862978893221193,0.5871934116748148,0.3586548655214247,1.103703757999299
504,1791286348.681399,-0.12032578125000003,-0.006849755859374999,0.08631650390624991,0.14824220598518345,-0.8662652917144182,0.5862972470510216,0.36028760616610445,1.106330500657726
505,1791286348.701399,-0.13948593750000002,-0.006849755859374999,0.05757626953124992,0.151057183638257,-0.8688823571748032,0.5856693244993624,0.3616100309564152,1.1084795545058472
506,1791286348.726661,-0.13948593750000002,-0.030799951171875,0.03362607421874991,0.14675038882336452,-0.8722206709986784,0.584923834781987,0.36320262274047627,1.1112249711822584
507,1791286348.746661,-0.13469589843750002,-0.059540185546875,0.06236630859374991,0.15992990714201163,-0.8748784619569059,0.5842866473318824,0.36441834596576145,1.1133750223185512
508,1791286348.7565103,-0.17301621093750003,-0.016429833984375,0.08631650390624991,0.19404918845107622,-0.8762183092040641,0.583963804248837,0.36503707466363755,1.1144614465903202
509,1791286348.7765102,-0.20175644531250003,-0.006849755859374999,0.06236630859374991,0.2112868638322783,-0.8790930541849371,0.5833716552821447,0.36632802910511253,1.1168362955289672
510,1791286348.8015854,-0.17780625000000003,-0.045170068359375,0.014465917968749914,0.18402353218360887,-0.8828704817022565,0.5826427734137135,0.36784828899161504,1.1199309142025042
511,1791286348.8215854,-0.14906601562500002,-0.064330224609375,0.03362607421874991,0.16580038504168276,-0.8859217348567802,0.5819843702898405,0.36895110249051005,1.1223582509975467
512,1791286348.8456585,-0.14906601562500002,0.012310400390625002,0.043206152343749915,0.15568877471558948,-0.8895817713359492,0.5812168313218576,0.370218120001327,1.1252689408680676
513,1791286348.8656585,-0.17301621093750003,0.017100439453125,0.019255957031249913,0.17492234322078137,-0.8926495425965286,0.5807189260699263,0.37120655682443254,1.127764153013852
514,1791286348.8756235,-0.11074570312500003,-0.064330224609375,-0.02385439453125009,0.1302767081922007,-0.8941608512170411,0.5804727598198964,0.37162173343881466,1.1289707549383998
515,1791286348.8956234,-0.11553574218750003,-0.09786049804687501,0.028836035156249915,0.15413209180547502,-0.897078533892474,0.5798095195047615,0.37233748849509857,1.131178226548695
516,1791286348.9219396,-0.16822617187500002,-0.021219873046875,0.07673642578124992,0.18611503689257303,-0.900901845835075,0.5788326958443555,0.3733463859134114,1.134045391279421
517,1791286348.9419396,-0.13948593750000002,-0.011639794921874998,0.038416113281249914,0.1451468544120576,-0.9038332353873458,0.5781523879333729,0.3741708523447693,1.136300368656206
518,1791286348.9665976,-0.09637558593750002,-0.059540185546875,-0.014274316406250088,0.11417987287004,-0.9073414174561935,0.5773078128855099,0.37507951046395915,1.1389632995930767
519,1791286348.9865975,-0.12990585937500002,-0.088280419921875,0.038416113281249914,0.16169342163853695,-0.9100994914075703,0.5765038053345335,0.3757421808830534,1.1409732285729883
520,1791286348.9968054,-0.15864609375000002,-0.054750146484375,0.09110654296874991,0.1909622050928167,-0.9115169556558417,0.5760454950373256,0.37612883252638585,1.1420002064179118
521,1791286349.0168054,-0.13469589843750002,-0.054750146484375,0.08152646484374991,0.1666947151707727,-0.9143175800437376,0.5751179855006813,0.37703170239817435,1.1440674101803023
522,1791286349.0418549,-0.09637558593750002,-0.064330224609375,0.08631650390624991,0.14448934289312396,-0.917733247910207,0.5739068391600111,0.3783082280002876,1.1466126153706708
523,1791286349.0618548,-0.08679550781250002,-0.049960107421875004,0.08631650390624991,0.1322119939968863,-0.9203260712706688,0.5729134508568817,0.3794335003284902,1.1485641822748849
524,1791286349.0864537,-0.09158554687500002,-0.0020597167968749988,0.09110654296874991,0.12919967879756059,-0.9233658399964582,0.5717789394626449,0.3809372480897203,1.150933889095095
525,1791286349.1064537,-0.08200546875000003,-0.0020597167968749988,0.10068662109374991,0.12987276467938505,-0.9257269767773322,0.57098871205651,0.38226416098760885,1.1528765907957417
526,1791286349.1321478,-0.053265234375000026,-0.054750146484375,0.08631650390624991,0.11526188693441497,-0.9285660167724559,0.570016306420196,0.3840735182762692,1.1552774145332796
527,1791286349.1521478,-0.06763535156250003,-0.054750146484375,0.08152646484374991,0.11924212255307555,-0.930625758784598,0.5692086843298453,0.3855224058150088,1.1570178713465555
528,1791286349.1615968,-0.07242539062500003,-0.054750146484375,0.06236630859374991,0.11014795592681331,-0.9315521739691626,0.5688067567842423,0.38620622783218067,1.1577935177770011
529,1791286349.1815968,-0.05805527343750003,-0.045170068359375,0.05757626953124992,0.09341186574856881,-0.9334146356583592,0.5679337569042454,0.3876164258856969,1.159335209466615
530,1791286349.2069018,-0.07242539062500003,-0.069120263671875,0.05757626953124992,0.11549058347063842,-0.9356652841743431,0.5667779671165905,0.38935158982555845,1.1611638336245058
531,1791286349.2269018,-0.12990585937500002,-0.083490380859375,0.05757626953124992,0.1648065617902877,-0.9374807720183742,0.5657725889204368,0.39069000591037734,1.162586556345871
532,1791286349.2517338,-0.13948593750000002,-0.09786049804687501,0.08152646484374991,0.18889036054853495,-0.9398984833790197,0.5643738035201241,0.3923615836805018,1.1644202684195362
533,1791286349.2717338,-0.14427597656250002,-0.026009912109374998,0.10068662109374991,0.1778478805279299,-0.9419792900249541,0.5632303901852722,0.39377926448722006,1.1660255419176146
534,1791286349.2816708,-0.12511582031250001,-0.035589990234375,0.11505673828124992,0.17366251443899094,-0.9430588385092982,0.5627015891273156,0.3945387753584227,1.166899265814422
535,1791286349.3016708,-0.13469589843750002,-0.026009912109374998,0.09110654296874991,0.16468121555156012,-0.9452954127308999,0.561704533426902,0.39614736688910596,1.1687720635331715
536,1791286349.3273854,-0.14427597656250002,0.05542075195312501,0.09589658203124991,0.18188779949570313,-0.9482777289707427,0.5606715997845348,0.39826600704155785,1.171409026101338
537,1791286349.3473854,-0.21133652343750003,0.08895102539062501,0.16295712890624992,0.28130132761517634,-0.9507827608885555,0.5602052832855152,0.40005492337558096,1.173823564059314
538,1791286349.3719487,-0.21133652343750003,0.09853110351562501,0.19648740234374992,0.30492425908485943,-0.9541765371242493,0.5600638646698244,0.40258463400112826,1.1773694339675824
539,1791286349.3919487,-0.17301621093750003,0.141641455078125,0.24438779296874993,0.3312435726107823,-0.9571018588574334,0.5603262489799932,0.40499672955503435,1.1806912485805157
540,1791286349.4015596,-0.20175644531250003,0.156011572265625,0.30665830078124995,0.39885409280082823,-0.9585668877887946,0.5606479766514967,0.4063791853062199,1.1825060990703853
541,1791286349.4215596,-0.15864609375000002,0.20391196289062502,0.29707822265624995,0.3937056540724782,-0.9616988707150735,0.5617569413513899,0.40973011136491644,1.186724206903282
542,1791286349.4467347,-0.16822617187500002,0.26139243164062503,0.19169736328124992,0.36520395303405384,-0.9656670905015989,0.5638220260217637,0.4142382825783137,1.192477069573474
543,1791286349.4667346,-0.30234726562500003,0.21828208007812502,0.20606748046874993,0.42605720510382866,-0.9690525693901413,0.5659360266360823,0.41787916163009087,1.1974846396555316
544,1791286349.4918914,-0.35024765625000004,0.21349204101562502,0.2731280273437499,0.4927993421326004,-0.9739034827184126,0.5690108885082124,0.4226759769372495,1.2045398982067042
545,1791286349.5118914,-0.32150742187500003,0.22307211914062502,0.31623837890624995,0.5031251384614481,-0.9781891806034965,0.5717436110471673,0.42680153450822855,1.2107453818543241
546,1791286349.5221558,-0.2927671875,0.33324301757812497,0.3545586914062499,0.5678691755087143,-0.980531648636775,0.5733639944218974,0.42911765603933744,1.2142201393497312
547,1791286349.5421557,-0.21612656250000004,0.43383383789062496,0.3545586914062499,0.6005283969711073,-0.985174604635805,0.5771983017650567,0.434017311893191,1.2215145959843343
548,1791286349.566796,-0.264026953125,0.438623876953125,0.37850888671874994,0.6366868262614899,-0.9909241115637173,0.5828259675822156,0.440503029965733,1.2311212867851322
549,1791286349.586796,-0.24486679687500004,0.405093603515625,0.36892880859374994,0.6001408514936312,-0.9956541823186246,0.5879742121769779,0.44609884706463976,1.2393728681498992
550,1791286349.6115813,-0.24007675781250004,0.448203955078125,0.41682919921874995,0.6574725973839366,-1.001538182201834,0.5949834378927091,0.45345398565038997,1.2500818128734636
551,1791286349.6315813,-0.22091660156250004,0.405093603515625,0.43598935546874995,0.6348162651801345,-1.0062654501444277,0.6010709430793164,0.4597780306209451,1.2590680173089541
552,1791286349.6569543,-0.12990585937500002,0.515264501953125,0.31623837890624995,0.6183686211041212,-1.0120307184983492,0.6093868383510026,0.4680290515562844,1.2706729268542678
553,1791286349.6769543,-0.12990585937500002,0.553584814453125,0.16774716796874992,0.5928497208016498,-1.0162831850044525,0.6165617887593118,0.4742832411221444,1.2798142616372903
554,1791286349.6866395,-0.12032578125000003,0.47215415039062497,0.1533770507812499,0.5108153825707189,-1.0182153724995064,0.6202602681267522,0.4770908833552965,1.284173296713382
555,1791286349.7066395,-0.03410507812500002,0.438623876953125,0.19648740234374992,0.48183125787675624,-1.021838470655845,0.6281181514678369,0.48254376448427283,1.2928784772585171
556,1791286349.7315478,0.004215234374999978,0.500894384765625,0.24438779296874993,0.5573493933276564,-1.025729734533443,0.6381916732232329,0.4891398149359634,1.303329528029311
557,1791286349.7515478,0.11917617187499999,0.467364111328125,0.1390069335937499,0.5019512925448492,-1.0282004455329727,0.6465192649375009,0.49421672843099,1.311271707462096
558,1791286349.7617757,0.26287734375,0.563164892578125,-0.028644433593750088,0.622157293347505,-1.0289813604566664,0.6509296729409184,0.49650825490475503,1.3149268141120205
559,1791286349.7817757,0.07606582031249998,0.5871150878906249,-0.04301455078125009,0.5935826707608154,-1.0297709171247251,0.6599856995066159,0.5002095485841647,1.321445745312273
560,1791286349.8071818,-0.029315039062500024,0.505684423828125,-0.014274316406250088,0.5067345104948787,-1.030534368094072,0.6718463306775717,0.5040969003791508,1.3294706694169047
561,1791286349.8271818,-0.01973496093750002,0.357193212890625,-0.10049501953125009,0.37158539929458795,-1.03111879052733,0.6810769431406783,0.5065258879867923,1.3355299464471784
562,1791286349.8662994,0.138336328125,0.160801611328125,-0.07654482421875008,0.22550655866184557,-1.0317424371138006,0.6979425251978703,0.510044673566671,1.3460170110570062
563,1791286349.8862994,0.09043593749999998,0.294922705078125,-0.2633563476562501,0.405604026869732,-1.0316703076517009,0.7059556712961863,0.5110640402560997,1.350519709877754
564,1791286349.8967767,-0.13469589843750002,0.33324301757812497,-0.3208368164062501,0.4817988756547255,-1.0316729688032944,0.7100174232456322,0.5110588921100971,1.3526474215687436
565,1791286349.9167767,0.01858535156249998,0.041050634765625,-0.2346161132812501,0.23890435433152496,-1.0318514523175204,0.717169271777328,0.510217360369421,1.3562341017883819
566,1791286349.9412603,0.03774550781249998,-0.064330224609375,-0.1483954101562501,0.16608521581934327,-1.0319337356549685,0.7245684331029824,0.5086383833807868,1.3596321760242178
567,1791286349.9612603,-0.13948593750000002,-0.049960107421875004,-0.1483954101562501,0.20969868108622164,-1.0321434787157786,0.729534526883835,0.5070968516655764,1.3618693048674932
568,1791286349.9719384,-0.12990585937500002,-0.064330224609375,-0.1627655273437501,0.21795992060408487,-1.0324544073146547,0.7316966981819056,0.5061480828457982,1.3629116050141457
569,1791286349.9919384,-0.014944921875000022,-0.42358315429687504,-0.2106659179687501,0.4733140271400756,-1.033166696854207,0.7344071115338078,0.5040774497308268,1.3641412332625964
570,1791286350.0165124,0.03774550781249998,-0.500223779296875,-0.19629580078125008,0.5386841320648162,-1.0338685877589302,0.7355352359161382,0.501164833097658,1.3642076564668069
571,1791286350.0365124,0.08564589843749998,-0.6199747558593751,-0.1388153320312501,0.6410722379178532,-1.0341690592990485,0.7346353606455669,0.4986472587556854,1.3630274556981163
572,1791286350.0470717,0.07127578124999998,-0.7876261230468751,-0.1388153320312501,0.8029351425274617,-1.0341796284043658,0.7331167740722585,0.4972975736871599,1.3617241222170677
573,1791286350.0670717,0.21976699218749998,-0.854686669921875,-0.10049501953125009,0.8881925937249596,-1.03376008039749,0.7282084579401102,0.4947656822809782,1.3578440788256583
574,1791286350.0912194,0.26287734375,-0.974437646484375,-0.1723456054687501,1.023882919316195,-1.0324553984702336,0.7198584571344577,0.4916731154676799,1.3512597087947325
575,1791286350.1112194,0.28682753906249997,-1.199569482421875,-0.19150576171875008,1.2481632253411465,-1.0307123475559499,0.7107190598662413,0.48895017593130735,1.3440840003529195
576,1791286350.1368084,0.22455703124999998,-1.2139395996093751,-0.0669647460937501,1.2363492585038356,-1.0278352859547546,0.6961477186521949,0.4854928391804123,1.3329554824276035
577,1791286350.1568084,0.2485072265625,-1.180409326171875,-0.0669647460937501,1.2081416705778865,-1.0252143212538516,0.68287576301746,0.48299507173551187,1.3231280933989218
578,1791286350.1661563,0.26766738281249997,-1.300160302734375,-0.19150576171875008,1.341170047905751,-1.0238111598375286,0.6758638786394472,0.4818215296773471,1.3180035128625573
579,1791286350.1861563,0.253297265625,-1.304950341796875,-0.2202459960937501,1.347428364746791,-1.0204779446143972,0.6592045051925504,0.47906971606752574,1.305922512235546
580,1791286350.211367,0.1622865234375,-1.304950341796875,-0.2729364257812501,1.3430288912616346,-1.0161207790615172,0.6364199898503761,0.4751887714094741,1.2897039232302052
581,1791286350.2313669,0.21976699218749998,-1.3720108886718752,-0.3352069335937501,1.4293617798929192,-1.0126095825101673,0.6170405343206007,0.47165956491905875,1.2761582710485808
582,1791286350.2564306,0.22455703124999998,-1.429491357421875,-0.3783172851562501,1.4956588412721814,-1.0080341869200953,0.5911311222933681,0.4665589474095608,1.2582711063802552
583,1791286350.2764306,-0.09158554687500002,-1.3768009277343751,-0.4214276367187501,1.4427646932181906,-1.004731377785786,0.5693481193024786,0.4618997369701601,1.24378205063174
584,1791286350.2868552,0.138336328125,-1.6881534667968752,-0.2585663085937501,1.7134338630589785,-1.0032315277939499,0.5573009132541329,0.45930383944220887,1.2361301805230822
585,1791286350.3068552,0.06169570312499998,-1.4965519042968751,-0.1723456054687501,1.5077058631454219,-1.0004855932444368,0.5328778269660894,0.4544242011916274,1.2212418087301233
586,1791286350.3309696,0.08564589843749998,-1.4917618652343752,-0.1196551757812501,1.499001682313249,-0.9974049113009401,0.5024429429450781,0.4488951406318172,1.2036495815998136
587,1791286350.3509696,-0.053265234375000026,-1.463021630859375,-0.2250360351562501,1.4811855706407262,-0.9951845422763096,0.47655499566212,0.4444802650314107,1.1895627949287184
588,1791286350.3768644,-0.03410507812500002,-1.750423974609375,-0.2585663085937501,1.7697468132987253,-0.9929106351503019,0.4418235592161151,0.43868233484211827,1.1719734543817553
589,1791286350.3968644,-0.08200546875000003,-1.9180753417968752,-0.1579754882812501,1.926316217190679,-0.9915919812264222,0.4135196343377664,0.43425118272112756,1.1588042263083438
590,1791286350.406571,-0.07721542968750003,-1.822274560546875,-0.3112567382812501,1.850277696380631,-0.9911639122969975,0.3991205874026117,0.43208161984220356,1.1525613521778173
591,1791286350.426571,-0.11553574218750003,-1.7312638183593752,-0.3256268554687501,1.7654052694737168,-0.9907033177709798,0.368571757615556,0.4273265174369206,1.1401518130753525
592,1791286350.4515996,-0.16822617187500002,-1.788744287109375,-0.2633563476562501,1.8158366488814413,-0.9907460382056062,0.329468732282198,0.4211628036008326,1.1258354519682958
593,1791286350.4715996,-0.18738632812500003,-1.903705224609375,-0.3926874023437501,1.9527955894390696,-0.9913084729972444,0.297370527721191,0.4159922245586746,1.1154242467718651
594,1791286350.4966838,-0.11553574218750003,-2.167157373046875,-0.4405877929687501,2.2145060827614187,-0.9924779677061543,0.255492619077156,0.40891230690480723,1.1034030403815525
595,1791286350.5166838,-0.10116562500000002,-2.205477685546875,-0.4118475585937501,2.2458817236547595,-0.9935956038552153,0.22055237508693404,0.4028354868781077,1.0946012989418656
596,1791286350.556539,-0.24486679687500004,-2.128837060546875,-0.3304168945312501,2.168197939017874,-0.9965230516031826,0.14841297692804217,0.39032353428458877,1.0804800162490629
597,1791286350.576539,-0.3741978515625,-2.248588037109375,-0.3831073242187501,2.3114807839598046,-0.998700330725094,0.11107627322955368,0.3839163602326887,1.0757007300914574
598,1791286350.571567,-0.31192734375000003,-2.382709130859375,-0.3783172851562501,2.4326375476645845,-0.998700330725094,0.11107627322955368,0.3839163602326887,1.0757007300914574
599,1791286350.591567,-0.45083847656250003,-2.502460107421875,-0.3639471679687501,2.5686610251762634,-1.0022923713197385,0.07086785968045956,0.3772029659112108,1.0732634013296307
600,1791286350.6169336,-0.46520859375000007,-2.588680810546875,-0.4262176757812501,2.6644603359293697,-1.007907646667881,0.017834157182957056,0.36846211388498157,1.073294093313944
601,1791286350.6369336,-0.3741978515625,-2.6461612792968747,-0.5411786132812502,2.726732080648387,-1.0129299633654947,-0.025559875732442387,0.3611531342229991,1.0756914075561708
602,1791286350.6615312,-0.42688828125000006,-2.665321435546875,-0.4118475585937501,2.7305293206581513,-1.0196581601789474,-0.0807227842408389,0.35175415535235277,1.0816422316657002
603,1791286350.6815312,-0.40772812500000005,-2.775492333984375,-0.2537762695312501,2.816736110270049,-1.0255600912536875,-0.12700831989637468,0.3442598755462425,1.0892288446448184
604,1791286350.6910954,-0.40772812500000005,-2.6796915527343748,-0.2346161132812501,2.7206678890160743,-1.028544028558028,-0.14973540621324016,0.34086329158840445,1.0938515868748846
605,1791286350.7110953,-0.44125839843750003,-2.540780419921875,-0.3112567382812501,2.597528608807897,-1.0351213580574075,-0.19796275903782284,0.33400716623779075,1.1055434260899377
606,1791286350.7363524,-0.49873886718750005,-2.5359903808593747,-0.2346161132812501,2.595194094873435,-1.0439622702980258,-0.25934820284824667,0.3256135699553016,1.1238963070788424
607,1791286350.7563524,-0.19696640625000003,-2.6030509277343747,-0.2058758789062501,2.618597864332217,-1.0509564431469658,-0.30837389647341473,0.3193032948093344,1.140858667624704
608,1791286350.7820222,-0.20654648437500003,-2.406659326171875,-0.2058758789062501,2.4242638965205825,-1.0593637201461263,-0.3715042387412646,0.311626266623883,1.1650655865720634
609,1791286350.8020222,-0.3741978515625,-2.229427880859375,-0.1771356445312501,2.267542666551308,-1.065802604147532,-0.4202668010462691,0.3059675931031201,1.1858227283614704
610,1791286350.8120763,-0.37898789062500005,-2.330018701171875,-0.1388153320312501,2.364717459963876,-1.0691218862240974,-0.4445411398279611,0.3033113956091663,1.196927832122428
611,1791286350.8320763,-0.35982773437500004,-2.339598779296875,-0.1483954101562501,2.37175454975179,-1.075842513201193,-0.49258979948218895,0.29838935117705073,1.2202942385592188
612,1791286350.8571265,-0.38856796875000005,-2.3348087402343753,-0.10049501953125009,2.3690538551843687,-1.0844035717456981,-0.5525260863237713,0.29268157452986737,1.2517502492719437
613,1791286350.8771265,-0.33587753906250006,-2.468929833984375,-0.1627655273437501,2.49698235141466,-1.0913000955735248,-0.6004067078171037,0.28841317198873156,1.278517215827444
614,1791286350.9022574,-0.24007675781250004,-2.550360498046875,-0.1531854492187501,2.566211468583993,-1.0997516243037304,-0.6610069452403904,0.2832587159424986,1.3140088724860723
615,1791286350.9222574,-0.30234726562500003,-2.464139794921875,-0.1340252929687501,2.48623441716663,-1.1062823390567404,-0.7095220266056862,0.27934114229316354,1.3436195866855851
616,1791286350.9312997,-0.4029380859375,-2.397079248046875,-0.19150576171875008,2.438241677784921,-1.1092703733492928,-0.7314629363627148,0.27761486696712734,1.3574199065963413
617,1791286350.9512997,-0.18259628906250003,-2.521620263671875,-0.2777264648437501,2.5434311762291935,-1.1157663534488902,-0.780091173249323,0.27366552063797905,1.3886574852195177
618,1791286350.9772434,-0.04368515625000002,-2.478509912109375,-0.2585663085937501,2.4923435383672143,-1.123369184819396,-0.843438348710949,0.2682674205044577,1.4301447417594355
619,1791286350.9972434,-0.12511582031250001,-2.588680810546875,-0.2106659179687501,2.6002504564713975,-1.128604240232357,-0.8925481885911224,0.2640263974790106,1.4629079733850294
620,1791286351.0215662,-0.21612656250000004,-2.6126310058593747,-0.2873065429687501,2.6372516970187903,-1.1346383065521934,-0.9528021682432406,0.2587339721489458,1.504054296509478
621,1791286351.0415661,-0.17780625000000003,-2.684481591796875,-0.4453778320312501,2.7269796281784364,-1.1394466163664398,-1.002861355117032,0.25393589321648036,1.5390103726095383
622,1791286351.0514908,-0.18738632812500003,-2.655741357421875,-0.4932782226562501,2.707655664673051,-1.1417465826441258,-1.027951210149548,0.2512133854744114,1.5567199858898757
623,1791286351.0714908,-0.30234726562500003,-2.670111474609375,-0.4501678710937501,2.72462112375953,-1.1464208062680332,-1.0789165220621069,0.24513482032630857,1.593245934173143
624,1791286351.0973022,-0.34545761718750007,-2.6126310058593747,-0.4310077148437501,2.670383753003576,-1.1528024266991932,-1.145051442613889,0.2367608830904017,1.6419963328209488
625,1791286351.1173022,-0.35982773437500004,-2.531200341796875,-0.2825165039062501,2.572210478113615,-1.158063430723789,-1.1963251103730148,0.2301753366628587,1.6808585201903872
626,1791286351.1419408,-0.3933580078125,-2.363548974609375,-0.20108583984375009,2.4044811899187137,-1.164964269318216,-1.259061012903985,0.222385674660883,1.7296912358271663
627,1791286351.1619408,-0.4939488281250001,-2.286908349609375,-0.1483954101562501,2.3443456319567253,-1.1710566146160544,-1.309322716620471,0.21648680359166775,1.76990567743701
628,1791286351.1722546,-0.50352890625,-2.277328271484375,-0.08133486328125009,2.3337482245341534,-1.1744986815008014,-1.3348847480733028,0.21372341980084006,1.7908216392642826
629,1791286351.1922545,-0.5083189453125,-2.2916983886718754,0.028836035156249915,2.34757346460732,-1.1816899542068335,-1.383871758604734,0.20908983146694893,1.831723437028632
630,1791286351.2160509,-0.5897496093750001,-2.2342179199218752,0.05278623046874992,2.311346080011623,-1.1909225580581457,-1.4414920168013057,0.20454935031510063,1.880966828657003
631,1791286351.2360508,-0.6999205078125,-2.239007958984375,0.03362607421874991,2.346098052196295,-1.1994527919911941,-1.4893655021198613,0.20143526936670628,1.922881370980814
632,1791286351.2613635,-0.5705894531250001,-2.248588037109375,0.06236630859374991,2.3206917160830494,-1.2110415244444805,-1.5493867540662383,0.1982674115260502,1.9764945874142852
633,1791286351.2813635,-0.44604843750000006,-2.3539688964843752,-0.0669647460937501,2.3967922420250485,-1.2203494724980715,-1.5966008554636704,0.19613298056252887,2.0191224016284863
634,1791286351.3068898,-0.4939488281250001,-2.320438623046875,-0.1675555664062501,2.378338856422158,-1.2322469667939306,-1.656770949959713,0.19336842195428525,2.073816268238906
635,1791286351.3268898,-0.5083189453125,-2.253378076171875,-0.2202459960937501,2.3204760725185256,-1.2416738548597472,-1.7037037206289163,0.19094558068086956,2.116794875350144
636,1791286351.3369436,-0.45562851562500006,-2.358758935546875,-0.2920965820312501,2.420054022848913,-1.2464287253863224,-1.7272353628057862,0.18952399775917664,2.1384213597234827
637,1791286351.3569436,-0.44125839843750003,-2.459349755859375,-0.3160467773437501,2.5185304765490857,-1.25581401294256,-1.7742519148409188,0.18620804460589313,2.181676449039938
638,1791286351.3814461,-0.46520859375000007,-2.382709130859375,-0.2441961914062501,2.439949511337644,-1.2672532605517268,-1.8321111702320085,0.18172539838201046,2.2350808233450943
639,1791286351.401446,-0.47957871093750004,-2.2246378417968753,-0.1771356445312501,2.282627061896585,-1.2766070547294448,-1.8791652621384523,0.17798331597363956,2.278742134463186
640,1791286351.4261377,-0.44125839843750003,-2.306068505859375,-0.1531854492187501,2.3528975136542747,-1.2881281323152092,-1.9369337803075184,0.17344468877896785,2.3326100434114307
641,1791286351.4461377,-0.45083847656250003,-2.315648583984375,-0.1675555664062501,2.3650705199405273,-1.297398458839731,-1.9836395758174887,0.1698387641814237,2.3763236171800695
642,1791286351.45648,-0.5131089843750001,-2.3108585449218753,-0.1340252929687501,2.370930370896655,-1.302220949192188,-2.007757815928308,0.16801984817537702,2.398979265712209
643,1791286351.47648,-0.5322691406250001,-2.3348087402343753,-0.1388153320312501,2.398731328836861,-1.3117158576388275,-2.05437003843014,0.16462079187745254,2.4429766169775307
644,1791286351.5006325,-0.5274791015625,-2.3348087402343753,-0.08612490234375009,2.3952001074782316,-1.3233818884962816,-2.110675417068118,0.16072425302265622,2.4964219644373724
645,1791286351.5206325,-0.48915878906250004,-2.3539688964843752,-0.10528505859375009,2.4065599577189114,-1.3331180929508084,-2.157339664183067,0.1576945216544982,2.540902563769447
646,1791286351.5459855,-0.5466392578125,-2.2342179199218752,-0.1388153320312501,2.3043033412050544,-1.3455784095041343,-2.2163447725424237,0.15396583126553542,2.597396943883836
647,1791286351.5659854,-0.5274791015625,-2.253378076171875,-0.2106659179687501,2.323860384306867,-1.3555446344753566,-2.26264101126954,0.15094140127574146,2.6419365829922676
648,1791286351.5761049,-0.5466392578125,-2.320438623046875,-0.2250360351562501,2.394554467667905,-1.3606460845269492,-2.286023271233293,0.1493099854899477,2.6644987588148155
649,1791286351.5961049,-0.48915878906250004,-2.3874991699218753,-0.2106659179687501,2.4461824822135307,-1.3707698772593941,-2.3323658143983694,0.14591576305546147,2.7092862082998836
650,1791286351.6216335,-0.49873886718750005,-2.2677481933593753,-0.1483954101562501,2.3266807954430755,-1.383645361867061,-2.391559229772471,0.14154565845323883,2.7665981295361792
651,1791286351.6416335,-0.5274791015625,-2.2342179199218752,-0.1436053710937501,2.3001274788350723,-1.3937586959118604,-2.437730094666753,0.1381975292333938,2.8114391108398773
652,1791286351.6661072,-0.4939488281250001,-2.339598779296875,-0.2058758789062501,2.400019327090703,-1.406152753254313,-2.494149236643032,0.13407355182471112,2.8663603572179475
653,1791286351.6861072,-0.43167832031250003,-2.397079248046875,-0.2489862304687501,2.4483319294180337,-1.4161503958685784,-2.5404443075243353,0.13052664778119244,2.9114217195611714
654,1791286351.69624,-0.47478867187500007,-2.262958154296875,-0.1819256835937501,2.319375098036236,-1.4211446983157336,-2.563922438996469,0.12867171946305164,2.934264292481183
655,1791286351.71624,-0.48436875000000007,-2.2246378417968753,-0.1340252929687501,2.280699320885281,-1.4309624741781015,-2.610043557304481,0.12508574311226822,2.9791991233656225
656,1791286351.7416093,-0.5274791015625,-2.330018701171875,-0.1627655273437501,2.394517481098717,-1.44347325609941,-2.6684375524322546,0.12065463513509458,3.036236412614218
657,1791286351.7616093,-0.46520859375000007,-2.368339013671875,-0.1531854492187501,2.418452914826227,-1.4533457340632896,-2.714614771815124,0.11721143327376114,3.081409693982111
658,1791286351.7866886,-0.48436875000000007,-2.2916983886718754,-0.1292352539062501,2.3458892432231417,-1.465654605409675,-2.772598913998072,0.11301021314918976,3.1381872902263024
