imu_index,t_imu,ax,ay,az,mag,vx,vy,vz,velocity
0,1790651432.0013459,0.010729687500000045,-0.057959472656249976,0.003592529296875,0.059053644520784244,0.0,0.0,0.0,0.0
1,1790651432.0213459,0.07779023437500004,-0.057959472656249976,-0.015567626953125,0.09824953966131185,0.0001464600946996363,-0.0002477765093071501,-1.3382158868625994e-05,0.0002881368426283731
2,1790651432.0302038,0.07779023437500004,-0.019639160156249974,0.013172607421875001,0.08130519517257867,0.0003049565133876636,-0.0003926078689604108,-2.0011183495571458e-05,0.0004975337790462963
3,1790651432.0502038,0.020309765625000045,0.03784130859375003,0.032332763671875,0.05375740714070177,0.0007562886999555265,-0.0006432613627980219,3.552455127635949e-05,0.000993488687551386
4,1790651432.075568,0.020309765625000045,0.02826123046875003,0.027542724609375003,0.044382264546303965,0.0013200858238401295,-0.0007877126214489706,0.0002092927055715611,0.0015514255357248529
5,1790651432.095568,0.05863007812500005,-0.03879931640624997,-0.010777587890625,0.07112685438901438,0.0018163728342891086,-0.0009003362276497286,0.00035090612979359244,0.0020574135967006517
6,1790651432.1055417,0.03467988281250005,-0.07711962890624997,-0.025147705078125002,0.08821869702746009,0.0020965405159264925,-0.001034786848044837,0.0003840607109856635,0.0023693392719344153
7,1790651432.1255417,-0.013220507812499957,-0.048379394531249974,-0.0059875488281250005,0.050509389057876095,0.0026062669995144862,-0.0014522022734769048,0.0003938688688137001,0.003009427155069602
8,1790651432.1653712,-0.013220507812499957,-0.014849121093749973,-0.0059875488281250005,0.020763645273564175,0.0033901241603201096,-0.0023476613191988904,0.0003746995227603504,0.004140634640294364
9,1790651432.1853712,-0.018010546874999957,-0.019639160156249974,-0.0059875488281250005,0.027311666945622128,0.0036778427445862422,-0.0027815926171528027,0.0003485550524864651,0.004624421625059558
10,1790651432.1955879,0.015519726562500044,-0.010059082031249974,0.003592529296875,0.018840204633577915,0.0038008646369361884,-0.002992766617269038,0.00033536765133771113,0.004849298451870724
11,1790651432.2155879,-0.013220507812499957,0.018681152343750028,0.022752685546875002,0.03227153512471547,0.004009014346034648,-0.0033312141095838974,0.0003529424091531656,0.005224342237524385
12,1790651432.2257357,-0.06112089843749996,0.02826123046875003,0.037122802734375,0.0768931977243131,0.004042205453885669,-0.0034414533559633813,0.00040609247257621724,0.005324278094631959
13,1790651432.2457356,-0.02759062499999996,0.02826123046875003,0.017962646484375,0.04338889724596671,0.003964741257881457,-0.0035413465776035834,0.0005777595048795476,0.005347346526094107
14,1790651432.269919,0.03467988281250005,-0.024429199218749975,0.008382568359375,0.04324057699265478,0.003897982433873557,-0.0036370655120407836,0.0008019806953388422,0.005391260115164123
15,1790651432.289919,0.07300019531250004,-0.04358935546874997,-0.015567626953125,0.08643732662915866,0.00401257331050129,-0.0038063802642215065,0.000948822665457401,0.00561155412862497
16,1790651432.3151374,0.020309765625000045,-0.03879931640624997,-0.020357666015625,0.04829397580380461,0.004311875490486593,-0.00414367838798045,0.0010382573231284865,0.006069622648691201
17,1790651432.3351374,-0.02759062499999996,-0.014849121093749973,0.013172607421875001,0.03398906546874023,0.004502716206939471,-0.004451526332397693,0.001087768364074485,0.006424467288588737
18,1790651432.3450177,0.0011496093750000436,-0.029219238281249973,0.037122802734375,0.04725661826989815,0.0045632593724932394,-0.004613451449505934,0.0011458287573163923,0.006589400118272453
19,1790651432.3650177,0.05863007812500005,-0.019639160156249974,0.013172607421875001,0.06321946107708672,0.0047570989730935905,-0.004965346221730017,0.0013211701144793715,0.007002152827013281
20,1790651432.390441,0.03946992187500004,0.009101074218750027,0.013172607421875001,0.042593683464155103,0.005153592719333095,-0.005365658740252397,0.0015608584846551385,0.007601716309014035
21,1790651432.410441,-0.0036404296874999564,0.03305126953125003,0.003592529296875,0.0334446619460546,0.0054724633985103995,-0.005570110304615396,0.0017462804131925145,0.008001467348875357
22,1790651432.4360306,0.05863007812500005,0.02347119140625003,-0.010777587890625,0.06406667845075614,0.005924793167821336,-0.005683984878709792,0.0019341487664023566,0.00843515202195193
23,1790651432.4560306,0.08737031250000005,-0.048379394531249974,-0.020357666015625,0.10192434393785293,0.006444289345503193,-0.0057969973340504,0.002012252332480105,0.008898494406871594
24,1790651432.4656034,0.015519726562500044,-0.04358935546874997,0.003592529296875,0.046409051805706154,0.006729512724893628,-0.005909005050114328,0.0020319915177516392,0.009183227740015844
25,1790651432.4856033,-0.03238066406249996,0.013891113281250029,0.008382568359375,0.03621792216045244,0.007210742005835647,-0.006152463914317492,0.002085008444665579,0.009705404304099257
26,1790651432.5101168,-0.008430468749999956,0.02826123046875003,0.008382568359375,0.030660029407228652,0.007637066505403956,-0.006328607650381306,0.0021710656448601304,0.010153304173259055
27,1790651432.5301168,0.03946992187500004,0.009101074218750027,-0.010777587890625,0.04191492199078927,0.007979279651457508,-0.006394719089157297,0.0022271533776157737,0.010465254328148071
28,1790651432.555061,0.07300019531250004,0.013891113281250029,-0.034727783203125,0.08202445044045663,0.008552483111412741,-0.006421791761576643,0.0022014813989981613,0.010919290139481995
29,1790651432.575061,-0.008430468749999956,-0.019639160156249974,0.027542724609375003,0.0348621728223505,0.009039985869570187,-0.006448864327076649,0.0021732079154888283,0.011315123873604465
30,1790651432.5848866,-0.08028105468749996,0.009101074218750027,0.041912841796875,0.09101957812010793,0.009178186213878912,-0.006467934986547876,0.0022125839040516826,0.011444160637605345
31,1790651432.6048865,-0.0036404296874999564,0.02826123046875003,0.008382568359375,0.029702143495327585,0.009291417765620424,-0.0064448875582942735,0.002356155118216935,0.011550692043139365
32,1790651432.630336,0.08258027343750005,-0.029219238281249973,-0.039517822265625,0.09609851051585692,0.009564563174349389,-0.006421787898120304,0.0024520142358204155,0.011778480476582318
33,1790651432.650336,0.06821015625000004,-0.06274951171874997,-0.039517822265625,0.10075606638415618,0.009973206604101992,-0.006544310583440786,0.0023974936734473,0.012167202919934332
34,1790651432.675284,0.025099804687500046,-0.03879931640624997,-0.0059875488281250005,0.046596543755005354,0.010581076944867956,-0.006864226780631633,0.0022545415892559094,0.012812484395574548
35,1790651432.695284,0.0011496093750000436,0.009101074218750027,0.017962646484375,0.020169477493800228,0.011034665993144363,-0.007126771373955881,0.002175093819482225,0.01331486976731066
36,1790651432.719885,0.06342011718750004,0.004311035156250027,-0.001197509765625,0.06357775017907939,0.011628054393789328,-0.007376529063007387,0.002122960186555948,0.01393311845768985
37,1790651432.739885,0.11132050781250005,-0.019639160156249974,0.003592529296875,0.11309667695394338,0.012300209491555176,-0.007572109274112222,0.0020905272276963266,0.014594598195393391
38,1790651432.7504642,0.07300019531250004,-0.005269042968749973,0.022752685546875002,0.0766451304980601,0.012748665035474983,-0.007679807590406077,0.002096848129567624,0.0150301256445471
39,1790651432.7704642,0.020309765625000045,0.03305126953125003,0.027542724609375003,0.04757598844246582,0.013609270573898515,-0.007811198921525989,0.0021824484769694804,0.015842668825038767
40,1790651432.7954886,0.053840039062500046,0.009101074218750027,-0.001197509765625,0.05461696977886538,0.014663724449785568,-0.007871825847666469,0.002322933268986773,0.016804358835950706
41,1790651432.8154886,0.08258027343750005,-0.03400927734374998,-0.029937744140625,0.09419342350018874,0.015584683135710986,-0.007950374166429885,0.0023716668005562963,0.01765546944262913
42,1790651432.8408258,0.053840039062500046,-0.04358935546874997,-0.020357666015625,0.07220260578425343,0.016835640049689456,-0.008182417593872551,0.002328568730446867,0.018863005219095858
43,1790651432.8608258,-0.008430468749999956,-0.019639160156249974,-0.015567626953125,0.02644088546057462,0.01774308272333971,-0.008432949599648564,0.002245764232150985,0.019773089805690404
44,1790651432.8708532,-0.022800585937499958,0.009101074218750027,0.003592529296875,0.024811338895299916,0.01810631578612795,-0.008547642867030598,0.002201469890827121,0.020143171041559063
45,1790651432.8908532,0.03946992187500004,-0.005269042968749973,-0.0059875488281250005,0.04026770775192352,0.018747127541149194,-0.00873634024656722,0.0021227828799867928,0.020791455915915795
46,1790651432.915513,0.06342011718750004,0.018681152343750028,0.013172607421875001,0.06741375455541304,0.01960902159689677,-0.008909298130132075,0.0020536040044238546,0.021635771550053962
47,1790651432.935513,-0.013220507812499957,0.018681152343750028,0.027542724609375003,0.035810179539045056,0.020278492106848116,-0.008972488160118364,0.0020669865198653116,0.022270950118579817
48,1790651432.9751656,0.015519726562500044,-0.010059082031249974,0.013172607421875001,0.0227060483170679,0.021413546001249614,-0.009053336751979741,0.002210624338817888,0.02335358042484609
49,1790651432.9951656,0.08258027343750005,-0.08669970703124998,-0.010777587890625,0.12021853917369399,0.022047319805466835,-0.009233136464659465,0.0022757977309277692,0.024010713752232574
50,1790651432.9907455,0.06342011718750004,-0.06274951171874997,-0.001197509765625,0.08922469677536901,0.022047319805466835,-0.009233136464659465,0.0022757977309277692,0.024010713752232574
51,1790651433.0107455,0.020309765625000045,-0.0004790039062499728,0.003592529296875,0.02063061538669027,0.022816966403975895,-0.009648432012244698,0.002311209797647149,0.02488067295922305
52,1790651433.0357118,0.044259960937500044,-0.010059082031249974,0.013172607421875001,0.04726147331380267,0.023754517148864816,-0.010108820313138336,0.0023801765269629467,0.02592548116040542
53,1790651433.0557117,0.11132050781250005,-0.053169433593749975,-0.0059875488281250005,0.12351151715237836,0.02462628361970758,-0.010517150076013738,0.002437914851711109,0.02688880286408949
54,1790651433.095281,0.11132050781250005,-0.08669970703124998,-0.025147705078125002,0.14332306768149297,0.026753053108805054,-0.011618921782973262,0.0024426131765442095,0.029269293691027494
55,1790651433.1152809,0.07779023437500004,-0.029219238281249973,-0.025147705078125002,0.08681872793672028,0.02795043725095004,-0.012266151273021234,0.0023691886620165114,0.030615330546772866
56,1790651433.1108103,0.06342011718750004,-0.06274951171874997,0.003592529296875,0.08928896209368033,0.02795043725095004,-0.012266151273021234,0.0023691886620165114,0.030615330546772866
57,1790651433.1308103,0.10174042968750005,-0.07232958984374997,0.041912841796875,0.131679045058248,0.02924333090423785,-0.013053653083114439,0.0023569146189035125,0.03211113993164766
58,1790651433.155914,0.08258027343750005,-0.010059082031249974,0.06586303710937501,0.10610667438759261,0.0309697720940501,-0.014048969072774307,0.0025467381531610973,0.03410258334475469
59,1790651433.175914,0.053840039062500046,0.03305126953125003,0.041912841796875,0.07581439527799942,0.03234352670451215,-0.014688496338668611,0.0028369479357537313,0.03563571127347887
60,1790651433.2006493,0.10653046875000005,0.06658154296875003,-0.001197509765625,0.12563151143655404,0.03408519273276607,-0.0151759648871213,0.0032175629305466304,0.03744947242748521
61,1790651433.2206492,0.10653046875000005,0.05700146484375003,-0.010777587890625,0.1213015423115805,0.035601793742749646,-0.015325617287007594,0.0034611888679486045,0.03891454858158739
62,1790651433.2458508,0.049050000000000045,0.009101074218750027,0.037122802734375,0.062183876807340666,0.037520240742031405,-0.015360963547968195,0.0037719241750954605,0.04071799452876665
63,1790651433.2658508,0.010729687500000045,-0.03400927734374998,0.06586303710937501,0.07489790916015394,0.03890401932595956,-0.01542216901901376,0.004136012644203305,0.04205321173892278
64,1790651433.2758012,0.015519726562500044,0.013891113281250029,0.013172607421875001,0.02464432038133993,0.0395087981531405,-0.015463066128765015,0.00434896559985304,0.04264932645888869
65,1790651433.2958012,0.010729687500000045,0.02826123046875003,-0.039517822265625,0.04975421206363326,0.040581420234584366,-0.015469709260987159,0.004673272084880122,0.043680694189249386
66,1790651433.320803,-0.013220507812499957,0.009101074218750027,-0.029937744140625,0.033968807794579656,0.041716492093423305,-0.01540670882866905,0.004887633993682464,0.04473836558892422
67,1790651433.340803,0.0011496093750000436,0.009101074218750027,0.017962646484375,0.020169477493800228,0.04247017942400805,-0.015336568402035244,0.005015427037046139,0.04543215798332361
68,1790651433.365628,0.015519726562500044,0.02826123046875003,-0.001197509765625,0.03226442452332509,0.043296406840837576,-0.01519300130060973,0.005181472045349041,0.04617633361803847
69,1790651433.385628,-0.03238066406249996,-0.0004790039062499728,-0.015567626953125,0.03593171104779653,0.0438369079381063,-0.01505301464921941,0.005270030367014985,0.04664805427531658
70,1790651433.3958213,-0.046750781249999956,-0.053169433593749975,0.017962646484375,0.07304300709094722,0.04401056650385128,-0.015033384243247723,0.005310226394515508,0.04680951943949067
71,1790651433.4158213,0.005939648437500044,-0.13939013671874997,-0.010777587890625,0.13993229090804254,0.04423896940923522,-0.015289484660207792,0.005388041006521626,0.04711566344066416
72,1790651433.4405265,0.03467988281250005,-0.07711962890624997,-0.034727783203125,0.0914119814943845,0.04455404922577648,-0.015959550936490166,0.005385427726382303,0.04763164284699222
73,1790651433.4605265,-0.013220507812499957,-0.11543994140624998,0.008382568359375,0.11649647784803795,0.04480304920967154,-0.016709472255664017,0.005344111706165261,0.048115270044706476
74,1790651433.4856813,0.05863007812500005,-0.10585986328124998,-0.049097900390625004,0.13059249801438166,0.04515492067278237,-0.01792870598558269,0.005223127482300827,0.048863958292171786
75,1790651433.5056813,0.12090058593750005,-0.20645068359375,0.008382568359375,0.2393931993366919,0.045662016047352996,-0.019221146494124916,0.005080291719058232,0.04980242510167617
76,1790651433.5157952,0.09695039062500005,-0.22082080078125,0.041912841796875,0.24478131180198884,0.046045237802438334,-0.020100798945314875,0.005057046109702767,0.05049534392276903
77,1790651433.5357952,0.13527070312500006,-0.19208056640625,0.013172607421875001,0.2353011362088346,0.04703770524922028,-0.022198709295901616,0.005100601952581031,0.052262266979104036
78,1790651433.5609577,0.25981171875000003,-0.18250048828124998,0.032332763671875,0.319145679947865,0.048844648774027284,-0.025149129685009486,0.005233057836231851,0.05518752877316449
79,1790651433.5809577,0.25502167968750006,-0.08669970703124998,0.137713623046875,0.3025193188585404,0.05083768547300459,-0.02754626021044363,0.005577615562349184,0.05808938380801583
80,1790651433.6056862,0.22628144531250005,0.018681152343750028,0.18082397460937502,0.29025779531157514,0.05382493905757559,-0.030191707584747228,0.00653050591057225,0.062058929888313644
81,1790651433.6256862,0.25981171875000003,0.009101074218750027,0.07065307617187501,0.269400846183365,0.056607708022460394,-0.03196868466379288,0.007562799133813875,0.0654494105200923
82,1790651433.635811,0.13527070312500006,-0.08669970703124998,0.147293701171875,0.2179688893584268,0.05810517358287066,-0.03279226094313447,0.00817250685995069,0.06721854984477196
83,1790651433.655811,0.05863007812500005,-0.053169433593749975,0.295784912109375,0.30619142535540494,0.06091030466199381,-0.034384868556079105,0.009860837875939818,0.07063724600556927
84,1790651433.6799057,0.15922089843750006,0.12885205078125003,0.17124389648437502,0.26698055654472275,0.06417649404843134,-0.035878966135667476,0.012433688556411247,0.07456888902505218
85,1790651433.6999056,0.12090058593750005,0.08574169921875004,0.003592529296875,0.14826158279101956,0.06690114280916794,-0.036611239573109855,0.014511223267110226,0.0776319610274032
86,1790651433.7257202,0.03467988281250005,-0.03879931640624997,0.041912841796875,0.06681891598171065,0.07019162372785197,-0.037323745783640866,0.016878627959821712,0.08127000752233432
87,1790651433.7457201,0.005939648437500044,-0.17292041015624998,0.113763427734375,0.20707212550713142,0.07241947660473301,-0.038110541148162175,0.01867118026271488,0.08393811357608669
88,1790651433.755609,0.09695039062500005,-0.11543994140624998,0.037122802734375,0.15525418125472126,0.07343210451438087,-0.03865508124993567,0.019536458037387433,0.08525351882765124
89,1790651433.775609,0.12569062500000006,0.04263134765625003,-0.025147705078125002,0.13508505500822454,0.07550687409757151,-0.0397004127848886,0.021041919465961453,0.0878645160806629
90,1790651433.8005042,0.07300019531250004,0.09532177734375004,0.013172607421875001,0.12078405249835529,0.07807306051987523,-0.040548844590923575,0.022612408688235063,0.09083464428995547
91,1790651433.8205042,0.07300019531250004,-0.10585986328124998,0.089813232421875,0.15684946887909385,0.0800444124751161,-0.041144013672125467,0.023839314947872208,0.09310344121847705
92,1790651433.8456204,0.09695039062500005,-0.13939013671874997,0.104183349609375,0.19920632217035975,0.08246885042743732,-0.042241302000891115,0.025514397793634663,0.09610631290568454
93,1790651433.8656204,0.015519726562500044,-0.09148974609374998,0.209564208984375,0.22919073550237673,0.0842785440204118,-0.04333032460779391,0.0271188038614963,0.09856885682453452
94,1790651433.8756948,0.010729687500000045,-0.09148974609374998,0.310155029296875,0.3235454249905133,0.08507321851026234,-0.043934857418031895,0.02819843723110679,0.09981420773774795
95,1790651433.8956947,0.15922089843750006,0.07137158203125003,0.314945068359375,0.36004943175177984,0.0866691157379885,-0.04498515209888159,0.030957911264272244,0.1024382340828409
96,1790651433.9208035,0.21191132812500005,0.09532177734375004,0.286204833984375,0.368654118679958,0.08907104032128968,-0.04579203801971655,0.035034678802808424,0.1061036742470869
97,1790651433.9408035,0.16880097656250007,-0.005269042968749973,0.300574951171875,0.34477069738339894,0.09126833711833438,-0.04620326312337455,0.038675033024638844,0.10936365512843205
98,1790651433.9658394,0.18317109375000004,-0.019639160156249974,0.324525146484375,0.3731674113557067,0.09426721002468327,-0.046687586776680425,0.043722204678902976,0.11391957174626184
99,1790651433.9858394,0.22149140625000005,-0.019639160156249974,0.377215576171875,0.43787638730688033,0.09691051409334708,-0.047075372267051614,0.048201972548742464,0.11803037140290645
100,1790651434.010764,0.32687226562500005,0.13364208984375003,0.238304443359375,0.42602194067611954,0.10073562496967788,-0.04727304061631939,0.05409797458057432,0.12372953309886947
101,1790651434.0307639,0.3699826171875001,0.08574169921875004,0.142503662109375,0.4056427858601873,0.1043898565015135,-0.04707878666661841,0.058690605756456266,0.1286788308093733
102,1790651434.0408306,0.36519257812500006,-0.010059082031249974,0.137713623046875,0.3904252120721617,0.10650833436761716,-0.04693853676809559,0.060867069897550634,0.13134706590406697
103,1790651434.0608306,0.4897335937500001,-0.13460009765624997,0.07065307617187501,0.5127845905532955,0.11136825216429756,-0.04691868160714233,0.06485507237073079,0.13715112353202102
104,1790651434.0857995,0.6430148437500001,-0.23040087890625,-0.06825805664062501,0.6864486991610984,0.11864674640826509,-0.047581136194341116,0.06909153661046444,0.1453088276258767
105,1790651434.1057994,0.7196554687500001,-0.16334033203124998,-0.130528564453125,0.7494142805605287,0.12564629341626546,-0.04862277789500713,0.07167774239705318,0.15260689478071357
106,1790651434.1304173,0.7962960937500001,-0.20645068359375,-0.101788330078125,0.8288969886650143,0.13576862177053156,-0.05039536937735908,0.07395465498816242,0.16261027921557805
107,1790651434.1504173,0.8346164062500001,-0.27830126953125,-0.149688720703125,0.8924364713020804,0.1452049972996621,-0.05234656583761467,0.07514976969449656,0.17167452368048813
108,1790651434.160618,0.9591574218750001,-0.31662158203125,-0.346080322265625,1.0677095932908665,0.15066830271450313,-0.053647620535221735,0.07528859915223762,0.1767692784232221
109,1790651434.180618,1.0310080078125001,-0.30225146484375,-0.41314086914062503,1.1510946259660688,0.16275838878162416,-0.05674419457511872,0.07438113389956694,0.18773052446779814
110,1790651434.2056684,1.035798046875,-0.22561083984375,-0.31255004882812504,1.1051992480939945,0.1795130894758091,-0.06103267792783652,0.07205159361686278,0.20283335329999946
111,1790651434.2256684,1.1411789062500002,-0.19687060546875,-0.42272094726562504,1.2327774862580538,0.19414881418142627,-0.06457669803189674,0.06936778949146384,0.21604583355318102
112,1790651434.251111,1.1842892578125002,-0.24956103515624997,-0.475411376953125,1.300322165378568,0.21441203899598238,-0.06926076650784234,0.06475194948732443,0.2344405920613526
113,1790651434.271111,1.1028585937500002,-0.45074267578125,-0.465831298828125,1.2792438534331783,0.2313820376829054,-0.07344097539660473,0.06025592071820167,0.25012396968522704
114,1790651434.280757,0.9974777343750001,-0.49864306640625,-0.374820556640625,1.1764765989722443,0.23985841473069444,-0.07584149246891891,0.05780459543568055,0.25811889188999243
115,1790651434.300757,1.1076486328125001,-0.40284228515625,-0.48978149414062505,1.2763437281876435,0.2579548515858576,-0.0814243857957063,0.05218748271709578,0.27548896422767466
116,1790651434.3257937,1.3184103515625,-0.51780322265625,-0.604742431640625,1.5401426690819813,0.2817662047036046,-0.0890937021980517,0.04415525254752883,0.2987968678081562
117,1790651434.3457937,1.2657199218750002,-0.68545458984375,-0.552052001953125,1.5416407909203664,0.3018102943001369,-0.09610604952714753,0.036966181938267006,0.3188923409370988
118,1790651434.369894,1.1028585937500002,-0.78604541015625,-0.475411376953125,1.435332868003935,0.326621990928524,-0.10594831338548616,0.027745513111959982,0.34449496885323005
119,1790651434.389894,1.1268087890625,-0.67587451171875,-0.513731689453125,1.4108241036528681,0.3474682782740575,-0.11508377283302919,0.01975768185336241,0.36656356224867853
120,1790651434.4154606,1.3423605468750002,-0.66150439453125,-0.5951623535156251,1.6105086553114092,0.37485406539842775,-0.12757460096804768,0.008951962445969104,0.39606942167948206
121,1790651434.4354606,1.2417697265625,-0.76209521484375,-0.5760021972656251,1.5667034504173645,0.3969398876200755,-0.1380155242757877,1.017065438246173e-05,0.42024940146108586
122,1790651434.4455833,1.0597482421875002,-0.7477250976562501,-0.547261962890625,1.4077126178703683,0.40818894585378535,-0.14365366947368452,-0.004689543992265011,0.4327546465300338
123,1790651434.4655833,1.2417697265625,-0.78125537109375,-0.585582275390625,1.5796387593122678,0.43053265868136353,-0.1554157241420221,-0.014281413736944842,0.45794800608820035
124,1790651434.4906235,1.2705099609375001,-0.87705615234375,-0.686173095703125,1.6894545192079724,0.4590290921524642,-0.17104731714326077,-0.026877523139838072,0.49059891295676067
125,1790651434.5106235,1.2369796875,-0.90100634765625,-0.690963134765625,1.6790953634054238,0.4821368091028473,-0.18432683802358005,-0.037494837957836175,0.5175308191606862
126,1790651434.5206203,1.1555490234375,-1.02554736328125,-0.5951623535156251,1.6556748373224563,0.49374838356983164,-0.19141335119654274,-0.042970092400922894,0.5312936722143945
127,1790651434.5406203,1.198659375,-0.97764697265625,-0.6574328613281251,1.6807129045656213,0.5170254894937041,-0.2064689473097689,-0.05415980182105423,0.5593550456755569
128,1790651434.565653,1.2896701171875,-0.98243701171875,-0.7580236816406251,1.789701482116304,0.5464615769792829,-0.22616646774623356,-0.06872191691151629,0.5953941787685585
129,1790651434.585653,1.2034494140625,-1.09739794921875,-0.705333251953125,1.774843020514114,0.5701915788166123,-0.24266299010096182,-0.08080622064578527,0.6249267225948782
130,1790651434.6106634,1.208239453125,-1.3129497070312501,-0.552052001953125,1.8677368449922749,0.5999389536253914,-0.26471908879840805,-0.0960096929918078,0.6627373576310379
131,1790651434.6306634,1.2753,-1.3704301757812503,-0.523311767578125,1.943791182914865,0.6238840859530255,-0.2837360825162055,-0.10795681122562584,0.6938243223735318
132,1790651434.6554172,1.4908517578125,-1.3416899414062502,-0.681383056640625,2.1182666811618054,0.6542107317327108,-0.30877782810875304,-0.12276219113758122,0.7337615308931831
133,1790651434.6754172,1.4237912109375002,-1.44228076171875,-0.6765930175781251,2.136617260859409,0.6794098902508722,-0.33015150799370013,-0.13496693066629112,0.7673420942283147
134,1790651434.6858182,1.2417697265625,-1.3321098632812503,-0.552052001953125,1.902963518966864,0.692628350712714,-0.3417638363991353,-0.14132039107016842,0.7851802372789923
135,1790651434.7058182,1.2178195312500002,-1.18361865234375,-0.427510986328125,1.7512290450712755,0.7179227100644979,-0.3645172539640656,-0.15317417936675726,0.8196024495379061
136,1790651434.730507,1.3471505859375001,-1.10697802734375,-0.528101806640625,1.8218415332818334,0.7492128010577991,-0.3926331621380422,-0.1673814874418141,0.862262827459021
137,1790651434.7505069,1.4908517578125,-1.1548784179687501,-0.825084228515625,2.0584331682636305,0.7750153089258709,-0.41538579574244694,-0.17919403175215812,0.8973876472236746
138,1790651434.775378,1.361520703125,-1.44228076171875,-0.858614501953125,2.1612800104628334,0.8076097843168061,-0.4442804253756381,-0.1948208247396119,0.9421113595793326
139,1790651434.795378,1.3375705078125002,-1.5045512695312502,-0.825084228515625,2.1756684881118975,0.8339375006262097,-0.468450821782344,-0.20802764752506808,0.978863335463157
140,1790651434.8054771,1.37110078125,-1.44228076171875,-0.743653564453125,2.1244085699065085,0.8472894082323131,-0.4810571667819517,-0.21488443872520385,0.9977427829962929
141,1790651434.8254771,1.3902609375000001,-1.3129497070312501,-0.805924072265625,2.075132771123099,0.8739067744938098,-0.5064103272042212,-0.22875087120463783,1.0356116217396083
142,1790651434.8510797,1.2561398437500002,-1.4518608398437503,-0.729283447265625,2.053689740877066,0.9079510156056269,-0.5393063421328167,-0.24678697946381192,1.0844953622016278
143,1790651434.8710797,1.2609298828125002,-1.5332915039062502,-0.6143225097656251,2.07805658039558,0.9343318214969479,-0.565626854868673,-0.26077827166439627,1.1229047148278883
144,1790651434.895922,1.3471505859375001,-1.4853911132812503,-0.652642822265625,2.108825292446366,0.9670438976847906,-0.5990402951840625,-0.2779108095201893,1.1710070850988765
145,1790651434.915922,1.4046310546875,-1.5955620117187501,-0.844244384765625,2.2872593019246406,0.9935569978921529,-0.6265271075822729,-0.2918802260621367,1.2103246634527285
146,1790651434.9258862,1.2609298828125002,-1.7009428710937502,-0.9160949707031251,2.3070285684060687,1.0067767868968882,-0.6406307594877514,-0.2991115273578129,1.230233707242083
147,1790651434.9458861,1.093278515625,-1.56203173828125,-0.781973876953125,2.060748458294279,1.0328623979808058,-0.6695874784090494,-0.31399596218951215,1.2703328653058485
148,1790651434.9702668,1.1938693359375,-1.6578325195312502,-0.690963134765625,2.156655444829405,1.0640739550392304,-0.7054795399312229,-0.3321122575518658,1.3191866110109658
149,1790651434.9902668,1.2753,-1.6674125976562502,-0.820294189453125,2.2537829128097773,1.0895406702488117,-0.7354939552844068,-0.3470111384411718,1.3595833775787232
150,1790651435.0148766,1.198659375,-1.6961528320312502,-0.7340734863281251,2.2028578279618842,1.1207430319625584,-0.7730948142628046,-0.3654630925921674,1.4097176339890551
151,1790651435.0348766,1.1938693359375,-1.7057329101562502,-0.667012939453125,2.1862650830765826,1.1458858185402991,-0.8041715949353,-0.38031097856570406,1.4506490628853552
152,1790651435.0448723,1.2753,-1.7248930664062503,-0.820294189453125,2.2966342194147757,1.1584179975297413,-0.8199454214449948,-0.387733622563433,1.47125120669979
153,1790651435.0648723,1.2273996093750001,-1.8542241210937502,-0.882564697265625,2.3923999116367143,1.1834858945670526,-0.8521411100908544,-0.40291182085431926,1.5129842264644378
154,1790651435.0902214,1.2034494140625,-1.8638041992187502,-0.762813720703125,2.3460480297141757,1.2151140247862326,-0.8938954582787497,-0.42239206278813907,1.5665140402403013
155,1790651435.1102214,1.2417697265625,-1.8398540039062503,-0.7723937988281251,2.350244027747993,1.2399927351578426,-0.9274528069194639,-0.43775897561870664,1.6091561804379833
156,1790651435.134823,1.2705099609375001,-1.7680034179687503,-0.7580236816406251,2.3053484657896295,1.2706407228957373,-0.9691964263218787,-0.45665002234928254,1.6620465704629648
157,1790651435.154823,1.2896701171875,-1.8206938476562502,-0.6334826660156251,2.319369609657332,1.2956590111408401,-1.003424665305531,-0.471791154826996,1.7053387422641189
158,1790651435.1651402,1.4142111328125002,-1.8063237304687503,-0.5376818847656251,2.356247091590878,1.3087211590769152,-1.0212394671875424,-0.4793364129721308,1.7278438929365434
159,1790651435.1851401,1.5483322265625001,-1.9356547851562502,-0.499361572265625,2.5285280522402505,1.3346881284411192,-1.0562067752756181,-0.49332467826750953,1.7720988659009744
160,1790651435.209525,1.6585031250000002,-1.8590141601562502,-0.484991455078125,2.538066779025921,1.367464215376678,-1.09938554833099,-0.509621847909334,1.8271073838396334
161,1790651435.229525,1.6585031250000002,-1.7153129882812501,-0.5760021972656251,2.4545284261250564,1.3952895665462395,-1.1348491123253686,-0.5225749074589513,1.8729121752405267
162,1790651435.255143,1.5339621093750002,-1.7153129882812501,-0.552052001953125,2.3664530026233366,1.431718476482268,-1.1800517836055506,-0.5388450427771538,1.9320181127558977
163,1790651435.275143,1.5052218750000002,-1.7009428710937502,-0.585582275390625,2.3455929197017173,1.4604514536232498,-1.2151726314422582,-0.5513483458227327,1.9782689329406224
164,1790651435.2846293,1.5435421875000002,-1.6961528320312502,-0.643062744140625,2.381803225940713,1.4742049846026255,-1.2317494174426398,-0.5572635116577811,2.000257379794578
165,1790651435.3046293,1.399841015625,-1.63867236328125,-0.5185217285156251,2.216679220399429,1.5032668016537183,-1.2664577559179617,-0.5696060440614865,2.0465036940866574
166,1790651435.3295455,1.399841015625,-1.5285014648437503,-0.46104125976562504,2.123306534691069,1.539273275342091,-1.3091302841853323,-0.5845065465972208,2.103528516604552
167,1790651435.3495455,1.4812716796875,-1.3464799804687502,-0.552052001953125,2.0765200552144463,1.5681616942686225,-1.3425576695688097,-0.5961926063212084,2.1487293499465085
168,1790651435.4055607,1.48606171875,-1.31773974609375,-0.5760021972656251,2.0679932305557127,1.6494011188166773,-1.4333293628209274,-0.6287521486548298,2.2738263736522226
169,1790651435.4255607,1.33278046875,-1.3656401367187503,-0.508941650390625,1.974917305712067,1.6782846072148843,-1.4649025916579528,-0.6402610087572341,2.317868198408925
170,1790651435.435511,1.2178195312500002,-1.3656401367187503,-0.5376818847656251,1.9071337663929848,1.6924026759543325,-1.4802929691934195,-0.6459090921357652,2.339378688353919
171,1790651435.455511,1.1842892578125002,-1.2985795898437502,-0.499361572265625,1.8270774414852924,1.7201261679680233,-1.5105833318343913,-0.657114250996495,2.3817000598326676
172,1790651435.4498215,1.2944601562500002,-1.21714892578125,-0.484991455078125,1.8418184805099613,1.7201261679680233,-1.5105833318343913,-0.657114250996495,2.3817000598326676
173,1790651435.4698215,1.2753,-1.2363090820312501,-0.44188110351562504,1.830330337932784,1.7471714299951506,-1.5393558531429725,-0.6678553346983153,2.4224481824141932
174,1790651435.495229,1.2369796875,-1.2602592773437502,-0.408350830078125,1.8124907155194157,1.781162815373874,-1.575182432148861,-0.6810739668528005,2.473378745308853
175,1790651435.515229,1.2130294921875,-1.27941943359375,-0.398770751953125,1.8075875493561238,1.807581181000033,-1.6029632148502166,-0.6911291257273213,2.512866940865956
176,1790651435.5404787,1.2705099609375001,-1.3081596679687502,-0.494571533203125,1.8894650775276078,1.8406342524579087,-1.6376753381878604,-0.7036112067329666,2.5622224132323543
177,1790651435.5604787,1.3040402343750002,-1.43749072265625,-0.508941650390625,2.0064700630943704,1.866749853015766,-1.6651645855560078,-0.7135203376869897,2.6012764910745747
178,1790651435.5853882,1.2130294921875,-1.55724169921875,-0.532891845703125,2.044606558220737,1.8990996741774058,-1.6998609995216902,-0.7259570508517645,2.6501170973821138
179,1790651435.6053882,1.2130294921875,-1.5907719726562501,-0.6382727050781251,2.0998542958865194,1.9248165414272898,-1.7282622769462108,-0.7362014795575718,2.6895727977822377
180,1790651435.6301322,1.3423605468750002,-1.6913627929687503,-0.700543212890625,2.270110289913845,1.9566032754281935,-1.7642206916314551,-0.7494593286451721,2.7390619400608993
181,1790651435.6501322,1.4285812500000001,-1.87817431640625,-0.7723937988281251,2.482936835911818,1.9825982399403002,-1.7942796329637802,-0.76077732046314,2.780093040459993
182,1790651435.6598864,1.3902609375000001,-2.0027153320312503,-0.8346643066406251,2.576889341875451,1.9954366948945348,-1.8095797772719577,-0.7666448940371736,2.800730434582472
183,1790651435.6798863,1.3758908203125002,-2.0889360351562503,-0.7963439941406251,2.6250510595792917,2.0219613007957733,-1.8423829631650388,-0.7793176503740461,2.8442992959709863
184,1790651435.6898391,1.4716916015625001,-1.9308647460937503,-0.652642822265625,2.513972452369381,2.0353066450081405,-1.8592591198683188,-0.785759755454011,2.866484956757833
185,1790651435.709839,1.5674923828125,-1.7296831054687503,-0.5568420410156251,2.3997727130213136,2.062660108526176,-1.8935754793252362,-0.7985775039011858,2.911686942125486
186,1790651435.7351267,1.5674923828125,-1.5380815429687502,-0.46104125976562504,2.243944350068115,2.098003290368251,-1.93665368767617,-0.8142835505333763,2.9690575967897557
187,1790651435.7551267,1.6153927734375002,-1.4135405273437502,-0.456251220703125,2.194483039649757,2.126537592705488,-1.9700410822203016,-0.8262181111657823,3.0142760932011092
188,1790651435.7954705,1.63934296875,-1.27941943359375,-0.475411376953125,2.133160901944315,2.185310956715065,-2.0354358028138737,-0.8495002540514033,3.1048725523842147
189,1790651435.8154705,1.5291720703125,-1.1548784179687501,-0.5568420410156251,1.9955411395298939,2.214829542293458,-2.066643159342793,-0.8608592214377901,3.1492161641603276
190,1790651435.810009,1.323200390625,-1.20277880859375,-0.542471923828125,1.8686390567185898,2.214829542293458,-2.066643159342793,-0.8608592214377901,3.1492161641603276
191,1790651435.830009,1.2321896484375001,-1.13571826171875,-0.623902587890625,1.7881279984650449,2.2436265731963227,-2.0957042267922694,-0.8722172594420023,3.1916452424754502
192,1790651435.8545165,1.3136203125,-1.05428759765625,-0.738863525390625,1.8393042089706226,2.2783000790541563,-2.129998754602538,-0.8865523106690977,3.242456005002883
193,1790651435.8745165,1.2944601562500002,-1.06865771484375,-0.590372314453125,1.7793807566922206,2.3062639554583684,-2.1569720455744354,-0.8984898701228184,3.2830878581526513
194,1790651435.8998795,1.33278046875,-0.98243701171875,-0.547261962890625,1.7438411383790775,2.3414045746656447,-2.1899489280451503,-0.9135217236740288,3.3335527038485053
195,1790651435.9198794,1.3902609375000001,-0.9057963867187501,-0.532891845703125,1.742775455343575,2.369042762184043,-2.2148846214512328,-0.9252173218673845,3.3725516435009895
196,1790651435.9299574,1.4190011718750002,-0.81478564453125,-0.5951623535156251,1.7411657587257698,2.383003939884941,-2.226865409614759,-0.9310793394099872,3.391835206244843
197,1790651435.9499574,1.3136203125,-0.72377490234375,-0.5951623535156251,1.613588132615495,2.4106532644580736,-2.249383026717766,-0.942753162194824,3.429250163979975
198,1790651435.9748561,1.3136203125,-0.76209521484375,-0.590372314453125,1.629394645742117,2.444817870756737,-2.275985863303429,-0.9573202618361871,3.4747241839965755
199,1790651435.994856,1.3758908203125002,-0.95369677734375,-0.542471923828125,1.7597979658693341,2.4721784992149893,-2.2967230097868656,-0.9689654187952342,3.5107687332671658
200,1790651436.019606,1.5004318359375002,-0.96327685546875,-0.5951623535156251,1.8797383386042852,2.5062976537637756,-2.3220942929867636,-0.9833264102604844,3.5553594282293424
201,1790651436.039606,1.4573214843750002,-0.96806689453125,-0.5760021972656251,1.8419332106140984,2.5341696414635297,-2.3424180332341584,-0.9949472636345277,3.591498026109692
202,1790651436.0649447,1.361520703125,-1.02075732421875,-0.566422119140625,1.7934654044714589,2.569541731906417,-2.3680840988973975,-1.0096327484617598,3.637268933997839
203,1790651436.0849447,1.3184103515625,-1.15008837890625,-0.599952392578125,1.84955454306235,2.5972931561293824,-2.3885600151360338,-1.0212349647378767,3.673427764089877
204,1790651436.0949957,1.4285812500000001,-1.21235888671875,-0.619112548828125,1.9733116343279253,2.6112184415653643,-2.399087553847343,-1.027110027852159,3.6917526799490155
205,1790651436.1149957,1.5195919921875,-1.22193896484375,-0.599952392578125,2.04015625134057,2.639193512164172,-2.4205449640159005,-1.038875531097866,3.7287588667794096
206,1790651436.1554716,1.5339621093750002,-1.27941943359375,-0.547261962890625,2.071098620559256,2.6965865686349257,-2.465049883543386,-1.0625974300226757,3.804886772137949
207,1790651436.1754715,1.5052218750000002,-1.3033696289062502,-0.571212158203125,2.0714122265287527,2.725250606538109,-2.4876162712057286,-1.0742384126076343,3.843073476831479
208,1790651436.1857822,1.4190011718750002,-1.3321098632812503,-0.590372314453125,2.033868354468045,2.740072573011785,-2.499542943795392,-1.080237778344889,3.86298152869157
209,1790651436.2057822,1.4046310546875,-1.3129497070312501,-0.585582275390625,2.0099084392672286,2.768746165526542,-2.5231749776010832,-1.0918933372552966,3.9018711353211892
210,1790651436.2152977,1.4429513671875,-1.3848002929687502,-0.566422119140625,2.0786087935266626,2.782374275326863,-2.5346572998287265,-1.0974291080065057,3.920515894965316
211,1790651436.2352977,1.438161328125,-1.4087504882812503,-0.552052001953125,2.0874978698928963,2.811043274965695,-2.559361394398719,-1.108996763103191,3.9600718252882445
212,1790651436.2601078,1.3423605468750002,-1.4135405273437502,-0.580792236328125,2.034047266419545,2.8464465779250183,-2.5906617077433616,-1.1233019830594138,4.009438059141706
213,1790651436.2801077,1.2561398437500002,-1.40396044921875,-0.566422119140625,1.9671874000914469,2.874602839042519,-2.6163350811177577,-1.1348248087852126,4.0492441375586585
214,1790651436.3050597,1.3088302734375001,-1.3464799804687502,-0.48978149414062505,1.9406006633185073,2.9092614507161825,-2.6487077822589655,-1.1490208585633248,4.098744202537655
215,1790651436.3250597,1.3519406250000001,-1.2937895507812502,-0.465831298828125,1.9283759110204728,2.9368658356955475,-2.674724003245401,-1.1601261762953115,4.138263183430748
216,1790651436.3346286,1.3758908203125002,-1.2650493164062502,-0.528101806640625,1.9422453090526999,2.9500496662327844,-2.6871406785533996,-1.1653558014868097,4.15711104057079
217,1790651436.3546286,1.37110078125,-1.2602592773437502,-0.5760021972656251,1.9493458722684849,2.9775922996290247,-2.7129878739385243,-1.1763028114755107,4.196432700667643
218,1790651436.3801372,1.2944601562500002,-1.3129497070312501,-0.499361572265625,1.9101900453012044,3.0125513862903226,-2.745932222209617,-1.1902279958550068,4.246439956731499
219,1790651436.4001372,1.2896701171875,-1.3081596679687502,-0.504151611328125,1.9049145847704763,3.0397257175867987,-2.7718193195145666,-1.201013566410277,4.285481112418337
220,1790651436.4256158,1.3471505859375001,-1.2985795898437502,-0.5568420410156251,1.9522286523337782,3.074189901603946,-2.804832150537052,-1.2147200784095542,4.335120737961204
221,1790651436.4456158,1.323200390625,-1.3464799804687502,-0.5376818847656251,1.9628982196635651,3.101190821800808,-2.8308267532956446,-1.225507203075319,4.3741093407898965
222,1790651436.4547114,1.3184103515625,-1.2746293945312501,-0.585582275390625,1.9250435189267587,3.1134305086405925,-2.8426634462109606,-1.2304434047700354,4.391830594740656
223,1790651436.4747114,1.3279904296875,-1.24109912109375,-0.609532470703125,1.9171373040454682,3.1402763213532565,-2.86856004714473,-1.2414619331889492,4.430710986973102
224,1790651436.5003395,1.33278046875,-1.28420947265625,-0.5951623535156251,1.9441491646948728,3.1746309282491945,-2.9016204044410947,-1.255778809748902,4.480475747181276
225,1790651436.5203395,1.2561398437500002,-1.3464799804687502,-0.484991455078125,1.9042353731506507,3.2013028843595484,-2.92749649441862,-1.2668959101353339,4.519247849959074
226,1790651436.5603883,1.3040402343750002,-1.32252978515625,-0.494571533203125,1.922031989054587,3.2543905310955705,-2.9795564032232797,-1.288760350430634,4.5967072268870295
227,1790651436.5803883,1.323200390625,-1.2315190429687501,-0.552052001953125,1.8900422851897445,3.2808661030511006,-3.0054859320264633,-1.2996113308843322,4.635301250741061
228,1790651436.575157,1.323200390625,-1.2602592773437502,-0.5760021972656251,1.9159570065990448,3.2808661030511006,-3.0054859320264633,-1.2996113308843322,4.635301250741061
229,1790651436.595157,1.2800900390625,-1.3368999023437502,-0.494571533203125,1.9158634759420232,3.307273793487709,-3.031292765969587,-1.310495291058728,4.673777239663571
230,1790651436.6200032,1.3088302734375001,-1.3752202148437502,-0.456251220703125,1.9525451340172557,3.3399838915945295,-3.063597957589155,-1.3237602532233175,4.721595710124834
231,1790651436.6400032,1.3806808593750002,-1.3416899414062502,-0.5376818847656251,1.9988780211709545,3.3663985810373003,-3.0897767063125188,-1.3343271105407808,4.760229862013545
232,1790651436.6647012,1.361520703125,-1.3656401367187503,-0.417930908203125,1.9731644260138816,3.399204724812017,-3.1222705967011666,-1.3471889206707373,4.808126914733739
233,1790651436.6847012,1.323200390625,-1.4614409179687502,-0.355660400390625,2.003288084841897,3.4258127193923693,-3.148877202749329,-1.3572022660879364,4.847021602739068
234,1790651436.6952755,1.3279904296875,-1.4279106445312502,-0.475411376953125,2.007113192484098,3.439873210582434,-3.163125949383606,-1.3623614655017477,4.867660859101701
235,1790651436.7152755,1.3471505859375001,-1.5428715820312502,-0.671802978515625,2.1555942711405196,3.466490459435579,-3.1904893110724335,-1.372376542963358,4.907055687996765
236,1790651436.7402225,1.1555490234375,-1.7105229492187501,-0.604742431640625,2.1510220161583624,3.4993938765077837,-3.2255883557992857,-1.3853834247800914,4.9567595238889215
237,1790651436.7602224,0.9831076171875001,-1.7823735351562502,-0.164058837890625,2.0421242146567615,3.5250237596645793,-3.2547457984208257,-1.395400112896376,4.996629283187721
238,1790651436.7853258,1.169919140625,-1.5285014648437503,-0.06825805664062501,1.926054694427597,3.556421702224592,-3.292087206500344,-1.4065242375942462,5.046214812133683
239,1790651436.8053257,1.4716916015625001,-1.22193896484375,-0.456251220703125,1.9665137122090208,3.5816468116380746,-3.3215004771035934,-1.414844261682006,5.085503277703308
240,1790651436.8454719,1.361520703125,-1.4231206054687502,-0.590372314453125,2.0561007641700044,3.6332168655175456,-3.379649899312739,-1.4321913216378814,5.164636503722272
241,1790651436.8654718,1.1459689453125002,-1.5237114257812503,-0.475411376953125,1.9649318843190062,3.6588155801979254,-3.4086936788909132,-1.4411356567884799,5.204132591285229
242,1790651436.8605099,1.131598828125,-1.39917041015625,-0.504151611328125,1.8687863954115855,3.6588155801979254,-3.4086936788909132,-1.4411356567884799,5.204132591285229
243,1790651436.8805099,1.2800900390625,-1.4135405273437502,-0.561632080078125,1.9880035019896625,3.6838320775470916,-3.4376235428055657,-1.4504455545662547,5.243249632086672
244,1790651436.905058,1.3663107421875,-1.3895903320312502,-0.484991455078125,2.0082288332235634,3.7148039202399104,-3.4729667309128707,-1.4620854511548473,5.291404345382812
245,1790651436.925058,1.3663107421875,-1.2650493164062502,-0.513731689453125,1.9315990955437001,3.740351425670442,-3.50142450170365,-1.4716443793221,5.330660325685354
246,1790651436.950363,1.3902609375000001,-1.18361865234375,-0.571212158203125,1.9131288294815605,3.773058506712785,-3.5366771075279217,-1.4839837616751186,5.380173162910764
247,1790651436.970363,1.40942109375,-1.2506791992187503,-0.508941650390625,1.951842176603486,3.799230723968032,-3.564011338902048,-1.4938936185302176,5.419229563438915
248,1790651436.9801369,1.4669015625000001,-1.2889995117187503,-0.609532470703125,2.0456905357647757,3.81221099054032,-3.5772275232129083,-1.4988300095705382,5.438382184695885
249,1790651437.0001369,1.52438203125,-1.21714892578125,-0.667012939453125,2.061576665110038,3.8392746465080934,-3.603973811720252,-1.5093307505818718,5.477840483396471
250,1790651437.025044,1.6297628906250001,-1.2746293945312501,-0.7149133300781251,2.189042768560005,3.87381501624892,-3.63694090815576,-1.5230278288064327,5.527512615711637
251,1790651437.045044,1.6920333984375002,-1.21235888671875,-0.7532336425781251,2.213628697850069,3.902372728307519,-3.663172594795084,-1.5345787868592247,5.567968967493834
252,1790651437.07015,1.7064035156250001,-1.14529833984375,-0.7723937988281251,2.195475671888521,3.939242997004039,-3.6956012525363025,-1.5497763804813103,5.619333664829933
253,1790651437.0901499,1.6345529296875,-1.15966845703125,-0.767603759765625,2.1461150347056317,3.969220376788221,-3.721017103128355,-1.5623771149420884,5.66053892580727
254,1790651437.1000352,1.52438203125,-1.24588916015625,-0.7340734863281251,2.1011530786505417,3.9841566862699374,-3.7334784423252194,-1.568784353674176,5.680972639292457
255,1790651437.1200352,1.5770724609375002,-1.4327006835937501,-0.671802978515625,2.234078789514803,4.01449515869976,-3.758926358348762,-1.5819118336710594,5.72259939155463
256,1790651437.145151,1.6106027343750002,-1.4566508789062502,-0.571212158203125,2.2454746225850895,4.052883593811503,-3.7915325721637188,-1.5982658037557052,5.775468660656011
257,1790651437.165151,1.5483322265625001,-1.3752202148437502,-0.552052001953125,2.1432043150356277,4.083605820062582,-3.8178504138092535,-1.6110201454747366,5.817835008402861
258,1790651437.1907315,1.4573214843750002,-1.3560600585937501,-0.652642822265625,2.094905115939402,4.122772853799743,-3.851702696889656,-1.627197655976038,5.872021958479809
259,1790651437.2107315,1.476481640625,-1.3943803710937501,-0.762813720703125,2.169373049267272,4.153202567583575,-3.878325373216124,-1.6400718350937131,5.91441754462622
260,1790651437.235425,1.553122265625,-1.6290922851562502,-0.7963439941406251,2.3875288904094103,4.190748631568202,-3.9118646941347675,-1.6564705333377097,5.967323864683815
261,1790651437.255425,1.56270234375,-1.8159038085937502,-0.781973876953125,2.5201246797458516,4.2212705735305285,-3.940121990953532,-1.6701275264896605,6.0110741563624766
262,1790651437.2655938,1.5004318359375002,-1.8254838867187502,-0.849034423828125,2.5108856142424587,4.236797491748067,-3.955111198799212,-1.6772736278144096,6.033788561385903
263,1790651437.2855937,1.4908517578125,-1.8446440429687503,-1.0071057128906251,2.5767445597050656,4.267242008281938,-3.985675047278974,-1.6920045465168387,6.079295956373729
264,1790651437.3101976,1.4956417968750002,-2.01708544921875,-1.0023156738281251,2.7037408906940423,4.304587695541122,-4.024760578315062,-1.7111161048335102,6.13645592060952
265,1790651437.3301976,1.5818625000000002,-2.0601958007812504,-0.940045166015625,2.7623143594841433,4.3350078864305965,-4.05788257529102,-1.7272347419019525,6.184015218601831
266,1790651437.340796,1.6249728515625002,-2.0027153320312503,-1.064586181640625,2.790116343023776,4.351259208554294,-4.076031359788483,-1.7360885577476648,6.209789998570809
267,1790651437.360796,1.4621115234375002,-1.9308647460937503,-1.308878173828125,2.753029394794044,4.381957129792268,-4.11104257384787,-1.7538503686983105,6.259249990782459
268,1790651437.3856196,1.3806808593750002,-2.0458256835937503,-1.3663586425781251,2.8211023205910597,4.4196362848538575,-4.155383345091714,-1.7775698887552471,6.321404143421915
269,1790651437.4056196,1.4525314453125002,-2.16078662109375,-1.088536376953125,2.8220130874022544,4.449689904183819,-4.192059135151501,-1.7974960598726344,6.372134031959796
270,1790651437.4305563,1.5770724609375002,-1.9931352539062501,-1.093326416015625,2.766786645075649,4.487207141557989,-4.238697370047172,-1.822694640559473,6.436132307435736
271,1790651437.4505563,1.37110078125,-1.7440532226562502,-1.213077392578125,2.528476963744411,4.51720587846644,-4.276097651073847,-1.8433327740133714,6.487529251242176
272,1790651437.4751375,1.1411789062500002,-1.51892138671875,-1.294508056640625,2.2989481472641016,4.553177223618919,-4.321185375539986,-1.8695164262188526,6.549744845974143
273,1790651437.4951375,1.3663107421875,-1.4901811523437503,-1.150806884765625,2.3263278782324446,4.581815695467732,-4.356881016745186,-1.891292614952046,6.59942687031845
274,1790651437.505343,1.63934296875,-1.6338823242187501,-1.1651770019531251,2.5912649930998954,4.596537754523652,-4.374754645811964,-1.9025103829765964,6.624664768661766
275,1790651437.525343,1.323200390625,-1.43749072265625,-1.217867431640625,2.302268431900128,4.6255050660622965,-4.409134978893359,-1.9247711192172279,6.673867862015373
276,1790651437.5501513,1.0118478515625,-1.2363090820312501,-0.983155517578125,1.87587072922654,4.660391653296539,-4.450359121789705,-1.9523372016002125,6.7332434401085655
277,1790651437.5701513,1.1651291015625,-1.10697802734375,-0.532891845703125,1.6931922204955294,4.68756318186823,-4.482122931252787,-1.9735009539942212,6.7791873089836345
278,1790651437.5956542,1.476481640625,-0.74293505859375,-0.5376818847656251,1.7381174717479555,4.722066385291869,-4.520089298612513,-1.9984875258119794,6.835427609547253
279,1790651437.6156542,1.4908517578125,-0.56091357421875,-0.719703369140625,1.7479233224223085,4.74951686102203,-4.5473530589688345,-2.017029393203406,6.877843981153707
280,1790651437.6257648,1.361520703125,-0.55133349609375,-0.6334826660156251,1.5996898252771428,4.763475318226291,-4.559911753714192,-2.026022979536024,6.8984245609138855
281,1790651437.6457648,1.553122265625,-0.61360400390625,-0.408350830078125,1.7191419505135137,4.791317018644424,-4.582775338817407,-2.042707538029554,6.937665505423813
282,1790651437.6849122,1.7064035156250001,-0.46511279296875,-0.513731689453125,1.8417554444249413,4.847209209745838,-4.6239821439823,-2.073174007725639,7.012467358727683
283,1790651437.7049122,1.63934296875,-0.46032275390625,-0.571212158203125,1.7960027106418768,4.876499344646096,-4.643264598820205,-2.088031669547884,7.049824696120159
284,1790651437.7155032,1.6249728515625002,-0.61360400390625,-0.049097900390625004,1.7376585526931672,4.892276332048981,-4.652797051445165,-2.095212117729506,7.069144356238881
285,1790651437.7355032,1.7351437500000002,-0.38368212890625,0.219144287109375,1.790519485450737,4.9226406233117785,-4.6695938081485275,-2.106482603629704,7.104559521798168
286,1790651437.7456474,1.993805859375,-0.005269042968749973,-0.135318603515625,1.9983995326634032,4.938568640858898,-4.677131320505777,-2.111277876038606,7.121973875238599
287,1790651437.7656474,1.7686740234375002,0.05221142578125003,-0.28380981445312503,1.7920607815988339,4.970904961956011,-4.68969247598809,-2.1199426164842285,7.1552266461185
288,1790651437.7910542,1.4190011718750002,-0.014849121093749973,-0.21195922851562501,1.4348210817843523,5.011895606479785,-4.703184712089884,-2.130243424885953,7.1956223535950805
289,1790651437.8110542,1.3806808593750002,-0.25435107421875,-0.144898681640625,1.4113715784094252,5.043522399512365,-4.7126163099406835,-2.137671091139623,7.226029917803826
290,1790651437.8351762,1.5387521484375002,-0.34536181640624997,-0.408350830078125,1.6290436946190057,5.081227436069399,-4.723370422264996,-2.146286741691349,7.261931367105605
291,1790651437.8551762,1.4908517578125,-0.48427294921874997,-0.566422119140625,1.666731313130405,5.112344469096051,-4.73219383588017,-2.153820781043756,7.291684882651964
292,1790651437.8649378,1.1890792968750001,-0.6279741210937501,-0.31255004882812504,1.3805609744023173,5.127215930955297,-4.736668676767269,-2.1575899181101743,7.306132192264293
293,1790651437.8849378,0.9352072265625001,-0.50343310546875,-0.101788330078125,1.0669668750419228,5.156301322899499,-4.746158815987813,-2.164775456963319,7.334829215338603
294,1790651437.9100251,0.9352072265625001,-0.14418017578124998,-0.178428955078125,0.9629316547467462,5.190831846988466,-4.757495850061664,-2.1729640200427514,7.368872007265698
295,1790651437.930025,0.8106662109375001,-0.06753955078124997,-0.154478759765625,0.8280126712159798,5.216849626480342,-4.765495761081622,-2.179012209658034,7.394157428945761
296,1790651437.9557736,0.7148654296875001,-0.20645068359375,-0.07304809570312501,0.7476566669297303,5.248267203158507,-4.774779271733491,-2.1860702011627393,7.424400895286887
297,1790651437.9757736,0.56637421875,-0.39326220703125,-0.135318603515625,0.7026706508750608,5.270931957468066,-4.781808113139126,-2.1910426643746033,7.446413934791099
298,1790651437.9850311,0.43225312500000007,-0.56570361328125,-0.259859619140625,0.7578854556010679,5.280542688454757,-4.7852394118419825,-2.1932734412480555,7.456077769264675
299,1790651438.005031,0.27897187500000004,-0.87226611328125,-0.24069946289062502,0.9468947728526278,5.299258058575013,-4.793697382545224,-2.198120735578994,7.476189225466106
300,1790651438.0298853,0.22149140625000005,-1.12134814453125,-0.173638916015625,1.1561274053673156,5.319960070480658,-4.8063477931312875,-2.204013304115848,7.50070856018058
301,1790651438.0498853,0.4514132812500001,-1.02554736328125,-0.379610595703125,1.183057711691233,5.335129371536258,-4.818220872909546,-2.2088736286753963,7.5205040056254004
302,1790651438.0751371,0.5520041015625001,-0.94890673828125,-0.484991455078125,1.200145506843308,5.353309507914179,-4.834702523772702,-2.2157272158592267,7.5459736466540726
303,1790651438.0951371,0.3508224609375001,-0.98243701171875,-0.21195922851562501,1.0645119048869534,5.366902922422092,-4.848695263353369,-2.2213865919453415,7.566244188925093
304,1790651438.1064517,0.26460175781250006,-1.00159716796875,0.07544311523437501,1.0387023831477198,5.37396186563551,-4.857107629616443,-2.224223876090433,7.577475338788883
305,1790651438.1264517,0.710075390625,-0.81478564453125,-0.044307861328125,1.0816865967002287,5.3860297870764375,-4.872471596750513,-2.22844013035477,7.597120621853436
306,1790651438.1508021,0.8633566406250001,-1.02554736328125,0.06586303710937501,1.3421885198814958,5.401392324782807,-4.891732625703636,-2.2327641373793004,7.621635180245978
307,1790651438.170802,0.6717550781250001,-1.24588916015625,0.18082397460937502,1.4269519943484794,5.41442018733266,-4.908586665841078,-2.235412868097683,7.642462934939559
308,1790651438.1949503,0.43704316406250004,-1.20277880859375,0.219144287109375,1.2983481074922236,5.429798853425864,-4.930318800941799,-2.2374068726641005,7.6679037931777385
309,1790651438.2149503,0.8873068359375,-1.2698393554687502,-0.096998291015625,1.5521643206370452,5.442611723634198,-4.949326817332822,-2.2386274027413666,7.6895585677797405
310,1790651438.241241,1.1747091796875,-1.5332915039062502,-0.22632934570312502,1.944774913844678,5.4609941156418,-4.976092709751708,-2.2406287039485715,7.720386802231913
311,1790651438.261241,0.9735275390625001,-1.7440532226562502,-0.30296997070312504,2.0202149182496876,5.4761028342850135,-4.998316002433065,-2.242716727490508,7.746008225635223
312,1790651438.270336,0.786716015625,-1.7344731445312502,-0.34129028320312504,1.9348897218575192,5.483143596353002,-5.009278880412702,-2.243963287317507,7.758421864967414
313,1790651438.290336,0.8777267578125001,-1.4949711914062502,-0.47062133789062505,1.7963372646005615,5.498800615743761,-5.034614488147635,-2.2475111816371,7.786877279600201
314,1790651438.3152578,1.2609298828125002,-1.4662309570312502,-0.628692626953125,2.033477761843375,5.519381694225858,-5.066984402830947,-2.2533238196574934,7.82402540009447
315,1790651438.3352578,1.2800900390625,-1.6961528320312502,-0.719703369140625,2.2435547413127743,5.537232201599866,-5.093808479717833,-2.2593113893371255,7.855718505424456
316,1790651438.3608375,0.9687375000000001,-1.99792529296875,-0.729283447265625,2.3370948133625538,5.5609524882318935,-5.1300569536266964,-2.268600550893102,7.8986217394769955
317,1790651438.3808374,0.8154562500000001,-2.08414599609375,-0.7340734863281251,2.3553125720438044,5.579393020260182,-5.160270395389232,-2.2769690597227226,7.933637572198087
318,1790651438.390773,1.1555490234375,-2.0697758789062504,-0.6957531738281251,2.470493516154497,5.5886485323143225,-5.176123831917369,-2.281568246745158,7.951779926886669
319,1790651438.410773,1.4812716796875,-2.1559965820312503,-0.379610595703125,2.643216081811085,5.608440073314465,-5.209587941576919,-2.291050565743659,7.9902014537668276
320,1790651438.435291,1.3375705078125002,-1.9069145507812502,-0.101788330078125,2.3314756767959515,5.6342466172176575,-5.251929185646261,-2.3018165199211156,8.039020736759756
321,1790651438.455291,1.1842892578125002,-1.4901811523437503,-0.149688720703125,1.9093421972177664,5.655922811992683,-5.28638285032449,-2.309658493658985,8.078974492641699
322,1790651438.480412,1.3902609375000001,-1.2937895507812502,-0.40356079101562503,1.941540158764244,5.683915877069602,-5.328412247507383,-2.3190732797647877,8.128774671124154
323,1790651438.500412,1.48606171875,-1.43749072265625,-0.571212158203125,2.1450040417994707,5.707173956032858,-5.360951496001789,-2.3269066562745286,8.168606374034574
324,1790651438.510087,1.284880078125,-1.67699267578125,-0.643062744140625,2.208336691423691,5.718748092170018,-5.376591229950055,-2.331008765074177,8.188126455943797
325,1790651438.530087,1.1747091796875,-1.8063237304687503,-0.738863525390625,2.2778644352220097,5.74277438201095,-5.409296769159714,-2.3402894660539095,8.229028127576541
326,1790651438.5696929,1.4429513671875,-1.9500249023437501,-0.829874267578125,2.563863699149656,5.790992247474845,-5.475506389035912,-2.360571050686654,8.311982742524599
327,1790651438.5896928,1.5962326171875,-1.9739750976562502,-0.8346643066406251,2.672302520135049,5.816247527528255,-5.509811475440925,-2.37177330140325,8.35536153554281
328,1790651438.5999014,1.60102265625,-1.8206938476562502,-0.690963134765625,2.5210374226346315,5.829652904024187,-5.527600664115522,-2.3778016691372907,8.378136001586515
329,1790651438.6199014,1.4956417968750002,-1.7153129882812501,-0.499361572265625,2.3299366970330824,5.856621332698628,-5.562528292529955,-2.389625953770534,8.423303784071344
330,1790651438.629806,1.4046310546875,-1.5764018554687502,-0.48020141601562505,2.1653232113615855,5.870128066811722,-5.579676208346055,-2.395331014658657,8.445637973565963
331,1790651438.649806,1.48606171875,-1.56203173828125,-0.619112548828125,2.2431279347038156,5.897646635913192,-5.613815998199813,-2.406771971299834,8.490566366596333
332,1790651438.6745534,1.5674923828125,-1.6530424804687502,-0.671802978515625,2.3750581159946282,5.932257242329062,-5.655690358097809,-2.42120116851993,8.54638663496383
333,1790651438.6945534,1.4142111328125002,-1.7057329101562502,-0.571212158203125,2.2881873215801187,5.96050523727952,-5.689493730267906,-2.4329776963478054,8.591701930428004
334,1790651438.7201536,1.2417697265625,-1.6147221679687502,-0.513731689453125,2.1007712827162237,5.996338841198361,-5.732647436604414,-2.4478737764565826,8.64935906043535
335,1790651438.7401536,1.198659375,-1.5237114257812503,-0.532891845703125,2.010585617562357,6.023795030077553,-5.766011595085521,-2.4593355537042907,8.693752218965162
336,1790651438.7502532,1.1651291015625,-1.5524516601562501,-0.5568420410156251,2.019332820283022,6.03737070893681,-5.782662789326771,-2.4650808002748628,8.71582797926143
337,1790651438.7702532,1.093278515625,-1.6913627929687503,-0.5376818847656251,2.0844826263059546,6.063609241030534,-5.815556215062902,-2.476393128039796,8.759028144895435
338,1790651438.7953856,1.0118478515625,-1.7153129882812501,-0.508941650390625,2.055518505385036,6.095603390676856,-5.85711197933274,-2.490448964269014,8.812745172674793
339,1790651438.8153856,0.9160470703125001,-1.60035205078125,-0.475411376953125,1.9042806775274315,6.120136603297976,-5.890194479721389,-2.501433092946764,8.854808330531904
340,1790651438.839704,0.8394064453125001,-1.4327006835937501,-0.365240478515625,1.7001867651374332,6.1486942908690985,-5.929918351878792,-2.5143188303773285,8.9046152260109
341,1790651438.859704,0.9112570312500001,-1.24109912109375,-0.255069580078125,1.560697567135758,6.1712837307962625,-5.961698292840055,-2.5242571576410775,8.944186023263653
342,1790651438.8849757,0.8585666015625001,-0.97285693359375,-0.192799072265625,1.3117769264728285,6.198900313532574,-6.000027696506357,-2.535780260138904,8.992045317038151
343,1790651438.9049757,0.8298263671875001,-0.77167529296875,-0.178428955078125,1.1471405534930241,6.220010293897655,-6.02842829097284,-2.544088575084092,9.027893574553696
344,1790651438.9155903,0.8106662109375001,-0.77646533203125,-0.044307861328125,1.1234061171177745,6.230839470054408,-6.042472904983006,-2.548013961927459,9.045839621572943
345,1790651438.9355903,0.9208371093750001,-0.94411669921875,0.07544311523437501,1.3209803130183586,6.250780309414091,-6.0675470824850395,-2.5542540058091214,9.07808325589293
346,1790651438.9751067,1.035798046875,-0.91537646484375,0.118553466796875,1.387388406607704,6.2900689111962365,-6.115168969523469,-2.564158897565934,9.139757616336809
347,1790651438.9951067,1.045378125,-0.88184619140625,0.061072998046875,1.369013528281097,6.310092636359351,-6.138351745705274,-2.5681505444239243,9.170170579234847
348,1790651439.0051713,0.825036328125,-0.98243701171875,-0.111368408203125,1.2877384622144932,6.3200695777389235,-6.149675330341606,-2.5698959206013914,9.185104853990339
349,1790651439.0251713,0.52805390625,-0.59923388671875,-0.408350830078125,0.89703543927954,6.338951128738658,-6.171174349035155,-2.5736235901570406,9.213535295560515
350,1790651439.0351841,0.8106662109375001,-0.34057177734375,-0.437091064453125,0.9819457417309828,6.347991451145868,-6.181028956670656,-2.5758447865623344,9.226976253978467
351,1790651439.0551841,0.8441964843750001,-0.77646533203125,-0.389190673828125,1.2112124077437032,6.365822529940462,-6.19943580282181,-2.5808553866292323,9.25297332119247
352,1790651439.0798738,0.9064669921875,-0.69503466796875,-0.532891845703125,1.2604480619290772,6.387774646115194,-6.2214751445360355,-2.587820514003787,9.284785022623335
353,1790651439.0998738,0.8202462890625001,-0.78604541015625,-0.5568420410156251,1.2652052877659645,6.405479761800004,-6.238871869589482,-2.594250925914532,9.310415192170154
354,1790651439.1252472,0.7340255859375001,-0.51780322265625,-0.437091064453125,0.9989806488760702,6.427530275059764,-6.2601132649221185,-2.603076772748548,9.342278748318673
355,1790651439.1452472,1.0693283203125001,0.13364208984375003,-0.259859619140625,1.1085351985661387,6.445008944172429,-6.274921045344347,-2.610035433883371,9.366165671281646
356,1790651439.1548212,0.6573849609375001,-0.55612353515625,0.16166381835937502,0.8761070501873709,6.453360745068276,-6.281249583707695,-2.612937371242096,9.376961285237869
357,1790651439.1748211,0.4514132812500001,0.32045361328125005,-0.049097900390625004,0.5557653035019984,6.469853836613332,-6.292840372937503,-2.6179213547226756,9.397465660800549
358,1790651439.200061,0.5759542968750001,0.37314404296875003,-0.159268798828125,0.7045043500021798,6.489490756399454,-6.3039608195672985,-2.623662104429707,9.420032650169217
359,1790651439.220061,0.50889375,0.5216352539062501,-0.259859619140625,0.7736945188941248,6.504344177972079,-6.310108660952165,-2.6281573918099546,9.435633300137734
360,1790651439.2449033,0.6861251953125,0.43062451171875005,-0.264649658203125,0.852199915115379,6.522252901239024,-6.314825312871746,-2.6338807532064283,9.45273132284621
361,1790651439.2649033,0.52805390625,0.10969189453125003,-0.12094848632812501,0.5527221507926052,6.536329412942901,-6.317242524392579,-2.6383757436946955,9.46531467366051
362,1790651439.2747128,0.5903244140625,0.02347119140625003,-0.154478759765625,0.6106533369130054,6.543020769885712,-6.318152299599611,-2.640452357874189,9.4711223162989
363,1790651439.2947128,0.7388156250000001,-0.03400927734374998,-0.197589111328125,0.7655368153165614,6.55661068874753,-6.319744759264593,-2.6445792592088337,9.482727297791929
364,1790651439.3198078,0.7436056640625001,0.03305126953125003,-0.159268798828125,0.761188754727507,6.573894953158229,-6.321444980973625,-2.649652406794873,9.49723219572259
365,1790651439.3398077,0.6909152343750001,-0.06753955078124997,-0.159268798828125,0.7122443417053927,6.587755534172477,-6.322648486912908,-2.6535668923515,9.508723579916822
366,1790651439.3649268,0.7579757812500001,-0.21603076171875,-0.111368408203125,0.7959896339249836,6.60528216372403,-6.3244675299277295,-2.6582557073160227,9.523390436446423
367,1790651439.3849268,0.5807443359375001,-0.63755419921875,-0.183218994140625,0.8816510310087841,6.619151846050716,-6.32697899099284,-2.661870865922678,9.535690369364419
368,1790651439.3948004,0.21191132812500005,-0.35015185546875,-0.494571533203125,0.6419608510889115,6.625558954598402,-6.328764292643613,-2.663889812437956,9.541886494059264
369,1790651439.4148004,0.39393281250000006,-0.048379394531249974,-0.484991455078125,0.6266899856214135,6.637499200431566,-6.332435943586792,-2.668835289710625,9.553995102519385
370,1790651439.440469,0.6190646484375001,-0.16813037109374998,-0.22153930664062502,0.6786667260268301,6.652475191393135,-6.336858224652797,-2.6755905723739866,9.569220618338125
371,1790651439.460469,0.729235546875,-0.35015185546875,-0.23111938476562502,0.8413126498090527,6.664416037902762,-6.340564464745589,-2.6807434929551617,9.581418711906474
372,1790651439.485062,0.9543673828125001,-0.50822314453125,-0.30296997070312504,1.1228974437416204,6.680001937632346,-6.346021463660203,-2.6871144260187494,9.597655872270373
373,1790651439.5050619,0.8920968750000001,-0.66629443359375,-0.197589111328125,1.130852140440217,6.693545484669082,-6.351555423895544,-2.6922692123244447,9.612186066123607
374,1790651439.5148346,0.8202462890625001,-0.52738330078125,-0.149688720703125,0.9865818941017857,6.700425784279466,-6.3547288340121835,-2.694664759188154,9.619745444078731
375,1790651439.5348346,1.016637890625,-0.34536181640624997,-0.130528564453125,1.0816030191452257,6.715149556107438,-6.361558174369421,-2.699252196634472,9.635798793447917
376,1790651439.5604477,1.12201875,-0.46032275390625,-0.178428955078125,1.2258303329277132,6.735285530630651,-6.370540001279654,-2.704839382736752,9.65732919462884
377,1790651439.5804477,0.9639474609375001,-0.47948291015625,-0.23590942382812502,1.1021578039603392,6.751779186725098,-6.377911153686937,-2.70916923372909,9.674909343637424
378,1790651439.604787,0.9687375000000001,-0.50343310546875,-0.288599853515625,1.12924183018404,6.772368706089768,-6.387330345063578,-2.714605618403688,9.69701245186696
379,1790651439.624787,1.0789083984375,-0.55612353515625,-0.31255004882812504,1.253397084565031,6.789821009511658,-6.39549855284783,-2.7193044084300606,9.715898699883185
380,1790651439.6498933,1.0789083984375,-0.58486376953125,-0.27422973632812503,1.2575018526490795,6.81250595657487,-6.40636258467677,-2.7254229693628584,9.74061852946953
381,1790651439.6698933,0.8920968750000001,-0.55133349609375,-0.269439697265625,1.0827756964220774,6.8308229646800465,-6.415423166500097,-2.730381492042166,9.76077762640625
382,1790651439.6795883,0.8537765625000001,-0.44595263671875,-0.317340087890625,1.014156252385771,6.839639782618514,-6.419881645642252,-2.732851267057531,9.770569520140064
383,1790651439.6995883,0.8202462890625001,-0.48906298828125,-0.269439697265625,0.992262229297266,6.857610839367084,-6.429101976716256,-2.738062112044258,9.790667126433931
384,1790651439.7252345,0.767555859375,-0.44595263671875,-0.269439697265625,0.9276925686453955,6.880252744397824,-6.440950284947314,-2.7447782664996803,9.816186944644324
385,1790651439.7452345,0.6717550781250001,-0.35015185546875,-0.264649658203125,0.802434201951764,6.897420243054558,-6.4499982735326835,-2.750031305844558,9.83562686975256
386,1790651439.7703512,0.7052853515625,-0.28788134765625,-0.24548950195312502,0.8003550418571819,6.9183398627591774,-6.460858535258123,-2.756599690482812,9.859257645625778
387,1790651439.7903512,0.7244455078125001,-0.37410205078125,-0.192799072265625,0.8378216519372925,6.934643699655944,-6.469202172719911,-2.7617028704527407,9.877593975122121
388,1790651439.7996602,0.7004953125000001,-0.45553271484375,-0.197589111328125,0.8586298352857465,6.942088934341037,-6.473082442535951,-2.763994428648086,9.886003251150846
389,1790651439.8196602,0.6861251953125,-0.39805224609375,-0.173638916015625,0.8120122212245189,6.957765183090356,-6.481448880139826,-2.7687360621457247,9.903816199360548
390,1790651439.845392,0.6861251953125,-0.38847216796875,-0.096998291015625,0.7944098925547874,6.97755705555958,-6.492116340071222,-2.7744438237234097,9.926299187895054
391,1790651439.865392,0.7531857421875001,-0.36452197265624997,-0.101788330078125,0.8429269807781885,6.9927917272077424,-6.50029339904536,-2.7785128956826153,9.943494573099153
392,1790651439.890258,0.7196554687500001,-0.40763232421875,-0.188009033203125,0.8481836487552304,7.011638673870419,-6.510375035468234,-2.783353593238383,9.964693533689651
393,1790651439.910258,0.6382248046875001,-0.43637255859375,-0.183218994140625,0.7945571792048423,7.026560413356975,-6.518533462483536,-2.7872198305246876,9.981604286272974
394,1790651439.9203095,0.6861251953125,-0.44595263671875,-0.24069946289062502,0.8529816933996046,7.0339331883178335,-6.522683801330412,-2.789191019219693,9.99005538581008
395,1790651439.9403095,0.9064669921875,-0.54175341796875,-0.269439697265625,1.0898517900470999,7.0487915757395765,-6.531184786069247,-2.7932900791867805,10.007212741542117
396,1790651439.9655895,0.9208371093750001,-0.6279741210937501,-0.29338989257812503,1.1525493949643015,7.068220010048242,-6.542536055648944,-2.7987612380535896,10.029834326525243
397,1790651439.9855895,0.7962960937500001,-0.54175341796875,-0.28380981445312503,1.004057889557295,7.08386070281637,-6.55192400794803,-2.803306214657353,10.048249419474436
398,1790651440.0100324,0.6813351562500001,-0.53696337890625,-0.255069580078125,0.9042166533026584,7.102817461717203,-6.563653968226302,-2.809015532267141,10.07085585089995
399,1790651440.0300324,0.7771359375000001,-0.56091357421875,-0.24548950195312502,0.9893580740389449,7.118189544843488,-6.57345894022592,-2.8137371863431366,10.089405422965488
400,1790651440.0406134,0.8346164062500001,-0.63276416015625,-0.21195922851562501,1.0685980266278094,7.126381321099029,-6.578815447983317,-2.816223504556598,10.099368210930331
401,1790651440.0606134,0.8489865234375001,-0.59923388671875,-0.22153930664062502,1.0625154268797048,7.142068035422383,-6.58926947322086,-2.8208683933842345,10.118542706640941
402,1790651440.0852802,0.7579757812500001,-0.52259326171875,-0.202379150390625,0.9426496287954613,7.161485930977577,-6.60230423018328,-2.8265220663570503,10.142313783308477
403,1790651440.1052802,0.6621750000000001,-0.50822314453125,-0.164058837890625,0.8506948909875116,7.176998681201048,-6.612833814802374,-2.8309681505105035,10.16136121793533
404,1790651440.1296334,0.6909152343750001,-0.49385302734375,-0.183218994140625,0.8688060045383839,7.195526019447148,-6.625562377580681,-2.836204214531454,10.184189995393815
405,1790651440.1496334,0.7771359375000001,-0.49864306640625,-0.269439697265625,0.9618642957775403,7.210661244544913,-6.635936391089506,-2.8405382765354723,10.202840049252519
406,1790651440.1600833,0.8825167968750001,-0.55133349609375,-0.31255004882812504,1.0865045115893126,7.218683848359521,-6.6413666142917895,-2.842919252221013,10.212704680085736
407,1790651440.1800833,0.6765451171875001,-0.55133349609375,-0.22153930664062502,0.9004230027559349,7.2340736943517925,-6.651854556803303,-2.8475937815067067,10.231704726224908
408,1790651440.2055423,0.6190646484375001,-0.47948291015625,-0.178428955078125,0.803107584379094,7.253199547109082,-6.66517089344383,-2.85341538316666,10.255505158590987
409,1790651440.2255423,0.729235546875,-0.46990283203125,-0.202379150390625,0.8908145008305044,7.267993060078504,-6.675486798828136,-2.8578739012363825,10.273913098622456
410,1790651440.25051,0.9016769531250001,-0.46032275390625,-0.264649658203125,1.0464023161039202,7.286744862635821,-6.688175202059539,-2.8634795017690036,10.296982717458787
411,1790651440.27051,0.8202462890625001,-0.46990283203125,-0.24069946289062502,0.9754736683825079,7.302095469610695,-6.698209817238885,-2.8680542651961916,10.315636105988544
412,1790651440.2804189,0.6717550781250001,-0.45553271484375,-0.197589111328125,0.8353480688881015,7.309668868086462,-6.703123442043663,-2.8703065542845927,10.324813923549266
413,1790651440.3004189,0.6334347656250001,-0.49385302734375,-0.207169189453125,0.8294874851241881,7.324619764453332,-6.712977457962911,-2.874777775132095,10.343039606485707
414,1790651440.3255174,0.825036328125,-0.56570361328125,-0.264649658203125,1.0347680717882997,7.343313149354905,-6.7254831384635025,-2.880435329410251,10.365967351972525
415,1790651440.3455174,0.9256271484375,-0.63755419921875,-0.317340087890625,1.167889423810503,7.358600713561594,-6.73575848339108,-2.8851403387162295,10.3847716191687
416,1790651440.3706193,0.8298263671875001,-0.61360400390625,-0.307760009765625,1.0769577043228404,7.3782148641775915,-6.7490760314417715,-2.891336632145269,10.409030184437842
417,1790651440.3906193,0.6430148437500001,-0.57528369140625,-0.192799072265625,0.8840762959990072,7.393707590124319,-6.759878523181855,-2.896283841140261,10.428390559663914
418,1790651440.4147115,0.6573849609375001,-0.48906298828125,-0.202379150390625,0.8439756595342165,7.411920603926359,-6.772862587458421,-2.9020634376233114,10.451325603170734
419,1790651440.4347115,0.7962960937500001,-0.50822314453125,-0.298179931640625,0.9906005780292825,7.426952626095169,-6.7835203562356465,-2.90689248578256,10.470233887436537
420,1790651440.445352,0.8920968750000001,-0.61839404296875,-0.350870361328125,1.140770808367102,7.435097926103329,-6.789239178245734,-2.909594283303841,10.480467006942353
421,1790651440.465352,0.8202462890625001,-0.63276416015625,-0.31255004882812504,1.0820730059111123,7.450679773399042,-6.80025258724634,-2.9149059385994347,10.500130521425454
422,1790651440.4904203,0.7627658203125001,-0.64234423828125,-0.326920166015625,1.0494258487562635,7.470256975661555,-6.814383665125188,-2.9217672738635034,10.525079003055742
423,1790651440.5104203,0.7244455078125001,-0.64713427734375,-0.28380981445312503,1.0120039908433394,7.485764013712036,-6.825900830714509,-2.9273363626579885,10.545088107734086
424,1790651440.5356379,0.729235546875,-0.63276416015625,-0.22153930664062502,0.9905829746119876,7.505132991255266,-6.840665000023707,-2.9342607866604316,10.570317177034502
425,1790651440.5556378,0.7771359375000001,-0.56091357421875,-0.197589111328125,0.9785733288886915,7.520449822895564,-6.852408536007523,-2.939557464856755,10.590262809403447
426,1790651440.565203,0.8106662109375001,-0.50822314453125,-0.178428955078125,0.9732971602769972,7.527815450458629,-6.8579494732888975,-2.9419804078902034,10.599751183624875
427,1790651440.585203,0.7531857421875001,-0.50822314453125,-0.168848876953125,0.9241696111213021,7.543252082819918,-6.869321994033166,-2.9468075967157636,10.619412020198508
428,1790651440.610451,0.7148654296875001,-0.49864306640625,-0.207169189453125,0.895877538113322,7.562596163141219,-6.883431805515302,-2.9526994079923043,10.64391506645445
429,1790651440.630451,0.7388156250000001,-0.51301318359375,-0.22632934570312502,0.9274998797905798,7.5778014129838605,-6.894449687875513,-2.957316721678836,10.663124914657438
430,1790651440.6549745,0.7388156250000001,-0.53217333984375,-0.21674926757812502,0.9359686086510839,7.596366829933353,-6.907855443479155,-2.9629440527905913,10.686547305041204
431,1790651440.6749744,0.767555859375,-0.53217333984375,-0.23590942382812502,0.9633294956307858,7.611496156063389,-6.918744993527882,-2.9675239740118653,10.705610891283602
432,1790651440.68486,0.7627658203125001,-0.53696337890625,-0.24548950195312502,0.9645757940631786,7.618987139813587,-6.924112763618959,-2.969805081938029,10.71503825586548
433,1790651440.70486,0.7004953125000001,-0.58486376953125,-0.269439697265625,0.9515025287445995,7.634064125829375,-6.93502635066344,-2.9745002511276364,10.734112786142582
434,1790651440.7304728,0.6382248046875001,-0.59444384765625,-0.259859619140625,0.9100667068927834,7.653047755005183,-6.949171701633551,-2.9806279245111473,10.758451101508527
435,1790651440.7504728,0.7052853515625,-0.58486376953125,-0.259859619140625,0.952376016969586,7.667663007235675,-6.960329343789909,-2.985474618349421,10.777397610896701
436,1790651440.7752578,0.7244455078125001,-0.58007373046875,-0.21674926757812502,0.9530409600669306,7.6857159019493615,-6.974247893508483,-2.9914659152072853,10.800890284019728
437,1790651440.7952578,0.7052853515625,-0.63276416015625,-0.207169189453125,0.9699159667546197,7.700242921036953,-6.985613838963423,-2.996211204335606,10.819880929616703
438,1790651440.8059356,0.7052853515625,-0.62318408203125,-0.207169189453125,0.9636933642421929,7.707965027875074,-6.9917775994797235,-2.998696469486847,10.830044292967806
439,1790651440.8259356,0.748395703125,-0.64234423828125,-0.21674926757812502,1.0097932926617883,7.722439794599705,-7.003489118222672,-3.003289098890482,10.849178845506922
440,1790651440.8502822,0.710075390625,-0.66150439453125,-0.168848876953125,0.9850406426151834,7.74008044520343,-7.017988210578277,-3.008745335193906,10.872605589925872
441,1790651440.8702822,0.6238546875000001,-0.60402392578125,-0.168848876953125,0.8846182890265424,7.754398906242087,-7.030010478961614,-3.0130616932512266,10.891753325281313
442,1790651440.8950415,0.6430148437500001,-0.58007373046875,-0.188009033203125,0.8861721156912706,7.771818316192164,-7.044859969129422,-3.0182663376039636,10.915179504215926
443,1790651440.9150414,0.729235546875,-0.67108447265625,-0.23111938476562502,1.017622239478304,7.7858370350274235,-7.056932516623207,-3.022468591729296,10.934115019889294
444,1790651440.9251146,0.8106662109375001,-0.71419482421875,-0.326920166015625,1.1287740019349748,7.793001978176487,-7.06314746731325,-3.024689214647058,10.943841958931902
445,1790651440.9451146,0.6813351562500001,-0.7477250976562501,-0.259859619140625,1.0444316341758189,7.807331875320209,-7.0758289900881355,-3.029317011839656,10.963509860741851
446,1790651440.9699247,0.5807443359375001,-0.67108447265625,-0.183218994140625,0.9061939930156829,7.824790159251413,-7.091840816293886,-3.035021157495883,10.987852411932794
447,1790651440.9899247,0.6573849609375001,-0.64234423828125,-0.24548950195312502,0.9513286513550988,7.8386098519298395,-7.104782338163241,-3.0395727277915823,11.00730388655561
448,1790651441.0148091,0.8346164062500001,-0.67587451171875,-0.259859619140625,1.1049515477307748,7.856010003702685,-7.120929408166951,-3.045329576607522,11.031707077534923
449,1790651441.034809,0.7627658203125001,-0.72377490234375,-0.207169189453125,1.0717186566251289,7.870293102646606,-7.134059857139821,-3.0499629482058883,11.051633252702938
450,1790651441.0599284,0.5999044921875001,-0.65671435546875,-0.202379150390625,0.9122041794128709,7.888108531330226,-7.150678319567716,-3.0556809712298736,11.076625967771811
451,1790651441.0799284,0.6286447265625,-0.64234423828125,-0.202379150390625,0.9212804313567019,7.9020082953793995,-7.163873777108048,-3.0601578927171706,11.09627815634325
452,1790651441.0903406,0.7771359375000001,-0.68545458984375,-0.22632934570312502,1.0606664097718341,7.9092570104586715,-7.170749925465664,-3.0624738036831665,11.106518210010782
453,1790651441.1103406,0.7771359375000001,-0.72377490234375,-0.23590942382812502,1.0878619539572227,7.923423364210637,-7.184090427652259,-3.0669483397620354,11.126453397195933
454,1790651441.1354735,0.6621750000000001,-0.71898486328125,-0.23590942382812502,1.0055188812267404,7.9412681950563035,-7.201059626872338,-3.0726171741590784,11.151680438145673
455,1790651441.1554735,0.6238546875000001,-0.66150439453125,-0.21195922851562501,0.9336538168147857,7.955267548028873,-7.214608388560936,-3.0771233972709564,11.171640182311974
456,1790651441.1800256,0.6573849609375001,-0.61839404296875,-0.21674926757812502,0.9281952511415302,7.972234675346778,-7.231102869686372,-3.082614913048763,11.1958871525636
457,1790651441.2000256,0.6909152343750001,-0.65671435546875,-0.202379150390625,0.9744716138928975,7.986005235227523,-7.244436379731522,-3.087045954085718,11.215524544117228
458,1790651441.2103004,0.6765451171875001,-0.6279741210937501,-0.21674926757812502,0.9481798549586307,7.993072393799763,-7.251248900643816,-3.0893039021874453,11.22557862703222
459,1790651441.2303004,0.6909152343750001,-0.62318408203125,-0.279019775390625,0.9713775250887926,8.006816322170277,-7.264397073411848,-3.0937833704151725,11.245090840016564
460,1790651441.2555895,0.7052853515625,-0.71419482421875,-0.24069946289062502,1.0322005161330456,8.024236249122275,-7.281065124703267,-3.099583581013189,11.269857812216829
461,1790651441.2755895,0.6286447265625,-0.72377490234375,-0.202379150390625,0.9797967248416257,8.037947284628338,-7.294426788540285,-3.1041472554906786,11.28950791255352
462,1790651441.3001444,0.6334347656250001,-0.65192431640625,-0.24548950195312502,0.9415466064902728,8.054580218928008,-7.310904367717723,-3.109734652469559,11.313533258263327
463,1790651441.3201444,0.7148654296875001,-0.66629443359375,-0.28380981445312503,1.0176093875256003,8.06811804026328,-7.324289510910387,-3.114396887484145,11.333102555082815
464,1790651441.3601024,0.7340255859375001,-0.69024462890625,-0.288599853515625,1.0481035654905757,8.095450302612704,-7.351085727747412,-3.124029798427737,11.37252562803128
465,1790651441.3801024,0.729235546875,-0.70940478515625,-0.22632934570312502,1.0422401857321901,8.10927360241661,-7.364585551478216,-3.1289004779186387,11.392429806876674
466,1790651441.3756423,0.6573849609375001,-0.70940478515625,-0.202379150390625,0.9881130788438209,8.10927360241661,-7.364585551478216,-3.1289004779186387,11.392429806876674
467,1790651441.3956423,0.6382248046875001,-0.64234423828125,-0.21674926757812502,0.9310839203676383,8.122972288781407,-7.378175776202154,-3.1335948386894383,11.412255395052634
468,1790651441.4199526,0.748395703125,-0.58965380859375,-0.29338989257812503,0.9969279670628575,8.139653838858557,-7.394463345235753,-3.1393751340472265,11.436246281571329
469,1790651441.4399526,0.9064669921875,-0.63755419921875,-0.326920166015625,1.1554369562267768,8.153801370894211,-7.407693888866718,-3.1443477007135625,11.456235333220608
470,1790651441.449905,0.805876171875,-0.69024462890625,-0.202379150390625,1.0801996910954301,8.161063533520815,-7.414281157014025,-3.146846045529629,11.466349162121391
471,1790651441.469905,0.6669650390625,-0.60881396484375,-0.159268798828125,0.9169860181052724,8.17567762057815,-7.427481752711047,-3.151656052337368,11.48660635761114
472,1790651441.4953194,0.748395703125,-0.61360400390625,-0.178428955078125,0.9840949619198424,8.194160325857414,-7.44406995820868,-3.15749509766072,11.512090004873667
473,1790651441.5153193,1.0597482421875002,-0.66150439453125,-0.379610595703125,1.3056640475917738,8.209235800313039,-7.457078630797153,-3.162237950332813,11.532533242334829
474,1790651441.5401962,0.9831076171875001,-0.72377490234375,-0.374820556640625,1.2770439091570724,8.228986076855774,-7.473416865478453,-3.168659998478546,11.558917669239712
475,1790651441.5601962,0.7627658203125001,-0.68545458984375,-0.31255004882812504,1.0720761280792181,8.245101553545444,-7.486695703065093,-3.1740796632609443,11.580461730315314
476,1790651441.5704198,0.6669650390625,-0.61839404296875,-0.279019775390625,0.951370375179884,8.25320007938181,-7.493465173289265,-3.176888131549627,11.591373950226432
477,1790651441.5904198,0.8777267578125001,-0.59444384765625,-0.31255004882812504,1.105194680777497,8.268983451882953,-7.506540793968013,-3.182445444051559,11.61258804157732
478,1790651441.6155655,1.0070578125,-0.65192431640625,-0.23111938476562502,1.2217147465973728,8.289405659028102,-7.522865226645215,-3.189409846796212,11.639591168466163
479,1790651441.6355655,0.9304171875000001,-0.73814501953125,-0.192799072265625,1.2032064224066814,8.306118453423972,-7.535986582494684,-3.19475406002475,11.661438635001034
480,1790651441.660372,0.9160470703125001,-0.63276416015625,-0.264649658203125,1.1443653957514575,8.327173695660845,-7.552370688577065,-3.2012394199890983,11.688800562909611
481,1790651441.680372,1.0262179687500002,-0.61360400390625,-0.31255004882812504,1.2358481808125223,8.344516324075553,-7.565468326178622,-3.206549659356693,11.711072726061259
482,1790651441.6900983,1.2130294921875,-0.79562548828125,-0.336500244140625,1.4891920228184616,8.353318670913254,-7.571910457172154,-3.2092182036301864,11.722237084608567
483,1790651441.7100983,1.169919140625,-0.7477250976562501,-0.41314086914062503,1.448616234556295,8.37227817727318,-7.585485289899412,-3.2150068505051577,11.74610139619611
484,1790651441.7353532,1.0118478515625,-0.57049365234375,-0.307760009765625,1.2016718793776844,8.396760651146403,-7.6025525281382444,-3.222585494018476,11.776648574276134
485,1790651441.7553532,0.8729367187500001,-0.49385302734375,-0.22153930664062502,1.027126570557598,8.416067818912865,-7.615637590584042,-3.22848088734712,11.800475510911545
486,1790651441.7804115,0.9735275390625001,-0.28309130859375,-0.192799072265625,1.0320213372701628,8.440099707507192,-7.63103305331658,-3.2355380436227463,11.829482447055884
487,1790651441.8004115,1.1172287109375,-0.30225146484375,-0.192799072265625,1.1733402843206853,8.459539507286141,-7.642355627340092,-3.240904142897183,11.852125036191609
488,1790651441.8254137,0.8920968750000001,-0.44116259765625,-0.21195922851562501,1.017540164567726,8.483963989068693,-7.6557809784931,-3.247365129773341,11.879983486711543
489,1790651441.8454137,0.6046945312500001,-0.51301318359375,-0.255069580078125,0.8330056982673546,8.502816317056043,-7.666340652557747,-3.2524587453852583,11.901644937280187
490,1790651441.8554955,0.6286447265625,-0.57049365234375,-0.288599853515625,0.8966309581140907,8.51182664668507,-7.671684489555908,-3.2550523213206617,11.912233266060806
491,1790651441.8754954,0.7962960937500001,-0.68545458984375,-0.32213012695312504,1.0989555415712724,8.529157368902055,-7.682579244532595,-3.2603417305640847,11.933079127872942
492,1790651441.9005957,0.8394064453125001,-0.83394580078125,-0.336500244140625,1.2301630759291826,8.550724343117633,-7.697061640104357,-3.2672241483155697,11.959698922585252
493,1790651441.9205956,0.8154562500000001,-0.82436572265625,-0.336500244140625,1.2073856693953777,8.56781360034347,-7.709357799138491,-3.2728949991859224,11.9813801058586
494,1790651441.9449966,0.8010861328125001,-0.80520556640625,-0.326920166015625,1.181935612164969,8.588494254263601,-7.725091655904654,-3.2799900125751047,12.00823089094472
495,1790651441.9649966,0.8633566406250001,-0.94890673828125,-0.389190673828125,1.3406259983536184,8.605398993960897,-7.738684498166672,-3.2860072277805688,12.030709584577897
496,1790651441.975216,0.9399972656250001,-0.97285693359375,-0.384400634765625,1.4063460884974675,8.614123278181737,-7.746061107073543,-3.289213556965485,12.04257067031601
497,1790651441.995216,0.9447873046875,-0.94411669921875,-0.370030517578125,1.3859660806749614,8.631463400810004,-7.761207639659718,-3.2956789685785464,12.066482682595037
498,1790651442.0207565,0.9783175781250001,-0.85789599609375,-0.336500244140625,1.3439952522567755,8.653969482423427,-7.781100674214127,-3.3040504094589584,12.097663601423932
499,1790651442.0407565,0.9591574218750001,-0.78125537109375,-0.288599853515625,1.2702884673372306,8.671855887137985,-7.7968003327089885,-3.310560144463763,12.122334281215506
500,1790651442.065527,0.9639474609375001,-0.71419482421875,-0.259859619140625,1.2275161815832063,8.69425846923784,-7.816106332413704,-3.318432170718791,12.152927244132293
501,1790651442.085527,0.8729367187500001,-0.64234423828125,-0.24548950195312502,1.111255925052519,8.712388676673172,-7.8313908395101,-3.324592762379241,12.177410068247273
502,1790651442.0951743,0.8489865234375001,-0.56091357421875,-0.259859619140625,1.050204349820194,8.721068210326575,-7.83852831557779,-3.3274843354046366,12.188999503062044
503,1790651442.1151743,0.8920968750000001,-0.54654345703125,-0.24548950195312502,1.0746216452210653,8.738974357845661,-7.8527667081654355,-3.333337705352968,12.212565580494672
504,1790651442.1403732,0.8633566406250001,-0.56091357421875,-0.21674926757812502,1.0521354340814648,8.761468717883044,-7.870108403041187,-3.340480000375362,12.241762414087706
505,1790651442.1603732,0.805876171875,-0.62318408203125,-0.202379150390625,1.0386299268776475,8.779147957394382,-7.88358379284452,-3.3459271060595164,12.264565237940012
506,1790651442.1857812,0.7723458984375001,-0.58965380859375,-0.23590942382812502,0.9999315261922999,8.801246211277997,-7.900446275146843,-3.3526443247919513,12.29305536417113
507,1790651442.2057812,0.8394064453125001,-0.64234423828125,-0.32213012695312504,1.1049783344374327,8.818449319255567,-7.91357660642349,-3.357975734575841,12.315264679900803
508,1790651442.2148566,0.9352072265625001,-0.79562548828125,-0.326920166015625,1.2706334125801921,8.82629254419047,-7.919619802537266,-3.360473865493642,12.325445326357926
509,1790651442.2348566,0.8825167968750001,-0.80041552734375,-0.279019775390625,1.2236637398560595,8.84371100341297,-7.933333935777816,-3.3660622564421403,12.34825440144055
510,1790651442.260016,0.767555859375,-0.71419482421875,-0.250279541015625,1.077894286492297,8.865449712855824,-7.95085609573287,-3.3730365386982997,12.37698213449554
511,1790651442.280016,0.8202462890625001,-0.69503466796875,-0.279019775390625,1.1107336311907856,8.882520091225707,-7.964809525578105,-3.378542955360855,12.399673642922483
512,1790651442.3048694,0.9304171875000001,-0.78125537109375,-0.34129028320312504,1.2619489510543256,8.903814332132063,-7.9822999818273095,-3.385515500994064,12.428062514665417
513,1790651442.3248694,1.0118478515625,-0.79083544921875,-0.32213012695312504,1.3240183537789443,8.921293169088388,-7.996621736876799,-3.391279911269414,12.45135375965574
514,1790651442.3353426,0.8633566406250001,-0.79562548828125,-0.269439697265625,1.2045755920558305,8.930546198841949,-8.004242700229959,-3.3943104031759623,12.463703291034472
515,1790651442.3553426,0.7340255859375001,-0.66150439453125,-0.250279541015625,1.0193240276997486,8.947961613045077,-8.018798596759272,-3.400009018520429,12.487081696294654
516,1790651442.3806207,0.805876171875,-0.69024462890625,-0.264649658203125,1.0935782979361206,8.969590772577686,-8.036999008869206,-3.4071073864998045,12.516201198415473
517,1790651442.4006207,0.9495773437500001,-0.71419482421875,-0.27422973632812503,1.2194151577665213,8.986769959970477,-8.0513457796435,-3.412689488509989,12.539244503629297
518,1790651442.4252365,0.9543673828125001,-0.72377490234375,-0.279019775390625,1.2298452120889525,9.008257356663352,-8.06900970940843,-3.4195507212000735,12.56785365244467
519,1790651442.4452364,0.7962960937500001,-0.65192431640625,-0.21674926757812502,1.051700065721648,9.025722839476439,-8.08327220780592,-3.425032835212408,12.591021097703607
520,1790651442.4703028,0.7771359375000001,-0.67587451171875,-0.192799072265625,1.0478158727617886,9.047287220175196,-8.100962593728273,-3.431642993734355,12.619634488596578
521,1790651442.4903028,0.8394064453125001,-0.66150439453125,-0.250279541015625,1.0976479823091347,9.064336966696041,-8.11496625715804,-3.436790612029676,12.64224709897577
522,1790651442.5008936,0.9064669921875,-0.70461474609375,-0.279019775390625,1.181531372159558,9.073397976002502,-8.122354554417898,-3.4395280291579087,12.654230415239102
523,1790651442.5208936,0.8537765625000001,-0.70940478515625,-0.27422973632812503,1.143412224949294,9.090582767187739,-8.136335028763193,-3.4447519128372512,12.676945944838826
524,1790651442.5451596,0.767555859375,-0.69024462890625,-0.255069580078125,1.063315633138182,9.111256292990916,-8.153300470748968,-3.4511026348179477,12.704385431768406
525,1790651442.5651596,0.8154562500000001,-0.69503466796875,-0.269439697265625,1.1048257038126352,9.128114017388251,-8.167263831728146,-3.456338509926796,12.726858996103381
526,1790651442.5902655,0.8441964843750001,-0.73335498046875,-0.279019775390625,1.1525316770781031,9.149226314537534,-8.184852375431841,-3.462957929604359,12.755086365228893
527,1790651442.6102655,0.8394064453125001,-0.71898486328125,-0.307760009765625,1.1472831549668385,9.166047477619026,-8.198940606492263,-3.468320303369587,12.777648420484871
528,1790651442.6201315,0.8154562500000001,-0.69982470703125,-0.29338989257812503,1.1139125393415954,9.174325197129848,-8.205897725443464,-3.4710135963033273,12.7887816342626
529,1790651442.6401315,0.8681466796875,-0.70940478515625,-0.33171020507812504,1.1691729841250986,9.191113837366663,-8.21999929508395,-3.4765920259955054,12.811387672607099
530,1790651442.6650498,0.9352072265625001,-0.81478564453125,-0.336500244140625,1.2851928327903281,9.212263743845053,-8.23778179317166,-3.4837485487183955,12.839912620760707
531,1790651442.6850498,0.825036328125,-0.79083544921875,-0.279019775390625,1.176417309259788,9.229333173267841,-8.252321947525212,-3.489554210830036,12.863063279760004
532,1790651442.710002,0.8394064453125001,-0.75251513671875,-0.298179931640625,1.1661018321982923,9.250549623160033,-8.270629567705,-3.496791110919075,12.891994797165609
533,1790651442.730002,0.9304171875000001,-0.81478564453125,-0.31255004882812504,1.2756329105005397,9.267659181347742,-8.285453548275733,-3.5026377248164096,12.915367522202422
534,1790651442.7408848,1.045378125,-0.8674760742187501,-0.384400634765625,1.4117698153660552,9.277185396202647,-8.293683047504878,-3.5059107719054374,12.92837026498499
535,1790651442.7608848,0.9974777343750001,-0.84831591796875,-0.379610595703125,1.3633436586653886,9.295130469481,-8.309111940646938,-3.512169577473174,12.952842422719566
536,1790651442.7852302,0.8202462890625001,-0.80999560546875,-0.298179931640625,1.1907174842223058,9.31701687617475,-8.328103833015534,-3.519883021927534,12.982823013985318
537,1790651442.8052301,0.8537765625000001,-0.73814501953125,-0.326920166015625,1.1750188438832758,9.334810819420644,-8.343687762209525,-3.526206840300709,13.007303840081589
538,1790651442.845401,0.9112570312500001,-0.79083544921875,-0.32213012695312504,1.2488306143886858,9.370507524954009,-8.37490020249571,-3.5389587459175775,13.056400487205075
539,1790651442.865401,0.9495773437500001,-0.75251513671875,-0.326920166015625,1.254931455379866,9.388405313535587,-8.390424063248009,-3.545328817537508,13.080929887313685
540,1790651442.8607593,1.045378125,-0.72856494140625,-0.379610595703125,1.3295587623136067,9.388405313535587,-8.390424063248009,-3.545328817537508,13.080929887313685
541,1790651442.8807592,0.825036328125,-0.70461474609375,-0.307760009765625,1.127777950994645,9.406685650586738,-8.405678195421327,-3.5518630750699156,13.105605371671356
542,1790651442.905787,0.710075390625,-0.66629443359375,-0.269439697265625,1.0103232567212606,9.429011617758732,-8.424477026032225,-3.5598968880311808,13.135864611946486
543,1790651442.925787,0.9112570312500001,-0.69503466796875,-0.298179931640625,1.1842186615292811,9.446608423166476,-8.43928803576956,-3.566205246654346,13.159704142289371
544,1790651442.9509864,1.074118359375,-0.7668852539062501,-0.350870361328125,1.3656329129981544,9.469206453085347,-8.457913237340716,-3.574188024379267,13.190033632070566
545,1790651442.9709864,0.9831076171875001,-0.69982470703125,-0.288599853515625,1.2407840597753903,9.48753733222336,-8.472678200841992,-3.5805325562263324,13.214380572374617
546,1790651442.9801717,0.8010861328125001,-0.67587451171875,-0.259859619140625,1.0798483085301638,9.495922400131102,-8.479389808769508,-3.583387143560187,13.225477578484956
547,1790651443.0001717,0.8825167968750001,-0.69503466796875,-0.30296997070312504,1.163486093424753,9.513966707156222,-8.493867871538756,-3.5895145965600688,13.249376172595943
548,1790651443.0251427,1.0693283203125001,-0.85310595703125,-0.370030517578125,1.4171010600813525,9.536772033937197,-8.512132386209478,-3.597277884208356,13.279564253538497
549,1790651443.0451427,1.045378125,-0.85789599609375,-0.379610595703125,1.4046014269935385,9.5554697025568,-8.527133164456776,-3.603687504402556,13.30434383463712
550,1790651443.084998,0.8968869140625001,-0.80999560546875,-0.326920166015625,1.25194880583949,9.592946445362541,-8.557527790280758,-3.616656357238778,13.354254250663978
551,1790651443.1049979,0.8489865234375001,-0.76209521484375,-0.298179931640625,1.1791855261575432,9.6115507041621,-8.572850546309951,-3.6231257829434553,13.379189581849696
552,1790651443.1005416,0.9591574218750001,-0.7668852539062501,-0.346080322265625,1.2758791251745714,9.6115507041621,-8.572850546309951,-3.6231257829434553,13.379189581849696
553,1790651443.1205416,0.9878976562500001,-0.77167529296875,-0.32213012695312504,1.294292221908749,9.630218242308374,-8.588178524398943,-3.629623688773382,13.404181507408092
554,1790651443.145651,0.8873068359375,-0.69982470703125,-0.307760009765625,1.1712319434184375,9.653670830731363,-8.607307018959377,-3.6377441864779163,13.435485752029765
555,1790651443.165651,0.8920968750000001,-0.70461474609375,-0.288599853515625,1.1728634405789813,9.672218113510406,-8.622364301010046,-3.6441365715402716,13.460189475883633
556,1790651443.1910386,0.9447873046875,-0.77646533203125,-0.28380981445312503,1.2554160560248493,9.695727637062507,-8.641430741527461,-3.652123673662493,13.491459038978682
557,1790651443.2110386,0.9974777343750001,-0.80041552734375,-0.31255004882812504,1.3165539791475775,9.714383468746098,-8.656563322141098,-3.6583665324425145,13.516248755249418
558,1790651443.2357411,0.8729367187500001,-0.74293505859375,-0.288599853515625,1.1820579053832159,9.737434768100396,-8.675309755137516,-3.6660344011147776,13.546897926859549
559,1790651443.2557411,0.8777267578125001,-0.72856494140625,-0.30296997070312504,1.1802550310734492,9.755924375355722,-8.690418062646328,-3.672198685867953,13.571531590418225
560,1790651443.265789,0.8873068359375,-0.81478564453125,-0.32213012695312504,1.246979104206024,9.765150233832658,-8.698032923201124,-3.6753021329774813,13.58387947499099
561,1790651443.285789,1.074118359375,-0.80999560546875,-0.43230102539062504,1.4130489401924178,9.783701525747624,-8.71335361504743,-3.6816844762253744,13.608752600743957
562,1790651443.3252919,1.016637890625,-0.90100634765625,-0.417930908203125,1.421278045704919,9.821041104683719,-8.744144322851142,-3.6949186151270874,13.658892044787152
563,1790651443.3452919,0.8346164062500001,-0.8674760742187501,-0.298179931640625,1.2401655359494745,9.839887003565881,-8.760047769222844,-3.7016880680405566,13.684454965948943
564,1790651443.355366,0.7771359375000001,-0.7668852539062501,-0.23590942382812502,1.1170078398398893,9.849173675925261,-8.768091709166226,-3.7049899548756766,13.697175069503139
565,1790651443.375366,0.9495773437500001,-0.73814501953125,-0.27422973632812503,1.233595213150849,9.867434887597911,-8.783923301133056,-3.7113270558949374,13.722154653588131
566,1790651443.3860137,1.0693283203125001,-0.7668852539062501,-0.33171020507812504,1.3570584767924256,9.877310912414446,-8.792289475995597,-3.7146786827427487,13.73551829405166
567,1790651443.4060137,0.9926876953125001,-0.71898486328125,-0.355660400390625,1.2762689428401919,9.896171761188457,-8.807875516010473,-3.7210608658425857,13.760784156427489
568,1790651443.4296274,0.8489865234375001,-0.7668852539062501,-0.326920166015625,1.1898604559296146,9.918361839829647,-8.826148914164133,-3.728674783784697,13.790497521265197
569,1790651443.4496274,0.8729367187500001,-0.85310595703125,-0.279019775390625,1.2520624281253938,9.93691981785847,-8.841734295166564,-3.735065109511829,13.815547480471615
570,1790651443.4748938,0.9543673828125001,-0.83873583984375,-0.29338989257812503,1.3039833355843877,9.960310514930592,-8.861676249534728,-3.743011896087193,13.847282388961924
571,1790651443.4948938,1.0597482421875002,-0.81957568359375,-0.350870361328125,1.3848756797691943,9.979069635120311,-8.877581248455753,-3.749325117514931,13.872660827769911
572,1790651443.5049844,1.035798046875,-0.84831591796875,-0.336500244140625,1.380489009335434,9.98870038981999,-8.88566436533263,-3.7525527435490758,13.885633539167374
573,1790651443.5249844,0.9208371093750001,-0.81957568359375,-0.30296997070312504,1.269423525183034,10.007860623062955,-8.90178412183342,-3.7589496471242874,13.911460644087501
574,1790651443.5500956,0.8585666015625001,-0.79562548828125,-0.28380981445312503,1.2044519657094157,10.03166016233945,-8.922029533196675,-3.766881700793094,13.943680086392973
575,1790651443.5700955,0.9926876953125001,-0.83394580078125,-0.317340087890625,1.33476559382086,10.050549047222372,-8.938179791401131,-3.7731533311323364,13.969297770262797
576,1790651443.5949812,1.131598828125,-0.83394580078125,-0.370030517578125,1.4535831900492275,10.074491531943215,-8.95837396490538,-3.7810693915925975,14.001583105718028
577,1790651443.6149812,1.0022677734375,-0.79562548828125,-0.33171020507812504,1.3219653049256297,10.094048010855337,-8.974613440824518,-3.7875296512790113,14.027789295430638
578,1790651443.6250472,0.8346164062500001,-0.72856494140625,-0.298179931640625,1.1473023538113942,10.103801165408875,-8.982711490083833,-3.7907689312981057,14.040862964743187
579,1790651443.6450472,0.9256271484375,-0.77646533203125,-0.33171020507812504,1.2528829514060398,10.122913109332437,-8.998645395637139,-3.797184412383964,14.066541800924908
580,1790651443.669432,0.9543673828125001,-0.8674760742187501,-0.336500244140625,1.3328781846159294,10.146158054511842,-9.01816506640249,-3.8050551712420915,14.097881730537178
581,1790651443.689432,0.8873068359375,-0.77167529296875,-0.317340087890625,1.2179905214172455,10.165125933431597,-9.034232061164753,-3.8115230833995986,14.123556294106265
582,1790651443.714606,0.8346164062500001,-0.7477250976562501,-0.307760009765625,1.162064366056223,10.188670800588557,-9.054290891120699,-3.819623342463121,14.155519019170095
583,1790651443.734606,0.8729367187500001,-0.78604541015625,-0.326920166015625,1.2193287894236764,10.20713187039295,-9.070137182054632,-3.826045430217105,14.180675341991531
584,1790651443.745038,0.9112570312500001,-0.81957568359375,-0.355660400390625,1.276161431225198,10.216712735823629,-9.078419042159757,-3.8294267823917805,14.193781064715951
585,1790651443.765038,0.9256271484375,-0.80999560546875,-0.350870361328125,1.279057664556901,10.235081027260936,-9.094359506904198,-3.8359968253181065,14.218970782699644
586,1790651443.7903616,0.9256271484375,-0.74293505859375,-0.29338989257812503,1.2226265776103677,10.258366033640934,-9.114464954215741,-3.8442914942666757,14.25082882413076
587,1790651443.8103616,0.9495773437500001,-0.7668852539062501,-0.288599853515625,1.2542328331978077,10.276810275237679,-9.13022665301095,-3.850732765107896,14.275924173126509
588,1790651443.835088,0.9783175781250001,-0.78604541015625,-0.326920166015625,1.2968613902201565,10.299768064846205,-9.149670068397405,-3.85864318936966,14.307019669135219
589,1790651443.855088,0.9687375000000001,-0.82915576171875,-0.336500244140625,1.3187812689769107,10.318472672912952,-9.165460679932611,-3.8650769244951158,14.332318982261969
590,1790651443.8794558,0.9208371093750001,-0.81957568359375,-0.32213012695312504,1.27413229369289,10.341297139615136,-9.18482715448469,-3.872943615595695,14.363257591408537
591,1790651443.8994558,0.9687375000000001,-0.82436572265625,-0.33171020507812504,1.3145580431269603,10.360054783483719,-9.200803911664599,-3.8794125017088503,14.38872367849565
592,1790651443.909576,0.9831076171875001,-0.85789599609375,-0.355660400390625,1.3523980358946812,10.36960404902162,-9.208952481662314,-3.882716536660047,14.401700651209685
593,1790651443.929576,0.9543673828125001,-0.85310595703125,-0.370030517578125,1.3324899471432126,10.388551256596187,-9.225207070852763,-3.88935523890182,14.427526707145999
594,1790651443.9550576,0.9112570312500001,-0.83394580078125,-0.34129028320312504,1.2815358102886214,10.4126360231536,-9.246034528410588,-3.897904201106857,14.460491022515221
595,1790651443.9750576,0.8729367187500001,-0.80041552734375,-0.30296997070312504,1.2224869465572394,10.43138033755837,-9.262380997694768,-3.9045739860918522,14.48623814197881
596,1790651443.9996154,0.9447873046875,-0.78604541015625,-0.298179931640625,1.264674546893226,10.45429189369029,-9.282363953008938,-3.9126425190997094,14.51768821255179
597,1790651444.0196154,1.035798046875,-0.82436572265625,-0.34129028320312504,1.3670901565037674,10.473123131961477,-9.298612627228545,-3.919187108553394,14.54340168324907
598,1790651444.0299177,1.0262179687500002,-0.81478564453125,-0.34129028320312504,1.3540598300401834,10.482961623187803,-9.306993610893484,-3.92258005800551,14.556759556230324
599,1790651444.0499177,0.8968869140625001,-0.78604541015625,-0.298179931640625,1.229302564496418,10.502080915324576,-9.323224438309236,-3.9291380176854878,14.58267269882763
600,1790651444.0751574,0.8585666015625001,-0.74293505859375,-0.29338989257812503,1.1726750358361362,10.525912995497645,-9.343529387023032,-3.937292494447127,14.615014812916849
601,1790651444.0951574,0.9878976562500001,-0.79562548828125,-0.346080322265625,1.3148130233179545,10.544734578909699,-9.359513446688814,-3.9437440755299757,14.640527197873729
602,1790651444.1350157,1.0884884765625,-0.88184619140625,-0.355660400390625,1.4453214830317442,10.582825083829595,-9.39160473483365,-3.9567706986483175,14.691986271841007
603,1790651444.1550157,0.9543673828125001,-0.86268603515625,-0.31255004882812504,1.323907787443089,10.602135348506124,-9.407908788138354,-3.963328999266737,14.71808406248594
604,1790651444.149549,0.8681466796875,-0.78125537109375,-0.30296997070312504,1.2065775629702038,10.602135348506124,-9.407908788138354,-3.963328999266737,14.71808406248594
605,1790651444.169549,0.8920968750000001,-0.78125537109375,-0.298179931640625,1.2227461146455574,10.621051080762529,-9.424128253823136,-3.969753882733579,14.743807693203026
606,1790651444.1950579,1.016637890625,-0.81478564453125,-0.360450439453125,1.3517961260821119,10.645209890989124,-9.444765729658206,-3.9779793510154406,14.776617103669027
607,1790651444.2150578,1.0214279296875002,-0.85310595703125,-0.384400634765625,1.3852323406115357,10.664367237864642,-9.461021078986107,-3.984578357788337,14.802584677360079
608,1790651444.2401285,0.9256271484375,-0.84352587890625,-0.34129028320312504,1.297998684020122,10.688440522524656,-9.48153140172938,-3.992974145041137,14.835297133812134
609,1790651444.2601285,0.8681466796875,-0.83873583984375,-0.298179931640625,1.243409722546852,10.70745485667551,-9.497962485318247,-3.999626386880068,14.8612883733169
610,1790651444.269612,0.9926876953125001,-0.85789599609375,-0.355660400390625,1.3593780640221285,10.716442181158833,-9.505791832532246,-4.0027726444583225,14.873614228854429
611,1790651444.289612,0.9926876953125001,-0.86268603515625,-0.350870361328125,1.3611634972100093,10.735530659394131,-9.52240736453859,-4.00947232994714,14.899789559575058
612,1790651444.3147388,0.8968869140625001,-0.79562548828125,-0.33171020507812504,1.2439685343176103,10.759475877555891,-9.543275943287513,-4.017913152050321,14.932650902865714
613,1790651444.3347387,0.8777267578125001,-0.75730517578125,-0.307760009765625,1.1994297037576027,10.778338426379456,-9.559724404112691,-4.024583168615683,14.958548712935368
614,1790651444.3599741,0.9495773437500001,-0.80520556640625,-0.326920166015625,1.2872179034190752,10.8020270840275,-9.580322774798042,-4.032938033629708,14.991029410166426
615,1790651444.3799741,0.9591574218750001,-0.83873583984375,-0.350870361328125,1.3215788964094526,10.820848185478106,-9.596664896798307,-4.0395830218720015,15.016822686081174
616,1790651444.389544,0.9783175781250001,-0.81957568359375,-0.360450439453125,1.3261727278557944,10.829893717685458,-9.604501810274492,-4.042796218629376,15.029213360162696
617,1790651444.409544,0.9543673828125001,-0.86268603515625,-0.336500244140625,1.3297656601584702,10.848861266429354,-9.620946728767299,-4.049549580818904,15.055207024266384
618,1790651444.4353817,0.9639474609375001,-0.8674760742187501,-0.350870361328125,1.343435691519455,10.873406919347548,-9.642357670419052,-4.0582974621701755,15.088930305673136
619,1790651444.4553816,0.9783175781250001,-0.85310595703125,-0.33171020507812504,1.3397487517230768,10.89247021718841,-9.659025949201357,-4.0650770329114545,15.115142771511817
620,1790651444.4801435,0.9639474609375001,-0.82436572265625,-0.317340087890625,1.3074701845628618,10.916139161486134,-9.679682658290957,-4.073417113462578,15.147642639645275
621,1790651444.5001435,0.9735275390625001,-0.81957568359375,-0.336500244140625,1.3163178129760116,10.935294989467714,-9.696330173820776,-4.080123651220205,15.173888900201932
622,1790651444.5105772,1.0693283203125001,-0.8674760742187501,-0.33171020507812504,1.4163366323432076,10.945387875071992,-9.705032368720387,-4.083620433475094,15.187663574703606
623,1790651444.5305772,1.035798046875,-0.8866362304687501,-0.298179931640625,1.3956764204940584,10.964990286064781,-9.7218423535783,-4.090262708819246,15.214318247903229
624,1790651444.5554693,0.9639474609375001,-0.80520556640625,-0.30296997070312504,1.292029997626725,10.989461307542674,-9.742784398260966,-4.0984119618204415,15.24752728378499
625,1790651444.5754693,0.9543673828125001,-0.78604541015625,-0.350870361328125,1.2852215757069352,11.009051192097319,-9.759473582743196,-4.104958230713842,15.274070015499701
626,1790651444.6005685,1.0070578125,-0.84352587890625,-0.370030517578125,1.364779810094281,11.033640396484817,-9.780343854451534,-4.113298325543559,15.307369774888466
627,1790651444.6205685,1.0118478515625,-0.8866362304687501,-0.39398071289062503,1.401849022548893,11.053323258422632,-9.797074732341093,-4.1200931683158535,15.334073042798053
628,1790651444.6445374,0.9352072265625001,-0.87705615234375,-0.365240478515625,1.3331318982475324,11.076873972934658,-9.817288692008729,-4.128379772827097,15.366190608710006
629,1790651444.6645374,0.8585666015625001,-0.82915576171875,-0.317340087890625,1.235046807976285,11.09626799171802,-9.834184772357824,-4.13528092269913,15.392819812839354
630,1790651444.6751645,0.9399972656250001,-0.80520556640625,-0.32213012695312504,1.2789521813754112,11.10646079058248,-9.843118505257205,-4.138907497196835,15.406849401212273
631,1790651444.6951644,1.0262179687500002,-0.78604541015625,-0.350870361328125,1.3394404490949243,11.125715455936056,-9.85979660620405,-4.145718401495437,15.433214654979217
632,1790651444.720351,0.9447873046875,-0.82436572265625,-0.307760009765625,1.2910918322877618,11.15004941653176,-9.880691378885574,-4.154253136846515,15.466398521985752
633,1790651444.740351,0.825036328125,-0.74293505859375,-0.264649658203125,1.1413487134091458,11.169128674494203,-9.897145527985684,-4.160872381807663,15.492442800514883
634,1790651444.7649658,0.8441964843750001,-0.7668852539062501,-0.30296997070312504,1.1800726672700355,11.19216965621332,-9.917146010214609,-4.168844864341068,15.523972239872133
635,1790651444.7849658,0.9926876953125001,-0.84831591796875,-0.355660400390625,1.3533525326056126,11.210838013539291,-9.933381951449281,-4.175338927776626,15.549547296336405
636,1790651444.795386,1.0310080078125001,-0.9249565429687501,-0.374820556640625,1.4349259800542289,11.220687126401645,-9.941958122668083,-4.17878580403045,15.563052454369224
637,1790651444.815386,0.9064669921875,-0.8866362304687501,-0.326920166015625,1.3094590516900373,11.239661433858881,-9.958666897010298,-4.185461737274775,15.589199000191593
638,1790651444.8553452,0.8154562500000001,-0.82915576171875,-0.29338989257812503,1.199393931084557,11.277045379232963,-9.992184986612902,-4.19865828801033,15.641107528287428
639,1790651444.8753452,0.9447873046875,-0.79562548828125,-0.336500244140625,1.2801856830195175,11.295590129224841,-10.008881878329632,-4.205217378653819,15.666905438647706
640,1790651444.8849173,1.0884884765625,-0.85310595703125,-0.42272094726562504,1.4461292946305682,11.304594042232923,-10.016857995891039,-4.208430739530088,15.679355211836873
641,1790651444.9049172,0.9878976562500001,-0.9057963867187501,-0.39398071289062503,1.3970073999613573,11.323699624479744,-10.033661981743895,-4.215362739937821,15.70572599336279
642,1790651444.9151647,0.8489865234375001,-0.9057963867187501,-0.288599853515625,1.274572511323101,11.333432202519205,-10.04237273551279,-4.218906354058351,15.71925909425708
643,1790651444.9351647,0.8920968750000001,-0.80999560546875,-0.255069580078125,1.2316615630702632,11.352189633395119,-10.059397079408654,-4.225600517117798,15.745455814426116
644,1790651444.9604156,1.035798046875,-0.77646533203125,-0.30296997070312504,1.329498705867861,11.37597053024483,-10.08067147441125,-4.233841282643285,15.77840470030548
645,1790651444.9804156,1.0310080078125001,-0.78125537109375,-0.336500244140625,1.336626305794942,11.395081043859316,-10.097330877468641,-4.240348519609937,15.804572705801373
646,1790651445.0055614,0.9735275390625001,-0.85789599609375,-0.350870361328125,1.34419173479281,11.41928479637227,-10.118226047460219,-4.248599113763503,15.837586875456543
647,1790651445.0255613,0.9687375000000001,-0.89621630859375,-0.355660400390625,1.3668029616962636,11.43856131762378,-10.134983548117,-4.255236784289963,15.863972284015619
648,1790651445.0353024,0.9304171875000001,-0.92016650390625,-0.32213012695312504,1.347646228205792,11.447929200680058,-10.143248095793352,-4.258479932142331,15.876876778795555
649,1790651445.0553024,0.9639474609375001,-0.87226611328125,-0.336500244140625,1.3428608617922155,11.467119451464333,-10.160359922256896,-4.265127775810374,15.903429102176203
650,1790651445.079695,0.9974777343750001,-0.85789599609375,-0.350870361328125,1.3616377569478968,11.490602049330619,-10.181264762105725,-4.273277013850018,15.935902360684684
651,1790651445.099695,0.9878976562500001,-0.86268603515625,-0.346080322265625,1.3564440880247637,11.509945880507152,-10.198414881896888,-4.2800019026147496,15.962610581038597
652,1790651445.1249304,0.9639474609375001,-0.87226611328125,-0.34129028320312504,1.3440691712986728,11.534386429744895,-10.220092158408283,-4.288515343261994,15.99636577121301
653,1790651445.1449304,0.8920968750000001,-0.80999560546875,-0.326920166015625,1.2485217299715439,11.55363501176985,-10.237218572008699,-4.295252786798633,16.02299355859495
654,1790651445.170062,0.8873068359375,-0.80999560546875,-0.33171020507812504,1.2463699138430278,11.577548349227843,-10.258564751764741,-4.303690476955846,16.05613677901066
655,1790651445.190062,0.9447873046875,-0.87226611328125,-0.355660400390625,1.3341534933745327,11.596472325898786,-10.275527462586812,-4.310429087758272,16.08242624607073
656,1790651445.200123,1.0310080078125001,-0.89621630859375,-0.365240478515625,1.4140656954714765,11.6060549942597,-10.284115071922196,-4.313854452448796,16.095740914267665
657,1790651445.220123,0.9783175781250001,-0.85789599609375,-0.317340087890625,1.3393265304489725,11.625260689529998,-10.301256609376427,-4.320666116370756,16.122367367136484
658,1790651445.2455454,0.9208371093750001,-0.81957568359375,-0.317340087890625,1.2729296973999382,11.649632558815751,-10.322975581354525,-4.32923590927266,16.156114853726365
659,1790651445.2655454,0.9735275390625001,-0.84352587890625,-0.355660400390625,1.3363330790277057,11.668771637828602,-10.339993766481777,-4.335976052678355,16.182595309655227
660,1790651445.290144,1.0118478515625,-0.84352587890625,-0.355660400390625,1.3645022182108126,11.692443232911987,-10.360897715478838,-4.3443347899628,16.2152605588922
661,1790651445.310144,0.9399972656250001,-0.83394580078125,-0.31255004882812504,1.2948930423187934,11.711730333591376,-10.377860548293032,-4.351113791447436,16.241822810039068
662,1790651445.3202443,0.8968869140625001,-0.84352587890625,-0.29338989257812503,1.2657091585621556,11.721401118394175,-10.386412844810192,-4.354482801757335,16.255163377583465
663,1790651445.3402443,0.9974777343750001,-0.89142626953125,-0.326920166015625,1.377127234329482,11.74051961799335,-10.40340969161114,-4.361083667219024,16.281578082743696
664,1790651445.3654928,1.0645382812500002,-0.87226611328125,-0.360450439453125,1.422678615825596,11.764939696112757,-10.424988184239389,-4.369468446813737,16.315221089596104
665,1790651445.3854928,1.035798046875,-0.82915576171875,-0.365240478515625,1.3761458782584746,11.784532381473438,-10.442069242075222,-4.376202504134826,16.342067245715437
666,1790651445.4099932,0.9208371093750001,-0.80041552734375,-0.34129028320312504,1.2669195143433336,11.808528964077679,-10.462849561594407,-4.384512723790159,16.374874932929888
667,1790651445.4299932,0.9016769531250001,-0.82436572265625,-0.326920166015625,1.2647043003939809,11.827913155182472,-10.47970549684363,-4.391281220784688,16.401436146482094
668,1790651445.440166,0.9543673828125001,-0.83873583984375,-0.346080322265625,1.3168395877532924,11.837709931789433,-10.488261983183712,-4.394721029947971,16.41488924081274
669,1790651445.460166,1.016637890625,-0.85310595703125,-0.370030517578125,1.3777753657675076,11.857037969224749,-10.505098609146353,-4.401543509066112,16.441412088191452
670,1790651445.4848773,0.9926876953125001,-0.83394580078125,-0.350870361328125,1.3431323350750113,11.881060925227404,-10.525907712401416,-4.4100447939335705,16.47430839105113
671,1790651445.5048773,0.9160470703125001,-0.80999560546875,-0.355660400390625,1.2734714116590216,11.90045041937125,-10.54268907335699,-4.416952977972342,16.50086321048123
672,1790651445.5302212,0.9543673828125001,-0.86268603515625,-0.346080322265625,1.3322221609361822,11.92489043371806,-10.563943975276079,-4.425727760657674,16.534418356277556
673,1790651445.5502212,1.016637890625,-0.87226611328125,-0.360450439453125,1.3872005234771139,11.944240624481033,-10.580803601365192,-4.43267343732568,16.561004883404216
674,1790651445.560278,1.045378125,-0.87226611328125,-0.370030517578125,1.4108813488548317,11.954066406601967,-10.58932542348524,-4.436193069102121,16.574478137313108
675,1790651445.580278,0.9399972656250001,-0.85310595703125,-0.29338989257812503,1.302866939626486,11.973654047586695,-10.60631883543956,-4.443137812492957,16.60132115559162
676,1790651445.6053793,0.9399972656250001,-0.80520556640625,-0.317340087890625,1.2777541214711523,11.998089658751049,-10.627569551299128,-4.451696309029615,16.634812594524686
677,1790651445.6253793,1.0597482421875002,-0.86268603515625,-0.360450439453125,1.4132296527369705,12.017638335504968,-10.644463471628514,-4.458509250933413,16.66152869644593
678,1790651445.6504915,1.1076486328125001,-0.89142626953125,-0.360450439453125,1.466782467540348,12.0425841025206,-10.665797518565196,-4.467138235223481,16.695460238816686
679,1790651445.6704915,1.0262179687500002,-0.8674760742187501,-0.346080322265625,1.387591311657301,12.062672246705342,-10.682878218058262,-4.474039528624889,16.722708466543242
680,1790651445.6800578,0.9783175781250001,-0.80520556640625,-0.374820556640625,1.3213446702205913,12.072277652303969,-10.691022795338203,-4.477362603642081,16.73572920458656
681,1790651445.7000577,1.0693283203125001,-0.85310595703125,-0.41314086914062503,1.428964033241855,12.0924185827808,-10.70798373269279,-4.484449876880119,16.76298879970532
682,1790651445.725952,1.0836984375,-0.89621630859375,-0.336500244140625,1.4459731634909583,12.118765050740976,-10.730046589173373,-4.4937052925947825,16.798564028439642
683,1790651445.745952,0.9926876953125001,-0.82915576171875,-0.30296997070312504,1.3284272433084532,12.139176555737683,-10.747119305810978,-4.500740843424681,16.826076457819198
684,1790651445.770682,1.016637890625,-0.79083544921875,-0.33171020507812504,1.3300394612749065,12.164356584140984,-10.768068027733605,-4.509312634584942,16.859915794346666
