imu_index,t_imu,ax,ay,az,mag,vx,vy,vz,velocity
0,1790995045.0267007,0.0698312557444855,-0.10246926700367646,-0.01249167049632306,0.12462903670859045,0.0,0.0,0.0,0.0
1,1790995045.0467007,0.0842013729319855,-0.011458524816176473,-0.00770163143382306,0.08532575297843369,0.00032008348883323195,-0.00030153971558851046,-4.621678870222468e-05,0.0004421714955295056
2,1790995045.0567436,-0.016389447380514503,-0.0018784466911764726,-0.07476217830882306,0.07656060248515877,0.0005077799316715856,-0.00044028972031312784,-0.00012805643941336624,0.0006841739168493941
3,1790995045.0767436,0.0027707088694854973,-0.09767922794117646,-0.09871237362132307,0.13889939202451332,0.0008050722866920624,-0.000824493156810948,-0.0005268009061398674,0.0012670633556130706
4,1790995045.1019785,0.0554611385569855,-0.08809914981617648,-0.050811982996323064,0.1158415111451369,0.0012341249158130743,-0.001588153848781903,-0.0012374415503447222,0.0023614738079747884
5,1790995045.1219785,0.0363009823069855,0.007701631433823528,-0.01728170955882306,0.04093572924072624,0.001660807227007182,-0.002223204199961774,-0.001818318241854167,0.003317709871080741
6,1790995045.1473806,0.0315109432444855,0.007701631433823528,-0.055602022058823065,0.06437266133949637,0.0022506409835081455,-0.002879451945865555,-0.002584281127567816,0.004476062699683576
7,1790995045.1673806,0.0602511776194855,-0.03540872012867648,-0.06997213924632306,0.09889429779513353,0.0027830221259983264,-0.0033601972765730957,-0.0032852522686964668,0.005461595038105697
8,1790995045.1765373,0.1129416073069855,-0.025828642003676475,-0.03165182674632306,0.12010313711647441,0.003109144354573833,-0.0035893391980637984,-0.003627832943336882,0.005975893770901216
9,1790995045.1965373,0.0363009823069855,0.06039206112132353,0.0018784466911769405,0.07048752318606,0.003938473991140832,-0.0039629101825250064,-0.004308515053366401,0.007055461463202677
10,1790995045.2224302,-0.016389447380514503,-0.030618681066176472,0.04019875919117694,0.05312304449277282,0.0048897794424686974,-0.004316188169506848,-0.004975860518254074,0.00820357307566039
11,1790995045.2424302,0.0027707088694854973,-0.0018784466911764726,0.07372903262867694,0.07380498385591279,0.005493929199423696,-0.004596877827560761,-0.00524311343165877,0.008877205769105537
12,1790995045.267234,0.1033615291819855,0.07955221737132354,0.03061868106617694,0.13397635848822365,0.006328240017124774,-0.0047482754594646934,-0.005330725217381654,0.009539883274785006
13,1790995045.287234,0.012350786994485498,0.08434225643382354,0.06893899356617694,0.10963002779188458,0.00707362499972742,-0.0046061982979829,-0.005241435869705485,0.00993608994390372
14,1790995045.3121564,-0.054709759880514505,0.05560202205882353,0.14557961856617696,0.16516103664329257,0.007783961642966333,-0.004194129175363591,-0.004745887002852293,0.010035149318403266
15,1790995045.3321564,0.017140826056985498,0.05560202205882353,0.09767922794117695,0.11369531365069598,0.008212141306980301,-0.003746243734180173,-0.004042976557751685,0.009890362299138795
16,1790995045.3425353,-0.002019330193014503,0.09392233455882354,0.011458524816176941,0.09464026846100418,0.008412782558906033,-0.0034322893341749024,-0.00364796781904781,0.009790974908850128
17,1790995045.3625352,-0.20799100988051453,0.15619284237132355,0.044988798253676944,0.26397055928163554,0.008426407045307845,-0.0025428763224416544,-0.002916293616545144,0.009272287966966407
18,1790995045.3865933,-0.20799100988051453,0.09871237362132354,0.049778837316176945,0.23554686485203422,0.007689757290716343,-0.0011735376591514703,-0.00199718369995311,0.008031083398827972
19,1790995045.4065933,-0.19362089269301452,0.06997213924632353,0.0018784466911769405,0.2058851109719164,0.006566807133403475,4.709361026465479e-05,-0.0012702346164099386,0.006688697161344101
20,1790995045.4321132,-0.18404081456801452,0.03165182674632353,-0.04602194393382306,0.19233012995026427,0.004626021293058487,0.001565490767009657,-0.0005662797386463743,0.004916452693540782
21,1790995045.4521132,-0.2319412051930145,0.04602194393382353,-0.01249167049632306,0.23679270221361293,0.0027091991522796323,0.002693477837142321,-0.00018511226903601664,0.003824767895969272
22,1790995045.4622722,-0.2990017520680145,0.15619284237132355,0.044988798253676944,0.3403266720609561,0.0014770554160663102,0.0033345686680375155,4.2204675095456e-06,0.0036470616551320203
23,1790995045.4822721,-0.25110136144301454,0.18493307674632353,0.021038602941176942,0.3125616089783157,-0.001409954088899958,0.00491905132355937,0.00042008877001859397,0.00513434621264603
24,1790995045.5072165,-0.1457205020680145,0.08913229549632354,-0.03644186580882306,0.17466264742934143,-0.0052129544305749035,0.007111543021681472,0.0008321481164339186,0.008856715448300316
25,1790995045.5272164,-0.1457205020680145,0.04602194393382353,0.025828642003676943,0.15498258868065254,-0.008241927280674442,0.008808495922465307,0.0010970540030444391,0.012112906059307541
26,1790995045.5522957,-0.19841093175551452,0.05560202205882353,0.10725930606617695,0.23229946499060036,-0.012117707893520091,0.010808374644429238,0.0016297399642346575,0.01631918684855479
27,1790995045.5722957,-0.08824003331801451,0.03644186580882353,0.06414895450367694,0.11501913504937962,-0.015174883974953436,0.012302059248449704,0.002247933584926858,0.01966395104773981
28,1790995045.5815487,-0.06907987706801451,0.02686178768382353,0.00666848575367694,0.07441810099397728,-0.016486306894288916,0.012933387875792787,0.002540186328044103,0.02110742484386867
29,1790995045.6015487,0.0315109432444855,-0.08809914981617648,-0.06518210018382306,0.11403116208679205,-0.018952052654568452,0.014001431127829806,0.002989353031272135,0.02375198107515397
30,1790995045.6272714,-0.059499798943014506,-0.11204934512867647,0.04019875919117694,0.13308351535233295,-0.021701645528709144,0.014782907179730236,0.003432191965292003,0.026481610695440642
31,1790995045.6472714,-0.1265603458180145,-0.04498879825367647,0.09288918887867695,0.1633092603388551,-0.02379792254847448,0.015063822351211141,0.003924492910707689,0.02843697427748306
32,1790995045.671512,0.017140826056985498,-0.021038602941176474,0.054568876378676946,0.060944179384610955,-0.026156481924126677,0.015233187071419303,0.004699756382961566,0.030631670621420727
33,1790995045.6915119,0.0602511776194855,-0.09288918887867646,-0.0029115923713230597,0.11075686518320194,-0.027694463930750892,0.015181071901821067,0.0053209385220428325,0.03202749854820514
34,1790995045.7018898,-0.002019330193014503,-0.12162942325367647,-0.0029115923713230597,0.12168102426256586,-0.028327482771921753,0.01499111726573422,0.005590384993585368,0.03253355623729172
35,1790995045.7218897,-0.1026101505055145,-0.04019875919117647,0.08330911075367695,0.1381491627258122,-0.029521373308419245,0.014437211043901171,0.00615236069816928,0.033433457597167066
36,1790995045.746825,0.007560747931985497,0.012491670496323529,0.04019875919117694,0.042768527933399525,-0.030964353559098254,0.013798393280255295,0.006978891287714084,0.03461057312520506
37,1790995045.766825,0.0794113338694855,-0.030618681066176472,-0.02207174862132306,0.08792511395708284,-0.031817669346137424,0.01333567904066111,0.007569581608202022,0.035320008264705875
38,1790995045.7914357,-0.09303007238051451,-0.030618681066176472,-0.01249167049632306,0.09873266850006998,-0.03273533955585951,0.012738666943393697,0.00812362160031841,0.03605370049297703
39,1790995045.8114357,-0.16967069738051452,-0.04498879825367647,0.044988798253676944,0.18120742116759506,-0.03376327486588246,0.012212867232206373,0.008555072684671327,0.036909377187113845
40,1790995045.8216593,-0.15530058019301451,-0.006668485753676473,0.054568876378676946,0.16474374397762498,-0.034459096338128894,0.011944795496426384,0.008818878191165122,0.037521728004484334
41,1790995045.8416593,-0.016389447380514503,-0.03540872012867648,-0.06518210018382306,0.07596774072567604,-0.03587365237913859,0.01143592648216445,0.009241617693185338,0.038769921938427244
42,1790995045.867579,-0.049919720818014504,-0.04977883731617647,-0.06518210018382306,0.0960136310920112,-0.03756081272195378,0.010709760311815574,0.009453877312518033,0.04018568668705772
43,1790995045.887579,-0.20320097081801453,-0.030618681066176472,0.06893899356617694,0.21675037025466232,-0.039047054245770776,0.010112892254287693,0.009598727740472504,0.04146177286675901
44,1790995045.911774,-0.16009061925551452,-0.03540872012867648,0.07372903262867694,0.1797741752508562,-0.041234573291930275,0.009379326072685391,0.010006563989378173,0.043455645375702866
45,1790995045.931774,-0.0451296817555145,-0.03540872012867648,-0.02207174862132306,0.06146240902948594,-0.04307940928643948,0.008757677985802204,0.010370605835613398,0.045167265730495926
46,1790995045.957509,-0.011599408318014504,-0.04019875919117647,-0.04602194393382306,0.062197313746545135,-0.045206683314032575,0.007931821139157932,0.01063734454526777,0.04711381009654772
47,1790995045.977509,-0.049919720818014504,-0.030618681066176472,0.049778837316176945,0.07685970856912713,-0.046704185446630575,0.00728005489310491,0.010819180738661649,0.048490564126804164
48,1790995045.9870727,-0.0403396426930145,-0.016248563878676472,0.07372903262867694,0.08559949096273889,-0.04737759654242335,0.006981523189136378,0.010981678600465436,0.049132225525219335
49,1790995046.0070727,0.012350786994485498,-0.016248563878676472,0.01624856387867694,0.02608780549647722,-0.048616605655461886,0.006402120750897379,0.011405493900241736,0.05034527571357824
50,1790995046.0321293,0.0602511776194855,-0.025828642003676475,0.00666848575367694,0.06589227461953232,-0.04979959768074453,0.005706037924655135,0.011899884336569848,0.051518599021958655
51,1790995046.0521293,-0.016389447380514503,-0.021038602941176474,0.12641946231617696,0.12920184693519832,-0.05053642181569756,0.005163470476317447,0.012434941832794782,0.052299322516442835
52,1790995046.0773764,-0.0403396426930145,-0.0018784466911764726,0.07851907169117694,0.08829529972663243,-0.05143445442552053,0.0045378999952210885,0.0133971176710169,0.05334396311025878
53,1790995046.0973763,-0.021179486443014504,-0.04019875919117647,0.00666848575367694,0.04592362778295092,-0.0521314179895892,0.0040535600547498924,0.014172774308012408,0.05417548912846644
54,1790995046.1068492,0.017140826056985498,-0.08330911075367647,0.044988798253676944,0.09621958127530078,-0.05241488231892402,0.003770818711132033,0.014521751478841398,0.05451990671554849
55,1790995046.1268492,-0.006809369255514504,-0.030618681066176472,0.10725930606617695,0.11175164373595586,-0.052908090610622134,0.003092519195384652,0.015376398312055263,0.055183904828188815
56,1790995046.1523225,0.007560747931985497,-0.016248563878676472,0.04019875919117694,0.04401273654205889,-0.05344061160662101,0.0022686395217666943,0.016583373819563485,0.05600048197479037
57,1790995046.1723225,-0.049919720818014504,0.012491670496323529,-0.06997213924632306,0.08685689741778746,-0.05385953498920807,0.0017131771066227857,0.017344204982972684,0.05660923892390498
58,1790995046.1972666,-0.006809369255514504,-0.054568876378676474,-0.026861787683823062,0.06120200500359453,-0.05440977472878039,0.001045599899582931,0.01796962285454517,0.05730989627212066
59,1790995046.2172666,-0.006809369255514504,-0.03540872012867648,0.08330911075367695,0.09077749118243628,-0.0548052044818492,0.000455663652257549,0.018480531134872354,0.057838984246685037
60,1790995046.2273567,-0.049919720818014504,0.03165182674632353,0.07372903262867694,0.09449754978457538,-0.055017706919559504,0.00019983811361694336,0.018818463976155754,0.05814742123585595
61,1790995046.2473567,-0.030759564568014503,0.04602194393382353,-0.01249167049632306,0.05674691152521481,-0.055496753249683,-0.00011467031466300766,0.019479674606154292,0.05881632845816643
62,1790995046.272097,-0.002019330193014503,-0.006668485753676473,0.01624856387867694,0.01767942942503663,-0.056061278673065845,-0.0003723449405713445,0.020181889088083067,0.05958451354485998
63,1790995046.292097,0.0554611385569855,-0.021038602941176474,0.03540872012867694,0.069082111757709,-0.05636902006144655,-0.0005909622620821301,0.020741889654866067,0.060066976330905894
64,1790995046.3170319,-0.049919720818014504,0.06039206112132353,0.011458524816176941,0.07918634581790683,-0.05668477938884172,-0.0007490421042739013,0.02142298510930654,0.060602554149385486
65,1790995046.3370318,-0.07386991613051451,0.03165182674632353,0.03061868106617694,0.08600061787999427,-0.05708574151940789,-0.0007187518076053611,0.02195045694775604,0.061164704276215356
66,1790995046.3466275,-0.08344999425551451,0.02686178768382353,0.11683938419117694,0.1460715539623977,-0.05736247860343881,-0.0006642883414057537,0.022271689261356212,0.06153798317368641
67,1790995046.3666275,-0.059499798943014506,0.06997213924632353,0.10246926700367695,0.13760914586333597,-0.05806718092253078,-0.0004225480629398562,0.023169759181608456,0.06252050693723736
68,1790995046.3923614,-0.054709759880514505,0.10829245174632354,0.054568876378676946,0.1330344887637965,-0.05905833920715362,0.00018590066160755744,0.024455063558911014,0.0639216091993434
69,1790995046.4123614,-0.016389447380514503,0.04602194393382353,0.07372903262867694,0.08844548355482693,-0.05981975239050951,0.0008193165223283887,0.025496589198137024,0.06503191613634175
70,1790995046.4519973,-0.011599408318014504,0.11308249080882354,0.09767922794117695,0.14987804232788768,-0.06118557587457327,0.002359291298738157,0.02776061149104992,0.06723014577473767
71,1790995046.4719973,-0.011599408318014504,0.18972311580882353,0.17431985294117694,0.25790854595179635,-0.06180618084829877,0.0034740001957047966,0.02913965732142174,0.06841923923299834
72,1790995046.4675229,-0.049919720818014504,0.21846335018382354,0.21743020450367695,0.31224046459515653,-0.06180618084829877,0.0034740001957047966,0.02913965732142174,0.06841923923299834
73,1790995046.4875228,-0.0451296817555145,0.21367331112132354,0.20785012637867695,0.30148739127289537,-0.062475578724551666,0.005448018995356977,0.031273418668720195,0.07007785358564059
74,1790995046.5116265,0.0027707088694854973,0.17535299862132356,0.22222024356617695,0.28308689055436737,-0.0632378891643702,0.008173486489908984,0.03423672569467515,0.07237395867063183
75,1790995046.5316265,0.007560747931985497,0.22325338924632354,0.26533059512867696,0.34684227745561724,-0.06376003959846392,0.010693632156139408,0.03705803302743568,0.07451841537600636
76,1790995046.5572135,-0.011599408318014504,0.31905417049632356,0.20306008731617695,0.3783695403243746,-0.06433560345688863,0.01447487474341065,0.04102492568724243,0.07766361051768848
77,1790995046.5772135,-0.006809369255514504,0.36216452205882355,0.15036965762867696,0.3921996207075162,-0.0647456195726291,0.01800894853086496,0.044190661897578566,0.0804309149517588
78,1790995046.6024268,-0.025969525505514506,0.38132467830882355,0.22701028262867695,0.44454088109133577,-0.06524696265956134,0.02320186699039957,0.04829657305595375,0.08442779007582435
79,1790995046.6224267,-0.002019330193014503,0.5058656939338235,0.25575051700367696,0.5668443392512845,-0.06562697559765657,0.028033967417497665,0.05178911694173402,0.0881754834909644
80,1790995046.6324742,-0.0403396426930145,0.5298158892463236,0.23659036075367695,0.5816417815735281,-0.06582116729413844,0.030877799490201745,0.053651497803790436,0.09035678049770363
81,1790995046.6524742,-0.021179486443014504,0.5968764361213236,0.24617043887867696,0.6459953061908443,-0.0662420128865364,0.037379521684318746,0.05752673529060659,0.09536539301971146
82,1790995046.6766374,0.1943722713694855,0.6687270220588235,0.19827004825367694,0.7240769447672744,-0.06636032812141354,0.04634997498073173,0.06231180193810262,0.10215074150425661
83,1790995046.6966374,0.32370332605698554,0.7453676470588235,0.17910989200367694,0.8321280706693717,-0.06566645581670433,0.05478225211706754,0.0662443914735501,0.10817346240296688
84,1790995046.7218857,0.1847921932444855,0.8842787798713235,0.14078957950367696,0.9142859623288799,-0.06395899570199091,0.06691646882265859,0.07107003826884908,0.11670268750305968
85,1790995046.7418857,0.1464718807444855,0.7788979204963236,0.21264016544117695,0.8205801742433064,-0.062312446155920104,0.07758134893781155,0.07484934975723685,0.12451558861454291
86,1790995046.752456,0.12252168543198551,0.5681362017463235,0.29407082950367697,0.6513585494186855,-0.06135950364369033,0.08344030504732591,0.07694886486603755,0.12902868284983213
87,1790995046.772456,0.1033615291819855,0.6687270220588235,0.12162942325367694,0.6875122925064852,-0.059488080628065376,0.09471844086483838,0.08094902310329695,0.1380693996440022
88,1790995046.7975445,0.0650412166819855,0.6208266314338236,-0.01249167049632306,0.6243493477186712,-0.057175775474625996,0.10917039207048361,0.08541960725232053,0.14994583391708036
89,1790995046.8175445,0.0650412166819855,0.42922506893382356,-0.10350241268382307,0.4462928064624065,-0.05541383558566561,0.12053810058726686,0.08827488112196233,0.1593504989154343
90,1790995046.8416936,0.0842013729319855,0.29031393612132356,-0.19451315487132306,0.35945433663802495,-0.05333517779574154,0.13350846785868134,0.09066560370597723,0.16996883207178082
91,1790995046.8616936,-0.03554960363051451,0.13224264705882355,-0.15619284237132305,0.20772119782883075,-0.051798914521323805,0.14327288288888823,0.09182251109635309,0.17788091539263107
92,1790995046.8714566,-0.16009061925551452,0.15140280330882355,-0.11308249080882307,0.24766805395713026,-0.0513047285745593,0.14753210440518919,0.09210537418393921,0.18133200753837225
93,1790995046.8914566,-0.1169802676930145,0.18972311580882353,-0.18014303768382306,0.2865846432167866,-0.05085982533915614,0.15546023025952999,0.09215807617782584,0.18774375097636006
94,1790995046.9165187,0.0889914119944855,0.09392233455882354,-0.18014303768382306,0.22179357601992697,-0.05043855071689473,0.16443794697683978,0.0915369971614911,0.19484072380722045
95,1790995046.9365187,0.041091021369485496,0.10350241268382354,-0.06039206112132306,0.12668236860369186,-0.049957670422337404,0.170823802349371,0.0907549077399453,0.19978236549307807
96,1790995046.9618917,-0.03554960363051451,0.24241354549632355,-0.04602194393382306,0.24929123667275746,-0.0494285666553729,0.1783682760980042,0.0897090364023501,0.2056845554046698
97,1790995046.9818916,0.041091021369485496,0.22804342830882354,-0.08913229549632307,0.24826768483327208,-0.049065753222994654,0.18412878381844008,0.0888055679024249,0.21023150586976694
98,1790995046.9924245,0.0027707088694854973,0.20888327205882354,-0.02207174862132306,0.210064419311893,-0.04886869175208085,0.18705261315352759,0.08831328590012406,0.212546619798105
99,1790995047.0124245,0.0746212948069855,0.28552389705882353,-0.055602022058823065,0.30030620754050114,-0.04843454749966132,0.19251327103965823,0.08740223434298797,0.21690185680632715
100,1790995047.0368013,0.23269258386948552,0.20888327205882354,-0.19930319393382306,0.3708096857500909,-0.047422915003515136,0.19907451793138528,0.08599233426228522,0.22197810276899083
101,1790995047.0568013,0.41471406824448553,0.22325338924632354,-0.30947409237132306,0.5635637036386538,-0.04574631190745484,0.20429841616735409,0.08424593047016592,0.22567220631351037
102,1790995047.081983,0.2710128963694855,0.17535299862132356,-0.20409323299632307,0.38190406109251945,-0.042656880827752826,0.21064199032436187,0.08140694318971525,0.22981894606244976
103,1790995047.101983,0.1800021541819855,0.07476217830882353,-0.09392233455882307,0.2163598015912732,-0.0398947121141207,0.21529965186730382,0.07904334580951163,0.2327947135688713
104,1790995047.1117542,0.32370332605698554,-0.021038602941176474,-0.15619284237132305,0.36003148490389636,-0.038378527299651626,0.21727322109633532,0.07787851609419882,0.23397783491668928
105,1790995047.1317542,0.39555391199448553,-0.054568876378676474,-0.2567836626838231,0.4747404648696927,-0.03466175170104925,0.22059346794355786,0.07523245627372442,0.23563284492474418
106,1790995047.1722183,0.4195041073069855,-0.09288918887867646,-0.4052748736213231,0.5906435648060078,-0.02579635852186304,0.22585588373640386,0.06867272829745515,0.23747057911066916
107,1790995047.1922183,0.5200949276194855,-0.3611313763786765,-0.4148549517463231,0.7569803403848209,-0.020662392960038314,0.227385723031214,0.06468663268354696,0.23730900102861485
108,1790995047.20136,0.45303438074448554,-0.4856723920036765,-0.31905417049632306,0.736826564533479,-0.018000531772997007,0.2273995082275449,0.06263475977910875,0.2365537330477509
109,1790995047.22136,0.42429414636948554,-0.4521421185661765,-0.21846335018382307,0.6574072203729288,-0.011734511434033893,0.2260184229187155,0.058012796947491084,0.23363970310486537
110,1790995047.2322834,0.5488351619944856,-0.5287827435661765,-0.3813246783088231,0.8521970049361904,-0.008028307008012277,0.22457363535263783,0.055375698207663,0.23143949395230845
111,1790995047.2522833,0.5392550838694855,-0.7539145795036766,-0.5872963579963231,1.0973150189362382,-0.0006282348159387351,0.22040107906083892,0.04981867088596001,0.22596223201900295
112,1790995047.277493,0.40513399011948553,-0.9071958295036766,-0.5010756548713231,1.1127509312167412,0.009085869764032308,0.21278985021870028,0.04180699419509876,0.2170481470759308
113,1790995047.297493,0.4290841854319855,-1.0413169232536765,-0.3142641314338231,1.169280170510126,0.016887842913794415,0.2047344982044269,0.035181360449046656,0.20842058947317377
114,1790995047.3371322,0.4578244198069855,-1.0269468060661766,-0.42922506893382306,1.2035186336996904,0.0326683141673972,0.18501506645046253,0.021809009467297913,0.1891386434818478
115,1790995047.3571322,0.3476535213694855,-0.9646762982536766,-0.5154457720588231,1.1476705429984408,0.04064426292087628,0.17357060907270086,0.014657036349214388,0.17886738427335447
116,1790995047.3671813,0.2710128963694855,-0.8640854779411766,-0.4340151079963231,1.004221498055319,0.04451696806081011,0.1673045196322015,0.010886926671630966,0.1734678296026164
117,1790995047.3871813,0.3907638729319855,-0.9119858685661766,-0.42922506893382306,1.0810406045354881,0.052061054172830884,0.15404012565670466,0.003214205595707547,0.1626316229751498
118,1790995047.3964796,0.4290841854319855,-1.0029966107536765,-0.4148549517463231,1.1671418381497753,0.05561406087583855,0.14746285378188456,-0.00040653371461205155,0.15760197423338343
119,1790995047.4164796,0.3716037166819855,-0.9263559857536766,-0.2567836626838231,1.0306127226144894,0.0633109990770836,0.13254370266714904,-0.00803373265284615,0.14710763603971583
120,1790995047.4422169,0.3668136776194855,-0.7012241498161765,-0.15619284237132305,0.8066373326236422,0.07315554917535806,0.11308289072563885,-0.01717380207304385,0.135773392193239
121,1790995047.4622169,0.29496309168198553,-0.4665122357536765,-0.26157370174632305,0.6107844898225262,0.08065073251289756,0.09847703844352763,-0.023837647066267446,0.12950096977679704
122,1790995047.4873738,0.3668136776194855,-0.4808823529411765,-0.2663637408088231,0.6608704516595094,0.08991299864528982,0.0810733449652481,-0.03195854470299292,0.12521414923552052
123,1790995047.5073738,0.5967355526194855,-0.6006333295036765,-0.18014303768382306,0.8656241853695575,0.09761735564983433,0.06769041776626013,-0.038116051836923195,0.12475565794412727
124,1790995047.5172656,0.6350558651194855,-0.5671030560661765,-0.07476217830882306,0.8546877858772379,0.10177010790510635,0.06119791747275914,-0.04089377541521298,0.12559713704431924
125,1790995047.5372655,0.5057248104319855,-0.4425620404411765,-0.11787252987132306,0.6822848941785177,0.11061820778215631,0.048525393899356506,-0.04595652994662418,0.1292404905235158
126,1790995047.5619957,0.6254757869944856,-0.5335727826286765,-0.16577292049632306,0.8386897731869396,0.12201597986061874,0.03339563030000651,-0.051803756598699305,0.1366996586031542
127,1790995047.5819957,0.6781662166819855,-0.5910532513786765,-0.13703268612132308,0.9099622632173752,0.13180647254867983,0.021308223863504713,-0.056277452328727856,0.14489354109329844
128,1790995047.6068504,0.6542160213694855,-0.6054233685661765,-0.17535299862132306,0.90845183248647,0.14463209859016926,0.006309654163561076,-0.06158544275983139,0.1573245767138264
129,1790995047.6268504,0.5679953182444856,-0.6006333295036765,-0.18493307674632306,0.8471005376773102,0.15523783055175278,-0.005758086544230488,-0.06575640789064138,0.16868860297526314
130,1790995047.636401,0.6829562557444855,-0.5479428998161765,-0.09871237362132307,0.8811440298983153,0.16043874136907635,-0.011479095505864054,-0.06765257448519676,0.17449707791307342
131,1790995047.656401,0.8506076229319856,-0.4904624310661765,-0.04123190487132306,0.982744521458484,0.17199668807131485,-0.023220077973905302,-0.07123766061407845,0.1876082008292336
132,1790995047.6821644,0.8410275448069855,-0.5048325482536765,-0.13224264705882308,0.9897834867290376,0.18792074983837187,-0.037999042163594274,-0.07549835023249377,0.20605372191007582
133,1790995047.7021644,0.7500168026194856,-0.5958432904411765,-0.22804342830882307,0.9846614830337205,0.2008147633578209,-0.04940191406868599,-0.07885018340104609,0.2213243541015901
134,1790995047.7422163,0.6733761776194855,-0.5527329388786765,-0.18972311580882306,0.8915963430718498,0.227038792034001,-0.07226218740112347,-0.08581063077143766,0.25324277120906225
135,1790995047.7622163,0.6111056698069856,-0.39466164981617646,-0.17535299862132306,0.7483025000835962,0.24009626205452833,-0.08338628617612474,-0.0893125957208895,0.2693997541372419
136,1790995047.7572596,0.6111056698069856,-0.40424172794117647,-0.22325338924632307,0.7659657891114217,0.24009626205452833,-0.08338628617612474,-0.0893125957208895,0.2693997541372419
137,1790995047.7772596,0.5871554744944856,-0.4377720013786765,-0.29031393612132306,0.7878312369576318,0.2528859921185638,-0.09370506776575889,-0.09312133831010785,0.2853130708247369
138,1790995047.8018863,0.5440451229319855,-0.4473520795036765,-0.28073385799632306,0.7582351072377502,0.2683615311730617,-0.10613991593852296,-0.09816243768716082,0.3048269301450786
139,1790995047.8218863,0.4578244198069855,-0.4617221966911765,-0.24241354549632307,0.6939415777491836,0.2805471934115025,-0.1160873778777566,-0.10242705980788483,0.32042832211665073
140,1790995047.8475206,0.41471406824448553,-0.4186118451286765,-0.17535299862132306,0.6147945261690417,0.2955004821987356,-0.12861722825478378,-0.10787637394469402,0.33985326015662093
141,1790995047.8675206,0.4913546932444855,-0.3515512982536765,-0.12266256893382306,0.6164931919288912,0.3067762105234165,-0.13808193795211796,-0.11193723818770829,0.35455353647201415
142,1790995047.876559,0.5200949276194855,-0.30365090762867647,-0.22325338924632307,0.6422964138536095,0.31179325102492067,-0.14216180957357422,-0.11373164668420857,0.36105387263319033
143,1790995047.896559,0.4290841854319855,-0.3276011029411765,-0.18493307674632306,0.5706452170227726,0.32265332908801303,-0.15078232145855655,-0.11771894264092837,0.3750976255490126
144,1790995047.9218707,0.4865646541819855,-0.3563413373161765,-0.15619284237132305,0.6229931904824877,0.336074290976285,-0.16135420672562317,-0.12265585680963582,0.3924609130766702
145,1790995047.9418707,0.4961447323069855,-0.28449075137867647,-0.17056295955882306,0.596813460127567,0.3465622112079642,-0.16941579955854627,-0.12646174650592132,0.4059552348556957
146,1790995047.9670067,0.3907638729319855,-0.3515512982536765,-0.09871237362132307,0.5348166530677649,0.35943825432537807,-0.17922691027664786,-0.13103514298678517,0.422478819276607
147,1790995047.9870067,0.46261445886948555,-0.37550149356617646,-0.06039206112132306,0.5988828852722524,0.3694266503629577,-0.18695294208600283,-0.13436688043924813,0.4352951999643259
148,1790995048.0126262,0.5775753963694855,-0.3994516888786765,-0.13224264705882308,0.7145929666184238,0.3823010027418286,-0.19685432178733347,-0.13836471685927237,0.4517194655705079
149,1790995048.0326262,0.5440451229319855,-0.5000425091911765,-0.21846335018382307,0.7705542434883003,0.39252628885406776,-0.20477368414528513,-0.14154356468155033,0.4648050450056887
150,1790995048.057759,0.3668136776194855,-0.6293735638786766,-0.24720358455882308,0.76926781371432,0.40516535721504016,-0.2153616555376506,-0.14581681476350813,0.48145836043305346
151,1790995048.077759,0.46261445886948555,-0.5575229779411764,-0.2951039751838231,0.7822597807997027,0.4149586113125182,-0.22430374207599915,-0.14952071765451702,0.49483256038748274
152,1790995048.0875866,0.6254757869944856,-0.4665122357536765,-0.28073385799632306,0.829255765882737,0.4198509985947241,-0.22879340570191928,-0.15149217492823536,0.5015687017529673
153,1790995048.1075866,0.5871554744944856,-0.5000425091911765,-0.24241354549632307,0.8084295821326372,0.4301328835781323,-0.23800953761292665,-0.15568715766098332,0.5156562116279743
154,1790995048.1326618,0.5009347713694855,-0.5192026654411764,-0.16577292049632306,0.7402619226585285,0.4431365623254072,-0.2497479738363214,-0.160925389457448,0.533517613839467
155,1790995048.1526618,0.5823654354319855,-0.5192026654411764,-0.07955221737132306,0.7842508931941375,0.4535774867268783,-0.25926377201121764,-0.16484468908553196,0.5478357522676498
156,1790995048.1617227,0.5584152401194855,-0.4521421185661765,-0.03165182674632306,0.7192092281913465,0.45837338399796346,-0.26358827267536605,-0.1664295303617782,0.5543317826231594
157,1790995048.1817226,0.5200949276194855,-0.3898716107536765,-0.12745260799632308,0.6623766103148937,0.46898920956102685,-0.27296491966471553,-0.16964166578861525,0.5685411338010449
158,1790995048.2071002,0.5392550838694855,-0.42340188419117647,-0.17535299862132306,0.7076820438171467,0.48245513326702866,-0.28462597242851806,-0.1736824332847056,0.5864643957038501
159,1790995048.2271001,0.5536252010569855,-0.4617221966911765,-0.16098288143382306,0.7386499429888622,0.4931150560769018,-0.2937652074506336,-0.17689378124979138,0.6006262277682259
160,1790995048.2526734,0.46261445886948555,-0.4760923138786765,-0.18014303768382306,0.6878426730840523,0.5066500873817792,-0.305497038495768,-0.1810383582325868,0.6187064236980248
161,1790995048.2726734,0.3476535213694855,-0.5048325482536765,-0.17535299862132306,0.6375480741264878,0.5168629867538985,-0.31476723404987605,-0.184326735815366,0.6326152892903536
162,1790995048.2826862,0.40513399011948553,-0.4856723920036765,-0.16577292049632306,0.6538286346395272,0.5217743741742774,-0.3194559739676242,-0.185982269178338,0.6394450885707748
163,1790995048.3026862,0.5440451229319855,-0.4090317670036765,-0.13703268612132308,0.694312637987999,0.5315367644442072,-0.3287586378085325,-0.18924726509074366,0.6530146255895535
164,1790995048.342167,0.5248849666819855,-0.38508157169117646,-0.12745260799632308,0.6633522536254475,0.5510825364071292,-0.3467192741108902,-0.19550885674119642,0.6798013901406404
165,1790995048.362167,0.4195041073069855,-0.4904624310661765,-0.13703268612132308,0.6597840930186176,0.560915330201686,-0.3557662570288527,-0.19860176227913987,0.6932808213674789
166,1790995048.3869872,0.4099240291819855,-0.5718930951286765,-0.11787252987132306,0.7134377024344288,0.5728316004609876,-0.36728720301004425,-0.20233887220631863,0.7099133406179678
167,1790995048.4069872,0.5679953182444856,-0.6102134076286765,-0.16098288143382306,0.8490551056982062,0.5824601914652627,-0.3769513082355347,-0.20531678301597714,0.7235379359855718
168,1790995048.401517,0.6446359432444855,-0.7874448529411766,-0.2567836626838231,1.0495535932802946,0.5824601914652627,-0.3769513082355347,-0.20531678301597714,0.7235379359855718
169,1790995048.421517,0.4817746151194855,-0.8688755170036766,-0.26157370174632305,1.027361788888028,0.5926525660759722,-0.3882001150292488,-0.2087785107168576,0.7385965474616745
170,1790995048.4475615,0.41471406824448553,-0.9982065716911765,-0.19930319393382306,1.0991477977413078,0.6056856256975445,-0.4042984404137426,-0.2135105380665902,0.7588801328029976
171,1790995048.4675615,0.44345430261948554,-1.1562778607536766,-0.19930319393382306,1.2543332782371104,0.6154798896636756,-0.41803795428168955,-0.21719716282366275,0.7750779530725145
172,1790995048.4923627,0.3428634823069855,-1.1945981732536766,-0.08434225643382307,1.2456860676996602,0.6272662008773427,-0.4368929986874753,-0.22161067276519347,0.7958955140900537
173,1790995048.5123627,0.28538301355698553,-1.1754380170036767,0.03540872012867694,1.2101040342489373,0.6362874796576248,-0.45337221243693654,-0.2247093069909605,0.8129590349011275
174,1790995048.5219014,0.1081515682444855,-1.1035874310661766,0.06414895450367694,1.110728170204078,0.6402261773905675,-0.4616831829313192,-0.22589424827933582,0.8210171319914211
175,1790995048.5419014,0.1416818416819855,-1.0365268841911766,-0.0029115923713230597,1.0461692995321572,0.6476205571801059,-0.47970533795187575,-0.22791421963775413,0.8375407386240269
176,1790995048.5674417,0.3811837948069855,-1.0221567670036766,-0.01728170955882306,1.0910564601523323,0.6566484678806778,-0.5032112371478995,-0.23014551064994693,0.8587058376617023
177,1790995048.5874417,0.32370332605698554,-0.8640854779411766,0.03540872012867694,0.9234074582492485,0.6637148900023191,-0.5216864239714262,-0.23160349590188745,0.8753938310731124
178,1790995048.6123137,0.1704220760569855,-0.5048325482536765,0.044988798253676944,0.5347182227605336,0.6721062926106252,-0.5437694606134601,-0.23299470534413882,0.8953762491718522
179,1790995048.6323137,0.0219308651194855,-0.3084409466911765,0.12641946231617696,0.33406385750773687,0.6781303210169837,-0.5600830609913617,-0.2336884808048332,0.9100352045678901
180,1790995048.6418562,-0.021179486443014504,-0.23659036075367648,0.15515969669117693,0.283721872482265,0.6805739345606368,-0.5670891964450068,-0.23376832307189324,0.9161979404036196
181,1790995048.6618562,0.1560519588694855,-0.21264016544117648,0.07851907169117694,0.2751968358195615,0.6851295616068327,-0.5802445321189732,-0.23356004493859905,0.9277049788770443
182,1790995048.6869211,0.2997531307444855,-0.21743020450367648,0.03061868106617694,0.3715714424600785,0.6908393490054439,-0.5950668773947497,-0.2331330094423528,0.9411241123243266
183,1790995048.706921,0.11773164636948551,-0.030618681066176472,0.18868997012867694,0.22450422939059037,0.6953381670498032,-0.6054920195914507,-0.23251441532591777,0.9508831188318926
184,1790995048.7325988,0.0267209041819855,0.14182272518382355,0.19827004825367694,0.24523193946422348,0.700525928835527,-0.6166548434977349,-0.23109412433884843,0.9614594465103731
185,1790995048.7525988,-0.1361404239430145,0.23283346737132354,0.025828642003676943,0.2709478867001753,0.7037963725757692,-0.6234832399609355,-0.22981766882199448,0.9679239874420782
186,1790995048.7769356,-0.5911941348805145,0.5872963579963235,-0.07955221737132306,0.8371117443457355,0.705851468128197,-0.6290490059939535,-0.22859547049732112,0.9727203278088742
187,1790995048.7969356,-0.46186308019301453,0.7932680376838235,-0.06518210018382306,0.920239311614374,0.7057074287362135,-0.6308660132898896,-0.22795883014895216,0.97364271164562
188,1790995048.807765,-0.2319412051930145,0.8411684283088235,-0.07955221737132306,0.876178978713036,0.7050776204729947,-0.6303747911079928,-0.22778336961484102,0.9728268559355242
189,1790995048.827765,-0.5049734317555146,0.9561293658088235,-0.08913229549632307,1.0849544216423879,0.7029835814907822,-0.6269077302524126,-0.22776095957003611,0.969058446534626
190,1790995048.8521433,-0.7253152286305146,1.1573110064338235,-0.15619284237132305,1.3747171165386127,0.6985645663228857,-0.6194514260470527,-0.22818628672972527,0.9611355284272395
191,1790995048.8721433,-0.8163259708180145,1.3584926470588237,-0.26157370174632305,1.6063346986821079,0.6931705470183583,-0.6104781387927394,-0.22910953394339223,0.9516617801200885
192,1790995048.89679,-0.2894216739430145,1.6075746783088236,-0.34779440487132307,1.6700365863499795,0.6854763929527247,-0.5955959297609731,-0.23120304572529737,0.9370524239315375
193,1790995048.91679,0.6877462948069856,1.6411049517463236,-0.5968764361213231,1.876827618260114,0.6807668734641383,-0.580457982688623,-0.2340640403422839,0.9247491447167919
194,1790995048.942152,0.7452267635569856,1.4974037798713238,-0.7788979204963231,1.8450644920023918,0.6784162765430324,-0.558171073684004,-0.23976479897846817,0.9106540235485984
195,1790995048.962152,0.4913546932444855,1.4734535845588237,-0.572926240808823,1.6555178579012546,0.6786955580357994,-0.5387760303108408,-0.2456137125292343,0.9006849433167108
196,1790995048.9727092,0.4003439510569855,1.4399233111213237,-0.4531752642463231,1.561736930850788,0.6795269025306657,-0.527767078264635,-0.24905046008178303,0.895723747496882
197,1790995048.9927092,1.4589425838694856,1.1285707720588236,-0.6064565142463231,1.9416423342740086,0.6836545252390859,-0.5061868699774986,-0.25617402444540793,0.8883883092533655
198,1790995049.017637,2.0529074276194854,0.9752895220588235,-0.5298158892463231,2.3337359393707877,0.6945931889625506,-0.47939069146438346,-0.2658453391225262,0.8848439848634538
199,1790995049.037637,1.7990353573069855,1.1285707720588236,-0.6543569048713231,2.2222473227206057,0.7078309095309935,-0.4579607842285041,-0.274217117805269,0.8865369163639429
200,1790995049.0468626,1.7319748104319856,0.8124281939338235,-0.8220082720588231,2.0821800867366442,0.7154644481428385,-0.44821534343432196,-0.278521124716663,0.8890221524572481
201,1790995049.0668626,2.1343380916819856,0.36216452205882355,-0.8315883501838232,2.3190733957346517,0.7353301987462937,-0.42849557674116595,-0.2889324911882419,0.8987774724253227
202,1790995049.0928671,2.2397189510569855,0.17535299862132356,-0.7214174517463231,2.3595619918818516,0.7658166228522175,-0.4056530553619063,-0.30346796827596206,0.9182169182337939
203,1790995049.112867,2.1487082088694858,0.10829245174632354,-0.8315883501838232,2.3065587801159104,0.7923291795363324,-0.39029472197102677,-0.3152997675420876,0.9378323102534127
204,1790995049.137636,2.2684591854319858,-0.19348000919117647,-1.099830537683823,2.5284320836338976,0.8284439232172782,-0.3742856188593851,-0.33134274549950177,0.9675727742117055
205,1790995049.157636,2.541491411994486,-0.6724839154411766,-1.023189912683823,2.821051366279379,0.8604460474937484,-0.3645967816648115,-0.3455383048413757,0.9963407720055442
206,1790995049.1669934,2.464850786994486,-0.6724839154411766,-1.195631318933823,2.820861263779179,0.8766865353513372,-0.36168751803019,-0.3527409552844186,1.011841550589881
207,1790995049.1869934,2.3163595760569855,-0.6006333295036765,-1.267481904871323,2.7079129345822417,0.9133629590624134,-0.3583118395523009,-0.3695209075934892,1.048410687898267
208,1790995049.2124412,2.6037619198069857,-0.6916440716911766,-1.305802217371323,2.9938381866484325,0.9624202621615773,-0.35712735261065714,-0.39258034456046975,1.0990505147340013
209,1790995049.2324412,3.0396554744944857,-0.9598862591911765,-1.2579018267463231,3.426835864166836,1.0036572452359884,-0.35881337015937115,-0.41183034662945545,1.1426631764981123
210,1790995049.256829,2.934274615119486,-1.0461069623161765,-1.2052113970588232,3.340185893800144,1.057325562214171,-0.364230038032559,-0.43628791668841155,1.2003949397448435
211,1790995049.276829,2.6708224666819858,-1.0987973920036767,-1.2100014361213232,3.13125403514678,1.1031436736903282,-0.37122317809293937,-0.45695932534340084,1.2504177053187913
212,1790995049.302457,2.7091427791819855,-1.1562778607536766,-1.262691865808823,3.2048126056358988,1.163389392666308,-0.3831745656487807,-0.4842272978616395,1.3171080831590845
213,1790995049.322457,3.020495318244486,-1.2377085248161765,-1.4063930376838232,3.554329154198444,1.211946876304448,-0.39469330370137656,-0.5063186951052788,1.371479732254155
214,1790995049.3322215,2.9390646541819856,-1.2520786420036765,-1.4399233111213232,3.504166250213343,1.2364620671574602,-0.4012968028986199,-0.5175708272886973,1.3991987452811196
215,1790995049.3522215,2.7283029354319854,-1.2329184857536764,-1.344122529871323,3.2818272768851826,1.2876443240816107,-0.4165210588887161,-0.5413369764598978,1.4575882202872352
216,1790995049.377222,2.7905734432444858,-1.4724204388786766,-1.339332490808823,3.4277009221787753,1.3523748986668582,-0.43776984312325534,-0.5716207053235173,1.5320935130881894
217,1790995049.397222,3.1115060604319855,-1.5346909466911764,-1.4878237017463232,3.774965646656797,1.405243750779298,-0.4567293346921379,-0.5964538802327239,1.5934456110947954
218,1790995049.4216974,2.9869650448069858,-1.3909897748161764,-1.502193818933823,3.6212427427866443,1.471432737206279,-0.48182157685636456,-0.6277740439668018,1.6707383344872255
219,1790995049.4416974,2.8624240291819856,-1.3335093060661765,-1.1764711626838231,3.369837205093171,1.5261801013447187,-0.5033367936012636,-0.6535462751824701,1.734847648451661
220,1790995049.4526968,2.8767941463694857,-1.2808188763786765,-1.066300264246323,3.3246710827096044,1.556507832609439,-0.5155513671815485,-0.6674443850663764,1.770308405994258
221,1790995049.4726968,2.8863742244944857,-1.2472886029411765,-1.2579018267463231,3.3866210340964975,1.6120250437067927,-0.5382215341359957,-0.6924106527736601,1.8351402326307484
222,1790995049.5119164,2.694772661994486,-1.3335093060661765,-1.3249623736213232,3.28566158645564,1.7209798771859925,-0.5836003128393185,-0.7416227313111292,1.9627443385277268
223,1790995049.5319164,2.6133419979319856,-1.4724204388786766,-1.262691865808823,3.254530549090388,1.7761691820943641,-0.6074789132633117,-0.7668354861019923,2.027768294511633
224,1790995049.541462,2.5031710994944856,-1.3957798138786766,-1.2914321001838232,3.1435431779380454,1.8022217597569832,-0.6192195425984455,-0.7788925117032113,2.0586669614254567
225,1790995049.561462,2.3546798885569857,-1.2760288373161766,-1.4111830767463232,3.0272437376815944,1.85590635006402,-0.6441364923942412,-0.8044191508898756,2.122826034172442
226,1790995049.572017,2.2492990291819854,-1.2568686810661764,-1.262691865808823,2.869399894072595,1.8836333099535183,-0.6573190763819607,-0.8179868364864438,2.1562108614899382
227,1790995049.592017,2.2924093807444854,-1.2329184857536764,-1.099830537683823,2.825748745564676,1.9351030500902553,-0.6822856910540832,-0.8433828008249327,2.2184301042433283
228,1790995049.616366,2.2924093807444854,-1.2424985638786765,-1.157311006433823,2.852772724171829,1.9967382769096402,-0.7126424925707294,-0.8737852984342714,2.293103533740544
229,1790995049.636366,2.1487082088694858,-1.2903989545036765,-1.3201723345588232,2.8328309906490694,2.046432472535842,-0.7376363680539081,-0.8987279568604634,2.3536578376152093
230,1790995049.6617012,2.0289572323069858,-1.3430893841911764,-1.2579018267463231,2.7391373733695055,2.1078789705095957,-0.7695525866554142,-0.9304837322445352,2.4292313421978466
231,1790995049.6817012,2.1008078182444856,-1.5011606732536764,-1.109410615808823,2.8102791268110536,2.1553041868754086,-0.7952347271391316,-0.955342809655718,2.4880543187743305
232,1790995049.6925988,2.3067794979319856,-1.6736020795036766,-0.9704994829963232,3.0106552142506295,2.180871596628875,-0.8097242159920437,-0.9685562488942256,2.5199117909598665
233,1790995049.7125988,2.0576974666819856,-1.6544419232536764,-1.0088197954963232,2.826484445666388,2.227302693125448,-0.8373194423843218,-0.9921377912570469,2.5780454868444576
234,1790995049.7537594,2.0241671932444856,-1.5538511029411766,-1.0902504595588232,2.7749508357603374,2.3211267339493764,-0.8954966432454975,-1.0398695291792888,2.696455486529308
235,1790995049.7737594,2.3738400448069856,-1.5969614545036765,-1.0136098345588231,3.0352606712132806,2.3664745782119527,-0.9242509783501356,-1.06273929299087,2.753880281561157
236,1790995049.7963753,2.7570431698069857,-1.7598227826286765,-1.1716811236213232,3.4743488486173657,2.418764855768646,-0.9575827406787825,-1.088427861349424,2.8199403082528343
237,1790995049.8163753,2.5319113338694854,-1.8891538373161765,-1.2531117876838231,3.3984947220873156,2.466003967297776,-0.988111103322611,-1.1113746949160637,2.879703601368997
238,1790995049.8120465,2.3977902401194857,-1.7167124310661765,-1.2435317095588232,3.2004485184529514,2.466003967297776,-0.988111103322611,-1.1113746949160637,2.879703601368997
239,1790995049.8320465,2.8672140682444858,-1.5011606732536764,-1.2818520220588232,3.481026355332407,2.514317087821109,-1.019592125493742,-1.1349250715760257,2.9409885138452885
