imu_index,t_imu,ax,ay,az,mag,vx,vy,vz,velocity
0,1791274033.2446141,-0.06988666992187516,-0.043780957031250005,0.023327490234374477,0.08570350419893066,0.0,0.0,0.0,0.0
1,1791274033.264614,-0.12257709960937516,-0.06294111328125,-0.014992822265625523,0.13860560525901708,-0.0003778007981480048,-0.00021590361978166038,4.224451171440663e-05,0.0004371869335719926
2,1791274033.2901046,-0.09862690429687515,-0.13000166015625,0.05206772460937448,0.171285568103573,-0.001209986046803517,-0.0008186683314909533,0.00015888942600552825,0.0014695339125524631
3,1791274033.3101046,-0.050726513671875154,-0.09168134765625001,0.09038803710937449,0.13837863256245445,-0.001989011872777631,-0.0015531846929088553,0.0004503649799203264,0.0025634702134948615
4,1791274033.3199325,-0.03635639648437516,-0.043780957031250005,0.09517807617187449,0.1108937597328199,-0.0023785864366012185,-0.0019598282758472516,0.0007088884156281332,0.0031624552317788563
5,1791274033.3399324,0.02591411132812485,-0.06294111328125,0.008957373046874478,0.06865391058716516,-0.003068126613226165,-0.002823313573536528,0.0013122790969900494,0.004371107054019528
6,1791274033.364508,-0.07467670898437516,-0.15395185546875,0.02811752929687448,0.17340236480731325,-0.003878200035439777,-0.004124956705331025,0.002010830645160918,0.006008256254460087
7,1791274033.384508,-0.17047749023437517,-0.15395185546875,0.11433823242187448,0.25658717791861885,-0.004806296013903113,-0.0054872182302865375,0.0027077343066460417,0.0077808656559175855
8,1791274033.410367,-0.11778706054687516,-0.05336103515625001,0.10475815429687449,0.1664195379061832,-0.006385356079586559,-0.007386431724183215,0.0038985638089480395,0.010513369852315322
9,1791274033.430367,-0.017196240234375153,0.04243974609375,0.07122788085937448,0.08467735079947623,-0.007625917133838243,-0.008651371277402219,0.004945403132014866,0.0125482209595532
10,1791274033.4401715,-0.007616162109375153,0.008909472656249997,0.03769760742187448,0.03947776885314714,-0.008161093355992464,-0.009140701380121428,0.005461708657778866,0.013415890874192244
11,1791274033.4601715,-0.12257709960937516,-0.024620800781250004,0.013747412109374479,0.1257788556135794,-0.009284324206842495,-0.010012716985565474,0.006434097389511137,0.015094727113416357
12,1791274033.499882,-0.13215717773437516,-0.05815107421875001,0.10475815429687449,0.1783853636125945,-0.011938671873943582,-0.01173093523584211,0.008428140507333119,0.018739804695688877
13,1791274033.519882,-0.03635639648437516,-0.048570996093750006,0.1334983886718745,0.14663815671528005,-0.013327762177823275,-0.012626583503556835,0.00963917029270702,0.020735801396924977
14,1791274033.530357,-0.060306591796875156,-0.048570996093750006,0.08559799804687448,0.11542549088189635,-0.014022103982603496,-0.013101628858926606,0.010350428314700812,0.02180374841979616
15,1791274033.5503569,-0.12736713867187516,-0.043780957031250005,0.05685776367187448,0.14619153703891197,-0.015430477246912981,-0.014011118451848206,0.011718428400086472,0.023910931234629354
16,1791274033.5745547,-0.11778706054687516,-0.10605146484375001,0.08559799804687448,0.18013251260505725,-0.01732377458706703,-0.015218366316838396,0.013383824783506955,0.026661556689972284
17,1791274033.5945547,-0.09383686523437516,-0.16353193359375,0.08080795898437448,0.20512917105362002,-0.01897133116238445,-0.016470883415442533,0.014803444465673828,0.02916064770553371
18,1791274033.6051254,-0.16568745117187517,-0.16353193359375,-0.0006227050781255229,0.23279908191906062,-0.01991726178802406,-0.01729288527851906,0.015504791311261212,0.03059640096472894
19,1791274033.6251254,-0.13215717773437516,-0.06773115234375,-0.024572900390625523,0.15052194543698635,-0.021885281118833446,-0.01896172921331804,0.016594909260696684,0.033375196145945314
20,1791274033.6500254,-0.17526752929687517,-0.16832197265625,0.008957373046874478,0.24316913421859948,-0.024542050887813107,-0.021168610618677707,0.017719363857513038,0.03693776106940081
21,1791274033.6700253,-0.13215717773437516,-0.12521162109375,0.05206772460937448,0.18935289179106218,-0.02681704760275165,-0.0231156177796416,0.018578601856791617,0.03998312487057398
22,1791274033.6943479,-0.031566357421875156,-0.043780957031250005,-0.005412744140625523,0.05424486075739902,-0.029467391658866394,-0.025436528250590465,0.019551910216910058,0.043561695717111694
23,1791274033.7143478,-0.09383686523437516,-0.019830761718750003,-0.014992822265625523,0.0970742041267852,-0.0315079287482502,-0.02715412374314001,0.020201586394338094,0.0462406758504942
24,1791274033.7399263,-0.19442768554687517,-0.10605146484375001,0.03769760742187448,0.2246556202456406,-0.03427917366148496,-0.029262790761138354,0.02095139764934894,0.04970245198685426
25,1791274033.7599263,-0.12736713867187516,-0.12521162109375,0.11912827148437448,0.21469020270436268,-0.03660369043629691,-0.031011147488389765,0.02168497585502553,0.05264750326402912
26,1791274033.769584,-0.017196240234375153,-0.019830761718750003,0.11433823242187448,0.1173124084737108,-0.03766249709837299,-0.03183381661499551,0.022155177348754513,0.05406207035729286
27,1791274033.789584,-0.04593647460937515,-0.048570996093750006,0.1334983886718745,0.14930211364566717,-0.03962097758245401,-0.03338453575102777,0.023354611688063773,0.05683121482953905
28,1791274033.815112,-0.09862690429687515,-0.13000166015625,0.2292991699218745,0.28143526293168514,-0.04202261258237055,-0.035408885049202504,0.025350554479214846,0.060517267957825756
29,1791274033.835112,-0.08904682617187516,-0.10605146484375001,0.2245091308593745,0.26378134939002235,-0.04390344319167862,-0.03711103889439516,0.027360424037428548,0.06366580193018981
30,1791274033.8452873,-0.060306591796875156,-0.07252119140625,0.15744858398437447,0.18353818353634618,-0.044830781771087784,-0.03798340756577553,0.028521075335222443,0.06531454648692084
31,1791274033.8652873,-0.12736713867187516,-0.05336103515625001,0.05206772460937448,0.14758331895036406,-0.04666161763985271,-0.039629716798281055,0.030774475876197104,0.06851926283706218
32,1791274033.8902483,-0.22795795898437515,-0.14437177734375,0.04727768554687448,0.27394017724383646,-0.04926904267291224,-0.04174636347310057,0.033350962733110855,0.07268069994406233
33,1791274033.9102483,-0.17526752929687517,-0.19706220703125002,0.10475815429687449,0.28377189987302476,-0.05164969831115767,-0.043700081477230375,0.03533376344339334,0.07632734304182123
34,1791274033.9353464,-0.12736713867187516,-0.11084150390625001,0.05206772460937448,0.17668977035374056,-0.054758737725903735,-0.046363637693327076,0.03774395897457631,0.08107226835710786
35,1791274033.9553463,-0.17526752929687517,-0.10126142578125001,0.023327490234374477,0.20375660720015298,-0.05731857182724297,-0.04848592989948093,0.039489578007082735,0.0848276537793523
36,1791274033.9648955,-0.15131733398437516,-0.13958173828125,0.07122788085937448,0.21783803211898412,-0.058591347389522666,-0.049519726982858586,0.040265737266476316,0.0866399385213856
37,1791274033.9848955,-0.060306591796875156,-0.10605146484375001,0.08559799804687448,0.1490329342101698,-0.06117465841725939,-0.05172860729644124,0.04188274359465173,0.0904010611459464
38,1791274034.0396209,-0.07467670898437516,-0.05815107421875001,0.03769760742187448,0.10187869209439919,-0.06773703230365229,-0.05754004582194879,0.04614968396759325,0.10014467409107053
39,1791274034.0596209,-0.09862690429687515,-0.14916181640625,0.008957373046874478,0.1790439841399249,-0.07003553323756634,-0.0596562889255314,0.04754515519071587,0.10355863318114042
40,1791274034.0548177,-0.026776318359375155,-0.20185224609375002,0.03290756835937448,0.2062624748549802,-0.07003553323756634,-0.0596562889255314,0.04754515519071587,0.10355863318114042
41,1791274034.0748177,-0.021986279296875154,-0.30244306640625,0.08559799804687448,0.31509081574074527,-0.07192923294545275,-0.06238925931809691,0.048784519078895694,0.10698674465624743
42,1791274034.0851862,-0.08904682617187516,-0.22101240234375003,0.05206772460937448,0.24389929722538656,-0.07285006492915551,-0.06400064651915174,0.04943771866008442,0.10884531566110342
43,1791274034.1051862,-0.17047749023437517,-0.14916181640625,-0.029362939453125524,0.2284162961864832,-0.07474911614592394,-0.06719788351253542,0.05054273984354345,0.11250579746863368
44,1791274034.12943,-0.14173725585937516,-0.15874189453125,0.03290756835937448,0.21534007252075352,-0.07727352595584826,-0.07105205828675068,0.051687758853138144,0.1170094748970917
45,1791274034.14943,-0.04593647460937515,-0.12521162109375,0.11433823242187448,0.17567396264051532,-0.07932517420883392,-0.07418056873876361,0.052711524546267784,0.12072176631270796
46,1791274034.1754026,-0.07467670898437516,-0.05815107421875001,0.04727768554687448,0.10579857205180405,-0.08182480684897736,-0.0779911140738462,0.0541564137234096,0.12534284996653478
47,1791274034.1954026,-0.10820698242187515,0.008909472656249997,0.008957373046874478,0.10894202256136673,-0.08373522964967593,-0.08055911242089497,0.05518649704303723,0.12863478819669086
48,1791274034.2047987,-0.06988666992187516,-0.06773115234375,0.04248764648437448,0.10619254086028163,-0.08462362931597558,-0.08162605246937961,0.05563409754266587,0.1300735326256976
49,1791274034.2247987,-0.050726513671875154,-0.11563154296875001,0.09517807617187449,0.15812241808932712,-0.08641189858252041,-0.0838314726258669,0.05665042346549737,0.13305638841512812
50,1791274034.2498078,-0.060306591796875156,-0.09647138671875001,0.11433823242187448,0.16129738021106274,-0.0885208956180421,-0.08657343053739346,0.05812365318227433,0.1367818222399691
51,1791274034.2698078,-0.060306591796875156,-0.06773115234375,0.08080795898437448,0.12146736288891576,-0.09013540684043647,-0.0886835811516039,0.05941780070816947,0.1397127201551808
52,1791274034.2946873,-0.08425678710937516,-0.09647138671875001,0.09996811523437449,0.16247941005846359,-0.09211230463996072,-0.09122120294645322,0.06112352443547233,0.1433250493545937
53,1791274034.3146873,-0.07467670898437516,-0.07252119140625,0.10475815429687449,0.14768278491214462,-0.09370150714725091,-0.09320863342830706,0.06259612440918215,0.14623985974517562
54,1791274034.339517,-0.09383686523437516,-0.05815107421875001,0.15265854492187447,0.18839197447734557,-0.09569235796188609,-0.09554925278393595,0.06462948698038778,0.1498788099339675
55,1791274034.359517,-0.08425678710937516,-0.024620800781250004,0.17181870117187448,0.1929431420846423,-0.09732255159938126,-0.09727593598095215,0.06650836184486733,0.1528320940315624
56,1791274034.3702104,-0.07467670898437516,-0.010250683593750004,0.16223862304687447,0.17889398588835248,-0.0981908838808442,-0.09808862197194197,0.06763016035957162,0.15439127575066325
57,1791274034.3902104,-0.03635639648437516,0.07597001953125,0.17660874023437448,0.1956626652176658,-0.09973788829757023,-0.09928203277206887,0.0699218406915419,0.1571420764757362
58,1791274034.4147623,-0.08904682617187516,0.12866044921875,0.2724095214843745,0.31414932092844094,-0.10158303467268065,-0.10015049919432173,0.07313992471425461,0.16030809090432618
59,1791274034.4347622,-0.23274799804687515,0.20051103515625002,0.3969505371093745,0.5019422623426723,-0.10334332609616673,-0.10025807814289554,0.07637220062218102,0.16298539293261918
60,1791274034.4601548,-0.09862690429687515,0.48791337890625003,0.3634202636718745,0.6163286620093484,-0.10587408742122761,-0.09906311264543632,0.08130850045893916,0.16623445768300105
61,1791274034.4801548,0.011543994140624849,0.50707353515625,0.4113206542968745,0.6530248957794674,-0.1076990248129156,-0.09677061919717683,0.08577540191752815,0.1682885981270612
62,1791274034.490044,0.04028422851562485,0.6172444335937501,0.4927513183593745,0.7908333399740239,-0.10842760193142528,-0.09497317866830152,0.08832338564719963,0.16904872072614063
63,1791274034.510044,0.030704150390624848,0.6172444335937501,0.7083030761718745,0.9400141931738157,-0.10957355580924319,-0.09003161657404432,0.09450499249054914,0.17042080190298312
64,1791274034.550345,0.06423442382812485,0.50228349609375,0.8184739746093745,0.9624522942803755,-0.1112493735278196,-0.07818392612060479,0.10970755251612105,0.17471375587812762
65,1791274034.570345,0.12171489257812486,0.6795149414062501,0.7035130371093745,0.9856397232521121,-0.1116773549292465,-0.07141355479275155,0.11840338068408413,0.1777388195345923
66,1791274034.5796082,0.28936625976562486,0.9621272460937501,0.5693919433593745,1.154828495980791,-0.11156024988205064,-0.06760760569224124,0.1227111835963697,0.1790935852586717
67,1791274034.5996082,-0.04593647460937515,0.9764973632812501,0.4544310058593745,1.078037475824071,-0.11098019414568588,-0.057714986474096806,0.13215260470928894,0.18196684887025133
68,1791274034.6101744,-0.17526752929687517,0.9142268554687502,0.3634202636718745,0.9993016252030439,-0.11089500819020266,-0.05177421581205432,0.13704054086961343,0.18373454249621785
69,1791274034.6301744,0.06423442382812485,0.6364045898437501,0.4688011230468745,0.7930393156387228,-0.11092450225605895,-0.03989018239726333,0.14615305788747202,0.18776631269293254
70,1791274034.6552076,0.09776469726562485,0.34421220703125,0.4592210449218745,0.5821717509463179,-0.11065172922985383,-0.025405497665257425,0.15759034280858422,0.1942265703751765
71,1791274034.6752076,0.38995708007812485,0.5885041992187501,-0.029362939453125524,0.7065875027301907,-0.1097349080416968,-0.014169925024307875,0.16600215003301896,0.1994974953068311
72,1791274034.699669,0.011543994140624849,1.02918779296875,-0.08205336914062553,1.032518054265364,-0.10804518426043602,0.00047844176682059446,0.17454270255285928,0.2052782155097119
73,1791274034.7196689,-0.03635639648437516,0.9812874023437501,-0.23533461914062553,1.0097668723670514,-0.10690808613858398,0.013674408239898708,0.1800020960861366,0.20980248549035127
74,1791274034.7299812,0.14087504882812485,0.34900224609375,-0.39340590820312554,0.544441508125469,-0.10632888840901582,0.02048673463663494,0.1819085231905337,0.2116984875140344
75,1791274034.7499812,0.34684672851562487,-0.30723310546875005,-0.38861586914062557,0.6047455067430327,-0.10464249189300327,0.03177959174883254,0.18387826006314623,0.21394206712367195
76,1791274034.7752857,0.28936625976562486,0.03285966796875,-0.3981959472656255,0.49332808807986234,-0.10162143424613411,0.04340371717663244,0.1845033587779097,0.21506345101695107
77,1791274034.7952857,0.23667583007812487,0.50707353515625,-0.21617446289062553,0.5998920044516984,-0.09880277959459355,0.05202287967330976,0.18400175482279565,0.2152324674462236
78,1791274034.8203714,0.3947471191406249,0.30110185546875,-0.2784449707031255,0.5692268591224514,-0.09460971548217524,0.06273265986097203,0.18253638326123725,0.2149556142345295
79,1791274034.8403714,0.5001279785156248,-0.10126142578125001,-0.49399672851562554,0.7102215422172983,-0.09042586263759711,0.07029018776383694,0.18038467378341888,0.21367306256423502
80,1791274034.8501837,0.7204697753906248,-0.21622236328125002,-0.7718189941406256,1.077744574261728,-0.0877828189783601,0.07320822474345642,0.17855580859402626,0.21200812310037204
81,1791274034.8701837,0.35642680664062487,-0.28328291015625,-0.5418971191406255,0.7077723952031025,-0.08158838131355521,0.07751449001265298,0.17341671269842918,0.20673295908107467
82,1791274034.8952997,0.3755869628906249,-0.58984541015625,-0.5802174316406256,0.9086448385125194,-0.0735973626375917,0.08046641541325353,0.16581736520206256,0.1984611155849469
83,1791274034.9152997,0.5480283691406249,-1.08321943359375,-0.5035768066406255,1.3142636854468996,-0.06680314308189426,0.07995485965123013,0.15904798392262387,0.19013600578880152
84,1791274034.9397275,0.7779502441406249,-1.31314130859375,-0.5658473144531255,1.6277990852582447,-0.05732016253751031,0.07503341655724635,0.15006082152108724,0.17729598074734645
85,1791274034.9597275,0.6294590332031249,-1.24129072265625,-0.8484596191406256,1.6300015515163608,-0.04860960588618829,0.06777681609398303,0.1416849707154399,0.16441174383505336
86,1791274034.9851818,0.43785747070312486,-1.58617353515625,-1.0400611816406256,1.9466363065134453,-0.03714887238293999,0.05452873670076747,0.12901858721182918,0.1449110682164822
87,1791274035.0051818,0.4426475097656249,-2.28551923828125,-0.9251002441406255,2.505063964884821,-0.028173911746535947,0.039873295753705525,0.11761143395258504,0.12734244545220316
88,1791274035.015322,0.6150889160156249,-2.63998212890625,-0.7382887207031256,2.8094323716130116,-0.023501657011104665,0.029811504472913676,0.11143039918072986,0.11771910440868534
89,1791274035.035322,0.7204697753906248,-2.36694990234375,-0.7766090332031256,2.593193037147292,-0.013665299167992787,0.005432549250184368,0.09879556757954189,0.09988401857189293
90,1791274035.0897481,0.39953715820312485,-2.36694990234375,-0.47483657226562553,2.446947394479719,0.0136591603558447,-0.07028239887870685,0.06446138726593292,0.09634032749591893
91,1791274035.1097481,0.5719785644531249,-2.52981123046875,-0.6664381347656255,2.6779178716811973,0.023651208570189694,-0.1012770452163378,0.052025219380837845,0.11628861941826918
92,1791274035.1055331,0.8114805175781249,-2.84116376953125,-0.8532496582031256,3.0755076288199374,0.023651208570189694,-0.1012770452163378,0.052025219380837845,0.11628861941826918
93,1791274035.125533,0.7779502441406249,-3.1477262695312502,-0.9394703613281256,3.3757949893424475,0.035018515921327,-0.13950199028093885,0.038413410530872376,0.14887139368692942
94,1791274035.1358087,0.5192881347656249,-2.97049482421875,-1.2268727050781256,3.255566970910668,0.040982515610869394,-0.16091047096194888,0.030799413638105434,0.16887969129366165
95,1791274035.1558087,0.4426475097656249,-2.81721357421875,-1.5717555175781257,3.25623164834773,0.05229227461855123,-0.2050102725445697,0.014004858637954642,0.21203733138070244
96,1791274035.1808834,0.5528184082031249,-3.30579755859375,-1.3418336425781257,3.6103217606201135,0.0662168977288346,-0.26352135999641774,-0.009372013692736044,0.2718750068686884
97,1791274035.2008834,0.6821494628906248,-3.6267301757812502,-1.1310719238281255,3.8597698577138666,0.07750986648687819,-0.3135890800735172,-0.028930257128899486,0.3243190563653525
98,1791274035.2398834,0.5623984863281248,-3.36327802734375,-1.3418336425781257,3.664484775652904,0.0998683024882282,-0.417022270292014,-0.06858136022754076,0.4342633472123172
99,1791274035.2598834,0.7108896972656249,-3.24831708984375,-1.2556129394531257,3.554362380451872,0.11152419999181676,-0.4720258332251274,-0.08976130885781473,0.49325766794197795
100,1791274035.284982,0.6246689941406249,-3.64110029296875,-1.3993141113281256,3.950430695235622,0.1264714735006997,-0.5436661642812545,-0.11735136029612403,0.570385197526269
101,1791274035.304982,0.5097080566406249,-3.86144208984375,-1.2125025878906255,4.079301391398127,0.13829725910806567,-0.6034440401281786,-0.13995662325561936,0.6347115075655535
102,1791274035.2999425,0.8019004394531248,-3.71295087890625,-0.7047584472656255,3.863383622287342,0.13829725910806567,-0.6034440401281786,-0.13995662325561936,0.6347115075655535
103,1791274035.3199425,0.9887119628906249,-3.1477262695312502,-0.5227369628906255,3.340506839662549,0.1511996044891008,-0.6665819031611488,-0.16057467259170274,0.7021231939606698
104,1791274035.3450918,0.6150889160156249,-2.68309248046875,-0.9059400878906255,2.8979384182898884,0.16801534377820398,-0.7450647899388495,-0.1853070094321465,0.7859321756336329
105,1791274035.3650918,0.2749961425781249,-2.8220036132812503,-1.0879615722656255,3.036937216099795,0.18071725880110384,-0.8063738190620471,-0.20501596121796994,0.8514276293681244
106,1791274035.3750458,0.5240781738281248,-3.26268720703125,-0.6951783691406256,3.3768415284299946,0.1866872799097072,-0.8368527734791174,-0.21468492217491134,0.8838915774963714
107,1791274035.3950458,0.7252598144531249,-3.12377607421875,-0.3071852050781255,3.2215433429555125,0.19875723749077764,-0.8984862062039051,-0.23270168502471544,0.9491743656499544
108,1791274035.4347308,0.6246689941406249,-2.61603193359375,-0.4460963378906255,2.7263228665186268,0.22313249929459428,-1.0195218777254835,-0.26533106875912826,1.0768535403903399
109,1791274035.4547307,0.5480283691406249,-2.43880048828125,-0.5897975097656255,2.568256999902761,0.2353332456038142,-1.0789525225016883,-0.280862452259082,1.1394753175861978
110,1791274035.4646075,0.4139072753906249,-2.78368330078125,-0.5850074707031255,2.874447023767903,0.2411672055151909,-1.1077677886677522,-0.288252168850655,1.1697864794367194
111,1791274035.4846075,0.49054790039062485,-2.80284345703125,-0.7287086425781255,2.9372750931720017,0.252565392970567,-1.1657448721445434,-0.30294204064161895,1.2306600930581046
112,1791274035.4953723,0.6007187988281248,-2.89385419921875,-0.8532496582031256,3.0762461183762992,0.2586611804815798,-1.1968690386028724,-0.31093995969520904,1.2633624817880047
113,1791274035.5153723,0.4426475097656249,-3.11898603515625,-0.7861891113281255,3.2468606413229875,0.26985278260302703,-1.2550400157498858,-0.3260295427831794,1.3244777190196442
114,1791274035.5400283,0.4857578613281249,-3.04234541015625,-0.7191285644531256,3.1636959693929643,0.28329708830616745,-1.3273899798326918,-0.3446253068946673,1.4003528130279275
115,1791274035.5600283,0.5815586425781248,-2.84595380859375,-0.6760182128906256,2.9823923550677263,0.2941677097872281,-1.3861066413272507,-0.3595395270522211,1.4618806155517314
116,1791274035.585336,0.5288682128906249,-2.67351240234375,-0.7957691894531256,2.83912288479644,0.3079675659705427,-1.4597372515316374,-0.3783744715648032,1.5391049691073393
117,1791274035.605336,0.5671885253906249,-2.52981123046875,-0.8245094238281255,2.72056308052616,0.3188814664206252,-1.5170023301748952,-0.3934569383791213,1.5993091701548208
118,1791274035.6303623,0.6102988769531249,-2.47233076171875,-0.6568580566406256,2.6298947927863505,0.332699819027048,-1.587299485464387,-0.4122794352221731,1.6733747813455455
119,1791274035.6503623,0.5911387207031249,-2.31904951171875,-0.5275270019531255,2.450657128752848,0.34388856178628713,-1.6422382932979334,-0.4268418351254836,1.731300062702835
120,1791274035.6748457,0.6534092285156249,-2.25198896484375,-0.4077760253906255,2.3800586556996417,0.3578162890904928,-1.7077983276869373,-0.44371215871434283,1.8004133149306947
121,1791274035.6948457,0.7204697753906248,-2.21366865234375,-0.41256606445312555,2.3642369502990075,0.36954776939651757,-1.760018164883814,-0.45665651482833736,1.8554688537192139
122,1791274035.7205122,0.7204697753906248,-2.32862958984375,-0.4365162597656255,2.4763155915567507,0.38511856390649724,-1.825724792487737,-0.47241102942963975,1.9247751834685953
123,1791274035.7405121,0.4953379394531249,-2.65435224609375,-0.37424575195312554,2.72598705122742,0.3972554644357965,-1.8767195152238247,-0.4840620475107248,1.9784347623023417
124,1791274035.7798119,0.5576084472656249,-2.76452314453125,-0.35029555664062556,2.841869520951498,0.4206305386690909,-1.9778649633752583,-0.5056576142279807,2.084363088867963
125,1791274035.7998118,0.6246689941406249,-2.90343427734375,-0.5323170410156256,3.017201250704188,0.43251536913510985,-2.030119638110864,-0.5163231817129237,2.138935463625685
126,1791274035.780921,0.5719785644531249,-3.0183952148437503,-0.5802174316406256,3.1264231030308665,0.43251536913510985,-2.030119638110864,-0.5163231817129237,2.138935463625685
127,1791274035.800921,0.5528184082031249,-3.13335615234375,-0.45567641601562553,3.2142137399357114,0.4443150771789196,-2.0846515842599502,-0.5270013736102886,2.195659027115358
128,1791274035.8253083,0.6246689941406249,-3.10940595703125,-0.5897975097656255,3.225907292590384,0.4586987327441985,-2.152590307217795,-0.5399811588102076,2.2661926683358478
129,1791274035.8453083,0.5001279785156248,-3.21957685546875,-0.8484596191406256,3.3668511770609086,0.4704125106620409,-2.209442617574239,-0.5511865140761129,2.325237876828959
130,1791274035.8703122,0.48096782226562484,-3.1812565429687503,-0.7622389160156255,3.3064681161815392,0.4847002004777639,-2.2818611422307953,-0.5661146095813755,2.4004812659022123
131,1791274035.8903122,0.6773594238281249,-3.15251630859375,-0.6137477050781256,3.282356030427991,0.49615179018859284,-2.340598641480147,-0.5783280953980879,2.461510102626604
132,1791274035.899631,0.5097080566406249,-3.01360517578125,-0.7718189941406256,3.152351981967773,0.501516854955798,-2.368171240043106,-0.5841336430839302,2.4901739479310603
133,1791274035.919631,0.15045512695312485,-3.00402509765625,-0.7957691894531256,3.111278215694959,0.5122943819470925,-2.4274973174476067,-0.5970758624761879,2.5518010003802343
134,1791274035.944597,0.19835551757812486,-3.09024580078125,-0.6233277832031255,3.158718339123126,0.5243830729774444,-2.5018568305832645,-0.6134654712878336,2.62880297710266
135,1791274035.964597,0.5863486816406249,-3.00402509765625,-0.5275270019531255,3.1058422853712315,0.5337916245526008,-2.56163150712302,-0.6263518522447705,2.690577283695511
136,1791274035.9903624,0.5336582519531249,-2.82679365234375,-0.6855982910156255,2.957295808581233,0.5462585921000477,-2.6383541636123637,-0.642807094518414,2.7699299815802254
137,1791274036.0103624,0.22230571289062487,-2.77410322265625,-0.7191285644531256,2.874406793087578,0.5556182229574254,-2.697376991529045,-0.6557713263069802,2.8310051706980444
138,1791274036.020857,-0.17047749023437517,-3.11898603515625,-0.35508559570312553,3.1437592532590912,0.5598336516965694,-2.728341150586564,-0.6623992224082365,2.8628712652515427
139,1791274036.040857,-0.18005756835937517,-3.01360517578125,-0.30239516601562555,3.0340863072511053,0.5661362638254456,-2.787697703438129,-0.6741217218255448,2.9233899587310437
140,1791274036.065317,-0.026776318359375155,-2.6687223632812502,-0.6424879394531255,2.745102325204849,0.5723086730855388,-2.8598256215177127,-0.6880411540770726,2.9965881319396916
141,1791274036.085317,0.04028422851562485,-2.52502119140625,-0.5562672363281256,2.585882455629,0.576618859240493,-2.9177462995582553,-0.699513515765473,3.055331722768621
142,1791274036.1099591,-0.32854877929687515,-2.4627506835937503,-0.15869399414062554,2.489632304918792,0.580600137734082,-2.9876246149060908,-0.7128498391103782,3.1258842353243494
143,1791274036.129959,-0.6494813964843752,-2.36215986328125,-0.05810317382812553,2.4505104127273345,0.5818796664147128,-3.043069066784425,-0.7223753905715714,3.1813015412422883
144,1791274036.1401048,-0.4530897949218752,-2.03164716796875,-0.4365162597656255,2.1268349777116136,0.5815924140645409,-3.070319580023693,-0.7268590921702165,3.208338541900589
145,1791274036.1601048,-0.14173725585937516,-1.76340498046875,-0.47962661132812556,1.8329561536312424,0.5802188568826433,-3.1216728679218413,-0.7357461552734234,3.2592664544650534
146,1791274036.1855028,-0.10820698242187515,-1.27961103515625,0.05206772460937448,1.2852331307138387,0.5782601097288017,-3.1829009576133562,-0.7461534357332065,3.3199379828749898
147,1791274036.2055027,-0.45787983398437515,-0.80060712890625,0.18618881835937448,0.9408995660043253,0.5760999066501723,-3.227003874109899,-0.7527620914123317,3.3633459340707286
148,1791274036.2302713,-0.6399013183593751,-0.43656416015625005,-0.16348403320312552,0.7917000645972937,0.5717866471389013,-3.275727744241592,-0.7596766219181086,3.410929608498153
149,1791274036.2502713,-0.45787983398437515,-0.54673505859375,-0.47483657226562553,0.8567630576921713,0.5671795606220564,-3.3106444407210835,-0.765379907067888,3.444976874959844
150,1791274036.2596133,-0.12257709960937516,-0.49404462890625,-0.36466567382812554,0.6261679442196653,0.5649436978577216,-3.325236756814806,-0.7682324966111697,3.459269003629356
151,1791274036.2796133,0.04028422851562485,-0.06294111328125,0.05206772460937448,0.09107936513931071,0.5607515567758472,-3.3526265406737874,-0.7738923809515281,3.4861807823105857
152,1791274036.3051422,0.07860454101562485,0.6364045898437501,0.4209007324218745,0.7670377450919474,0.5564308016904757,-3.3812459056098487,-0.7791276624761279,3.5141825544084626
153,1791274036.3251421,-0.08904682617187516,1.18725908203125,0.09996811523437449,1.194783281260867,0.5535378993826162,-3.397568366313599,-0.7818325921780452,3.5300335992763046
154,1791274036.3500054,-0.11778706054687516,1.5225618164062502,-0.35508559570312553,1.5678501384655412,0.5500953097092453,-3.409763008192054,-0.7851665898012608,3.5419733476607607
155,1791274036.3700054,-0.21358784179687515,1.5321418945312502,-0.40298598632812554,1.5985857050274495,0.5472444129582669,-3.413518916503354,-0.7885832822769043,3.5459062923217366
156,1791274036.3955956,-0.30938862304687514,1.4842415039062502,-0.20659438476562553,1.5301553521801035,0.5431400943010406,-3.411814546464757,-0.7934691668920402,3.544724669182955
157,1791274036.4155955,0.22709575195312487,1.3213801757812502,-0.010202783203125523,1.3407916118054786,0.5402900878527684,-3.406473876548332,-0.7970401368794495,3.5399506536723053
158,1791274036.425209,1.0030820800781248,1.23036943359375,-0.35508559570312553,1.6266740247423594,0.54001262211177,-3.4024519677321914,-0.7987625228557582,3.5364268114416824
159,1791274036.445209,0.9072812988281249,1.78601396484375,-0.8340895019531256,2.1699563440513163,0.54238751002848,-3.3908152852856968,-0.8035920518559558,3.526694301434146
160,1791274036.4848378,0.17919536132812486,1.8818147460937502,-0.5418971191406255,1.966466425818227,0.5496165293473426,-3.360315155960284,-0.8158157034249731,3.5013356792319974
161,1791274036.5048378,-0.13694721679687516,1.6997932617187501,-0.17306411132812552,1.7140603429875716,0.5527810144441404,-3.3418587688578993,-0.8221318602193434,3.4856115211695706
162,1791274036.529953,0.5288682128906249,1.3597004882812502,-0.33113540039062556,1.496040660486958,0.5568970229116988,-3.316395439239991,-0.8298234532993777,3.4637003287215005
163,1791274036.549953,1.4772959472656249,1.0196077148437501,-0.7861891113281255,1.9596164233714826,0.562692305557998,-3.295590889846353,-0.8367057155169104,3.4463920842456557
164,1791274036.5454578,1.170733447265625,1.0100276367187502,-0.9490504394531256,1.8142407139374555,0.562692305557998,-3.295590889846353,-0.8367057155169104,3.4463920842456557
165,1791274036.5654578,0.6390391113281249,1.2207893554687501,-0.8484596191406256,1.6182031274055495,0.5729702877771357,-3.2746255980070393,-0.8465868408029178,3.4304776688996297
166,1791274036.6049452,1.1132529785156249,1.1633088867187502,-0.7574488769531256,1.7794236598658228,0.5954084507724998,-3.2323807103737034,-0.8679254701002113,3.3994250839952316
167,1791274036.6249452,1.8748691894531249,0.9238069335937501,-0.9251002441406255,2.285686809216335,0.6095506421871149,-3.2110628939150927,-0.879635935773926,3.3847062315028116
168,1791274036.6346722,2.210171923828125,0.50707353515625,-0.9155201660156256,2.4454367048270234,0.6183771350361208,-3.2012062892011515,-0.8858197969854608,3.3785779108802343
169,1791274036.6546721,2.100001025390625,0.21967119140625002,-0.8388795410156256,2.2719988167492744,0.6402685440435465,-3.182889679901779,-0.8992589942704525,3.368886650169934
170,1791274036.6653244,2.440093798828125,0.16698076171875,-1.1502320800781256,2.702771570056281,0.6538064809864028,-3.1742884183317703,-0.9069323791167709,3.3654266026204525
171,1791274036.6853244,2.933467822265625,-0.11563154296875001,-1.4136842285156257,3.258390279869952,0.6834719741193868,-3.1604846635882136,-0.9230241848486209,3.3627029149180596
172,1791274036.7099087,2.885567431640625,-0.39824384765625004,-1.4472145019531255,3.252618541945022,0.7251967393185028,-3.147009533448628,-0.9451124300068139,3.3649393485898265
173,1791274036.7299087,2.717916064453125,-0.5036247070312501,-1.4520045410156257,3.1223425126136743,0.7624545382085401,-3.139044312686514,-0.964735226467844,3.3712979958811577
174,1791274036.7551181,2.775396533203125,-0.48925458984375003,-1.6100758300781257,3.245695634036079,0.8127588506118082,-3.1323876057591917,-0.9915486200928848,3.3846119021196115
175,1791274036.775118,3.072378955078125,-0.40782392578125004,-1.6962965332031257,3.533164973023978,0.8554532320594741,-3.12924427014496,-1.014589793100952,3.399023739655358
176,1791274036.7856479,3.101119189453125,-0.34555341796875,-1.7394068847656257,3.5723778779175013,0.8794350190255708,-3.1284325460573963,-1.0276143495243748,3.4082968472930983
177,1791274036.8056479,2.832877001953125,-0.20664228515625002,-1.7537770019531256,3.338207140785187,0.9270538980476756,-3.1279503340381027,-1.0538818855360608,3.4284353939888543
178,1791274036.829749,2.885567431640625,-0.26412275390625,-1.9357984863281257,3.4847634082310894,0.9861667535375431,-3.1283073543396016,-1.087457094214452,3.4556323156197264
179,1791274036.849749,3.3262510253906252,-0.27370283203125,-2.0363893066406256,3.9096982661548707,1.0371801221300598,-3.1293659186175877,-1.1170978692513636,3.4808880056435254
180,1791274036.8751862,3.331041064453125,-0.51320478515625,-2.2040406738281257,4.027034767228739,1.1050302511350303,-3.132011559248364,-1.1572316968915786,3.517068873860658
181,1791274036.8951862,3.369361376953125,-0.65690595703125,-2.3669020019531257,4.1696938270976585,1.1604260433399485,-3.135534842633719,-1.1909101073996446,3.5491455641236107
182,1791274036.9207413,3.714244189453125,-0.85329755859375,-2.4818629394531255,4.547897346315027,1.234167779851538,-3.1422559693351855,-1.2367813472663598,3.5953540558048345
183,1791274036.9407413,3.810044970703125,-1.04489912109375,-2.6782545410156255,4.772976454845916,1.2945092511802094,-3.1495743415313564,-1.2750363371020446,3.636109238616797
184,1791274036.9493124,3.580123095703125,-1.24608076171875,-2.8363258300781258,4.734421069093968,1.3212407551624412,-3.153712959784071,-1.2925166116987288,3.6554318154397825
185,1791274036.9693124,3.508272509765625,-1.54306318359375,-3.1668385253906255,4.971708583297894,1.384892506764284,-3.1661051921887746,-1.3361916630683932,3.70507186215734
186,1791274036.995641,3.503482470703125,-1.74424482421875,-3.5644117675781257,5.293563136318239,1.469962298339349,-3.1864629241874067,-1.3983543293747271,3.7775296102401503
187,1791274037.015641,3.474742236328125,-2.25198896484375,-3.741643212890626,5.580786847682958,1.535357995024058,-3.20560197077955,-1.4494509619473914,3.8385044299883577
188,1791274037.0403285,3.594493212890625,-2.77410322265625,-3.2051588378906257,5.557793925972511,1.617061677538166,-3.2349891943445424,-1.515925073241094,3.921488541889357
189,1791274037.0603285,3.848365283203125,-2.71183271484375,-2.869856103515626,5.513621865992062,1.6844876120919392,-3.263454312993584,-1.5708120681644628,3.9943814442011853
190,1791274037.0702882,3.944166064453125,-2.49149091796875,-2.7980055175781255,5.439927188364019,1.718849015456623,-3.2793900083145284,-1.5982788142886994,4.032782653797928
191,1791274037.0902882,4.059127001953125,-2.26156904296875,-2.7309449707031255,5.389737190912768,1.7895046493155828,-3.3137198709854943,-1.6534546026191728,4.113025455331967
192,1791274037.1147795,3.920215869140625,-2.23282880859375,-2.8027955566406257,5.311240898459851,1.877705645736161,-3.357708722736372,-1.7210507111249491,4.214499010443953
193,1791274037.1347795,3.996856494140625,-2.37173994140625,-2.1178199707031258,5.107364644581861,1.9508035908770027,-3.395149246850104,-1.7753516468894306,4.299365828663391
194,1791274037.1600676,4.394429736328125,-1.79214521484375,-1.9166383300781256,5.118232084122104,2.0452802571466453,-3.4432855385882206,-1.8413631179803078,4.407947908356311
195,1791274037.1800675,4.394429736328125,-1.03531904296875,-2.1609303222656258,5.005249053338468,2.1219756788879147,-3.479886458113597,-1.8918558206435105,4.4934962990144935
196,1791274037.1913455,4.087867236328125,-0.81976728515625,-2.4818629394531255,4.852042929930474,2.165911396063651,-3.498998823695487,-1.919984645802516,4.5409807293070745
197,1791274037.2113454,4.174087939453125,-1.20776044921875,-2.4531227050781257,4.989940524210177,2.2445316775427853,-3.5308495095664276,-1.9697876506472811,4.62437932044302
198,1791274037.235076,4.360899462890625,-1.45684248046875,-2.4483326660156255,5.209046648074604,2.3390144725435187,-3.5677148825128064,-2.0287399221505606,4.7239140400094985
199,1791274037.255076,4.092657275390625,-1.61491376953125,-2.7740553222656255,5.201266479216354,2.4193800474867055,-3.5987319985307464,-2.078805517300934,4.808919233069597
