imu_index,t_imu,ax,ay,az,mag,vx,vy,vz,velocity
0,1791274166.909375,0.02232158203124985,-0.031997460937500034,0.014609619140624783,0.04165971077982619,0.0,0.0,0.0,0.0
1,1791274166.929375,-0.006418652343750153,0.03027304687499997,0.038559814453124786,0.049442044412274115,5.231436173018236e-05,-4.338334241544376e-05,9.838132097109246e-05,0.00011957337144359996
2,1791274166.9546542,-0.030368847656250152,0.03506308593749997,0.04334985351562479,0.06348934322589236,3.877224939231774e-05,3.3880668003923675e-05,0.0003593756462809042,0.00036304550971902924
3,1791274166.9746542,-0.0016286132812501526,0.03027304687499997,0.024189697265624782,0.03878467741413334,-1.8330787659941572e-05,0.00018384379875489065,0.0006362001073016342,0.0006624840652026836
4,1791274167.00235,0.012741503906249849,-0.008047265625000032,0.009819580078124782,0.01798689964232281,-6.246182969089277e-05,0.0004065291115140544,0.0010326875115139347,0.0011115803592694428
5,1791274167.02235,-0.04473896484375015,-0.017627343750000034,0.009819580078124782,0.049078736494348366,-0.00013754599756034085,0.0005047034402156013,0.0013055136840019609,0.0014064175920140874
6,1791274167.0295835,-0.07347919921875015,-0.036787500000000035,0.04813989257812479,0.09523634879347365,-0.00022476207619299087,0.0005053638455219431,0.00142082885466174,0.0015246852926078557
7,1791274167.0495834,-0.03515888671875016,0.03506308593749997,0.033769775390624784,0.060049688098237956,-0.0005926953764110027,0.0005043293197655043,0.0018147084062265246,0.0019745385465022784
8,1791274167.0747972,0.02232158203124985,0.02548300781249997,-0.009340576171875219,0.03514090315817671,-0.0010112425479818611,0.0006177151503782862,0.002282979774360881,0.0025721936451201678
9,1791274167.0947971,-0.006418652343750153,-0.003257226562500033,-0.02850073242187522,0.02939558421553677,-0.0012695875334746867,0.0007275025415111743,0.0025419430409078314,0.0029330166853053035
10,1791274167.1201136,-0.025578808593750155,0.03985312499999997,0.024189697265624782,0.0531760140960556,-0.001608308877512633,0.0009151143678329976,0.002812389385259528,0.0033665450845073797
11,1791274167.1401136,-0.04952900390625015,0.04464316406249997,0.07688012695312478,0.10176781537296167,-0.0019484214646271003,0.001167839796656936,0.003145598372503999,0.0038800754007590026
12,1791274167.150362,-0.04952900390625015,0.04943320312499997,0.033769775390624784,0.0776991732843799,-0.0021726994756318995,0.0013502265519536867,0.0033757793603165706,0.004235518981488718
13,1791274167.170362,-0.04952900390625015,0.0015328124999999674,0.014609619140624783,0.05166152062744194,-0.002693316529350099,0.0017292168785823499,0.0038301703671355155,0.00499142764965371
14,1791274167.1953173,-0.020788769531250154,0.006322851562499968,0.009819580078124782,0.0238448221510572,-0.0033770929694061378,0.0021458770748592044,0.00435782031404792,0.0059160918885652345
15,1791274167.2153172,-0.04473896484375015,-0.017627343750000034,0.06251000976562479,0.07886570575268749,-0.00394118537417285,0.0024127568258660815,0.0048257592970715165,0.006681488640088339
16,1791274167.2398646,-0.025578808593750155,0.04943320312499997,0.04813989257812479,0.0735891722857827,-0.004659140605240749,0.002749738753361972,0.0055176547139028,0.007727429581238354
17,1791274167.2598646,-0.011208691406250153,0.03985312499999997,-0.03329077148437522,0.053124211065493095,-0.005211533640690746,0.0031170411699560988,0.006019092780481354,0.008550175813589765
18,1791274167.2696686,-0.011208691406250153,-0.008047265625000032,-0.05724096679687522,0.0588805700288374,-0.005458183229279976,0.0032934722492296512,0.006161459342673614,0.008865794090337253
19,1791274167.2896686,-0.011208691406250153,-0.031997460937500034,0.04813989257812479,0.05888057002883702,-0.005919495375370889,0.003539333644688874,0.006394668891239777,0.009405269713094555
20,1791274167.3152547,-0.03515888671875016,-0.008047265625000032,0.08646020507812478,0.0936817637616447,-0.006510109012119591,0.003729841937153669,0.006906555785162272,0.010197732740143243
21,1791274167.3352547,-0.03994892578125015,0.03027304687499997,0.024189697265624782,0.05565532761537168,-0.007015187254707115,0.0038897584577783093,0.007412639340077776,0.010922009662352974
22,1791274167.359368,-0.006418652343750153,-0.012837304687500033,0.04334985351562479,0.045664048105438115,-0.007616658193099609,0.004085176944815212,0.00805343018872416,0.011813546906226546
23,1791274167.379368,0.01753154296874985,0.011112890624999969,0.06251000976562479,0.06586617233304848,-0.00802402650905814,0.004220360562427895,0.008663978045761142,0.012540373211049003
24,1791274167.3901918,-0.011208691406250153,0.0015328124999999674,0.06251000976562479,0.06352547204152999,-0.008206286766722968,0.004292811741599448,0.009046324134770328,0.012946325945913564
25,1791274167.4101918,-0.059109082031250156,0.01590292968749997,0.04334985351562479,0.07500664337942843,-0.008598025306514863,0.0044327587497718585,0.00980563497785383,0.013774101300050738
26,1791274167.4352038,-0.025578808593750155,-0.022417382812500032,0.005029541015624782,0.03438183799720036,-0.009173314077678784,0.004569303587150323,0.010703546258152124,0.01481870874738035
27,1791274167.4552038,0.07980205078124986,-0.07510781250000004,0.009819580078124782,0.11002715555870309,-0.009482987344536073,0.004515821727283825,0.011336105671879896,0.015454028169162484
28,1791274167.480482,0.06064189453124985,0.006322851562499968,0.024189697265624782,0.06559389665222835,-0.009549414510562062,0.004327956888622097,0.012080160583924625,0.01599539959043571
29,1791274167.500482,-0.006418652343750153,0.09254355468749997,0.038559814453124786,0.10046077793232361,-0.009512752800649412,0.0043499149712567355,0.012674670725417387,0.016433548128787626
30,1791274167.5094943,-0.0016286132812501526,0.06380332031249997,0.014609619140624783,0.06547485804149135,-0.009504149920386932,0.004464002811341543,0.012938317994996095,0.016663020714999303
31,1791274167.5294943,-0.025578808593750155,0.04464316406249997,0.014609619140624783,0.05348577865209691,-0.009528733182753938,0.00484187917299103,0.013479471351029504,0.01720281075572203
32,1791274167.5550818,-0.03515888671875016,0.04464316406249997,0.11041040039062479,0.12417574613116392,-0.009672026500243212,0.005424155680453969,0.01430788240907544,0.01810207337569756
33,1791274167.5750818,-0.06389912109375015,0.011112890624999969,0.12478051757812479,0.14062990998241331,-0.00991581526498887,0.005894645313810323,0.01521105212220555,0.019090477794163934
34,1791274167.5999591,-0.13095966796875017,0.18355429687499997,0.13915063476562478,0.2649632308291798,-0.010537137062109079,0.006755297428614937,0.01665840370314502,0.02083669155004412
35,1791274167.619959,-0.14053974609375017,0.41347617187499996,0.2541115722656248,0.5052589990290209,-0.011368967896467654,0.008238971465140868,0.01823734846717752,0.02301597186624062
36,1791274167.6449566,-0.08305927734375015,0.6673482421875,0.3451223144531248,0.7558848667866647,-0.012671905443204404,0.011841558188265494,0.021038259245239922,0.027265510080640598
37,1791274167.6649566,0.01753154296874985,0.662558203125,0.3211721191406248,0.7365067940218702,-0.01365628321185379,0.01628642025889552,0.02394251001143929,0.03201539226152934
38,1791274167.6745746,0.18997294921874985,0.6865083984375,0.3786525878906248,0.8066977655084698,-0.013908980562139203,0.019076487963646627,0.025634493483165377,0.03484966842659438
39,1791274167.6945746,0.28098369140624985,0.63381796875,0.4744533691406248,0.8401089523600784,-0.013649191237532624,0.025988446748331274,0.029904748027437096,0.041904578991013505
40,1791274167.7198868,0.24266337890624987,0.6146578125,0.3882326660156248,0.7664296085689036,-0.012375619086225238,0.03579424082412013,0.03613629022153717,0.0523470638614776
41,1791274167.7398868,0.3145139648437499,0.5236470703125,0.2780617675781248,0.6711509777369552,-0.010684506702692803,0.044087391844944,0.041320913472876565,0.06136183417567042
42,1791274167.7647312,0.23787333984374986,0.4374263671875,0.3163820800781248,0.5899348888765901,-0.007869600671625336,0.054634830927442105,0.04790294216808011,0.07308616307865298
43,1791274167.7847311,0.01753154296874985,0.509276953125,0.4217629394531248,0.6614789090207555,-0.0055603718738543775,0.06327205363039604,0.05351396412350156,0.08305428864420353
44,1791274167.795281,0.3432541992187499,0.681718359375,0.3499123535156248,0.8396439852301036,-0.004239525785907702,0.06808704837637651,0.05664033247032277,0.08866762091003182
45,1791274167.815281,0.4055247070312499,0.873319921875,0.3547023925781248,1.0261343777776784,-0.000987939308682862,0.07817851455190053,0.06273510200452426,0.10024245201079943
46,1791274167.8395097,0.25224345703124984,0.643398046875,0.4265529785156248,0.8121177573592341,0.0035555726274197987,0.09132607471449938,0.07043070804140396,0.11538448186251331
47,1791274167.8595097,0.007951464843749848,0.5763375,0.2110012207031248,0.6137993604082853,0.00713378947719194,0.10238057416770846,0.07678660906485303,0.12817509996443582
48,1791274167.8852737,0.10854228515624985,0.6146578125,0.10562036132812479,0.6330413216065042,0.011276932340694237,0.11678628478695484,0.08435794114753839,0.14450767367862463
49,1791274167.9052737,0.5683860351562499,0.720038671875,0.1678908691406248,0.9325801402008034,0.01502611491637083,0.12829372103442716,0.08976403822352118,0.15729795149503115
50,1791274167.9142752,0.3049338867187499,0.4661666015625,0.12478051757812479,0.5708468737312999,0.01705000535376746,0.1334968714203921,0.09202980143001145,0.16303865097836015
51,1791274167.9342752,0.16123271484374985,0.08296347656249997,-0.17220190429687524,0.25006483683775416,0.021571520838671455,0.14414709872212608,0.09623773021736483,0.17465800095812928
52,1791274167.959567,0.22350322265624986,-0.34335000000000004,-0.32548315429687524,0.5232420059291616,0.027161535537401846,0.15510118349758642,0.09981680911399678,0.1864336920108637
53,1791274167.979567,0.5156956054687499,-0.34335000000000004,-0.27279272460937526,0.6769394733649288,0.032027665512498776,0.16143393120465166,0.10132507685578625,0.19327042376473358
54,1791274168.0045319,0.7743577148437499,-0.14216835937500005,-0.29674291992187524,0.8413667889031358,0.0396061008981151,0.16724394529706024,0.10185898093105687,0.19978596663227163
55,1791274168.0245318,0.6593967773437499,-0.26191933593750005,-0.3206931152343752,0.7786205254602477,0.046917325907179404,0.17059418923265374,0.10129639395075556,0.20387391274425873
56,1791274168.034816,0.29056376953124985,-0.6163822265625001,-0.35422338867187525,0.7680029703513789,0.050845621460881424,0.17138106193710492,0.10052992690697951,0.20509269079212863
57,1791274168.054816,0.45821513671874986,-0.4966312500000001,-0.44523413085937524,0.8092200821018027,0.05846234736034414,0.1710122611336759,0.09806375495622206,0.20561989094698027
58,1791274168.0795445,0.5875461914062499,-0.39125039062500006,-0.39254370117187526,0.8076991720497918,0.0684067616625904,0.16897796381301308,0.09391812100758849,0.20506986796979815
59,1791274168.0995445,0.6737668945312498,-0.28107949218750006,-0.44523413085937524,0.8551028829192254,0.07713515837131746,0.16657096335790175,0.0898114805064135,0.20435709070570948
60,1791274168.1246505,0.7935178710937499,-0.36251015625000005,-0.37817358398437523,0.9508414614188551,0.0892112115297502,0.1627908393034997,0.08387924587733807,0.20370376901936457
61,1791274168.1446505,0.6210764648437499,-0.5014212890625,-0.35422338867187525,0.8732888945761852,0.09951015392416765,0.15893530952338206,0.0787637598687413,0.20338739689559318
62,1791274168.1542127,0.5348557617187498,-0.47268105468750005,-0.6176755371093753,0.9439391582340393,0.10452460358939396,0.15666984089785468,0.07598783006748759,0.20308860657566297
63,1791274168.1742127,0.6641868164062499,-0.74571328125,-0.6607858886718753,1.197443282827371,0.11523796380463291,0.15081465156690416,0.06913503116785288,0.20200123753003243
64,1791274168.1992102,0.7168772460937499,-1.061855859375,-0.6751560058593753,1.4482011201155602,0.12920900253835277,0.14120528633507112,0.05935002360224777,0.20039043022937209
65,1791274168.2192101,0.6019163085937499,-1.1193363281250002,-0.8332272949218753,1.519698911960626,0.14068844873974856,0.1313984784260191,0.05043297931274027,0.19900322897839912
66,1791274168.244491,0.3432541992187499,-1.5743900390625,-0.7230563964843753,1.7661647694588112,0.15481455298098393,0.11575413937141599,0.037901311785062106,0.19698496397275495
67,1791274168.264491,0.39115458984374984,-1.7180912109375002,-0.6847360839843752,1.8904239807426204,0.1654151562427012,0.10029550564928955,0.027362800764849565,0.19537165923936045
68,1791274168.289845,0.4151047851562499,-1.8043119140625001,-0.9625583496093753,2.0867132151520544,0.1783708899561018,0.07694017487866489,0.012874709611755474,0.19468364862432166
69,1791274168.309845,0.39115458984374984,-1.5743900390625,-1.2978610839843754,2.077534428493581,0.18826719344459547,0.056212204216650324,-0.00023028891701225296,0.1964800271360538
70,1791274168.3195438,0.14207255859374984,-1.8234720703125,-1.1924802246093753,2.1834019531912934,0.19273434972326642,0.04519643140911737,-0.007443710952359919,0.19810263957885998
71,1791274168.3395438,-0.04473896484375015,-2.3647464843750003,-1.0679392089843753,2.595095694656632,0.20071029321097966,0.019605880707200794,-0.023477880446593775,0.20302764154027642
72,1791274168.3651135,0.32888408203124986,-2.3743265625000003,-1.0296188964843753,2.608774891937652,0.2099227617161448,-0.01729192877217683,-0.04492495133790329,0.21537137214566918
73,1791274168.3851135,0.6067063476562499,-2.096504296875,-1.1062595214843753,2.446882299575638,0.21745104987108815,-0.04852965392016122,-0.06238783740302065,0.2313705440532023
74,1791274168.424925,0.6162864257812499,-2.182725,-0.9290280761718752,2.450957068278195,0.2338405749121054,-0.11416095741609278,-0.09801206074262317,0.2780656446316203
75,1791274168.444925,0.4725852539062499,-2.7527396484375006,-0.7374265136718753,2.8887212148900256,0.24247238336499316,-0.14958941589818095,-0.11572366463778846,0.30750905124997296
76,1791274168.4549818,0.7599875976562499,-2.8102201171875003,-0.6368356933593753,2.9800130798325637,0.24709139278613929,-0.1689278407758425,-0.12433035392593324,0.3241123396070109
77,1791274168.4749818,0.7312473632812498,-2.8820707031250006,-0.5937253417968752,3.0320890530472604,0.25713625358854225,-0.21015609705370836,-0.14072501017554453,0.3606773717982678
78,1791274168.48502,0.5827561523437499,-3.0305619140625004,-0.8763376464843753,3.2080956841569472,0.2624108657299686,-0.23219633360650851,-0.14882607095706968,0.38068858557878427
79,1791274168.50502,0.6833469726562499,-3.1742630859375005,-0.9577683105468753,3.3852960521159354,0.273242783420709,-0.2788295767887318,-0.165296694931809,0.42394639866268397
80,1791274168.5447268,0.7887278320312499,-3.3754447265625003,-0.9481882324218752,3.593713903359953,0.29590602089012796,-0.37703052341051496,-0.1987676219763272,0.5188650656272398
81,1791274168.5647268,0.7504075195312498,-3.4041849609375006,-1.0296188964843753,3.634790470665372,0.30791767583331053,-0.42924334593950336,-0.2160644479369263,0.5707424907839056
82,1791274168.5596752,0.5204856445312499,-3.5095658203125004,-1.1493698730468753,3.7294783359521815,0.30791767583331053,-0.42924334593950336,-0.2160644479369263,0.5707424907839056
83,1791274168.5796752,0.3624143554687499,-3.5239359375000006,-1.2691208496093753,3.7629956666952276,0.3195408325056179,-0.48633237663133516,-0.23496734534940897,0.6275628873497975
84,1791274168.6203976,0.6402366210937499,-3.3802347656250005,-1.1637399902343752,3.6318288459948316,0.34271933175720004,-0.6062230626447329,-0.2751130243970351,0.7487657298750693
85,1791274168.6403975,0.9899094726562498,-3.1119925781250006,-0.8044870605468752,3.3632748922660207,0.3548406580375834,-0.666011028299464,-0.29482460015075507,0.8101877111306411
86,1791274168.6499612,0.7264573242187499,-2.7814798828125005,-0.9146579589843753,3.016781358390954,0.36099856496386545,-0.6945395124257843,-0.30406960968848656,0.8397400941736228
87,1791274168.6699612,0.5683860351562499,-2.6904691406250003,-1.1062595214843753,2.964033908458354,0.37388685196724225,-0.7534584035404152,-0.3235345043098409,0.90120226332309
88,1791274168.6794422,0.7599875976562499,-2.7623197265625006,-0.9146579589843753,3.0074225845865277,0.3800246385000127,-0.7810765570273832,-0.3328147231951971,0.9301961910158051
89,1791274168.6994421,0.8509983398437498,-2.5946683593750004,-0.8188571777343753,2.850794476472424,0.39344657722828885,-0.8386332294988059,-0.3520550471146843,0.9909836824848204
90,1791274168.724172,0.7743577148437499,-2.5515580078125004,-0.9098679199218752,2.817434607843293,0.4105679902100803,-0.9086716591007933,-0.37548344957028107,1.0654755180384627
91,1791274168.744172,0.8222581054687499,-2.422226953125,-0.8811276855468753,2.705490307262525,0.42473258938115094,-0.9642784576484346,-0.3942751968457687,1.125026065126951
92,1791274168.7695377,0.7504075195312498,-2.4509671875000003,-0.8092770996093752,2.6879882856000075,0.4429944441991477,-1.033495594282604,-0.41774928540293066,1.1995297772241937
93,1791274168.7895377,0.5540159179687498,-2.5419779296875005,-0.9529782714843753,2.770695403378447,0.45719014715011974,-1.0873742333704015,-0.4361249673908369,1.2576209847289743
94,1791274168.799594,0.5923362304687498,-2.6329886718750006,-1.0535690917968752,2.897153669955686,0.46412186857311094,-1.1143045568160035,-0.44549195148551696,1.2866805481808918
95,1791274168.819594,0.7504075195312498,-2.8293802734375006,-0.9002878417968753,3.062518959153328,0.4778539752547463,-1.1680234952854949,-0.46425750977550795,1.344677783927683
96,1791274168.8442037,0.6067063476562499,-2.9443412109375005,-0.7134763183593753,3.0897064934344396,0.4947215013205371,-1.2348658440810334,-0.4868633203480731,1.4165729453322056
97,1791274168.8642037,0.5013254882812499,-2.7479496093750004,-0.7182663574218753,2.8841742078225336,0.5080353130973748,-1.2895776930849319,-0.5046265955201065,1.4750452558353644
98,1791274168.8897781,0.6546067382812499,-2.6042484375000003,-0.8044870605468752,2.8031802183612387,0.5247234690057767,-1.3593107837269964,-0.5268545334938227,1.549398665658697
99,1791274168.909778,0.7072971679687499,-2.6760990234375006,-0.7374265136718753,2.8645371580983228,0.5378593641090268,-1.4135846542719637,-0.5439428767175613,1.6072921711638894
100,1791274168.9344018,0.6689768554687499,-2.7910599609375004,-0.5218747558593753,2.9171731178496385,0.5541478138834824,-1.480479150087769,-0.5641515626425817,1.678441330255101
101,1791274168.9544017,0.6306565429687498,-2.6713089843750004,-0.5506149902343752,2.799427840231409,0.5673426940405197,-1.5348561882178646,-0.5797122312940887,1.736009078923206
102,1791274169.0094588,0.7120872070312498,-2.6234085937500002,-0.6703659667968752,2.7997734496952478,0.6037623109268428,-1.683957841643298,-0.6211648275920247,1.8936970939316313
103,1791274169.0294588,0.6977170898437499,-2.6234085937500002,-0.8571774902343753,2.8467235617435507,0.6171223129174348,-1.7378662284419883,-0.6362554729286987,1.9508562232751718
104,1791274169.010459,0.5540159179687498,-2.7239994140625003,-0.9194479980468753,2.927881668764639,0.6171223129174348,-1.7378662284419883,-0.6362554729286987,1.9508562232751718
105,1791274169.030459,0.6354465820312499,-2.7718998046875005,-0.8428073730468753,2.966065601753268,0.6301550644670331,-1.791876817578082,-0.6520670400574575,2.0082602817803523
106,1791274169.054527,0.9084788085937499,-2.7910599609375004,-0.8380173339843753,3.052478092185207,0.6462731665840058,-1.8571657782273545,-0.6712746995461487,2.0778218056214794
107,1791274169.074527,0.7456174804687499,-2.8724906250000006,-0.9481882324218752,3.115478894487456,0.6601389746417149,-1.91177651359229,-0.6875209120487905,2.1362017480258055
108,1791274169.0845835,0.5156956054687499,-2.9587113281250006,-0.9290280761718752,3.143725154492772,0.6670165706545653,-1.9395153316401705,-0.6958804335354825,2.1658440398543446
109,1791274169.1045835,0.7120872070312498,-2.7958500000000006,-0.7757468261718753,2.9875790451858015,0.6804844620895486,-1.995038197101431,-0.7125689304943412,2.225082243815918
110,1791274169.1444142,0.7025071289062499,-2.8006400390625004,-0.7422165527343753,2.981272598357454,0.7075088052151539,-2.1057460231763705,-0.7453539275300904,2.343136253158276
111,1791274169.1644142,0.6593967773437499,-2.8437503906250003,-0.7517966308593752,3.014451619834472,0.7210858167463511,-2.1614633890371353,-0.7615877856834146,2.4024788641240566
112,1791274169.189761,0.5731760742187498,-2.9012308593750005,-0.7661667480468752,3.0549439924914084,0.7380546208669619,-2.2324055093642023,-0.7819611756656702,2.477866473777624
113,1791274169.209761,0.5061155273437499,-2.8820707031250006,-0.7182663574218753,3.013036844287498,0.7510544764436706,-2.2886610943775034,-0.7978521871785125,2.537443702644227
114,1791274169.2198503,0.5827561523437499,-2.7814798828125005,-0.8619675292968753,2.969717679030667,0.7574527663459911,-2.3170691139194606,-0.805862020311407,2.56748078234387
115,1791274169.2398503,0.5683860351562499,-2.7527396484375006,-0.9338181152343753,2.9618667305232247,0.7699601837022957,-2.3732361155822432,-0.8220517483114455,2.626948309672779
116,1791274169.249575,0.6067063476562499,-2.6521488281250005,-0.7949069824218753,2.834407011971684,0.7759865062335989,-2.40039178262631,-0.8300037473324192,2.6557375601784146
117,1791274169.2695749,0.6306565429687498,-2.7096292968750006,-0.6272556152343752,2.8518885336765285,0.7883773991986549,-2.4559063270807107,-0.8460381900720063,2.714552528506792
118,1791274169.3092253,0.6593967773437499,-2.8102201171875003,-0.6751560058593753,2.9644522005363205,0.8130941930969735,-2.5658712360920406,-0.8769316457124179,2.830870268716743
119,1791274169.3292253,0.5540159179687498,-2.9251810546875006,-0.7757468261718753,3.076589179331744,0.8255115469861722,-2.6216213893047535,-0.8923534559975302,2.8897513238163635
120,1791274169.3247619,0.5109055664062498,-3.1790531250000003,-0.6847360839843752,3.2918485344966,0.8255115469861722,-2.6216213893047535,-0.8923534559975302,2.8897513238163635
121,1791274169.3447618,0.6546067382812499,-3.2700638671875004,-0.5841452636718752,3.3857131252306023,0.8375891255585739,-2.679357432420435,-0.9072611480694562,2.950192296226961
122,1791274169.3854053,0.7599875976562499,-3.2556937500000003,-0.6895261230468752,3.413585976175851,0.8627633618303225,-2.7989798950940723,-0.9368944067868094,3.075129298277715
123,1791274169.4054053,0.7120872070312498,-3.2509037109375005,-0.8954978027343753,3.4463545149776555,0.87550112850836,-2.8587744061558147,-0.951666677399418,3.1376364984145932
124,1791274169.4144614,0.6881370117187499,-3.2221634765625007,-0.9290280761718752,3.423297121622102,0.8813547361315384,-2.8861849231228263,-0.9585915221320915,3.166346046733763
125,1791274169.4344614,0.6881370117187499,-3.1215726562500006,-0.9098679199218752,3.3234933468938754,0.8944074657991259,-2.9471552052826016,-0.9743490972903811,3.230331977102683
126,1791274169.4599686,0.5731760742187498,-3.0976224609375005,-0.9290280761718752,3.2843399472157158,0.9109703191796289,-3.025148073269471,-0.9949490985104374,3.3122970120837536
127,1791274169.4799685,0.5923362304687498,-2.9443412109375005,-0.9194479980468753,3.1409221571798374,0.9237573558051093,-3.0861915052069016,-1.0114512481884055,3.3765276967140623
128,1791274169.5197685,0.5540159179687498,-2.7479496093750004,-0.8523874511718753,2.9299701465957395,0.9488084651474953,-3.2064378413775816,-1.0446535302952709,3.503253078570266
129,1791274169.5397685,0.5109055664062498,-2.5802982421875003,-0.6751560058593753,2.7156581428207747,0.9611060774079534,-3.265791748982043,-1.061126734481299,3.56582537239005
130,1791274169.54987,0.5156956054687499,-2.3216361328125004,-0.7182663574218753,2.484319393895328,0.9671634164053902,-3.2949871527895676,-1.0692546341742695,3.5966165883764143
131,1791274169.56987,0.5923362304687498,-1.9671732421875001,-0.7517966308593752,2.1876542114502273,0.9790194026782857,-3.350553519328793,-1.0851382283970274,3.6554360685745477
132,1791274169.5643377,0.30014384765624985,-1.9480130859375002,-0.7086862792968752,2.0945351643582613,0.9790194026782857,-3.350553519328793,-1.0851382283970274,3.6554360685745477
133,1791274169.5843377,0.22350322265624986,-1.6318705078125002,-0.8907077636718752,1.872515784999237,0.9895087336312501,-3.401061897230692,-1.100875327934069,3.709215018084136
134,1791274169.6249979,0.43905498046874986,-1.2486673828125001,-0.8763376464843753,1.5874215506348675,1.0096553813159952,-3.497127520818319,-1.133458568214627,3.8123527134493185
135,1791274169.6449978,0.26182353515624984,-0.9325248046875001,-0.7374265136718753,1.217354483289659,1.0191300006036916,-3.540564291321471,-1.149502247311203,3.859478834724282
136,1791274169.6844542,0.23308330078124986,-0.7888236328125001,-0.6607858886718753,1.0550869819377322,1.0364825052750508,-3.6184971526619893,-1.1805434768276384,3.9448067795830584
137,1791274169.7044542,0.35762431640624986,-1.0283255859375,-0.6272556152343752,1.2565023952312206,1.0448449839052245,-3.6548006577439542,-1.195849814501069,3.9848871586382204
138,1791274169.699986,0.41989482421874985,-1.0858060546875001,-0.39733374023437523,1.2301059112655168,1.0448449839052245,-3.6548006577439542,-1.195849814501069,3.9848871586382204
139,1791274169.719986,0.5444358398437499,-1.1480765625,0.06251000976562479,1.2721625990372003,1.053324705291017,-3.6870762761670113,-1.2087172287692454,4.020574802210948
140,1791274169.7300394,0.7072971679687499,-1.176816796875,0.1631008300781248,1.3826673273047,1.0578916462946308,-3.70261965204531,-1.2140449739712178,4.037627053336758
141,1791274169.7500393,0.9084788085937499,-1.2726175781250002,0.06730004882812479,1.5650618334075264,1.0680378647122588,-3.732577170620809,-1.2227084262447343,4.070362773845673
142,1791274169.7899556,0.7599875976562499,-1.5216996093750002,0.14394067382812478,1.707006082984311,1.0902452723887532,-3.7917638103146145,-1.2367730868278073,4.134696508267471
143,1791274169.8099556,0.4151047851562499,-1.5312796875,0.10083032226562479,1.5897472182387689,1.1014658447279475,-3.821550333079758,-1.2423959432868983,4.166655929550699
144,1791274169.83434,0.4438450195312499,-1.6797708984375002,-0.08598120117187522,1.7395463315345128,1.1146650766348793,-3.858291852365104,-1.2481959899721324,4.205578138672363
145,1791274169.85434,0.43905498046874986,-1.9911234375000002,-0.26800268554687523,2.0564939238170794,1.1251914488434984,-3.8894130369082127,-1.252770546476187,4.238280737556249
146,1791274169.8649986,0.42947490234374985,-2.33600625,-0.5314548339843752,2.4338895070129203,1.1306540485171233,-3.9069695766650843,-1.2554818366524563,4.256644745874259
147,1791274169.8849986,0.4534250976562499,-2.5802982421875003,-0.7565866699218753,2.726895070757941,1.1406910757193622,-3.9423461672929867,-1.261738321505251,4.293629353466644
148,1791274169.894679,0.37199443359374984,-2.6904691406250003,-1.0966794433593752,2.929114176123422,1.1454198161416824,-3.9607276552504436,-1.2656579193482675,4.312915496863428
149,1791274169.914679,0.28098369140624985,-2.8198001953125003,-1.2739108886718753,3.1069396403209164,1.1547034434473948,-4.001272860104683,-1.2760970238022848,4.355679987955569
150,1791274169.9399652,0.22829326171874986,-2.9635013671875003,-1.3170212402343753,3.25100032511485,1.1656460532803417,-4.055813177371133,-1.2922291696390027,4.413412226172768
151,1791274169.9599652,0.5396458007812499,-2.9156009765625006,-1.1589499511718753,3.1835690088569364,1.17415470899991,-4.101299435443892,-1.3067888111661854,4.461725376670799
152,1791274169.970018,0.6258665039062499,-2.8724906250000006,-1.1972702636718753,3.174329434021877,1.1786686807796949,-4.125096892586803,-1.3147857376871703,4.487131128940388
153,1791274169.990018,0.41031474609374985,-2.8916507812500005,-1.0775192871093753,3.1130451724410317,1.1878564817011035,-4.173986727662126,-1.331721437671535,4.539454836362275
154,1791274170.014593,0.43905498046874986,-2.8437503906250003,-1.0008786621093753,3.046546184832935,1.199018067002425,-4.23562020232813,-1.3532404775705524,4.605364547297401
155,1791274170.0345929,0.5444358398437499,-2.8198001953125003,-0.7182663574218753,2.96033614398684,1.2082144333603058,-4.286751055467451,-1.3707051907373535,4.659919468021502
156,1791274170.0596166,0.44863505859374986,-2.8006400390625004,-0.5745651855468753,2.893956322518005,1.2198586175457429,-4.351677453014787,-1.3917054136725902,4.728847180901861
157,1791274170.0796165,0.36720439453124987,-2.8724906250000006,-0.5937253417968752,2.9561040644009426,1.2289929144399299,-4.404295236753301,-1.407724461700653,4.7843419898980635
158,1791274170.0897536,0.21871318359374986,-2.9347611328125005,-0.7709567871093752,3.042208528509286,1.2333736723707895,-4.431379508643622,-1.4156634318575385,4.812737050538151
159,1791274170.1097536,0.3624143554687499,-2.9347611328125005,-0.8763376464843753,3.0841748884203235,1.2415919365537955,-4.485604371326689,-1.431448101406722,4.869418936587959
160,1791274170.1349041,0.6210764648437499,-3.0209818359375005,-0.6607858886718753,3.154156815840804,1.2522315789988392,-4.554799525642579,-1.4512197779690326,4.941692168701353
161,1791274170.1549041,0.6067063476562499,-3.0545121093750005,-0.5745651855468753,3.166743117312709,1.2612648969334914,-4.610683786201361,-1.4664370572007441,4.999963175795233
162,1791274170.2257214,0.3959446289062499,-2.9251810546875006,-0.6559958496093753,3.0238695253874814,1.2937781647402329,-4.810640513254001,-1.5187729081851304,5.207954995385084
163,1791274170.2457213,0.3145139648437499,-2.9395511718750003,-0.7278464355468752,3.0446084411450536,1.3026488025982839,-4.867438082971261,-1.5334121177017164,5.266896630577075
164,1791274170.2257214,0.4821653320312499,-3.0545121093750005,-0.6655759277343752,3.1631501623082636,1.3026488025982839,-4.867438082971261,-1.5334121177017164,5.266896630577075
165,1791274170.2457213,0.5875461914062499,-3.0018216796875006,-0.6176755371093753,3.1205235126211166,1.311678169340453,-4.925201242507124,-1.5476904337578823,5.326673687946701
166,1791274170.254269,0.45821513671874986,-2.7431595703125002,-0.6272556152343752,2.8510235261320274,1.3156286781672206,-4.949867833680859,-1.5536754145515492,5.35219372626836
167,1791274170.2742689,0.30972392578124985,-2.6425687500000006,-0.7230563964843753,2.757155973312878,1.324637647555424,-5.00700514532987,-1.5676042496935536,5.41129822744397
168,1791274170.2999463,0.3240940429687499,-2.6665189453125,-0.7709567871093752,2.7945902386554504,1.335689678758423,-5.079582940954852,-1.5856818637433365,5.486402896706171
169,1791274170.3199463,0.4342649414062499,-2.6665189453125,-0.7134763183593753,2.794272317063015,1.3441443136725961,-5.1356332781842475,-1.5998769596605988,5.544462046946006
170,1791274170.329771,0.4151047851562499,-2.5563480468750006,-0.6224655761718753,2.663586062611875,1.348300430279431,-5.162885733882545,-1.6067885533390163,5.572707834308281
171,1791274170.349771,0.5013254882812499,-2.5276078125000003,-0.6703659667968752,2.662615073278708,1.3568664934727024,-5.217667178111562,-1.62068707989539,5.629543860171216
172,1791274170.3750458,0.5396458007812499,-2.5323978515625005,-0.7805368652343753,2.7043472903621515,1.368041242500185,-5.286103982830334,-1.6383669129308571,5.7007612035466595
173,1791274170.3950458,0.4917454101562499,-2.4988675781250005,-0.7470065917968752,2.6540858255908053,1.3771045456261144,-5.339681968302091,-1.6525498107148524,5.756695347948186
174,1791274170.4197533,0.5540159179687498,-2.5084476562500004,-0.6272556152343752,2.644370036199913,1.3885595330443945,-5.405221606213413,-1.669989475791892,5.825236736677785
175,1791274170.4397533,0.5683860351562499,-2.5515580078125004,-0.6703659667968752,2.698685139402566,1.3981247152987388,-5.457906022809714,-1.6839352326005645,5.880402090073879
176,1791274170.4648204,0.4342649414062499,-2.6617289062500005,-0.7613767089843753,2.802334973318728,1.4102000207516099,-5.523834636883999,-1.7014840996437741,5.949492527561305
177,1791274170.4848204,0.4630051757812499,-2.6377787109375004,-0.7853269042968752,2.7908759677362664,1.419735147598559,-5.576495316196014,-1.7157054323161,6.004714233946671
178,1791274170.495055,0.5827561523437499,-2.6760990234375006,-0.7901169433593752,2.850507937284371,1.4246853688776293,-5.6034800711211,-1.7231005971327504,6.0330583434593565
179,1791274170.515055,0.6067063476562499,-2.8102201171875003,-0.7853269042968752,2.9802966372400292,1.434692034494792,-5.656532070436726,-1.7377473624964246,6.088880208510041
180,1791274170.539147,0.5588059570312499,-2.7575296875000004,-0.8380173339843753,2.9357294029109258,1.4470439124207162,-5.720912852417161,-1.7556775365122639,6.156718570930417
181,1791274170.559147,0.5731760742187498,-2.7239994140625003,-0.7996970214843753,2.8962422112179507,1.4574577265279676,-5.77456408196461,-1.7707861556078803,6.213328976500793
182,1791274170.5999777,0.6593967773437499,-2.7431595703125002,-0.8188571777343753,2.9377296702888596,1.4793034763489006,-5.884407904005529,-1.801960856649902,6.329427942931267
183,1791274170.6199777,0.6114963867187498,-2.7671097656250003,-0.8380173339843753,2.955181439107523,1.4903053238564703,-5.938406934532333,-1.8174257979798325,6.386604998712483
184,1791274170.615014,0.6114963867187498,-2.7910599609375004,-0.8092770996093752,2.9696587279468143,1.4903053238564703,-5.938406934532333,-1.8174257979798325,6.386604998712483
185,1791274170.635014,0.6641868164062499,-2.7575296875000004,-0.7949069824218753,2.945673304226857,1.5017269959595507,-5.99283077026628,-1.83310579031878,6.444337161411116
186,1791274170.6604407,0.6162864257812499,-2.8629105468750002,-0.8763376464843753,3.0568011758464295,1.5165114862738023,-6.062361106259777,-1.8532371603384465,6.518168242930751
187,1791274170.6804407,0.5540159179687498,-2.8677005859375004,-0.8619675292968753,3.045263257833582,1.5281516980365892,-6.117444290543807,-1.8693042449500734,6.576676259350729
188,1791274170.705017,0.5540159179687498,-2.7479496093750004,-0.7470065917968752,2.901065242495411,1.5423522481825431,-6.18532957163843,-1.8890520125314476,6.648734456519354
189,1791274170.725017,0.5588059570312499,-2.7096292968750006,-0.7470065917968752,2.8657239700091326,1.553844271645278,-6.240473480006647,-1.9049529388495228,6.707219019416508
190,1791274170.7351744,0.5779661132812499,-2.8533304687500003,-0.8907077636718752,3.0444868060584342,1.5596712303241187,-6.268516292422215,-1.91306478476612,6.736964281171137
191,1791274170.7551744,0.5827561523437499,-2.9347611328125005,-0.7949069824218753,3.0958528308794744,1.5711646820213634,-6.3241326622776395,-1.9291697075506475,6.795947921272587
192,1791274170.780206,0.5635959960937499,-2.8868607421875003,-0.7661667480468752,3.039509315236424,1.5855440297738657,-6.394229049244372,-1.9492335194937793,6.870198419119366
193,1791274170.800206,0.5444358398437499,-2.7479496093750004,-0.8667575683593752,2.932389149086261,1.5969716923893473,-6.450286644743512,-1.9653090774524766,6.92957113792524
194,1791274170.825114,0.5204856445312499,-2.8102201171875003,-0.9050778808593752,2.9979006627353972,1.6110583303297967,-6.5200121124054435,-1.9856365380797576,7.003486228371988
195,1791274170.845114,0.5875461914062499,-2.9012308593750005,-0.8380173339843753,3.0764629168062587,1.6223346363360394,-6.576167553091115,-2.002124857076982,7.063034284350423
196,1791274170.8548043,0.6306565429687498,-2.9778714843750005,-0.8523874511718753,3.161014175792059,1.6278639967918436,-6.603567232217694,-2.010143902824467,7.092088542350043
197,1791274170.8748043,0.5396458007812499,-2.9395511718750003,-0.9577683105468753,3.1383911195165495,1.639319786727921,-6.660511511972202,-2.0269272083987433,7.152497247284967
198,1791274170.9001105,0.40073466796874985,-2.9395511718750003,-0.9338181152343753,3.1102356242772977,1.6534254782601443,-6.732914313503276,-2.048568083391228,7.229286421039513
199,1791274170.9201105,0.5588059570312499,-2.9108109375000004,-0.8236472167968752,3.0762768323446577,1.6643405800080413,-6.790327938760637,-2.0657419875454406,7.290121606755472
200,1791274170.9447956,0.6977170898437499,-2.8389603515625006,-0.8428073730468753,3.0425037852509047,1.6781181365749647,-6.861206745639741,-2.086844718081352,7.365267093873661
201,1791274170.9647956,0.6067063476562499,-2.8629105468750002,-0.9242380371093752,3.0689681231538217,1.6895629962349932,-6.918571839481457,-2.104028156995977,7.426182996785379
202,1791274170.9751291,0.7216672851562499,-2.8293802734375006,-0.8332272949218753,3.0365217152500135,1.6956188114354611,-6.948176812455093,-2.112936769907409,7.457666254563767
203,1791274170.995129,0.97074931640625,-2.8006400390625004,-0.8284372558593752,3.0777016019424326,1.7081200197877744,-7.005325779045117,-2.130085065133744,7.518611950171367
204,1791274171.0201628,0.8030979492187499,-2.8820707031250006,-0.8619675292968753,3.1135648179238142,1.7247509264533205,-7.076797946698963,-2.1515034989254582,7.595051167871928
205,1791274171.0401628,0.6641868164062499,-2.8006400390625004,-0.8763376464843753,3.0087699191087456,1.738245627644126,-7.133857582330838,-2.168655861549144,7.656140680057712
206,1791274171.0642471,0.6929270507812498,-2.7479496093750004,-0.8667575683593752,2.9635525363449986,1.7545099894784526,-7.202285523223255,-2.1893613583540033,7.729458274592382
207,1791274171.084247,0.6498166992187498,-2.8150101562500005,-0.8140671386718753,3.001541142253362,1.7680043433235013,-7.258929986712879,-2.2064976192851598,7.790156330518745
208,1791274171.1250372,0.5731760742187498,-2.7814798828125005,-0.7613767089843753,2.9402135370634794,1.7951393346424647,-7.374248797373118,-2.24102438633357,7.9135491946712015
209,1791274171.1450372,0.6162864257812499,-2.6760990234375006,-0.7901169433593752,2.857551351424666,1.808232511643026,-7.4304963007914555,-2.2577412621055415,7.973667644117873
210,1791274171.139435,0.5444358398437499,-2.7239994140625003,-0.8715476074218753,2.9113877143936033,1.808232511643026,-7.4304963007914555,-2.2577412621055415,7.973667644117873
211,1791274171.159435,0.5061155273437499,-2.7862699218750007,-0.8811276855468753,2.9657779759788085,1.8207480770511963,-7.486285637074252,-2.274566835564792,8.03325902043505
212,1791274171.1840098,0.5396458007812499,-2.8006400390625004,-0.8523874511718753,2.976804761084631,1.8357471356671304,-7.554850861938947,-2.2953349916114143,8.10643582691959
213,1791274171.2040098,0.4630051757812499,-2.8868607421875003,-0.8332272949218753,3.0401655321028844,1.8476269511268555,-7.610813203845985,-2.3122301178350475,8.166064602499185
214,1791274171.2300818,0.5827561523437499,-2.8485404296875005,-0.8763376464843753,3.03673426287262,1.8628354084574985,-7.684037970061915,-2.3342938539480245,8.243999216456523
215,1791274171.2500818,0.6067063476562499,-2.8724906250000006,-0.8380173339843753,3.053124307174138,1.8745361115973918,-7.740364930008048,-2.3512518058844716,8.303946046191301
216,1791274171.2739596,0.5923362304687498,-2.8868607421875003,-0.7661667480468752,3.0449693989467312,1.8885573946508,-7.807840164657063,-2.371333740866488,8.375693450711655
217,1791274171.2939596,0.5923362304687498,-2.7766898437500003,-0.7517966308593752,2.9370166619346643,1.9003169374952436,-7.864374876985444,-2.387908136791473,8.43573956084741
218,1791274171.3348582,0.5444358398437499,-2.7671097656250003,-0.7901169433593752,2.9287525711311253,1.9242441890727777,-7.9796479852178255,-2.421447248203902,8.558089999702357
219,1791274171.3548582,0.5683860351562499,-2.8054300781250006,-0.8236472167968752,2.978572702813602,1.9358590730058916,-8.035921454430179,-2.4378088311236925,8.617801104076094
220,1791274171.3488796,0.6067063476562499,-2.8150101562500005,-0.7996970214843753,2.988626791395677,1.9358590730058916,-8.035921454430179,-2.4378088311236925,8.617801104076094
221,1791274171.3688796,0.5875461914062499,-2.7383695312500005,-0.7805368652343753,2.907424292170691,1.9475404451070182,-8.09207515198792,-2.4540701852827045,8.677387540328105
222,1791274171.3939965,0.6114963867187498,-2.7287894531250005,-0.8428073730468753,2.920709499165999,1.9622686802770823,-8.162316412077633,-2.474486700861386,8.75197075047718
223,1791274171.4139965,0.5492258789062499,-2.8724906250000006,-0.8907077636718752,3.0571574668372237,1.9739783311873091,-8.218259991724963,-2.490905561396465,8.811412954763842
224,1791274171.440725,0.6737668945312498,-2.8485404296875005,-0.8284372558593752,3.0421131955642853,1.9897317873926406,-8.293278749440956,-2.5130031386251885,8.891157954756496
225,1791274171.460725,0.6114963867187498,-2.8293802734375006,-0.7757468261718753,2.996848961993762,2.001679217557624,-8.349509166306834,-2.5294639469995603,8.950933519327162
226,1791274171.469763,0.5156956054687499,-2.8341703125000004,-0.8332272949218753,2.9987882624084943,2.007032459281209,-8.374947091019713,-2.5368774161660457,8.97795439366013
227,1791274171.489763,0.5875461914062499,-2.7910599609375004,-0.9529782714843753,3.007223606336213,2.0187565071119695,-8.431232424679072,-2.553501096058938,9.037777707021835
228,1791274171.499125,0.5731760742187498,-2.8054300781250006,-0.8763376464843753,2.994484330556939,2.0242363251370437,-8.457557061858841,-2.5613998545176946,9.065791381304003
229,1791274171.519125,0.6593967773437499,-2.7958500000000006,-0.7853269042968752,2.9779724107324834,2.0360357266862112,-8.513760645527059,-2.5782353332605323,9.125615554215564
230,1791274171.5441678,0.5923362304687498,-2.7814798828125005,-0.8619675292968753,2.9716124528576615,2.0509450668773415,-8.584054563527863,-2.599247611879371,9.200459584435585
231,1791274171.5641677,0.49653544921874987,-2.7718998046875005,-0.9002878417968753,2.956432677678412,2.0626993985214384,-8.640102803134143,-2.6161549242066147,9.260149666438318
232,1791274171.589762,0.6977170898437499,-2.8341703125000004,-0.7949069824218753,3.025096297379545,2.077777691781355,-8.711830842654393,-2.637799995706349,9.336548911928702
233,1791274171.609762,0.6067063476562499,-2.8724906250000006,-0.6847360839843752,3.0146572753315657,2.089749500219644,-8.768033411595535,-2.6543963626853784,9.396344125816235
234,1791274171.6356728,0.5300657226562498,-2.8102201171875003,-0.7757468261718753,2.9631216505057902,2.1051421088038604,-8.840967666928648,-2.675510664123946,9.473789627164935
235,1791274171.6556728,0.5588059570312499,-2.7527396484375006,-0.9098679199218752,2.9525750289190595,2.1168744293698194,-8.897163903965668,-2.6918920729087414,9.533465572179841
236,1791274171.6642425,0.6258665039062499,-2.7718998046875005,-0.9146579589843753,2.985253186895862,2.121908920111415,-8.921182167908839,-2.699031075808268,9.559014462089792
237,1791274171.6842425,0.6689768554687499,-2.8724906250000006,-0.8571774902343753,3.0713979998740397,2.1338382408543057,-8.977294435323383,-2.715850662571581,9.618779851832086
238,1791274171.7243898,0.6067063476562499,-2.8772806640625004,-0.8571774902343753,3.062938109371267,2.1580339315116372,-9.090349505292936,-2.7497112903592265,9.739223621945648
239,1791274171.7443898,0.6641868164062499,-2.7910599609375004,-0.8907077636718752,3.0040839124268257,2.170185698209279,-9.146724072731027,-2.7666710676917634,9.799323243173074
240,1791274171.7396877,0.6641868164062499,-2.8293802734375006,-0.8715476074218753,3.034160854471616,2.170185698209279,-9.146724072731027,-2.7666710676917634,9.799323243173074
241,1791274171.7596877,0.5540159179687498,-2.8533304687500003,-0.8140671386718753,3.0184654557449,2.182486326773855,-9.203144810153885,-2.7836997999777275,9.859518524736048
242,1791274171.7841902,0.6114963867187498,-2.7623197265625006,-0.8140671386718753,2.9439842745829723,2.197437532454519,-9.272218808420345,-2.804424809052683,9.933155181003364
243,1791274171.8041902,0.5827561523437499,-2.7335794921875003,-0.8428073730468753,2.9193125631327557,2.209602140463917,-9.328386579345297,-2.8212892467506006,9.993038116943351
244,1791274171.829859,0.5396458007812499,-2.7958500000000006,-0.8619675292968753,2.975060139621214,2.2250336550510075,-9.400306610249743,-2.8429690988164884,10.069707663564026
245,1791274171.849859,0.5683860351562499,-2.8629105468750002,-0.8763376464843753,3.047505070547796,2.236915691632118,-9.456425973347525,-2.8599346962578336,10.129511857327136
246,1791274171.8741744,0.6210764648437499,-2.7671097656250003,-0.8811276855468753,2.969683220216804,2.251363797223054,-9.524687125579923,-2.88067201166426,10.202282834072989
247,1791274171.8941743,0.5971262695312499,-2.7623197265625006,-0.8523874511718753,2.951869648279869,2.2632924342530067,-9.58070577079914,-2.8977706922022732,10.262041253773894
248,1791274171.9047751,0.5156956054687499,-2.8245902343750005,-0.8284372558593752,2.9884042960286035,2.2695514592128894,-9.610386042597295,-2.9068105974827962,10.293684061763434
249,1791274171.9247751,0.5492258789062499,-2.8341703125000004,-0.7374265136718753,2.979591966928181,2.2811861267077167,-9.666470949900447,-2.923656237043513,10.35336836794463
250,1791274171.9502127,0.6833469726562499,-2.7431595703125002,-0.7086862792968752,2.9144680056056838,2.2961158777618533,-9.737744812013293,-2.944626959166637,10.429125086825493
251,1791274171.9702127,0.6114963867187498,-2.7671097656250003,-0.7949069824218753,2.943246744105968,2.3080357171006542,-9.79364264248014,-2.960897113543582,10.48853549343322
252,1791274172.0098965,0.5492258789062499,-2.8629105468750002,-0.8332272949218753,3.031859757718236,2.3315939298270107,-9.904674458841384,-2.993183562621353,10.606509992866537
253,1791274172.0298965,0.5971262695312499,-2.9299710937500003,-0.8332272949218753,3.1041195397371064,2.3434054598093903,-9.960928224580535,-3.0095142978834875,10.666246601006126
254,1791274172.0692086,0.5971262695312499,-2.8054300781250006,-0.8236472167968752,2.984190416637315,2.366660918151603,-10.071825463183307,-3.041684293639651,10.783997190490545
255,1791274172.0892086,0.5731760742187498,-2.7766898437500003,-0.8763376464843753,2.9675756049487587,2.378472870940538,-10.128154610347636,-3.058145737717407,10.843841771347705
256,1791274172.070211,0.5588059570312499,-2.7814798828125005,-0.9098679199218752,2.979388203609461,2.378472870940538,-10.128154610347636,-3.058145737717407,10.843841771347705
257,1791274172.090211,0.6210764648437499,-2.8581205078125005,-0.8475974121093752,3.045161766700696,2.390220104488948,-10.184398471335284,-3.0749527364728166,10.903690141524624
258,1791274172.1148503,0.6641868164062499,-2.8437503906250003,-0.7996970214843753,3.0278004784725647,2.40489660931805,-10.253832375333076,-3.095596712997517,10.977582843798503
259,1791274172.1348503,0.5444358398437499,-2.7958500000000006,-0.8140671386718753,2.962413359487799,2.416835626933,-10.31019783587748,-3.1122607119298564,11.03754685614369
260,1791274172.1444135,0.5731760742187498,-2.7192093750000006,-0.8619675292968753,2.909573587092595,2.42248967860217,-10.337062452656777,-3.1202356929240573,11.066127921385053
261,1791274172.1644135,0.6498166992187498,-2.7862699218750007,-0.8428073730468753,2.982597205153765,2.434375060071109,-10.393076402966944,-3.1369695342311994,11.12577174445437
262,1791274172.1895645,0.6593967773437499,-2.7910599609375004,-0.8284372558593752,2.9851512696035316,2.4495491751889436,-10.46347144869201,-3.158009169615565,11.200783358079812
263,1791274172.2095644,0.5923362304687498,-2.7527396484375006,-0.8188571777343753,2.9323991644271157,2.4616832066120513,-10.519368308093615,-3.174701144123623,11.260360614364886
264,1791274172.2795453,0.5827561523437499,-2.7958500000000006,-0.8044870605468752,2.9670829759516075,2.5039396621025993,-10.71473828403339,-3.232866464281593,11.468511494638607
265,1791274172.2995453,0.6354465820312499,-2.8437503906250003,-0.7901169433593752,3.0191047393190256,2.5160320435239543,-10.770657602524508,-3.249388081518353,11.528052972604343
266,1791274172.2948644,0.8126780273437499,-2.7958500000000006,-0.7805368652343753,3.014375656187735,2.5160320435239543,-10.770657602524508,-3.249388081518353,11.528052972604343
267,1791274172.3148644,0.6689768554687499,-2.8868607421875003,-0.7853269042968752,3.0656538168144056,2.528837626421706,-10.826773851759102,-3.2656763250823677,11.587868381982265
268,1791274172.3098042,0.7168772460937499,-3.0114017578125005,-0.8380173339843753,3.206980914346304,2.528837626421706,-10.826773851759102,-3.2656763250823677,11.587868381982265
269,1791274172.3298042,0.7983079101562499,-3.1167826171875004,-0.8859177246093752,3.33713643967358,2.5421293979266006,-10.884030387142754,-3.282100243109078,11.648893567625475
270,1791274172.3540668,0.8174680664062499,-3.2365335937500004,-0.8523874511718753,3.4452820073227026,2.558775625977532,-10.954632412942512,-3.3021991952769545,11.724155557313079
271,1791274172.3740668,0.9755393554687499,-3.2988041015625003,-0.8907077636718752,3.5534695516944157,2.573128551863152,-11.013903727395022,-3.318896453365456,11.787372036586488
272,1791274172.3847344,0.7456174804687499,-3.5095658203125004,-1.1302097167968752,3.761697978071657,2.5810128053591765,-11.04622282553435,-3.3280833897165643,11.821878229016379
273,1791274172.4047344,0.5827561523437499,-3.5957865234375004,-1.4032419433593752,3.903635921398438,2.595569825733508,-11.108385031949483,-3.346523999881903,11.888331406050353
274,1791274172.4293065,0.7360374023437499,-3.7969681640625006,-1.6283737792968753,4.19646511502892,2.6132023829894324,-11.186926243622475,-3.371368831969812,11.972563354432015
275,1791274172.4493065,0.7983079101562499,-4.0460501953125005,-1.9972067871093753,4.582210454887697,2.627702806162398,-11.253028707314398,-3.3939958448375838,12.043865032452434
276,1791274172.4893355,0.9420090820312499,-4.2089115234375,-1.8343454589843753,4.686911625543087,2.6575961935526857,-11.390267481541445,-3.4439927426825947,12.192706706908707
277,1791274172.5093355,1.1479807617187499,-4.026890039062501,-1.4176120605468754,4.420783547085867,2.673426633119951,-11.460905268275111,-3.4701039155617464,12.269522432264763
278,1791274172.5199924,1.12403056640625,-3.6820072265625003,-1.0966794433593752,4.002914904436648,2.6824124238103297,-11.499059675026679,-3.4839396589068286,12.311033480912174
279,1791274172.5399923,0.6450266601562499,-3.6341068359375006,-0.9817185058593753,3.8192359330194257,2.699400311387608,-11.570898471209874,-3.5091282938729376,12.388964236570631
280,1791274172.5642037,-0.015998730468750152,-3.5862064453125004,-0.8619675292968753,3.6883764245721573,2.718022829733499,-11.657930615563231,-3.5383949081609343,12.482597200356112
281,1791274172.5842037,-0.17886005859375015,-3.6963773437500005,-0.6272556152343752,3.753484513727414,2.730806300448731,-11.729963901725528,-3.5611782269634165,12.559114083029613
282,1791274172.5937448,-0.04952900390625015,-3.5670462890625005,-0.6799460449218753,3.6316110714870615,2.7358264956450635,-11.764370536365393,-3.5713521385015032,12.595225953842787
283,1791274172.6137447,0.34804423828124986,-3.2892240234375003,-0.6847360839843752,3.3777200850380438,2.7452191298843704,-11.835959837578415,-3.59152678810469,12.669855485266037
284,1791274172.639744,0.48695537109374987,-3.2221634765625007,-0.5745651855468753,3.3090161914945213,2.757225930111291,-11.927760851803242,-3.616274775607457,12.765234702902365
285,1791274172.659744,-0.0016286132812501526,-3.4041849609375006,-0.4596042480468752,3.4350711732767643,2.765804721278292,-11.997725646251912,-3.634007820204183,12.837488433345571
286,1791274172.6697912,-0.46626240234375016,-3.3179642578125006,-0.6655759277343752,3.4160326051634957,2.769115344601076,-12.03266646084005,-3.6424278099086624,12.873241328427202
287,1791274172.6897912,-0.5524831054687502,-3.2365335937500004,-0.9050778808593752,3.4058116882355054,2.7731888439388452,-12.101618494310484,-3.6590305164518244,12.943270485712262
288,1791274172.7293992,0.06064189453124985,-3.2844339843750006,-1.1110495605468753,3.4677968745417003,2.7785848715851316,-12.23705951315693,-3.6929676527792488,13.080679244657755
289,1791274172.7493992,0.7839377929687499,-3.1455228515625007,-0.7374265136718753,3.324555659936055,2.7821677462338403,-12.304836509128137,-3.710306379760059,13.149746473458901
290,1791274172.7598047,0.8653684570312499,-2.6090384765625005,-0.37817358398437523,2.774699911383537,2.7850393662179136,-12.339300878426629,-3.718844818792085,13.185014115501751
291,1791274172.7798047,-0.18844013671875015,-2.2449955078125003,-0.6512058105468752,2.3451190850178376,2.790746248127022,-12.402887860744825,-3.734338505422993,13.250100980020159
292,1791274172.7893493,-1.5248610351562502,-2.7239994140625003,-1.1206296386718753,3.3168033965582726,2.791834764474726,-12.43223872250568,-3.7418918239111774,13.279934315626438
293,1791274172.8093493,-0.7105543945312501,-2.5419779296875005,-0.9769284667968753,2.8144144278773364,2.7904204097964347,-12.492414738196578,-3.758491434702948,13.340657027270247
294,1791274172.834461,0.8462083007812499,-1.7133011718750002,-0.6368356933593753,2.0142068151497887,2.789166430966078,-12.564651712461583,-3.779246647230294,13.413896796072843
295,1791274172.854461,0.8557883789062499,-0.9421048828125,-0.5218747558593753,1.375604819885938,2.7908705108613407,-12.61753746476205,-3.795035477385595,13.468240573945977
296,1791274172.8790371,-0.3417213867187502,-0.6978128906250001,-0.5362448730468753,0.9440735672247493,2.7935979389755947,-12.675798768070988,-3.8134770769557425,13.528587186759216
297,1791274172.8990371,-1.6206618164062503,-0.8271439453125001,-0.3590134277343752,1.8546165292906025,2.792540999492413,-12.718387050347614,-3.827576494153693,13.572250963450898
298,1791274172.9090962,-1.3140993164062502,-0.39125039062500006,0.014609619140624783,1.3711846420212792,2.7898750609927854,-12.737513289821527,-3.8338640072690535,13.591400254961322
299,1791274172.9290962,-0.6195436523437502,0.17876425781249997,0.00023950195312478218,0.644818621312903,2.7824691436533024,-12.770155503958476,-3.844467676971359,13.623470110435933
300,1791274172.9546483,-0.29861103515625015,0.6194478515625,-0.30632299804687524,0.7528067283539052,2.77266704115835,-12.804074028576682,-3.8565694437967926,13.656687816788697
301,1791274172.9746482,-1.1368678710937503,0.25061484375,-0.21531225585937522,1.183906974283168,2.763992403464521,-12.825335216023415,-3.8654033033767043,13.677361591605871
302,1791274172.999715,-1.8218434570312503,0.13565390624999998,0.3882326660156248,1.867683101377228,2.749188526874782,-12.847259466664134,-3.8744892944374145,13.697510016524948
303,1791274173.019715,-1.1991383789062502,0.8493697265625,0.3978127441406248,1.5223720844680055,2.7346172793628742,-12.860650648367695,-3.879472217680424,13.70856562342336
304,1791274173.0295255,-0.3896217773437502,1.4529146484375,0.34033227539062477,1.542268511867284,2.727372895322959,-12.864540043884853,-3.8810067047618984,13.711205873053837
305,1791274173.0495255,-0.43752216796875015,1.601405859375,0.3786525878906248,1.7027343175671668,2.7135787869934855,-12.866698286494499,-3.8825872565362007,13.710941558971024
306,1791274173.074108,-1.33325947265625,0.930800390625,0.5367238769531248,1.712320854485767,2.6959026063437577,-12.864284540281792,-3.882550881478284,13.705178179924989
307,1791274173.0941079,-1.1895583007812502,0.5332271484375,0.5271437988281248,1.4061510329375397,2.6798943955858348,-12.860419271463224,-3.8809299262637826,13.697950025528813
308,1791274173.1200256,-0.4327321289062502,0.700878515625,0.06730004882812479,0.8264484772958971,2.659107790929927,-12.853762758987193,-3.877988934676293,13.68681370829537
309,1791274173.1400256,-0.37525166015625017,0.9260103515625,-0.07640112304687523,1.0020709112900894,2.6442614658043118,-12.846956288071192,-3.876073530949168,13.677000789079244
310,1791274173.1499321,-0.4423122070312502,1.2229927734375001,0.2349514160156248,1.3215723893366385,2.6374033064836477,-12.84249388626861,-3.87514929121147,13.671222602571953
311,1791274173.1699321,-0.9021559570312502,0.930800390625,0.4984035644531248,1.3887695456965505,2.6236177433210144,-12.831605547995403,-3.8724632291662435,13.65757820639003
312,1791274173.2091274,-1.2997291992187503,0.9547505859375001,0.06251000976562479,1.6139244635269372,2.594180961302715,-12.807924879380286,-3.8663398940194735,13.62796018309125
313,1791274173.2291274,-1.0793874023437502,1.352323828125,0.2157912597656248,1.74368081031027,2.577844819521852,-12.794193371454687,-3.8632665985605192,13.61107992597443
314,1791274173.239762,-0.4135719726562502,2.2432710937500002,0.47924340820312483,2.330875633946876,2.569270532422274,-12.785119248690746,-3.861323191078305,13.600376541036473
315,1791274173.259762,-0.03994892578125015,2.2576412109375,0.6325246582031249,2.3449151791119003,2.5548838678989276,-12.763862493042694,-3.8565489162434545,13.576324497563057
316,1791274173.2852526,-0.6722340820312502,1.9175484375,0.5271437988281248,2.0992311106321844,2.537936556519395,-12.732851941950472,-3.849159672422856,13.541885789075163
317,1791274173.3052526,-1.1608180664062502,1.6349361328125,0.3978127441406248,2.0442039333373105,2.52388458333183,-12.706841852496156,-3.8428442494907507,13.513003928815095
318,1791274173.3140764,-1.17518818359375,1.6540962890625,0.6421047363281248,2.128238777196704,2.517068937552868,-12.694911031383372,-3.839787664408839,13.49964338191491
319,1791274173.3340764,-0.7009743164062502,1.965448828125,0.7331154785156249,2.211744197026035,2.501123740730405,-12.666495916916006,-3.83183604946227,13.467691201154478
320,1791274173.3592637,-0.23155048828125016,2.01334921875,0.5271437988281248,2.0940561811726703,2.4822934758505197,-12.628562568218564,-3.8209434838979304,13.425422993217127
321,1791274173.3792636,-0.6147536132812502,1.4529146484375,0.5079836425781248,1.657386606019717,2.468314648212507,-12.597760294501835,-3.812038923371466,13.391332360658012
322,1791274173.4048786,-1.2949391601562503,1.0601314453125,0.4361330566406248,1.7294386814632194,2.4494280162423014,-12.55939991121213,-3.800531319808187,13.348492875577788
323,1791274173.4248786,-0.7776149414062502,1.1559322265625,0.3355422363281248,1.4329874046425057,2.4337846291222354,-12.530617045400254,-3.791736515348734,13.316040588750697
324,1791274173.4345713,-0.17407001953125015,1.2613130859375001,0.2062111816406248,1.2898581797586943,2.4266486831212455,-12.517003048684082,-3.7877197662237867,13.30078231456718
325,1791274173.4545712,-0.4135719726562502,1.0218111328125,0.5031936035156248,1.211752272671847,2.4132514766113364,-12.489700760238687,-3.779610678889736,13.270337774663123
326,1791274173.4796472,-0.8446754882812502,0.8349996093750001,0.5702541503906248,1.3175320960786132,2.39660733019572,-12.457111874409513,-3.76894977702327,13.233606665169782
327,1791274173.4996471,-0.8350954101562502,0.5907076171875,0.5079836425781248,1.1420889694740555,2.3828039305648376,-12.432879980768833,-3.760104961696409,13.205780874703759
328,1791274173.5398571,-0.6434938476562502,0.5523873046875,0.4121828613281248,0.9429267084583014,2.3547558717865265,-12.388022154308404,-3.742214825279146,13.15340791999883
329,1791274173.5598571,-0.7440846679687502,0.43263632812499997,0.34033227539062477,0.9255605021781168,2.3408163502588804,-12.36757963247742,-3.733522463403274,13.12919026962617
330,1791274173.5540464,-0.7919850585937502,0.12607382812499998,0.7043752441406248,1.0673703329828887,2.3408163502588804,-12.36757963247742,-3.733522463403274,13.12919026962617
331,1791274173.5740464,-0.9021559570312502,0.12128378906249998,0.7474855957031248,1.1778496695588887,2.3262453498216003,-12.351726519612738,-3.7237324419479885,13.108880529705317
332,1791274173.6143715,-0.7057643554687502,0.3703658203125,0.6516848144531248,1.0295471158207259,2.2964102873989023,-12.323070180814838,-3.7027224629319475,13.07064315658798
333,1791274173.6343715,-0.7057643554687502,0.4374263671875,0.6421047363281248,1.0496397689569905,2.281715352092458,-12.30977776699027,-3.6919245493834634,13.052477178643244
334,1791274173.6443613,-0.6770241210937502,0.5715474609375,0.5463039550781248,1.0409016149381602,2.2744403801804727,-12.303378328907835,-3.6864497489870587,13.04362331175817
335,1791274173.6643612,-0.5333229492187502,0.23624472656249998,0.5367238769531248,0.7926647835520191,2.2602447169212767,-12.291276432389878,-3.6755084966130003,13.02664750526657
336,1791274173.68961,-0.7105543945312501,0.04943320312499997,0.5031936035156248,0.8720865735567248,2.2426562481896313,-12.27774923087776,-3.6617984803215538,13.00697510316479
337,1791274173.70961,-0.7871950195312502,-0.060737695312500034,0.4840334472656248,0.92609580739712,2.2285673174055085,-12.268658328352661,-3.6510866927942383,12.99295668831249
338,1791274173.7196677,-0.8782057617187502,-0.18048867187500003,0.47924340820312483,1.016609937437835,2.2212887177489025,-12.264954366098227,-3.645781290982187,12.986722080330598
339,1791274173.7396677,-0.8542555664062502,-0.04636757812500004,0.4121828613281248,0.9496300522887224,2.206387391772417,-12.259034036399171,-3.6354767095451597,12.975698506585722
340,1791274173.7643995,-0.8111452148437502,-0.027207421875000033,0.3211721191406248,0.8728392369057876,2.187635387360213,-12.252947617875499,-3.623285212349727,12.963358733154912
341,1791274173.7843995,-0.8734157226562502,-0.10384804687500004,0.2349514160156248,0.9104073864543495,2.172218956374661,-12.248960570719117,-3.6140709410458953,12.954423145180082
342,1791274173.794557,-0.9692165039062502,-0.39604042968750003,0.2397414550781248,1.0741064280015695,2.1641599653079426,-12.247620195793912,-3.609731530582601,12.950596532157999
343,1791274173.814557,-1.0362770507812502,-0.582851953125,0.11041040039062479,1.1940590361250698,2.147664002609385,-12.246845248597113,-3.601943759449827,12.944947974303698
344,1791274173.8395877,-0.8590456054687502,-0.5205814453125001,-0.014130615234375218,1.004571584191851,2.1265574818451665,-12.248092329242182,-3.5934783667865626,12.940289764985785
345,1791274173.8595877,-0.7201344726562502,-0.5493216796875,0.13915063476562478,0.916357389689344,2.1098538468551764,-12.250544159290792,-3.587541415683675,12.938228969340006
346,1791274173.8844376,-0.7105543945312501,-0.21401894531250004,0.3786525878906248,0.8331082995965252,2.089546345685312,-12.254556259368762,-3.5803062230072875,12.936728554596236
347,1791274173.9044375,-0.6961842773437502,0.1500240234375,0.5223537597656248,0.8831948856114936,2.0735437368435474,-12.257396957238852,-3.574005069123595,12.93510247466376
348,1791274173.9296112,-0.7967750976562502,0.269775,0.5942043457031249,1.029906748847975,2.0536040934472104,-12.259643577060858,-3.565155490214028,12.931607946369079
349,1791274173.9496112,-0.9356862304687502,0.11649374999999998,0.6037844238281248,1.1196584953169169,2.0375399976573703,-12.260581335455125,-3.5573823148656887,12.927814697754735
350,1791274173.9596555,-0.6770241210937502,0.21229453124999997,0.7379055175781248,1.0236870524792538,2.029467585547954,-12.260733965660963,-3.5530533363583503,12.925498987215521
351,1791274173.9796555,-0.5285329101562501,0.336835546875,0.7474855957031248,0.9754690864094414,2.013996738780191,-12.260168597110361,-3.543498479580237,12.919918667243063
352,1791274174.0049255,-0.6291237304687501,0.32725546875,0.6900051269531248,0.9894442305088735,1.9951873825459696,-12.258302787437636,-3.5305123957996933,12.911672149526847
353,1791274174.0249255,-0.6434938476562502,0.3416255859375,0.6852150878906248,1.00015603263268,1.9806247604004055,-12.256044272797206,-3.5197133844990174,12.904335626730184
354,1791274174.0489948,-0.6434938476562502,0.4374263671875,0.7091652832031248,1.0527780191392995,1.963404707465491,-12.25232758970629,-3.506149439485241,12.894478403672569
355,1791274174.0689948,-0.6099635742187501,0.490116796875,0.8384963378906248,1.1468854106268471,1.9493621208789633,-12.24831120916639,-3.4942478303251403,12.885298136040188
356,1791274174.07939,-0.6387038085937502,0.5523873046875,0.8001760253906248,1.1633382831756294,1.9421845842572292,-12.245723986701286,-3.487712111847666,12.879983411981808
357,1791274174.09939,-0.6243336914062502,0.59549765625,0.6708449707031248,1.0929057560201036,1.9285522116104645,-12.239771134499989,-3.474817364569,12.868786530786695
358,1791274174.124931,-0.6387038085937502,0.5428072265625,0.4936135253906248,0.9727469109533045,1.9113348709256273,-12.231128820831039,-3.458589549528578,12.853620302960884
359,1791274174.144931,-0.6913942382812502,0.40389609374999996,0.3882326660156248,0.8898778850137914,1.897879965244019,-12.223956494147922,-3.44646564342751,12.84154142479095
360,1791274174.1693952,-0.9356862304687502,0.12607382812499998,0.2636916503906248,0.98027374672213,1.8809051596422697,-12.215526841791803,-3.4326639394513623,12.82731780082316
361,1791274174.1893952,-0.9213161132812502,0.020692968749999967,0.1726809082031248,0.9375874762416645,1.8663239638089133,-12.209448974771908,-3.4224186563689654,12.81665942689079
362,1791274174.1997023,-0.5908034179687501,0.07338339843749997,0.3163820800781248,0.674189455898233,1.858767741183194,-12.206713834866639,-3.4175526387877295,12.811656653254209
363,1791274174.2197022,-0.3034010742187502,0.3080953125,0.3451223144531248,0.5532489000034666,1.8449635711707775,-12.201630411170294,-3.4085346113998005,12.80241318919419
364,1791274174.2442682,-0.21718037109375016,0.4182662109375,0.13436059570312478,0.4900680631076981,1.829592140007371,-12.194984764940132,-3.3982358897415796,12.791132396243361
365,1791274174.2642682,-0.42794208984375015,0.21708457031249997,0.2828518066406248,0.5570146204970428,1.8179872036950684,-12.189432855997351,-3.3904832068196833,12.782125300566923
366,1791274174.2900786,-0.6674440429687502,0.08296347656249997,0.3594924316406248,0.7626265779165428,1.8031367768414581,-12.182761880374418,-3.380735487812405,12.771075197823258
367,1791274174.3100786,-0.6099635742187501,0.04464316406249997,0.2876418457031248,0.6758597527377438,1.7914394847699668,-12.178176655489937,-3.3733444857882926,12.763098961447852
368,1791274174.3201234,-0.6243336914062502,-0.036787500000000035,0.10083032226562479,0.6334924090069229,1.7855159812868855,-12.176213282064486,-3.3698965705427635,12.759484319748598
369,1791274174.3401234,-0.4614723632812502,-0.13258828125000005,0.04334985351562479,0.4820950157355263,1.7738622527236128,-12.173144504552901,-3.363844999981118,12.753332411737027
370,1791274174.364707,-0.45668232421875016,-0.3577201171875001,0.06251000976562479,0.5834637339332899,1.7599935368288326,-12.170842251510537,-3.357327119437473,12.74749480281297
371,1791274174.384707,-0.4710524414062502,-0.42478066406250004,0.009819580078124782,0.6343701122129557,1.7490114710104196,-12.170423952422741,-3.352711394228422,12.744368717218608
372,1791274174.4097736,-0.5141627929687502,-0.6594925781250001,-0.13388159179687523,0.8468873118056796,1.7354597228185094,-12.172016754394546,-3.3480273500115305,12.742805792101363
373,1791274174.4297736,-0.5189528320312502,-1.061855859375,-0.23447241210937522,1.2049179308163123,1.724719360079219,-12.175679000562837,-3.345403197941006,12.744157035778114
374,1791274174.439351,-0.3992018554687502,-1.2965677734375,-0.37817358398437523,1.4083555560120309,1.7196880297019743,-12.178863785810746,-3.344775122664519,12.746355190956674
375,1791274174.459351,-0.06868916015625015,-1.5073294921875,-0.3015329589843752,1.5387275665611087,1.7100556356585768,-12.188722587818914,-3.344679854535772,12.75445537564
376,1791274174.4852772,0.06064189453124985,-1.7372513671875,-0.41170385742187526,1.786398560899339,1.6994264301118447,-12.205894568647365,-3.3459617416928418,12.769783568611103
377,1791274174.5052772,-0.19802021484375015,-2.0438138671875,-0.6655759277343752,2.1585593447422666,1.6922506978776555,-12.222825982191475,-3.348418204680164,12.785659618840004
378,1791274174.5298615,-0.03515888671875016,-2.326426171875,-0.7565866699218753,2.4466136330862995,1.6843233119493806,-12.248574434402876,-3.3536070141020993,12.810589397030828
379,1791274174.5498614,0.3624143554687499,-2.182725,-0.5649851074218752,2.283602584138347,1.6793324250741994,-12.273143151731794,-3.3591774199686864,12.834885007495553
380,1791274174.5599153,0.6402366210937499,-2.0054935546875003,-0.5697751464843752,2.18095186706033,1.6779559083815363,-12.286799205597621,-3.3624132539279636,12.848610572327939
381,1791274174.5799153,0.6402366210937499,-2.1348246093750003,-0.7565866699218753,2.353678489702053,1.6775490794217267,-12.316100548755712,-3.3698742309377425,12.878530815790583
382,1791274174.6199691,0.6737668945312498,-2.2210453125000003,-0.7422165527343753,2.436778512605815,1.6808038554783988,-12.379065132793318,-3.3870774399218186,12.943672150767634
383,1791274174.639969,0.7120872070312498,-2.1300345703125,-0.5985153808593753,2.3242926068524947,1.6842640536094793,-12.412315695678926,-3.3963900640802818,12.978358594169823
384,1791274174.648976,0.9084788085937499,-1.8857425781250001,-0.5937253417968752,2.1757455269652417,1.6866833367684757,-12.427756658731628,-3.4007602940201944,12.994583749569092
385,1791274174.668976,0.7360374023437499,-1.78036171875,-0.6655759277343752,2.038241944131968,1.6937163215815076,-12.462399452598723,-3.4108977205492357,13.031281531536816
386,1791274174.694957,0.45821513671874986,-1.74204140625,-0.7374265136718753,1.9463985295087738,1.7038091690560808,-12.507515381051697,-3.4248252299253372,13.079385862774195
387,1791274174.714957,0.4055247070312499,-1.9575931640625002,-0.7422165527343753,2.132488381011702,1.7117087796487032,-12.542585305885133,-3.436157809482366,13.1169193636844
388,1791274174.7245052,0.4917454101562499,-2.1204544921875,-0.9098679199218752,2.3592372567316855,1.7155569762886336,-12.559736970554429,-3.441939632408478,13.135336955767391
389,1791274174.7445052,0.5348557617187498,-2.268945703125,-0.8954978027343753,2.497218773811225,1.723948363539443,-12.596858591063548,-3.454941872833629,13.17533558085186
390,1791274174.7697651,0.4534250976562499,-2.2976859375000003,-0.5745651855468753,2.4114477267841306,1.7348292317764715,-12.645361973913111,-3.4716854568726876,13.227524780780989
391,1791274174.7897651,0.38636455078124987,-2.1396146484375,-0.5266647949218752,2.2370972746214735,1.743411749230527,-12.684660739051317,-3.484605747497798,13.269611140032689
392,1791274174.8149107,0.33846416015624986,-2.35516640625,-0.8092770996093752,2.5132242663142854,1.7539507313084446,-12.735135556203506,-3.5009329547545827,13.323533778859979
393,1791274174.8349106,0.32888408203124986,-2.5994583984375006,-0.8092770996093752,2.7423125512189443,1.7620767773027324,-12.77669168451461,-3.5143990180058022,13.367863158635881
394,1791274174.8459063,0.4055247070312499,-2.5228177734375006,-0.8428073730468753,2.6906103534415946,1.7664798433434474,-12.800335666389572,-3.522054333339922,13.393054578257425
395,1791274174.8659062,0.41989482421874985,-2.5850882812500005,-0.8859177246093752,2.76475013338255,1.7745254100034848,-12.844552716760244,-3.5364830549062614,13.440170658217854
396,1791274174.9195297,0.24266337890624987,-2.8054300781250006,-0.9865085449218752,2.9837095280731534,1.7955258912591763,-12.9670026581308,-3.5768965316187704,13.57060278543513
397,1791274174.9395297,0.34804423828124986,-3.0401419921875004,-0.8284372558593752,3.17015873598758,1.8030696346551773,-13.014590731120606,-3.5924310402722255,13.621167086013495
398,1791274174.949592,0.5396458007812499,-3.1742630859375005,-0.9481882324218752,3.3565197233369,1.8069656783344312,-13.039631912029755,-3.6004152385639223,13.647714653156648
399,1791274174.969592,0.5348557617187498,-3.1311527343750005,-1.0200388183593754,3.33626547546621,1.8151595874651367,-13.091395768393687,-3.6168564541639423,13.702594575579841
400,1791274174.9792583,0.5156956054687499,-3.0976224609375005,-0.9865085449218752,3.291565885290488,1.8192873740373183,-13.117176735565112,-3.625065414320714,13.729939232184767
401,1791274174.9992583,0.5109055664062498,-3.2317435546875006,-0.8715476074218753,3.385969009464187,1.828086825389263,-13.172011842557499,-3.6422896196106263,13.788040872247228
402,1791274175.0095491,0.4725852539062499,-3.2413236328125006,-0.8954978027343753,3.395796229095697,1.8326944437235297,-13.20099064311404,-3.651186664164432,13.818686151013479
403,1791274175.0295491,0.4821653320312499,-3.1646830078125006,-0.9625583496093753,3.3427863413255574,1.841738121438472,-13.258471161506346,-3.6686712148062757,13.879416606284405
404,1791274175.0547736,0.3624143554687499,-3.2988041015625003,-1.1062595214843753,3.4981799259629636,1.8530311101551957,-13.332320419921091,-3.691329212054446,13.957449746512232
405,1791274175.0747736,0.4246848632812499,-3.3467044921875004,-1.0344089355468753,3.5285677033418854,1.861822653081021,-13.392059286048955,-3.7098105397865715,14.020568096681647
406,1791274175.0853858,0.46779521484374986,-3.2796439453125004,-0.8859177246093752,3.4292487494832895,1.8664981654001742,-13.424276805548208,-3.719674431133916,14.054572246320884
407,1791274175.1053858,0.42947490234374985,-3.1455228515625007,-0.8715476074218753,3.2921661460879905,1.8753338700707207,-13.485524463530233,-3.7381118000610565,14.1191262835369
408,1791274175.1294625,0.3624143554687499,-3.2317435546875006,-1.2116403808593752,3.4703865751300795,1.8858050557439638,-13.55971255189908,-3.7607397576880537,14.197366964456986
409,1791274175.1494625,0.3528342773437499,-3.3371244140625005,-1.0823093261718753,3.525944534407666,1.8942713821353063,-13.621948284261006,-3.780157740168976,14.263075813751309
410,1791274175.174449,0.5731760742187498,-3.2461136718750003,-0.7613767089843753,3.3831167990145556,1.904997339133766,-13.700375028344483,-3.804233275044136,14.345782710969273
411,1791274175.194449,0.7168772460937499,-2.8868607421875003,-0.7374265136718753,3.0645841143320864,1.9142300001588177,-13.76293341837856,-3.822861667529554,14.41169261749973
412,1791274175.2195117,0.43905498046874986,-2.7671097656250003,-1.0008786621093753,2.975134253635878,1.926237170952867,-13.840196562900388,-3.845971581766314,14.493202818777991
413,1791274175.2395117,0.2761936523437499,-3.0018216796875006,-1.1781101074218754,3.2365351466416135,1.9354544526528432,-13.901257194138056,-3.864915412359712,14.557764480185973
414,1791274175.2500598,0.5588059570312499,-3.0161917968750003,-0.9912985839843753,3.2237167890121925,1.9402470921475827,-13.933391290740676,-3.875124080574133,14.591796951689014
415,1791274175.2700598,0.6689768554687499,-2.9156009765625006,-0.9577683105468753,3.1409519614876125,1.9498128741248562,-13.994078237349656,-3.8945005891751814,14.656163577016057
416,1791274175.2954073,0.5779661132812499,-2.9299710937500003,-1.0583591308593752,3.1684222395674193,1.962488304080029,-14.070567161870837,-3.9192070725205506,14.737449055981974
417,1791274175.3154073,0.44863505859374986,-3.3083841796875006,-1.0535690917968752,3.5009551735770117,1.9725293326168118,-14.131224102063756,-3.9389450493339684,14.801947665508546
418,1791274175.3400068,0.7025071289062499,-3.3467044921875004,-0.7901169433593752,3.5097338942397984,1.9851508655190873,-14.206918254069432,-3.9629822868990745,14.882290779411557
419,1791274175.3600068,0.8366282226562499,-3.0736722656250004,-0.7038962402343752,3.2623423941139853,1.9961819143518544,-14.2688586792756,-3.9818346902379784,14.94791215336465
420,1791274175.385807,0.6498166992187498,-3.0305619140625004,-0.7757468261718753,3.1950509222648478,2.011153874234203,-14.348588818376383,-4.00536968763695,15.032289490271399
421,1791274175.405807,0.5396458007812499,-3.2940140625000005,-0.8380173339843753,3.4415140979381262,2.022803214532308,-14.410610521662056,-4.023297736091553,15.097826105933224
422,1791274175.4293013,0.6641868164062499,-3.3898148437500004,-0.7613767089843753,3.5371857874558392,2.0365563895418806,-14.48431694636142,-4.04401724702789,15.175541994429572
423,1791274175.4493012,0.8126780273437499,-3.2173734375000005,-0.8475974121093752,3.424961136344821,2.048723218183347,-14.547560273683903,-4.061422946376352,15.242176127132963
424,1791274175.4602156,0.8605784179687499,-3.0880423828125005,-1.1876901855468753,3.4186560149222784,2.0557365995589296,-14.582057730442607,-4.071162776017094,15.278639565404843
425,1791274175.4802155,0.6977170898437499,-3.1694730468750003,-1.3266013183593752,3.5060290344205596,2.0689979742181506,-14.64517669613011,-4.090104816667729,15.345713098110489
426,1791274175.4895258,0.7360374023437499,-3.1934232421875004,-1.2834909667968752,3.5195244171963687,2.075246457489071,-14.67459498479894,-4.099422458396929,15.377114499138525
427,1791274175.5095258,0.9036887695312499,-3.1694730468750003,-1.3026511230468754,3.5438838490305082,2.0891154228267106,-14.737855457871246,-4.120315156692144,15.444927443580456
428,1791274175.5346198,0.8845286132812499,-3.2221634765625007,-1.2116403808593752,3.5542651490759165,2.107272157007406,-14.817351982246363,-4.147329193293178,15.530449289927857
429,1791274175.5546198,0.5923362304687498,-3.2700638671875004,-0.8763376464843753,3.436880500694921,2.121787754605534,-14.880945334565093,-4.168761850475876,15.598817028604818
430,1791274175.5802305,0.6593967773437499,-2.9060208984375007,-0.5649851074218752,3.032980340149822,2.1399916623045203,-14.962026879649281,-4.194858831658616,15.685619314506672
431,1791274175.6002305,0.9276389648437499,-2.4892875000000005,-0.5027145996093753,2.7036620120519967,2.1544556909751114,-15.023940532145625,-4.213783159264982,15.75171219109619
432,1791274175.6093621,0.7887278320312499,-2.4701273437500006,-0.5793552246093753,2.6569292733613232,2.1612446247755828,-15.0513655748678,-4.221868704482577,15.780961927408805
433,1791274175.629362,0.5731760742187498,-2.7048392578125005,-0.5410349121093753,2.8173400573558203,2.1759261049802663,-15.110183879191359,-4.238601752490676,15.843549352765814
434,1791274175.6544845,0.5061155273437499,-2.7144193359375004,-0.6416257324218753,2.8347678633065763,2.193635148245966,-15.183195230813803,-4.258696027164721,15.920990686273756
435,1791274175.6744845,0.5204856445312499,-2.5419779296875005,-0.8571774902343753,2.732637983880405,2.207158513462742,-15.240485592184243,-4.274541747924241,15.98172884715148
436,1791274175.7000723,0.5348557617187498,-2.5898783203125006,-1.0056687011718752,2.829294953939085,2.223890224987636,-15.31263632007634,-4.295348650415915,16.05841022120018
437,1791274175.7200723,0.5827561523437499,-2.6952591796875005,-0.8428073730468753,2.883461643033665,2.236682831638836,-15.36849941533478,-4.311945021760673,16.117890502146366
438,1791274175.729234,0.5492258789062499,-2.6760990234375006,-0.6320456542968752,2.8040393646343578,2.242441745157954,-15.393941812928107,-4.319420615212081,16.144949178345605
439,1791274175.749234,0.3432541992187499,-2.5563480468750006,-0.6607858886718753,2.6625883596062714,2.2544663980173576,-15.449000037550487,-4.33523117479025,16.20334688386623
440,1791274175.7753344,0.49653544921874987,-2.4461771484375,-0.7470065917968752,2.6054460159551702,2.269448873112939,-15.51986695274641,-4.355525117274737,16.27842951472392
441,1791274175.7953343,0.7072971679687499,-2.5228177734375006,-0.8380173339843753,2.75084566158246,2.2810131627881716,-15.573478218851967,-4.371120713892054,16.335328009479507
442,1791274175.8196938,0.5635959960937499,-2.6425687500000006,-0.8859177246093752,2.8435295426751814,2.2953072909716044,-15.638417749568095,-4.3904160557611664,16.404398751940874
443,1791274175.8396938,0.49653544921874987,-2.6090384765625005,-0.9146579589843753,2.8089550381677353,2.306873073152255,-15.691615154193329,-4.406582750370339,16.461057713853204
444,1791274175.8501563,0.6593967773437499,-2.6090384765625005,-0.8380173339843753,2.8185384393712245,2.3129229339729167,-15.719364354655019,-4.415146699842263,16.49065033872299
445,1791274175.8701563,0.6737668945312498,-2.7048392578125005,-0.6080954589843752,2.8530505298727853,2.3247527673824724,-15.772423330267143,-4.431230962685559,16.547193749493324
446,1791274175.8946226,0.6689768554687499,-2.5946683593750004,-0.5458249511718752,2.734549104627012,2.339517533346604,-15.837319435050855,-4.450073074502438,16.616172229039012
447,1791274175.9146225,0.7551975585937499,-2.5323978515625005,-0.7038962402343752,2.7347453534324577,2.3519128442173654,-15.890102002680752,-4.465039781525945,16.672234881173033
448,1791274175.939354,0.8318381835937498,-2.6904691406250003,-0.9721384277343753,2.9791999065215213,2.3678850954214554,-15.955268649002326,-4.483879869774612,16.741644368864296
449,1791274175.959354,0.8509983398437498,-2.8293802734375006,-0.9386081542968753,3.1000929298081807,2.3813884285449767,-16.008342969404186,-4.49969637490251,16.798372627727698
450,1791274175.969544,0.7072971679687499,-2.7671097656250003,-0.8428073730468753,2.977833105950707,2.3884273244128926,-16.03560529708835,-4.507907569325102,16.827550415363152
451,1791274175.989544,0.5444358398437499,-2.7096292968750006,-0.9050778808593752,2.9082068840800472,2.4020479051934123,-16.089302112332742,-4.524228122291776,16.88502640517019
452,1791274176.0151465,0.5300657226562498,-2.7192093750000006,-0.8523874511718753,2.8985571690650285,2.4189318550470498,-16.15815460925096,-4.545361363182076,16.958699879935605
453,1791274176.0351465,0.5109055664062498,-2.7287894531250005,-0.6559958496093753,2.8526561187734942,2.4317041682911116,-16.212044311419326,-4.561656301655287,17.016235604032385
454,1791274176.0751176,0.5252756835937499,-2.6281986328125004,-0.6368356933593753,2.7547962352284596,2.4565077399257094,-16.319650090919346,-4.593213412042434,17.13076235358267
455,1791274176.0951176,0.5588059570312499,-2.4940775390625003,-0.7230563964843753,2.656218631996741,2.468682986988511,-16.37309896096215,-4.60867469992404,17.187572480295938
456,1791274176.1046839,0.6210764648437499,-2.4605472656250003,-0.6799460449218753,2.6272334204562746,2.4744795919869134,-16.398384394246225,-4.615967388002224,17.21444785404742
457,1791274176.1246839,0.7743577148437499,-2.4797074218750006,-0.6176755371093753,2.6702250537704404,2.486873705916365,-16.450728718417786,-4.630873425420301,17.27008989201903
458,1791274176.1352289,0.7216672851562499,-2.4988675781250005,-0.6655759277343752,2.6847968561976105,2.493611466867796,-16.47812497431548,-4.638568661478594,17.29922021491447
459,1791274176.1552289,0.5204856445312499,-2.5707181640625003,-0.7038962402343752,2.715689065821062,2.5063368718553733,-16.52989579696199,-4.6530286238633884,17.35424602073324
460,1791274176.1798456,0.4534250976562499,-2.5371878906250003,-0.7422165527343753,2.6821264181003133,2.5214484236944363,-16.59348951961291,-4.6708266945070624,17.42177426673226
461,1791274176.1998456,0.6019163085937499,-2.5419779296875005,-0.7805368652343753,2.72638824006402,2.533467274409735,-16.645025254448523,-4.68540193733137,17.476507473350697
462,1791274176.2239108,0.6641868164062499,-2.5611380859375004,-0.8907077636718752,2.791761584124408,2.5480450289615098,-16.706945267228893,-4.703325541741663,17.542400770230877
463,1791274176.2439108,0.5827561523437499,-2.6090384765625005,-0.9098679199218752,2.8239238900829156,2.560213341217548,-16.758441559810244,-4.718687850501602,17.597331357242634
464,1791274176.2845411,0.5444358398437499,-2.6760990234375006,-0.7996970214843753,2.8455986528532966,2.58466033937258,-16.86347017086501,-4.750424864306164,17.709422115501056
465,1791274176.304541,0.6641868164062499,-2.6665189453125,-0.7853269042968752,2.8580073056958533,2.5967020456524414,-16.915428705451603,-4.766081359228071,17.764856355340815
466,1791274176.2996724,0.5971262695312499,-2.6234085937500002,-0.8571774902343753,2.8237538280257652,2.5967020456524414,-16.915428705451603,-4.766081359228071,17.764856355340815
467,1791274176.3196723,0.5109055664062498,-2.6473587890625003,-0.8044870605468752,2.8136688658047007,2.608672397259391,-16.96761954140484,-4.78197986236414,17.82056721830544
468,1791274176.3447182,0.5635959960937499,-2.7000492187500003,-0.6607858886718753,2.83629057417488,2.6234326319004935,-17.033218893294336,-4.801655460867541,17.890467847596344
469,1791274176.3647182,0.6689768554687499,-2.6377787109375004,-0.6895261230468752,2.80728567042829,2.6353000566363125,-17.08575144523712,-4.817035816697869,17.94635179907827
470,1791274176.374497,0.7408274414062499,-2.54676796875,-0.8571774902343753,2.7874012331123117,2.6412660779491244,-17.11138617801916,-4.824562203490934,17.973653604183628
471,1791274176.394497,0.7360374023437499,-2.6329886718750006,-0.8763376464843753,2.870948985007708,2.653853086237992,-17.16372086506159,-4.840246826029854,18.02953797172788
472,1791274176.419597,0.7791477539062499,-2.5946683593750004,-0.8284372558593752,2.832963713931882,2.6701326214910504,-17.229389991104483,-4.860187646075242,18.09980418780779
473,1791274176.439597,0.6689768554687499,-2.5659281250000006,-0.7517966308593752,2.7562139521434803,2.6833307790541134,-17.281607946195262,-4.876063720356741,18.15572181657335
474,1791274176.4646642,0.5348557617187498,-2.5755082031250005,-0.7565866699218753,2.737103684428375,2.699654866556781,-17.346905154055023,-4.895813330374653,18.225593076445513
475,1791274176.4846642,0.6067063476562499,-2.5659281250000006,-0.7853269042968752,2.7511485022740807,2.7124377620502713,-17.39890009881212,-4.91151984907304,18.28119444919503
476,1791274176.4947178,0.6737668945312498,-2.5994583984375006,-0.8044870605468752,2.8032740187075706,2.718865141861783,-17.425011310727516,-4.919429684151674,18.309124371633004
477,1791274176.5147178,0.6593967773437499,-2.6281986328125004,-0.7853269042968752,2.8211647435237337,2.731733129283353,-17.47700499791978,-4.935189373456343,18.364753299154707
478,1791274176.54021,0.6354465820312499,-2.6329886718750006,-0.7374265136718753,2.8071728781647085,2.7481501830573087,-17.54339489453481,-4.955175096978537,18.43574772272457
479,1791274176.56021,0.6019163085937499,-2.5132376953125006,-0.7470065917968752,2.690108883275694,2.760954270244027,-17.595387673136482,-4.970729628792205,18.491313876869178
480,1791274176.5845678,0.6450266601562499,-2.5276078125000003,-0.8859177246093752,2.7549429868693136,2.776487113493135,-17.658419768743485,-4.989814876522759,18.55874246608622
481,1791274176.6045678,0.7216672851562499,-2.6760990234375006,-0.8715476074218753,2.9054956351216106,2.789377956217391,-17.71021717598626,-5.005771197759996,18.61424634755739
482,1791274176.6138916,0.8030979492187499,-2.6808890625000004,-0.6655759277343752,2.876651490370526,2.7955523746446134,-17.73448866734615,-5.013168995075086,18.640253880910322
483,1791274176.6338916,0.8414182617187499,-2.6569388671875003,-0.40212377929687526,2.815850203579978,2.8092768542966087,-17.78674918163358,-5.028258815840462,18.696092362135648
484,1791274176.6602466,0.8414182617187499,-2.7910599609375004,-0.37817358398437523,2.9395604529122767,2.8279758437767155,-17.85605431097062,-5.046703126553868,18.769798490577507
485,1791274176.6802466,0.8078879882812499,-2.8485404296875005,-0.5410349121093753,3.009914343846777,2.8425113518620937,-17.909218116943165,-5.059979211675447,18.8261348653487
486,1791274176.704737,1.0282297851562499,-2.9156009765625006,-0.7182663574218753,3.1739395246001085,2.8610130450967066,-17.97514063426375,-5.076110562540911,18.895977744189707
487,1791274176.724737,0.9563791992187499,-3.1311527343750005,-0.8523874511718753,3.3830966562600047,2.8768329082544826,-18.029970879279517,-5.089664120094728,18.954173639203134
488,1791274176.734219,0.5923362304687498,-3.2173734375000005,-1.0631491699218754,3.4398604919040063,2.88430956544306,-18.056581828826882,-5.09648834414055,18.982454595030326
489,1791274176.754219,0.6019163085937499,-3.3993949218750004,-1.2068503417968752,3.6571405257271565,2.8995054039644694,-18.11421618707422,-5.112128092356228,19.04378673721008
490,1791274176.7797248,0.7408274414062499,-3.7394876953125005,-1.5325729980468752,4.108694867677145,2.9185462229064276,-18.19034785150047,-5.1343218632559395,19.125060209299658
491,1791274176.7997248,0.9994895507812499,-4.0173099609375,-1.7529147949218753,4.495605516793546,2.933847685885445,-18.252725927378858,-5.154042569758633,19.19201971744683
492,1791274176.8248012,1.24857158203125,-4.146641015625001,-1.6858542480468752,4.647113862773027,2.9543831769653264,-18.334559390655343,-5.18152725798396,19.280370139886696
493,1791274176.8448012,1.13840068359375,-4.1705912109375,-1.5421530761718754,4.5899916422039615,2.971885214162353,-18.40251241448771,-5.20500190114925,19.353981752665224
494,1791274176.86903,0.8557883789062499,-4.314292382812501,-1.1876901855468753,4.555886356210976,2.993531269760535,-18.48790377150174,-5.23413490318608,19.446335991957277
495,1791274176.88903,0.8605784179687499,-3.9550394531250004,-1.1397897949218754,4.205003337199265,3.011293628005301,-18.560222033410124,-5.258067096353598,19.52426697300834
496,1791274176.899487,0.8701584960937498,-3.6005765625000006,-1.1445798339843753,3.8770337098240657,3.0205450352807577,-18.59828774909353,-5.27049473181169,19.56522717032175
497,1791274176.919487,0.6354465820312499,-3.5670462890625005,-0.9673483886718752,3.750116597120125,3.0378434320369694,-18.6709225185791,-5.293866199187279,19.643239543090946
498,1791274176.9447105,0.24745341796874987,-3.5814164062500007,-0.7853269042968752,3.6748489786158016,3.058057541384548,-18.76231014531643,-5.3222360450617785,19.74087623270096
499,1791274176.9647105,0.10375224609374985,-3.4329251953125004,-0.8667575683593752,3.542175688399592,3.072208137461052,-18.834424549882463,-5.343834713453696,19.817431226317147
500,1791274177.0046167,0.13249248046874987,-3.5478861328125006,-1.1206296386718753,3.7230177350979488,3.096914873747809,-18.97762522152071,-5.386414629511067,19.968840811242657
501,1791274177.0246167,0.02232158203124985,-3.4760355468750004,-0.9625583496093753,3.6069155732517064,3.107672112024479,-19.049164277246547,-5.407678362699057,20.04423285865
502,1791274177.019139,-0.030368847656250152,-3.1455228515625007,-0.7757468261718753,3.23991040229905,3.107672112024479,-19.049164277246547,-5.407678362699057,20.04423285865
503,1791274177.039139,0.09896220703124985,-2.8198001953125003,-1.0056687011718752,2.9954025099177635,3.115536846366425,-19.118241699951938,-5.427929867655516,20.116564273926965
504,1791274177.064244,0.09417216796874986,-2.8245902343750005,-1.3218112792968753,3.1199941422097246,3.1242918787110807,-19.202572469956596,-5.453919838013576,20.20507933186091
505,1791274177.084244,-0.06389912109375015,-2.8006400390625004,-1.0344089355468753,2.986246736627062,3.1302658048934293,-19.26811533615908,-5.4750534114413165,20.273999173200856
506,1791274177.110157,-0.15969990234375017,-2.4653373046875005,-0.45481420898437525,2.512020710381687,3.1364103519204423,-19.350532223061588,-5.501222158946177,20.360344114318377
507,1791274177.130157,-0.20760029296875016,-1.9959134765625002,-0.6272556152343752,2.102431471988462,3.139890475336647,-19.411292928393085,-5.520013026634614,20.423705568853293
508,1791274177.1394713,-0.14532978515625017,-1.5887601562500002,-0.9673483886718752,1.865755205166841,3.1410215630623264,-19.437849697946945,-5.5285654895795835,20.451431580996204
509,1791274177.1594713,-0.14053974609375017,-1.3732083984375,-1.0631491699218754,1.74233718989091,3.1426571629221294,-19.49076271066696,-5.547220753083765,20.507017900480673
510,1791274177.1993518,-0.36567158203125016,-1.2630375,-0.44523413085937524,1.3882409241891664,3.1439152819056826,-19.588331330803733,-5.583351629607782,20.609724477658386
511,1791274177.2193518,-0.7440846679687502,-0.8750443359375001,0.11999047851562479,1.1548862705465306,3.14278695118907,-19.633129312504305,-5.599241109377205,20.65643670682385
512,1791274177.2291832,-0.8063551757812502,-0.14216835937500005,-0.06682104492187523,0.8215141897502691,3.1411722659823273,-19.652597575998165,-5.605841102947014,20.676484448769227
513,1791274177.2491832,-0.5333229492187502,-0.031997460937500034,-0.5554050292968753,0.7706698075298496,3.136370722852952,-19.68652231120781,-5.618186799338467,20.71134966469141
514,1791274177.2742648,-0.6626540039062502,-0.38167031250000005,-0.5937253417968752,0.968138594328647,3.1290026403379967,-19.723463237403386,-5.633508602392015,20.749507916422257
515,1791274177.2942648,-0.7776149414062502,-0.14216835937500005,0.1966311035156248,0.8145923093028791,3.1218482549083713,-19.74928704175895,-5.644489148650091,20.775960457550237
516,1791274177.3049104,-0.7680348632812501,0.44221640624999997,0.5894143066406248,1.0643505653894125,3.117377246520051,-19.760731189008695,-5.648829586805663,20.787347443148033
517,1791274177.3249104,-0.6626540039062502,0.8397896484375,0.1822609863281248,1.0851617619751746,3.1080914701714146,-19.777083319512556,-5.654603312699391,20.803071788509627
518,1791274177.349205,-0.9261061523437502,0.490116796875,-0.22489233398437522,1.0716639593981385,3.0956088270524207,-19.791544038498227,-5.660642490773756,20.81660113578326
519,1791274177.369205,-1.2326686523437502,-0.07031777343750004,0.009819580078124782,1.2347117152943337,3.083636027254262,-19.801033125751943,-5.665190971471595,20.825083739062116
520,1791274177.3797784,-1.1224977539062502,0.06380332031249997,0.34033227539062477,1.1746906524187701,3.0763881611395885,-19.80530239701695,-5.666957247598408,20.828551836394993
521,1791274177.3997784,-0.5572731445312502,0.7439888671875,0.2732717285156248,0.9688912373020022,3.062215325036454,-19.81095488135188,-5.668876676584543,20.832360854741648
522,1791274177.4243696,-0.22197041015625016,1.371483984375,0.09604028320312478,1.3926460133069694,3.045965716388715,-19.812960794741873,-5.67020158712484,20.832246845648385
523,1791274177.4443696,-1.3524196289062502,0.90206015625,0.2253713378906248,1.641201882184914,3.032370724913072,-19.810937176401787,-5.670635385229583,20.828456728544868
524,1791274177.4843261,-2.0661354492187503,0.41347617187499996,0.3355422363281248,2.133651056660121,2.9990397808110223,-19.803558433197527,-5.669691128337324,20.816353276083273
525,1791274177.504326,-1.5248610351562502,0.06859335937499997,0.3211721191406248,1.5598261940361877,2.9794722563124,-19.799695958120793,-5.668304312749141,20.809490352771515
526,1791274177.5145278,-0.7776149414062502,0.21708457031249997,0.2684816894531248,0.8508190908398876,2.9692266323606966,-19.797802715850768,-5.667251867841726,20.80593768383496
527,1791274177.5345278,-0.3321413085937502,0.911640234375,0.5463039550781248,1.1134872146278445,2.9504888090525045,-19.792954753002466,-5.66427590838905,20.797847572119178
528,1791274177.5440638,-1.0410670898437502,1.2134126953125,1.2312795410156248,2.0179792771049283,2.9419125930340053,-19.789470120692037,-5.661798475424935,20.792641470942048
529,1791274177.5640638,-2.0038649414062504,1.122401953125,1.0540480957031249,2.527108671155887,2.922056282964496,-19.779754309001465,-5.653953939738392,20.778457319973434
530,1791274177.5897658,-1.7978932617187502,0.9260103515625,0.6947951660156249,2.1383768784882777,2.8930380609985007,-19.765192755928222,-5.642013913119818,20.757283899807824
531,1791274177.6097658,-1.1464479492187503,0.6769283203125,0.5463039550781248,1.4391048823636805,2.869428132282493,-19.753156953069254,-5.632254816147845,20.739892037639517
532,1791274177.6349056,-1.1272877929687501,0.777519140625,0.6612648925781248,1.5207185934192273,2.8399151757768517,-19.737555045302983,-5.619550924674226,20.717517948996203
533,1791274177.6549056,-1.5823415039062503,0.86373984375,0.9438771972656248,2.034884595298608,2.815893551903805,-19.724542872864472,-5.608552617460948,20.698857710075455
534,1791274177.6649559,-1.7356227539062503,0.854159765625,0.8145461425781249,2.0989189282767864,2.803132013616852,-19.71768997421589,-5.602529371554671,20.688962815090328
535,1791274177.6849558,-1.4338502929687502,0.5236470703125,0.5798342285156248,1.6328933368263052,2.7767917849379478,-19.70403165143303,-5.590249538410941,20.669066883613233
536,1791274177.7098396,-1.2518288085937501,0.5044869140625,0.6708449707031248,1.507187907065084,2.7439231738717247,-19.687668365080828,-5.57492875600704,20.64493232423078
537,1791274177.7298396,-1.5727614257812503,0.5571773437499999,0.7043752441406248,1.8111238442944595,2.717231239751381,-19.67489686242228,-5.562399133747438,20.625838074617697
538,1791274177.7849028,-1.5823415039062503,0.4853267578125,0.7762258300781248,1.8280791110106698,2.6417372694945818,-19.640703841701644,-5.526962931021549,20.573850938493667
539,1791274177.8049028,-1.2518288085937501,0.470956640625,0.8193361816406248,1.5684984226703806,2.6141783432792445,-19.628712815839286,-5.5136291736345635,20.555301065212298
540,1791274177.7849028,-1.0075368164062501,0.5763375,0.8289162597656248,1.4263230756122978,2.6141783432792445,-19.628712815839286,-5.5136291736345635,20.555301065212298
541,1791274177.8049028,-1.1033375976562503,0.71045859375,0.9630373535156248,1.6277426737975114,2.5882200220625657,-19.61678380859803,-5.499206086207329,20.53675625444435
542,1791274177.8296936,-1.2230885742187503,0.6769283203125,0.9055568847656248,1.665596254430221,2.5565445738581243,-19.60163572694407,-5.480535508262467,20.513320374509323
543,1791274177.8496935,-1.1272877929687501,0.51885703125,0.7379055175781248,1.4437780092265429,2.531297935050175,-19.589454426267046,-5.465267180962047,20.494470944966686
544,1791274177.8743284,-1.1033375976562503,0.5332271484375,0.6756350097656248,1.3993454586533123,2.5007438361515426,-19.574756984118068,-5.446669847288905,20.471713244052026
545,1791274177.8943284,-1.1703981445312501,0.5428072265625,0.7235354003906248,1.4791805087781167,2.476248494591371,-19.56300053830586,-5.431737464747056,20.453522155234246
546,1791274177.9045596,-1.2997291992187503,0.5044869140625,0.7331154785156249,1.575202000570502,2.463701776260131,-19.55708486177864,-5.424126681880486,20.444327941858262
547,1791274177.9245596,-1.4721706054687502,0.19313437499999997,0.6277346191406248,1.6120291345011393,2.438696636881343,-19.546209099987827,-5.409439534194814,20.42703031625726
548,1791274177.9491649,-1.5727614257812503,-0.10863808593750003,0.5558840332031248,1.671642244773626,2.4069290296673915,-19.534680113271968,-5.391896569854669,20.407586410492776
549,1791274177.9691648,-1.5009108398437503,-0.24275917968750005,0.4744533691406248,1.592724511009958,2.380370027827298,-19.527241738108053,-5.37823048867963,20.39374155365442
550,1791274177.9944339,-1.4099000976562501,-0.19006875000000004,0.34033227539062477,1.4627954309370215,2.3463308867980066,-19.520073693383146,-5.362009844341435,20.378657835987763
551,1791274178.0144339,-1.6541920898437503,-0.28586953125000003,0.4026027832031248,1.726314531028929,2.3188345936645516,-19.515965229152318,-5.349982848461305,20.368412043580815
552,1791274178.0247521,-1.8505836914062503,-0.5110013671875001,0.4505031738281248,1.971987704270869,2.304064474687522,-19.5147802307145,-5.344048488673708,20.36404220202606
553,1791274178.0447521,-1.7739430664062503,-0.7361332031250001,0.4169729003906248,1.965358108654515,2.274293033087294,-19.51469857480572,-5.332970062222026,20.357712026414713
554,1791274178.0694962,-1.6541920898437503,-0.74571328125,0.4026027832031248,1.8586362659157325,2.2366227751132413,-19.517362718083373,-5.319798769733725,20.35264572132691
555,1791274178.0894961,-1.6015016601562502,-0.3577201171875001,0.4840334472656248,1.7108651693794308,2.2058585044335537,-19.52084822267421,-5.309419695544994,20.34992050543947
556,1791274178.1148374,-1.3572096679687502,-0.20443886718750004,0.6660549316406248,1.5255957869657188,2.1671019147284794,-19.525670565696856,-5.29605552697492,20.34690015441522
557,1791274178.1348374,-1.3907399414062502,-0.43436074218750004,0.7187453613281248,1.6246297219388277,2.1369804553335565,-19.529863793285518,-5.285013086130408,20.344867376597268
558,1791274178.144577,-1.5009108398437503,-0.45831093750000007,0.6900051269531248,1.7143189142671786,2.122399857293405,-19.532251589261072,-5.279413179646976,20.344179433485664
559,1791274178.164577,-1.5488112304687502,-0.35293007812500005,0.5942043457031249,1.6960114009416098,2.092375672907732,-19.537636211863,-5.2677125486052985,20.34320673341374
560,1791274178.2042537,-1.3907399414062502,-0.10384804687500004,0.4936135253906248,1.4793905210967704,2.032999724711897,-19.548075342655007,-5.244745169395358,20.3412804261357
561,1791274178.2242537,-1.0889674804687501,-0.257129296875,0.5510939941406248,1.2472651038202571,2.0038397697378474,-19.553089589538104,-5.233337437219986,20.34026811649971
562,1791274178.2495801,-1.2278786132812503,-0.35293007812500005,0.5654641113281248,1.3971382144222204,1.9680518501873885,-19.559645608614485,-5.218937530822521,20.339377408619118
563,1791274178.2695801,-1.6254518554687503,-0.3864603515625,0.6181545410156248,1.7814489536202973,1.9397498151448371,-19.56515531153568,-5.207496407813669,20.339025309666624
564,1791274178.2795436,-1.4865407226562501,-0.10863808593750003,0.47924340820312483,1.5656563473948162,1.9254398491614133,-19.567858362441342,-5.201831622559847,20.338816379887202
565,1791274178.2995436,-1.1464479492187503,-0.19006875000000004,0.4361330566406248,1.2412417464334395,1.8970743628487485,-19.572918432534312,-5.190793166747252,20.338199546783127
566,1791274178.3098717,-1.0506471679687501,-0.23796914062500005,0.3068020019531248,1.1200965368453744,1.8829216599512038,-19.575471073421408,-5.185372436268861,20.33795832984935
567,1791274178.3298717,-1.1943483398437502,-0.10384804687500004,0.3882326660156248,1.260149585044916,1.8562588124371868,-19.580185447145936,-5.175407359640217,20.33750722831081
568,1791274178.3548846,-1.4769606445312502,-0.20443886718750004,0.4217629394531248,1.5495457311764678,1.8229035098720285,-19.58577541053178,-5.163294432950976,20.33679387316097
569,1791274178.3748846,-1.4865407226562501,-0.23796914062500005,0.3068020019531248,1.5364114359140955,1.795788439024752,-19.590238222367176,-5.153969075304821,20.33631448802927
570,1791274178.3998425,-1.3859499023437503,-0.16132851562500003,0.3068020019531248,1.428639734209735,1.7616503208860315,-19.59571940065696,-5.142928990804339,20.33581444857366
571,1791274178.4198425,-1.2518288085937501,0.03506308593749997,0.4409230957031248,1.3276738915656718,1.7344405958517268,-19.59964228419814,-5.134287488969259,20.335072408733943
572,1791274178.4298866,-1.3476295898437503,0.006322851562499968,0.47924340820312483,1.4303215492260692,1.7208672651378154,-19.601285687083973,-5.129905483423955,20.33439733554376
573,1791274178.4498866,-1.4146901367187503,-0.10384804687500004,0.4936135253906248,1.5019277320222932,1.6937504568649806,-19.604213491075942,-5.121029503165784,20.33270568286741
574,1791274178.474849,-1.3428395507812503,0.02548300781249997,0.5031936035156248,1.4342493665498346,1.6598195270715104,-19.607466323895636,-5.109746735202425,20.33020531630365
575,1791274178.494849,-1.2039284179687502,0.18834433593749997,0.5989943847656248,1.357833383539094,1.6328916377858567,-19.609360836899608,-5.100409631182863,20.32750712552688
576,1791274178.5200307,-1.3428395507812503,0.24103476562499998,0.6325246582031249,1.503796282951008,1.5992627941064055,-19.61057745502149,-5.088090930047147,20.322919547064057
577,1791274178.5400307,-1.5009108398437503,0.25061484375,0.4840334472656248,1.5968185642521047,1.5722946465161483,-19.610661309123714,-5.078099851549722,20.318396726585846
578,1791274178.549585,-1.3667897460937501,0.19313437499999997,0.4217629394531248,1.4433638051197621,1.5592889781080854,-19.610377377717388,-5.073393781616407,20.315944661203506
579,1791274178.569585,-1.2661989257812503,0.1500240234375,0.3547023925781248,1.323472974623439,1.532198697472699,-19.609357445485145,-5.063855641223037,20.310518610525115
580,1791274178.6100128,-1.3284694335937501,0.11170371093749998,0.47924340820312483,1.4166802742101885,1.4777855341266461,-19.606811441639653,-5.044938828583897,20.29931803724054
581,1791274178.6300128,-1.4625905273437503,0.10212363281249998,0.5031936035156248,1.5500980903392958,1.4507180214155608,-19.60542009734903,-5.035510588155523,20.29367997319913
582,1791274178.6549988,-1.3619997070312502,0.16918417968749996,0.4361330566406248,1.440096709149923,1.4166816869923637,-19.60343420092703,-5.023738418252065,20.286438010832676
583,1791274178.6749988,-1.3572096679687502,0.16918417968749996,0.3882326660156248,1.4217475065728011,1.389445249771654,-19.601575485490986,-5.0144923267883055,20.28046974088453
584,1791274178.6700182,-1.4194801757812503,0.21229453124999997,0.47924340820312483,1.5131646247982318,1.389445249771654,-19.601575485490986,-5.0144923267883055,20.28046974088453
585,1791274178.6900182,-1.4338502929687502,0.11170371093749998,0.5127736816406248,1.5268730236228094,1.3619466560837807,-19.599260181796055,-5.005217970550231,20.274074708860898
586,1791274178.714929,-1.3763698242187503,0.04464316406249997,0.4744533691406248,1.4565345531796885,1.3275830824063328,-19.59651682820267,-4.9935546112196345,20.26626596820329
587,1791274178.734929,-1.3524196289062502,0.1596041015625,0.5079836425781248,1.4534647236907514,1.3000391409583518,-19.594338308601305,-4.9841215214360926,20.260050909619817
588,1791274178.759622,-1.2470387695312501,0.30330527343749997,0.5510939941406248,1.396711986053989,1.266318906500149,-19.59119475543134,-4.97226054115463,20.251959174542186
589,1791274178.779622,-1.3524196289062502,0.29372519531249996,0.6373146972656248,1.5236414822270563,1.2392049186276455,-19.588135021280028,-4.9623121997498965,20.244880953219624
590,1791274178.8050587,-1.4146901367187503,0.24582480468749998,0.7043752441406248,1.599350650134963,1.2046141710336322,-19.58379794509428,-4.948997857199535,20.2353358520658
591,1791274178.8250587,-1.3619997070312502,0.20750449218749997,0.6900051269531248,1.5408466476105924,1.1773312224156631,-19.580219368279195,-4.938007958928766,20.22758072335034
592,1791274178.8346107,-1.4530104492187503,0.1596041015625,0.7187453613281248,1.6288977037264016,1.1642387500790172,-19.578503610902494,-4.932537265603569,20.223827021260725
593,1791274178.8546107,-1.4961208007812503,0.1500240234375,0.7858059082031248,1.6965776090428764,1.1365139925199506,-19.574985584398373,-4.92054408419131,20.215921417760505
594,1791274178.8797815,-1.3955299804687502,0.29372519531249996,0.7570656738281248,1.6145980463376355,1.101396263768809,-19.570384425520402,-4.904801607880063,20.205694719686285
595,1791274178.8997815,-1.3715797851562501,0.3320455078125,0.8289162597656248,1.6366390842246066,1.0735276145122932,-19.56633821649732,-4.891790404287021,20.19712024277121
596,1791274178.924873,-1.4625905273437503,0.4278462890625,0.9342971191406249,1.7874939453253242,1.0384750464001615,-19.56059333481463,-4.874597163299959,20.185562650975136
597,1791274178.944873,-1.4194801757812503,0.5907076171875,1.001357666015625,1.8348233249355543,1.0104032816782051,-19.555173258276096,-4.8600449943810755,20.175374923411738
598,1791274178.9549105,-1.3715797851562501,0.806259375,0.9438771972656248,1.8499160657561378,0.9963269951820303,-19.551809457160815,-4.852372786512926,20.16956722861804
599,1791274178.9749105,-1.1608180664062502,0.8158394531250001,0.8768166503906248,1.6679028853541442,0.9686879539592487,-19.54367917472355,-4.836647634216667,20.156560033255737
600,1791274178.9995992,-1.1991383789062502,0.681718359375,0.9342971191406249,1.6660083673587363,0.9353172691924471,-19.53237534102108,-4.816794121874868,20.13926539050286
601,1791274179.0195992,-1.3093092773437502,0.5763375,0.8863967285156248,1.6829007273062382,0.9085764524147552,-19.52270474558075,-4.800392493319904,20.124742975822716
602,1791274179.0448065,-1.2326686523437502,0.39431601562499996,0.7666457519531248,1.5042283189852212,0.8751230090328229,-19.510509470242003,-4.779696103953589,20.106499320256887
603,1791274179.0648065,-1.2230885742187503,0.4661666015625,0.6564748535156248,1.464314240214561,0.8488781178146134,-19.500994160289345,-4.763603621297609,20.09231909858549
604,1791274179.0744903,-1.0410670898437502,0.8781099609375,0.8528664550781249,1.6069470990828916,0.8364322374653904,-19.496101669453008,-4.755884318922581,20.08521931292993
605,1791274179.0944903,-0.9069459960937502,1.0697115234375,0.9342971191406249,1.6851542629800789,0.8116614909993687,-19.484591177589394,-4.739652349065668,20.069190121272193
606,1791274179.1198885,-0.9500563476562502,0.7918892578125,0.7522756347656249,1.4476236703725143,0.7813859360423163,-19.468620337949776,-4.718918424827348,20.047591699365075
607,1791274179.1398885,-0.8638356445312502,0.4661666015625,0.5175637207031248,1.1096826240701045,0.7584005605968401,-19.456043386856408,-4.703135691178577,20.030783334937013
608,1791274179.1643386,-0.9692165039062502,0.26498496093749996,0.3115920410156248,1.0519920441674384,0.7311544291909459,-19.441633563364903,-4.685214931364122,20.01157018738309
609,1791274179.1843386,-0.9787965820312502,0.22666464843749998,0.3020119628906248,1.049109545079255,0.7092883393289522,-19.430877025136038,-4.671834328586802,19.99720250205087
610,1791274179.1948822,-0.8590456054687502,0.21708457031249997,0.5079836425781248,1.0213385550687266,0.6980367752480096,-19.425706087362634,-4.6651979239498225,19.99023221480486
611,1791274179.2148821,-0.6482838867187501,0.32725546875,0.2876418457031248,0.7810928056290442,0.6776342866863236,-19.416552199498035,-4.653304257936867,19.977860948040913
612,1791274179.2551,-0.6818141601562502,0.14523398437499999,0.14394067382812478,0.7118162521248761,0.6387490720446732,-19.399480623324436,-4.631673074038568,19.954955381973473
613,1791274179.2751,-0.6961842773437502,-0.10384804687500004,0.04813989257812479,0.705531299176603,0.6202454049813946,-19.392202437016998,-4.622241512581746,19.945108079959923
614,1791274179.2853975,-0.5333229492187502,-0.19485878906250004,-0.009340576171875219,0.5678825250010007,0.6111977868391674,-19.389247865680744,-4.618083864645683,19.940992806586717
615,1791274179.3053975,-0.6099635742187501,-0.30023964843750006,-0.009340576171875219,0.6799166527823899,0.5945463390174102,-19.385112873874238,-4.611248114113681,19.934886396766867
616,1791274179.3144162,-0.4614723632812502,-0.20922890625000004,-0.07640112304687523,0.5124164408816106,0.5874392302975429,-19.383872563073318,-4.608686011702992,19.93287704134117
617,1791274179.3344162,-0.21239033203125016,-0.30981972656250006,-0.16262182617187523,0.40932111410857197,0.5730316866498065,-19.382313175487578,-4.604215036587771,19.929907813377486
618,1791274179.3594854,0.08938212890624986,-0.3673001953125001,-0.08119116210937523,0.38664014697013166,0.5574499826603172,-19.381924851970936,-4.599909880277558,19.928094047281384
619,1791274179.3794854,-0.020788769531250154,-0.602012109375,-0.19136206054687524,0.6320365424479081,0.5469865870063522,-19.383115488587713,-4.5973992914645025,19.92838278976626
620,1791274179.4050121,-0.13574970703125017,-1.061855859375,-0.27758276367187523,1.1059014602286257,0.5353352761947714,-19.38759268358959,-4.595573380953067,19.932000115955237
621,1791274179.425012,-0.04473896484375015,-1.1911869140625,-0.23447241210937522,1.2148683678693015,0.5273051537178837,-19.393953909119368,-4.595125466647478,19.937870423102265
622,1791274179.4352844,0.29056376953124985,-0.9852152343750001,-0.35422338867187525,1.0865314405441666,0.5239888181497874,-19.39840778327437,-4.5953834628793135,19.942174855783666
623,1791274179.4552844,0.36720439453124987,-0.9756351562500001,-0.43565405273437524,1.129821879385379,0.5194871322924545,-19.408719951593444,-4.5969952462558865,19.952459556007074
624,1791274179.4800315,0.26182353515624984,-1.2342972656250002,-0.4883444824218752,1.352967714693502,0.515919963286104,-19.423667529496978,-4.600405419753251,19.96769299971951
625,1791274179.5000315,0.33846416015624986,-1.492959375,-0.5122946777343752,1.6142897880943288,0.514369935783926,-19.438026613317835,-4.604248987560436,19.98250644414614
626,1791274179.5246027,0.46779521484374986,-1.41631875,-0.6033054199218753,1.608965069334752,0.5142370848532916,-19.458382792049562,-4.6103186046320745,20.00370311461319
627,1791274179.5446026,0.4917454101562499,-1.4067386718750001,-0.8044870605468752,1.6934954000367788,0.5155844792706002,-19.47670113827641,-4.6166296578476205,20.023011361499066
628,1791274179.5535214,0.3624143554687499,-1.7564115234375002,-0.8236472167968752,1.97350458384345,0.5166665596876989,-19.48576052012555,-4.6201109190870255,20.032654149818743
629,1791274179.5735214,0.4438450195312499,-2.0629740234375,-0.7757468261718753,2.2482534023228653,0.5199384927259105,-19.508757610783924,-4.629145613035667,20.057191943520536
630,1791274179.6143978,0.5396458007812499,-2.077344140625,-0.7326364746093753,2.267891636039498,0.5286377688773195,-19.56140235849818,-4.649465413207038,20.113315210336417
631,1791274179.6343977,0.7072971679687499,-2.1683548828125003,-0.9769284667968753,2.481213697139269,0.5341261027668239,-19.589665199585315,-4.660480511425889,20.143494034622726
632,1791274179.6442273,0.5540159179687498,-2.3791166015625,-0.8380173339843753,2.5825186336697237,0.5373487397340049,-19.604824604179996,-4.666420127930829,20.159696630631945
633,1791274179.6642272,0.3624143554687499,-2.5371878906250003,-0.7038962402343752,2.657844328473746,0.5442968777192599,-19.63841697718405,-4.679005458238692,20.195464157554618
634,1791274179.6887984,0.34804423828124986,-2.5419779296875005,-0.7422165527343753,2.6708934830823985,0.5528619130446792,-19.682856773939385,-4.694812971018751,20.24257335200129
635,1791274179.7087984,0.46779521484374986,-2.422226953125,-0.7470065917968752,2.5776024952781054,0.5600115345948058,-19.721049493902644,-4.707983496805285,20.282961190763736
636,1791274179.7637954,0.4917454101562499,-2.35516640625,-0.8188571777343753,2.541485673196956,0.5806807562265648,-19.830025800310175,-4.745226764544159,20.39814428884562
637,1791274179.7837954,0.44863505859374986,-2.4413871093750004,-0.9481882324218752,2.6571987802430512,0.5884803402845673,-19.870906034619747,-4.759389509414549,20.441404165318833
638,1791274179.764794,0.3624143554687499,-2.4653373046875005,-0.9817185058593753,2.678246332151026,0.5884803402845673,-19.870906034619747,-4.759389509414549,20.441404165318833
639,1791274179.784794,0.46779521484374986,-2.5228177734375006,-0.8859177246093752,2.714459816571229,0.5963949399510651,-19.91418029705166,-4.7748841730021025,20.487307843966853
640,1791274179.8090658,0.4725852539062499,-2.6760990234375006,-0.9338181152343753,2.873475087379854,0.6062710895316088,-19.968283836503907,-4.794180293191046,20.544685168987293
641,1791274179.8290658,0.2761936523437499,-2.7910599609375004,-0.8907077636718752,2.9427298481866755,0.6143115390331066,-20.014378834361167,-4.810432134824528,20.593518303487286
642,1791274179.8395493,0.23308330078124986,-2.7718998046875005,-0.9433981933593752,2.9373042919594523,0.6182943813143044,-20.039290377217306,-4.8191152209578965,20.619876776481156
643,1791274179.8595493,0.4055247070312499,-2.9347611328125005,-0.9960886230468753,3.1256144579335294,0.6257108446733061,-20.088246763348955,-4.8361048868533,20.671649246322556
644,1791274179.8999732,0.5061155273437499,-3.1455228515625007,-1.1733200683593752,3.3951652271333095,0.6412163502360482,-20.19078876949924,-4.871870598818912,20.78014034298091
645,1791274179.9199731,0.3049338867187499,-3.4856156250000003,-1.3313913574218752,3.7436751871832055,0.6489536581641382,-20.243858811395132,-4.890668689427678,20.83635286358659
646,1791274179.959692,0.25224345703124984,-3.6101566406250005,-1.4367722167968753,3.893734985129737,0.6636744312820954,-20.354581579898607,-4.930646994678352,20.953776147263195
647,1791274179.979692,0.41989482421874985,-3.7634378906250006,-1.2547507324218752,3.9892575525416856,0.6709832431563039,-20.41303216742793,-4.951795300907982,21.01576497496911
648,1791274179.959692,0.5971262695312499,-3.5287259765625003,-1.0727292480468753,3.73620326522079,0.6709832431563039,-20.41303216742793,-4.951795300907982,21.01576497496911
649,1791274179.979692,0.5540159179687498,-3.4856156250000003,-1.0056687011718752,3.6698527843938953,0.6792872720278473,-20.47508171934998,-4.973160080254579,21.081335911081073
650,1791274180.0340292,0.5396458007812499,-3.5047757812500007,-1.0679392089843753,3.7033991171926854,0.7029210577282747,-20.646862881495245,-5.030949095256941,21.26258435984983
651,1791274180.0540292,0.5635959960937499,-3.5239359375000006,-1.1781101074218754,3.7581522539176744,0.7119699970666623,-20.711149480825508,-5.052398066660545,21.330385376683118
652,1791274180.0491269,0.5013254882812499,-3.3754447265625003,-1.0583591308593752,3.572824988318409,0.7119699970666623,-20.711149480825508,-5.052398066660545,21.330385376683118
653,1791274180.0691268,0.39115458984374984,-3.3514945312500006,-0.9625583496093753,3.5088511057833753,0.7212043481768349,-20.77648365006286,-5.073777817388814,21.399196945525443
654,1791274180.0789485,0.5588059570312499,-3.3371244140625005,-1.0535690917968752,3.543821564883775,0.7257587209088485,-20.808682479766166,-5.084187295045113,21.433080803183678
655,1791274180.0989485,0.7120872070312498,-3.4616654296875007,-0.8284372558593752,3.6299454574975267,0.7355480760561903,-20.87461257310238,-5.1050277318118535,21.50236706020716
656,1791274180.1391168,0.5923362304687498,-3.3850248046875007,-0.8523874511718753,3.540595925150294,0.7561897444336638,-21.007791865131747,-5.145669250207541,21.6420205621105
657,1791274180.1591167,0.5204856445312499,-3.3514945312500006,-0.9865085449218752,3.532225928273225,0.7665949230449325,-21.0742606486581,-5.165627856592781,21.71165218992845
658,1791274180.1694067,0.6210764648437499,-3.4041849609375006,-0.9865085449218752,3.598251010235353,0.7720263238301595,-21.108542524462106,-5.175878846198811,21.747558805122015
659,1791274180.1894066,0.7168772460937499,-3.3323343750000003,-0.9050778808593752,3.5266884386339683,0.7830064843306372,-21.175284473065208,-5.195651910635373,21.817437302447537
660,1791274180.1996417,0.5683860351562499,-3.3467044921875004,-1.1541599121093753,3.585467716450527,0.7887693617568927,-21.2094436488988,-5.205833747927418,21.85322314929585
661,1791274180.2196417,0.6162864257812499,-3.3131742187500004,-1.2547507324218752,3.596016096029763,0.800118243836004,-21.276170281738306,-5.226358675185794,21.92328524795801
662,1791274180.2446983,0.6162864257812499,-3.3514945312500006,-1.1972702636718753,3.611894327894133,0.8145200490029748,-21.359752455140132,-5.252823752754482,22.01123861195899
663,1791274180.2646983,0.4725852539062499,-3.3275443359375005,-1.1781101074218754,3.561436726245317,0.8259244511540347,-21.42647844066546,-5.274342403645813,22.081549251767008
664,1791274180.289282,0.5731760742187498,-3.3131742187500004,-1.1733200683593752,3.561226502016032,0.8397680813933557,-21.508438696541955,-5.301160908720387,22.168005155484234
665,1791274180.309282,0.7887278320312499,-3.3131742187500004,-0.9433981933593752,3.5340083684173877,0.8513839602804341,-21.575054642343733,-5.322881278968897,22.23827562060373
666,1791274180.3347547,0.8414182617187499,-3.2461136718750003,-0.8428073730468753,3.4576817276825484,0.8670734840280291,-21.65970346308736,-5.34980795010382,22.327449823895634
667,1791274180.3547547,0.6306565429687498,-3.3083841796875006,-1.0823093261718753,3.5375877421082365,0.8797525009125345,-21.726028305415085,-5.370665999828553,22.397283845865633
668,1791274180.364771,0.6785569335937499,-3.3179642578125006,-1.1014694824218754,3.5612583940169413,0.8861333204050652,-21.75923987702968,-5.381185530667914,22.432273848255342
669,1791274180.3847709,0.8653684570312499,-3.2700638671875004,-0.9386081542968753,3.510436657913443,0.8992790415721539,-21.82549019457532,-5.402099900456382,22.502075645651562
670,1791274180.4093406,0.9372190429687499,-3.2317435546875006,-0.9050778808593752,3.4844959331570986,0.9163276898762654,-21.90665087764292,-5.42733642456073,22.587540587136328
671,1791274180.4293406,0.8701584960937498,-3.3227542968750003,-1.1158395996093753,3.6115052177425726,0.9308348340132777,-21.97263826602782,-5.447829127515678,22.657054708424276
672,1791274180.4701018,0.8270481445312499,-3.2892240234375003,-1.2116403808593752,3.6015379662388693,0.9611548611652092,-22.107165212957753,-5.490445065451142,22.799025405417833
673,1791274180.4901018,0.7743577148437499,-3.3754447265625003,-1.1733200683593752,3.6564924388587867,0.976202315705538,-22.173268358975623,-5.51179601474324,22.868902378305737
674,1791274180.4836216,0.7887278320312499,-3.3562845703125004,-1.1876901855468753,3.646552575623016,0.976202315705538,-22.173268358975623,-5.51179601474324,22.868902378305737
675,1791274180.5036216,0.8653684570312499,-3.4377152343750006,-1.1302097167968752,3.7207690875705635,0.9915481758499711,-22.239801818629843,-5.53370920734741,22.93935243873384
676,1791274180.5443752,0.9563791992187499,-3.4041849609375006,-1.1589499511718753,3.7210618659587804,1.0236958711506186,-22.375952158333117,-5.578660372300272,23.083601100740257
677,1791274180.5643752,0.8893186523437498,-3.3993949218750004,-1.2643308105468753,3.7343414277184355,1.0398745252886157,-22.44295135745463,-5.601046247426023,23.154678225516847
