imu_index,t_imu,ax,ay,az,mag,vx,vy,vz,velocity
0,1790565913.0469372,0.005083306760204015,0.004936672911352007,0.013001534598214598,0.014807114808786477,0.0,0.0,0.0,0.0
1,1790565913.0669372,-0.004496771364795985,0.03846694634885201,-0.0013685825892854032,0.03875306352298361,7.361012192357199e-06,7.139961876023229e-05,3.4026352176028305e-05,7.943477010736325e-05
2,1790565913.0927312,-0.03323700573979599,0.04804702447385201,-0.025318777901785404,0.06367303688201233,-5.7567459391027e-05,0.0003170370491425834,1.969955671400265e-05,0.00032282282361150143
3,1790565913.1127312,0.014663384885204016,0.03846694634885201,-0.054059012276785404,0.0679492282961236,-0.00012822005272070293,0.0006086993137752831,-0.00010880932773185963,0.000631501944820172
4,1790565913.1363358,0.05777373644770402,0.00014663384885200747,-0.0492689732142854,0.07592929504614385,-7.085971207955119e-05,0.0009696537033745121,-0.0004206555828886119,0.0010593396635070647
5,1790565913.1563358,0.11046416613520402,-0.028593600526147993,-0.020528738839285403,0.11593685828642447,0.00022280764406851434,0.0011869415480498845,-0.0007499427759957023,0.0014215792809444566
6,1790565913.166963,0.07214385363520402,-0.081284030213648,0.032161690848214596,0.11334109379800034,0.0005009921157219897,0.0011975042029336298,-0.000889396441460884,0.001573542324229821
7,1790565913.186963,-0.014076849489795986,-0.004643405213647993,0.022581612723214597,0.02701199986520343,0.0010330922068593961,0.0010855097949016147,-0.0010303595617680628,0.0018185851228985233
8,1790565913.2267277,-0.014076849489795986,0.105527493223852,0.0177915736607146,0.10793863817462741,0.00184837665642146,0.0011971108441396021,-0.0011481801839619264,0.0024835233785900327
9,1790565913.2467277,0.11046416613520402,0.11989761041135201,-0.0013685825892854032,0.16303264090543954,0.002341503877387267,0.0015829593068606212,-0.0011739158117216471,0.0030604703736527754
10,1790565913.2566907,0.12962432238520402,0.03846694634885201,-0.010948660714285404,0.13565413405667112,0.0027297092102036673,0.0018646732747009149,-0.0011940168185565344,0.003514825025040426
11,1790565913.2766907,0.014663384885204016,-0.009433444276147993,-0.034898856026785406,0.03901198378935779,0.003608537512783437,0.0023889136179014413,-0.0012970864893742287,0.004517840702800109
12,1790565913.287012,-0.047607122927295985,-0.03338363958864799,-0.025318777901785404,0.06341881471644951,0.003968541609232334,0.0025857315193161183,-0.0013889136048391704,0.004936031907909484
13,1790565913.307012,0.014663384885204016,0.009726711973852008,-0.030108816964285405,0.034873552172136786,0.004512076271963244,0.0028744180798329763,-0.0016233001650524641,0.005590725803287421
14,1790565913.3319514,0.05777373644770402,0.06720718072385201,-0.010948660714285404,0.08929996044463741,0.005223670010391449,0.003324303885581327,-0.0019485273020841693,0.006491108021603209
15,1790565913.3519514,0.009873345822704015,0.06720718072385201,0.008211495535714597,0.06842307182169091,0.00581020157247086,0.0038325918950880052,-0.002174325569807548,0.007292111808698221
16,1790565913.3765748,-0.018866888552295985,0.03846694634885201,0.027371651785714598,0.050841644018743436,0.00640739519641098,0.004559667054475081,-0.0023449090437283227,0.00820633141385448
17,1790565913.3965747,0.03382354113520401,0.06720718072385201,-0.0013685825892854032,0.07525098068515146,0.0068421324514473855,0.005220150564309515,-0.0024236752559934718,0.008940858467939494
18,1790565913.406636,0.12962432238520402,0.06241714166135201,-0.030108816964285405,0.14698607208162762,0.007151364805261431,0.005600389880520054,-0.002481108695726888,0.009416065300951074
19,1790565913.426636,0.06735381457270402,0.04325698541135201,-0.025318777901785404,0.08395679626338808,0.007969325222929194,0.006401371109242854,-0.002661292243254093,0.010562678305764545
20,1790565913.4519475,-0.04281708386479599,0.004936672911352007,0.008211495535714597,0.04387598510633933,0.008895816291832651,0.007354506381938554,-0.0028875984076716476,0.011898005554881791
21,1790565913.4719474,0.00029326769770401495,0.03846694634885201,0.0369517299107146,0.05334062533137735,0.009454291331995298,0.008059767542252811,-0.0029718480114123225,0.012774011039150103
22,1790565913.4972823,0.14878447863520403,0.04804702447385201,-0.010948660714285404,0.1567329283047342,0.010338883517463423,0.00898353074952407,-0.0030131534548482027,0.014024101784349149
23,1790565913.5172822,0.09609404894770401,0.09594741509885202,-0.025318777901785404,0.13813404077835081,0.011299773120359399,0.009819378598828083,-0.0030952710179865477,0.015286784204452786
24,1790565913.5268643,-0.03323700573979599,0.05283706353635201,-0.006158621651785404,0.06272465587264366,0.011736255529883352,0.010266691380991578,-0.0031513336786871517,0.015908348428723587
25,1790565913.5468643,-0.023656927614795986,-0.023803561463647992,0.0177915736607146,0.037984205347091286,0.01242530010299125,0.011103841693037693,-0.0032333478528386223,0.016974625808273143
26,1790565913.5717115,0.038613580197704014,0.00014663384885200747,-0.020528738839285403,0.04373167268126996,0.01318081042053894,0.011943794992145373,-0.0033250564671064194,0.018095413857274197
27,1790565913.5917115,0.06735381457270402,0.019306790098852007,-0.030108816964285405,0.07626158495864196,0.013856665779034329,0.012547653646748317,-0.0034637578514730718,0.019011796785266214
28,1790565913.6164982,0.04819365832270402,0.014516751036352008,-0.054059012276785404,0.07386299189390177,0.014783439421151666,0.013246658294633848,-0.0037663391850578905,0.020204191346118148
29,1790565913.6364982,-0.03802704480229599,-0.009433444276147993,0.003421456473214597,0.039328772822262305,0.015434317710845196,0.013733696099273218,-0.004049821076470325,0.021053114318264777
30,1790565913.6465514,-0.04281708386479599,0.04804702447385201,0.0369517299107146,0.07421084539924273,0.015651456309074968,0.013970901814942748,-0.004140500588998913,0.02138452541547634
31,1790565913.6665514,0.04819365832270402,0.07678725884885201,0.003421456473214597,0.09072275452412279,0.016026704561624798,0.014559270143002352,-0.0042332807701744605,0.022062372317628347
32,1790565913.6917467,0.07693389269770402,-0.04296371771364799,-0.0013685825892854032,0.08812819017603596,0.016664969356047887,0.015253211924173718,-0.0043287509261643094,0.02300260337923816
33,1790565913.7117467,0.009873345822704015,-0.052543795838647996,0.013001534598214598,0.05502157159493721,0.017225834427521083,0.015578171881313097,-0.004375717783985471,0.02363378338339402
34,1790565913.7372682,0.005083306760204015,0.02409682916135201,0.0465318080357146,0.052646997467304,0.01786281415432625,0.015876194004841325,-0.004312707523918953,0.02428442117445308
35,1790565913.7572682,0.11525420519770402,0.12468764947385201,0.0177915736607146,0.17072516463718312,0.0184676149781152,0.016297884231065533,-0.004174251158695835,0.024981957611944525
36,1790565913.781687,0.10567412707270402,0.06720718072385201,0.013001534598214598,0.125908165642007,0.019499888928886815,0.017086953452062955,-0.0039741660849355155,0.026229823533194814
37,1790565913.801687,0.00029326769770401495,-0.004643405213647993,0.003421456473214597,0.005775256039237745,0.0203774918196527,0.01773013588944753,-0.0038102357223602215,0.027278522463253723
38,1790565913.812512,-0.014076849489795986,0.019306790098852007,0.008211495535714597,0.025265361553173153,0.020770050892574336,0.018037942816913625,-0.003725373572075994,0.02776041792549053
39,1790565913.832512,0.009873345822704015,0.08636733697385202,0.027371651785714598,0.0911372984851319,0.02138023968164023,0.018679848965263902,-0.0035387272153688267,0.02861073219115943
40,1790565913.8573258,-0.004496771364795985,0.09594741509885202,0.022581612723214597,0.09867145813273417,0.0220337455302797,0.01969609300843142,-0.003248926469532873,0.029731759872135607
41,1790565913.8773258,-0.009286810427295986,0.02888686822385201,0.008211495535714597,0.031434450251718815,0.02246078670330551,0.02057957253423153,-0.0030041945069644712,0.030610960939813015
42,1790565913.9019604,-0.009286810427295986,-0.004643405213647993,-0.0013685825892854032,0.010472777959756522,0.02287357010584681,0.021549342505892213,-0.002735324189076227,0.03154451410693605
43,1790565913.9219604,0.038613580197704014,0.05762710259885201,-0.015738699776785405,0.07113085266104238,0.023202416122055997,0.022298042319426354,-0.0025754415395113374,0.03228293208962614
44,1790565913.932215,0.05777373644770402,0.08157729791135201,-0.04447893415178541,0.10941222847984179,0.023419865553266903,0.02273140367493878,-0.002552074368945668,0.03273713333740062
45,1790565913.952215,0.014663384885204016,-0.014223483338647994,-0.03968889508928541,0.044637772435289935,0.023889006089877474,0.023550855357112887,-0.00263958818813181,0.03364958879119893
46,1790565913.976525,-0.03323700573979599,-0.100444186463648,0.003421456473214597,0.10585574858877254,0.02433984854890104,0.024188428264665305,-0.002796130693164259,0.03442857296129996
47,1790565913.996525,0.005083306760204015,-0.052543795838647996,0.0369517299107146,0.06443695238096117,0.024612890734401687,0.024404799210864195,-0.0028450406458413106,0.03477762026221293
48,1790565914.0223346,0.043403619260204016,0.08157729791135201,0.027371651785714598,0.09637394368230784,0.025006249169016934,0.02469833835311448,-0.0027741785609145925,0.03525643886718742
49,1790565914.0423346,0.06735381457270402,0.11989761041135201,0.003421456473214597,0.1375633660690398,0.025431478912069816,0.02519389611585492,-0.002681314149935351,0.03589821676242686
50,1790565914.0522277,0.05777373644770402,0.09115737603635202,0.0177915736607146,0.10938012581034218,0.025703114418909035,0.0255588589395218,-0.0026265285099898138,0.03634286743139144
51,1790565914.0722277,0.03382354113520401,0.06241714166135201,0.032161690848214596,0.077937833343725,0.02630727616901223,0.026416355831049947,-0.0024574575601255372,0.037362223334340576
52,1790565914.0967264,0.05298369738520402,-0.019013522401147995,0.1088023158482146,0.12250195980734546,0.027095826683619373,0.027388927906143026,-0.0020224139690992017,0.03858014196162382
53,1790565914.1167264,0.05298369738520402,0.02409682916135201,0.1375425502232146,0.149351539952368,0.02780196361219855,0.02807143392492148,-0.0013510143239793633,0.03953201010572119
54,1790565914.1415071,-0.052397161989795986,0.12468764947385201,0.1279624720982146,0.18619040464370193,0.028546745053165415,0.029066761912684137,-0.00015045168055994825,0.04074083868708734
55,1790565914.1615071,-0.023656927614795986,0.13426772759885203,0.1662827845982146,0.21502892213018104,0.028943595790369186,0.030138005235769653,0.001114520607785601,0.041800397761896174
56,1790565914.1720016,0.038613580197704014,0.158217922911352,0.1040122767857146,0.19324200741095388,0.029132369502167504,0.030846007436974694,0.0018914630295183495,0.04247056345287583
57,1790565914.1920016,-0.05718720105229599,0.03846694634885201,0.2572935267857146,0.2663644887206859,0.029410303468942012,0.032287926609191366,0.003691989570956406,0.043830433968281006
58,1790565914.216816,0.00029326769770401495,0.07678725884885201,0.4153648158482146,0.4224030058748213,0.029597531836786928,0.03402308833070348,0.006842715114376402,0.045611480797327575
59,1790565914.236816,0.13920440051020402,0.04804702447385201,0.2572935267857146,0.29645630471964574,0.029935045734692564,0.03539907515052269,0.010010220661220417,0.047427903204092965
60,1790565914.2623568,0.029033502072704016,0.02409682916135201,0.008211495535714597,0.03861385861540068,0.030623682590657987,0.037030885966297236,0.013957095767603228,0.050038954556708384
61,1790565914.2823567,-0.05718720105229599,-0.095654147401148,-0.04447893415178541,0.11999361425723926,0.031039808994926504,0.03800968389428315,0.016529735999777948,0.05178260310574589
62,1790565914.2919164,-0.186518255739796,-0.076493991151148,0.022581612723214597,0.20285541560340234,0.031034144720134767,0.03828392908050483,0.01755926064146867,0.05231734892582405
63,1790565914.3119164,-0.09550751355229599,0.03846694634885201,-0.010948660714285404,0.10354353807835619,0.03060103363564175,0.038714581403336064,0.019407523562391515,0.05302729526979472
64,1790565914.3374648,0.08651397082270403,0.08157729791135201,-0.09716936383928541,0.1535623910694301,0.030113524234163712,0.0394122091201951,0.021207218195930345,0.05394342103672471
65,1790565914.3574648,0.211054986447704,-0.06691391302614799,-0.025318777901785404,0.22285133963104498,0.030235487729802644,0.03989840674525812,0.022221005769064845,0.05477080131290685
66,1790565914.3814356,0.12483428332270402,-0.210615084901148,0.0609019252232146,0.252292205144164,0.030963605631973045,0.039894781009771306,0.023317785644567983,0.055624253279625994
67,1790565914.4014356,-0.05718720105229599,-0.229775241151148,0.0800620814732146,0.24995394435793086,0.031581453194745694,0.03923162479988416,0.02430706144411971,0.055922641267906956
68,1790565914.4274004,-0.143407904177296,-0.119604342713648,0.0800620814732146,0.2031771706327065,0.031872619510582345,0.03781946417508573,0.025710548268381334,0.055742336129890664
69,1790565914.4474003,-0.014076849489795986,-0.03338363958864799,0.12317243303571461,0.1283903163937246,0.03182702895421152,0.03666539351423505,0.026934309627647708,0.05552267904851065
70,1790565914.4572506,0.08651397082270403,-0.023803561463647992,0.1710728236607146,0.1931765712531292,0.0318614574340492,0.03614000911889556,0.027664000425333093,0.055556724601693475
71,1790565914.4772506,-0.018866888552295985,0.08157729791135201,0.1471226283482146,0.1692804855565139,0.03202234602532761,0.035319939976650734,0.02940062307473911,0.056011833054301186
72,1790565914.5023117,0.024243463010204015,0.09594741509885202,0.1567027064732146,0.1853358847576718,0.03220381404071739,0.03478015785193359,0.03182136370935759,0.057090666551527884
73,1790565914.5223117,0.14878447863520403,0.158217922911352,0.1375425502232146,0.25707525228041206,0.032586452838761965,0.03479524933332012,0.03390481797014241,0.058498914232396344
74,1790565914.5473866,0.14399443957270402,0.23485854791135202,0.022581612723214597,0.2764106824782052,0.033544832390151706,0.03555056034867569,0.036426260611291505,0.06095876133346157
75,1790565914.5673866,0.07693389269770402,0.24922866509885203,-0.0636390904017854,0.26848405014030946,0.03452597386881903,0.036788766093344055,0.03807412826998003,0.06320676724671219
76,1790565914.5774438,0.05298369738520402,0.20611831353635202,-0.1067494419642854,0.23809131593437657,0.035043340653019964,0.037661478738013884,0.03864995692219963,0.06434471132070888
77,1790565914.5974438,0.14878447863520403,0.21569839166135202,-0.1498597935267854,0.30186184747982686,0.03622051211614042,0.039769373687007364,0.03923838264786254,0.06658212413427787
78,1790565914.6216576,0.273325494260204,0.254018704161352,-0.034898856026785406,0.3747669382808142,0.03819849027305489,0.04279160354064984,0.03950839592019438,0.06965026447119678
79,1790565914.6416576,0.273325494260204,0.30191909478635204,-0.030108816964285405,0.408372999190916,0.04040716205813298,0.04574735227047239,0.03960045503696711,0.0727581955829429
80,1790565914.6665852,0.17752471301020403,0.455200344786352,-0.16422991071428542,0.5154549846457896,0.043589980058385665,0.05029423417426704,0.03933465464866211,0.0773098403115411
81,1790565914.6865852,0.13441436144770402,0.503100735411352,-0.2456605747767854,0.5757835431257982,0.04622848705462436,0.05483253924584706,0.03853855057715987,0.08141805853798799
82,1790565914.6968956,0.297275689572704,0.35939956353635205,-0.16422991071428542,0.49448189598231923,0.04771847975273423,0.05748814729943167,0.037872742954945776,0.08376326789688099
83,1790565914.7168956,0.37870635363520405,0.34023940728635205,-0.054059012276785404,0.5119606756017321,0.051189177445472564,0.06291621700145494,0.03644751482046259,0.08892245827633245
84,1790565914.7423582,0.39786650988520406,0.325869290098852,0.0752720424107146,0.5197638254885033,0.05642805593218756,0.07006233736791576,0.034945696559810904,0.09650936908814663
85,1790565914.7623582,0.37870635363520405,0.30191909478635204,0.1375425502232146,0.5034794883629203,0.061090622656301816,0.0757750871861183,0.03426223740479108,0.10318831778152386
86,1790565914.786954,0.42181670519770403,0.316289211973852,0.1567027064732146,0.5500217601249223,0.06744120527664804,0.08288713459587511,0.03409059242215117,0.11216399485741817
87,1790565914.806954,0.45055693957270404,0.306709133848852,0.1998130580357146,0.5805146912396086,0.07313913488066384,0.08873730780647253,0.03450672866391776,0.12005980664201418
88,1790565914.8165176,0.48887725207270405,0.49831069634885206,0.0848521205357146,0.7032171784372474,0.07612893203826461,0.09169257319970307,0.034880053738822414,0.12417632794575928
89,1790565914.8365176,0.48887725207270405,0.541421047911352,-0.16422991071428542,0.7477360378427717,0.08291009398675231,0.0985053187780523,0.03542459335832605,0.13353757271667238
90,1790565914.8617692,0.493667291135204,0.32107925103635204,-0.2408705357142854,0.6362530115906108,0.09204841785574988,0.10745018961037478,0.035241782245806715,0.14580959396731438
91,1790565914.8817692,0.517617486447704,0.03367690728635201,-0.18818010602678542,0.5517913995932383,0.09971747618113215,0.11400421885314764,0.03447513419542763,0.15533535286612568
92,1790565914.9072814,0.6613186583227041,0.09115737603635202,-0.26482073102678544,0.7181796813006723,0.1102886042369254,0.12134941819573611,0.03277710124476449,0.16722319183349643
93,1790565914.9272814,0.675688775510204,0.014516751036352008,-0.20734026227678543,0.7069342556222159,0.11933815026623182,0.1264023789225266,0.030937381697418123,0.1765680522986292
94,1790565914.9374053,0.6661086973852041,-0.028593600526147993,-0.17860002790178542,0.6902292088065969,0.1242507135034528,0.1285658230443789,0.029852763765493617,0.1812694076937254
95,1790565914.9574053,0.656528619260204,0.07678725884885201,-0.35583147321428543,0.7506944440710076,0.1344837547389504,0.13227092962204456,0.02722984650467269,0.190585790793632
96,1790565914.9822092,0.5224075255102041,0.02888686822385201,-0.49474260602678544,0.7200793845706539,0.14746424058251675,0.13637331076281387,0.02288254179875468,0.20215586278453845
97,1790565915.0022092,0.49845733019770405,-0.177084811463648,-0.4372621372767854,0.686306722373314,0.15789205084943958,0.13896268794584132,0.0185049973793099,0.21114678138816975
98,1790565915.0267096,0.6229983458227041,-0.397426608338648,-0.3223011997767854,0.806196571123285,0.17081088856091034,0.14060323955209023,0.012551087352698926,0.22159232932853357
99,1790565915.0467095,0.7187991270727041,-0.378266452088648,-0.2408705357142854,0.8472168015517053,0.1817875303919576,0.1405780247241449,0.007575112380873254,0.22992666128340153
100,1790565915.0561879,0.7858596739477041,-0.157924655213648,-0.3031410435267854,0.8569773136624153,0.18727886883909087,0.14018670270527112,0.005183919073106122,0.23399264805968154
101,1790565915.0761878,0.6661086973852041,0.06720718072385201,-0.4085219029017854,0.7842880510523909,0.19930588118369855,0.1393487659002813,-0.00017233034768855075,0.243189108576208
102,1790565915.1021717,0.670898736447704,-0.076493991151148,-0.3223011997767854,0.7482208956096542,0.21519300829871174,0.13840532339240955,-0.007511523865564858,0.2559697000716879
103,1790565915.1221716,0.656528619260204,-0.16271469427614801,-0.15943987165178541,0.6949294729060123,0.22757834670477575,0.13742926069285158,-0.013035823557377701,0.26617407514497343
104,1790565915.146857,0.8241799864477041,-0.100444186463648,-0.19297014508928542,0.8524078610331216,0.24331356336571466,0.13591803092706473,-0.019483984043525915,0.2793829394988544
105,1790565915.166857,0.833760064572704,-0.071703952088648,-0.3175111607142854,0.8950478418495535,0.25663677974075677,0.13461907641210633,-0.024690334142153963,0.29085107022289847
106,1790565915.1918178,0.757119439572704,-0.143554538026148,-0.41331194196428545,0.8744509777780999,0.2737487060668821,0.13283812629290107,-0.031581545243243817,0.30591128758228586
107,1790565915.2118177,0.6421585020727041,-0.177084811463648,-0.41331194196428545,0.78393452124885,0.2875020142420147,0.13114421877713112,-0.03751486640018246,0.3182193889644426
108,1790565915.2221158,0.7379592833227041,-0.277675631776148,-0.3893617466517854,0.8793692228411062,0.29458730499362135,0.13005161835670503,-0.04073162517965491,0.3245830694758721
109,1790565915.2421157,0.814599908322704,-0.36389633490114803,-0.41331194196428545,0.9832702144192791,0.308612555214915,0.12728559413214965,-0.04724586707721992,0.337157980278877
110,1790565915.2676318,0.915190728635204,-0.339946139588648,-0.5713832310267855,1.1312012395235735,0.3271322962361127,0.12293908262751271,-0.05619453594162768,0.35395957840931647
111,1790565915.2876318,0.8577102598852041,-0.36389633490114803,-0.6623939732142854,1.1431768053181626,0.34213036942643155,0.11898746912124353,-0.0640072249022861,0.36784253741436324
112,1790565915.3120658,0.690058892697704,-0.5363377411511481,-0.5186928013392854,1.0163078618880663,0.36054149031372046,0.11323418685260714,-0.07428471870911728,0.38513681561686935
113,1790565915.3320658,0.7427493223852041,-0.593818209901148,-0.5330629185267854,1.0901617758031044,0.3755002122542585,0.10753611643210949,-0.0830129027598748,0.3993188798002341
114,1790565915.3421812,0.8241799864477041,-0.584238131776148,-0.6815541294642854,1.2186561763155517,0.3831197877613008,0.10419275458645659,-0.08768666033012523,0.40660281883236926
115,1790565915.3621812,0.833760064572704,-0.713569186463648,-0.5905433872767855,1.246225630214293,0.39841220503164604,0.09662716918361669,-0.0974495530214526,0.42138522794077454
116,1790565915.3872163,0.8768704161352041,-0.986601413026148,-0.3893617466517854,1.376185541500145,0.4178951951329328,0.08538512621749031,-0.10967712288632599,0.44040445635687087
117,1790565915.4072163,0.9774612364477041,-0.938701022401148,-0.4372621372767854,1.4240043029818055,0.4339065132198764,0.0748633244179118,-0.11922012535346613,0.45617191698616044
118,1790565915.431883,1.020571588010204,-0.828530123963648,-0.6192836216517854,1.4531141512679036,0.4543881876613951,0.06056351143231695,-0.13117905008371153,0.4768065720856672
119,1790565915.451883,1.0684719786352042,-0.7375193817761481,-0.6336537388392854,1.444674450652847,0.4716374167624855,0.048359220050986224,-0.14130036817255884,0.49471836543636705
120,1790565915.4619033,1.078052056760204,-0.8572703583386481,-0.5378529575892854,1.4786461741601749,0.48059634971612025,0.04196336969021696,-0.1464910555085366,0.5041759664048082
121,1790565915.4819033,1.044521783322704,-0.981811373963648,-0.4707924107142854,1.5088488406285756,0.49897959100051215,0.028353794220093494,-0.1568103440507761,0.5238072678791662
122,1790565915.5063984,0.953511041135204,-0.948281100526148,-0.4372621372767854,1.414078685179041,0.5217880050749643,0.010639790884532156,-0.16922139359466518,0.5486454296176156
123,1790565915.5263984,0.9630911192602041,-0.727939303651148,-0.49474260602678544,1.3046878477307,0.5404922868235154,-0.004168321159153445,-0.1792328537926986,0.5694503515633947
124,1790565915.5514355,1.039731744260204,-0.646508639588648,-0.4899525669642854,1.3187376687423558,0.5641559158385256,-0.022506181777843692,-0.19173484450257228,0.5962723171423008
125,1790565915.5714355,1.078052056760204,-0.7375193817761481,-0.3702015904017854,1.35763776211344,0.583400028789557,-0.03703350223797748,-0.2015138396494787,0.6183323551698892
126,1790565915.581998,1.054101861447704,-0.651298678651148,-0.39415178571428544,1.3002601021726405,0.5937280600830909,-0.04465523194701729,-0.20650928193646184,0.6302009065339286
127,1790565915.601998,1.015781548947704,-0.660878756776148,-0.4372621372767854,1.2883210248367625,0.6134552474979672,-0.05889022659385267,-0.21579627525038533,0.6529651077071482
128,1790565915.6269321,0.9439309630102041,-0.713569186463648,-0.35583147321428543,1.2356385734225088,0.6380248823252096,-0.07654531783424057,-0.22712081398470138,0.6815561607773168
129,1790565915.6469321,0.8864504942602041,-0.498017428651148,-0.34625139508928543,1.0741070089221734,0.6575219758698455,-0.0903998991124545,-0.23589498334115488,0.7043818095868543
130,1790565915.6870487,0.934350884885204,-0.359106295838648,-0.3414613560267854,1.0576222224671574,0.6962419618197758,-0.11660019930063863,-0.2529236963667447,0.7498792383173547
131,1790565915.7070487,1.0684719786352042,-0.454907077088648,-0.2791908482142854,1.19437027241998,0.7156543628804295,-0.12892398487560164,-0.261070844066753,0.7726192766218849
132,1790565915.7015743,0.9774612364477041,-0.507597506776148,-0.2696107700892854,1.1339204844218018,0.7156543628804295,-0.12892398487560164,-0.261070844066753,0.7726192766218849
133,1790565915.7215743,0.790649713010204,-0.502807467713648,-0.28398088727678544,0.9790747992928015,0.7349405489031451,-0.140570718143936,-0.268487266370169,0.7949736784475849
134,1790565915.7469244,0.852920220822704,-0.426166842713648,-0.3270912388392854,1.0080078171533133,0.7588439492081153,-0.1548848947617722,-0.2776393767287004,0.8227497149105767
135,1790565915.7669244,1.001411431760204,-0.359106295838648,-0.3270912388392854,1.1130008382280738,0.7776552631029221,-0.16566200924885266,-0.28475813084139495,0.8445583476707379
136,1790565915.791404,0.910400689572704,-0.34473617865114803,-0.2408705357142854,1.002841494664405,0.8007363086833644,-0.17816659441431992,-0.29320713897296935,0.8711443036338877
137,1790565915.811404,0.8002297911352041,-0.35431625677614803,-0.21692034040178543,0.9016441440591627,0.8193309843764083,-0.18789903558352195,-0.2997612750506415,0.8924495120467142
138,1790565915.836247,0.896030572385204,-0.325576022401148,-0.28398088727678544,0.9947440260438961,0.842124267144037,-0.1994416062608093,-0.3076146033444546,0.9184644684534831
139,1790565915.856247,0.915190728635204,-0.335156100526148,-0.2983510044642854,1.0192727816264777,0.8604384795937655,-0.20833125407401024,-0.3138621121213789,0.9392900052779086
140,1790565915.8663063,0.833760064572704,-0.387846530213648,-0.2408705357142854,0.9505784508657519,0.8695877268599091,-0.21267725417308517,-0.31693988287046787,0.9496658983568552
141,1790565915.8863063,0.752329400510204,-0.339946139588648,-0.19297014508928542,0.8478209608101509,0.8874287874182732,-0.22111354015677973,-0.3227919751704564,0.9698534474928545
142,1790565915.911765,0.8816604551977041,-0.335156100526148,-0.2312904575892854,0.9711591248354603,0.9098527832796017,-0.23153065403044565,-0.32993403022954343,0.9951356667816269
143,1790565915.931765,0.9199807676977041,-0.39263656927614804,-0.3031410435267854,1.0451902127063326,0.927528743869297,-0.23957831315251873,-0.3355047451559908,1.0150225479559303
144,1790565915.971378,0.8385501036352041,-0.450117038026148,-0.3270912388392854,1.0063599270407495,0.96251173865105,-0.2556307860502346,-0.34675575191038416,1.0545214541680334
145,1790565915.991378,0.8385501036352041,-0.411796725526148,-0.3606215122767854,1.0013943751477061,0.9800403928115899,-0.26381259900286036,-0.35261570698133093,1.0744366411030868
146,1790565915.9869158,0.9008206114477041,-0.421376803651148,-0.3702015904017854,1.0611717119299235,0.9800403928115899,-0.26381259900286036,-0.35261570698133093,1.0744366411030868
147,1790565916.0069158,0.833760064572704,-0.502807467713648,-0.3510414341517854,1.0349885426207543,0.9975244095220426,-0.2721725291827399,-0.35886318659245586,1.094493316528393
148,1790565916.0322876,0.828970025510204,-0.478857272401148,-0.34625139508928543,1.0180302643473484,1.019541444357542,-0.28305505382324064,-0.3669267245186311,1.1199197031142507
149,1790565916.0522876,0.9391409239477041,-0.469277194276148,-0.2983510044642854,1.0914302918491354,1.036945789168812,-0.2917689250719084,-0.3732964787243079,1.1400596196429882
150,1790565916.0766685,0.9391409239477041,-0.49322738958864804,-0.21692034040178543,1.0827342088221863,1.0584145687546727,-0.3025581591594964,-0.3808389648211773,1.164826663565094
151,1790565916.0966685,0.828970025510204,-0.531547702088648,-0.15943987165178541,0.9975747267560703,1.0760361788478978,-0.3116182844823071,-0.38666262235263943,1.1851024415373976
152,1790565916.1071262,0.8625002989477041,-0.5363377411511481,-0.1354896763392854,1.0246572064171116,1.0851948646729452,-0.31648267850834744,-0.38948229846541915,1.1956193545298002
153,1790565916.1271262,0.9391409239477041,-0.589028170838648,-0.1067494419642854,1.1137034185251284,1.1027855598293412,-0.32607821895386574,-0.39442928417790357,1.2157456378952516
154,1790565916.1515923,0.8625002989477041,-0.560287936463648,-0.17860002790178542,1.0439000466510624,1.1243824249351715,-0.3381646756421799,-0.4000968003167947,1.2404308263579291
155,1790565916.1715922,0.670898736447704,-0.7183592255261481,-0.16901994977678542,0.9973529139117207,1.1416888889137293,-0.34848079916724917,-0.40455624719042105,1.260380158364177
156,1790565916.1967132,0.7044290098852041,-0.8333201630261481,-0.20734026227678543,1.110690194624397,1.1627572214749047,-0.3624182072713443,-0.4100264318547396,1.2850964897132608
157,1790565916.2167132,0.6613186583227041,-0.948281100526148,-0.2408705357142854,1.180931000709233,1.1790633024522725,-0.3745223951985975,-0.41440055658948943,1.3046781660611295
158,1790565916.226718,0.464927056760204,-1.029711764588648,-0.21692034040178543,1.1504424889232836,1.1868417776501772,-0.38115332867325113,-0.41660395259274174,1.314317358346312
159,1790565916.246718,0.326015923947704,-1.182993014588648,0.0752720424107146,1.2294001527581215,1.2012452964132236,-0.39573959695206906,-0.42056041276835976,1.3328432584286019
160,1790565916.2717924,0.27811553332270406,-1.063242038026148,0.20460309709821461,1.1178972710600694,1.2177307650875573,-0.41550793293706,-0.42425035052486737,1.3548075208290027
161,1790565916.2917924,0.10088408801020401,-0.771049655213648,0.20939313616071462,0.805320219223357,1.2294760731571297,-0.4316618936451989,-0.42613105878152535,1.3709599133999135
162,1790565916.3172143,-0.239208685427296,-0.742309420838648,0.21897321428571462,0.8100576152498546,1.2419023210987383,-0.45200054717059845,-0.4273462922466555,1.3889747021778034
163,1790565916.3372142,-0.162568060427296,-0.684828952088648,0.1758628627232146,0.7254976322326165,1.2496092779414556,-0.4677420202819027,-0.4275666838354414,1.4011135622000088
164,1790565916.34673,0.46971709582270404,-0.359106295838648,-0.020528738839285403,0.5916188899430118,1.2529453344132753,-0.4748532292967025,-0.4275449554691816,1.4064680193124355
165,1790565916.36673,0.656528619260204,-0.545917819276148,0.1375425502232146,0.8648549279693332,1.2605945923403115,-0.4889149946693948,-0.42733061702331726,1.418008481813751
166,1790565916.4064715,0.30206572863520403,-0.5363377411511481,0.1758628627232146,0.6401793682119387,1.276371511170123,-0.5158913277726389,-0.4260344554789215,1.44110147243452
167,1790565916.4264715,-0.004496771364795985,-0.201035006776148,0.1614927455357146,0.2579054124342027,1.283566659660615,-0.5285368858450725,-0.424973971501561,1.4517222482089767
168,1790565916.4365869,0.19668486926020404,-0.248935397401148,0.26208356584821463,0.41151131863277646,1.2868056890008501,-0.5343146371109044,-0.42419671709453055,1.4564696589595292
169,1790565916.4565868,0.694848931760204,0.03846694634885201,-0.06842912946428541,0.6992691110645043,1.2935865228025403,-0.54434046691193,-0.42259997676136324,1.4656955264491223
170,1790565916.4672484,0.632578423947704,0.277968899473852,-0.26482073102678544,0.7399676959843765,1.2977204818287924,-0.5486303275739947,-0.4221429374519255,1.4708087383927395
171,1790565916.4872484,0.22542510363520402,0.5174708525988521,-0.16901994977678542,0.5892031093441993,1.3055991065789665,-0.5542773757963537,-0.4220649461287194,1.4798483892514553
172,1790565916.5116568,0.08651397082270403,0.27317886041135203,0.0417417689732146,0.289575089053202,1.3143430846045825,-0.5586879885416555,-0.4222170400915757,1.4892606358634142
173,1790565916.5316567,0.393076470822704,0.5174708525988521,-0.1450697544642854,0.6658306307644182,1.321152497903628,-0.5605739300211185,-0.42247796271674665,1.496053034727583
174,1790565916.5563498,0.5271975645727041,0.9725245635363521,-0.2983510044642854,1.1457550439067727,1.330002989421851,-0.5597937032616468,-0.4235729935818802,1.503891958544351
175,1790565916.5763497,0.28290557238520403,1.068325344786352,-0.1211195591517854,1.111766411081303,1.3373112923531225,-0.5561952816936988,-0.4249560763523961,1.5094178847696005
176,1790565916.601514,-0.028446966677295987,1.087485501036352,-0.08758928571428541,1.091377949130989,1.345607670858822,-0.5482780972223237,-0.4268291667222332,1.5144147428404913
177,1790565916.621514,-0.09071747448979599,1.173706204161352,-0.2791908482142854,1.2098609191106506,1.3510336076482536,-0.5395377971092468,-0.4286447172235685,1.5166176634564912
178,1790565916.6320653,-0.224838568239796,1.312617336973852,-0.3510414341517854,1.3772242894981888,1.353217031922797,-0.5336508803490532,-0.42995758783257326,1.516853033394491
179,1790565916.6520653,0.06256377551020402,1.647920071348852,-0.4516322544642854,1.709832296113566,1.3564915257254182,-0.5197251521482136,-0.4332768778481736,1.515886653420439
180,1790565916.6766522,0.7187991270727041,1.686240383848852,-0.6911342075892855,1.959016413944323,1.3613540392093306,-0.49902527891361065,-0.4388526358286025,1.5148936216910014
181,1790565916.6966522,0.833760064572704,1.513798977598852,-0.6863441685267855,1.8595191603009456,1.3670449342989457,-0.47991283529777,-0.4447740643081381,1.515569909359886
182,1790565916.7223234,0.27811553332270406,1.609599758848852,-0.48516252790178543,1.703978377809327,1.375394607492988,-0.4530469922802669,-0.45349006642670503,1.5174370312743406
183,1790565916.7423234,0.316435845822704,1.1353858916613522,-0.17860002790178542,1.1921118812727656,1.381815745448789,-0.43113844762766845,-0.46025761100082563,1.5189246801198457
184,1790565916.7510452,1.1163723692602041,0.9725245635363521,-0.4995326450892854,1.5625697286966467,1.3851331734892276,-0.4216385682257633,-0.4632097830789627,1.5201764021507076
185,1790565916.7710452,1.7151272520727041,0.30191909478635204,-0.6576039341517854,1.861520766688081,1.3958465197758299,-0.40121039778258766,-0.4706996555808278,1.5267335903238222
186,1790565916.797056,1.3894045958227041,0.04804702447385201,-0.7294545200892855,1.5699864790286358,1.4137460146958707,-0.3779451971511907,-0.48168527755694407,1.5406300895196159
187,1790565916.817056,1.408564752072704,-0.019013522401147995,-0.9018959263392855,1.6726722442735562,1.429641631738415,-0.3626960874178992,-0.4913122316181037,1.554609711781543
188,1790565916.8420408,1.796557916135204,0.03367690728635201,-0.9162660435267854,2.0170022168140194,1.4525264570413787,-0.34647624293232016,-0.5049416619872801,1.5763391060720893
189,1790565916.8620408,1.724707330197704,-0.086074069276148,-0.6623939732142854,1.8495377519775191,1.473379460691651,-0.3355186610201481,-0.5165832783641011,1.5969590134271374
190,1790565916.872088,1.724707330197704,-0.071703952088648,-0.5857533482142855,1.8228724081863406,1.4848830957400034,-0.33095859659258475,-0.5224948505160867,1.6085435242755408
191,1790565916.892088,2.021689752072704,-0.148344577088648,-0.7965150669642854,2.1779972036457074,1.5099669806392078,-0.32357298292541675,-0.5345707053109127,1.6341559279568594
192,1790565916.9171045,1.8252981505102042,-0.335156100526148,-0.9689564732142855,2.093542356141793,1.5438541494665134,-0.31662773101640135,-0.5507222552369632,1.669441151190078
193,1790565916.9371045,1.5953762755102041,-0.507597506776148,-0.8827357700892855,1.8926444803875069,1.5720131679500122,-0.3131722171233108,-0.5644755701093428,1.6993925111746346
194,1790565916.9619946,1.849248345822704,-0.330366061463648,-0.8587855747767854,2.065520235325644,1.6082310314218005,-0.311081137652308,-0.5822753011312212,1.7384542130693397
195,1790565916.9819946,2.098330377072704,-0.229775241151148,-0.8444154575892855,2.2735048928488952,1.6388891769171754,-0.31049314254778043,-0.5969873078357438,1.771653908499745
196,1790565916.992053,1.9785794005102042,-0.277675631776148,-0.7150844029017854,2.122080560176499,1.6550705388170972,-0.31062459581371726,-0.6044528896262449,1.7891644484960765
197,1790565917.012053,1.844458306760204,-0.16271469427614801,-0.7055043247767855,1.9814739133758101,1.6881536550386738,-0.31150735345574626,-0.6192015559554879,1.8249137407491713
198,1790565917.0521598,1.7534475645727041,-0.105234225526148,-0.9162660435267854,1.9812107577055664,1.755367662881289,-0.31381804121550494,-0.6492195384458874,1.8977047726086231
199,1790565917.0721598,1.959419244260204,-0.100444186463648,-1.0024867466517855,2.203268591566642,1.7894268348644597,-0.3151059854825698,-0.6648213315568556,1.9347680952282138
200,1790565917.08215,1.892358697385204,-0.263305514588648,-0.9497963169642855,2.1336504580884705,1.806773840072226,-0.3159253720635652,-0.6729083915557889,1.9537262483032363
201,1790565917.10215,1.609746392697704,-0.359106295838648,-0.8875258091517855,1.8729503043126254,1.8415457566474767,-0.31825330904833904,-0.6894258261715888,1.9919547967609412
202,1790565917.1115544,1.652856744260204,-0.296835788026148,-0.9737465122767854,1.941192718992823,1.8577449007111195,-0.3196464148042969,-0.6973404651126539,2.009893945186895
203,1790565917.1315544,2.424053033322704,-0.49322738958864804,-1.0072767857142855,2.670938578335402,1.893142784303555,-0.3233497682713686,-0.7146189636823151,2.049201048617766
204,1790565917.1562889,2.548594048947704,-0.909960788026148,-0.9306361607142855,2.861720448559895,1.939578340182732,-0.3298458334071419,-0.7363774149821853,2.1007175223760806
205,1790565917.1762888,2.103120416135204,-0.981811373963648,-0.9593763950892854,2.511468121689705,1.9784709951050405,-0.3371482250441577,-0.754166982979107,2.1440112505157627
206,1790565917.2021515,1.844458306760204,-0.881220553651148,-1.1701381138392855,2.3553766821918987,2.0288775874064564,-0.3487884890680253,-0.7778512866136214,2.2006931405521
207,1790565917.2221515,2.299512017697704,-1.091982272401148,-1.2276185825892854,2.8261684640327207,2.0682266382182077,-0.35939963188454194,-0.7970160095155548,2.2454318163458518
208,1790565917.2467592,2.515063775510204,-1.647626803651148,-0.8923158482142854,3.136311121679053,2.118264575202035,-0.3755531983314538,-0.8209714808557025,2.3026244130798332
209,1790565917.2667592,2.4096829161352042,-1.513505709901148,-1.0743373325892855,3.0416232499131612,2.1602199556882167,-0.39145444150546,-0.8404708839318075,2.3507824534535446
210,1790565917.2773464,2.251611627072704,-1.499135592713648,-1.1797181919642854,2.951084115534725,2.182799336086814,-0.4010014797106451,-0.8510345913477988,2.37690450039998
211,1790565917.2973464,2.534223931760204,-1.700317233338648,-1.2467787388392855,3.2966387205631467,2.2262339898548973,-0.4211304165637476,-0.8716365700483797,2.4275952948517006
212,1790565917.3225815,2.500693658322704,-1.867968600526148,-1.2324086216517856,3.355831711520805,2.2823467599617033,-0.4494720950543094,-0.898424314649934,2.493651568702893
213,1790565917.3425815,2.3138821348852043,-1.987719577088648,-0.9497963169642855,3.1948697461714,2.327369667916874,-0.47434833878086685,-0.9197435094174546,2.547073622956196
214,1790565917.3666694,2.4001028380102043,-1.863178561463648,-0.8204652622767854,3.14723549031929,2.3819775355517585,-0.506772074711716,-0.9447668994807403,2.6121292866041865
215,1790565917.3866694,2.5629641661352043,-1.503925631776148,-0.9162660435267854,3.109681830240296,2.4279615050644066,-0.5347057027215456,-0.965032193535575,2.666869774315507
216,1790565917.396523,2.663554986447704,-1.3985447724011482,-0.9833265904017855,3.165025091469609,2.451081103813607,-0.54854868847147,-0.9749226993522536,2.694286271131593
217,1790565917.416523,2.4336331114477043,-1.3985447724011482,-0.7150844029017854,2.8965226228736096,2.498614102206189,-0.576627011260618,-0.9945339666657089,2.750394326766768
218,1790565917.4417527,2.2803518614477043,-1.130302584901148,-0.5234828404017854,2.5983885062933427,2.558501904719088,-0.6115195096271303,-1.0179060523475747,2.820641919583489
219,1790565917.4617527,2.3569924864477043,-0.699199069276148,-0.5474330357142855,2.5187250441917874,2.6058108310543404,-0.6377746250120796,-1.0352607369929578,2.87554713978203
220,1790565917.4873269,2.2803518614477043,-0.402216647401148,-0.6336537388392854,2.400687381605451,2.66612586282471,-0.6684240247240737,-1.0563890297045266,2.9446520295836662
221,1790565917.5073268,2.0743801817602043,-0.47406723333864803,-0.5953334263392854,2.209573435919642,2.712751262342106,-0.6901120738567891,-1.072277152551935,2.9975076943531764
222,1790565917.5316288,1.882778619260204,-0.445326998963648,-0.6336537388392854,2.0358508113057634,2.7681201814080723,-0.7141880110569433,-1.0909269954456209,3.0598489445147683
223,1790565917.5516288,1.959419244260204,-0.287255709901148,-0.8348353794642854,2.1491369729389795,2.8126156965180176,-0.7321287260989214,-1.1061758529208727,3.10973383836366
224,1790565917.5615208,2.088750298947704,-0.335156100526148,-0.8492054966517855,2.2795520170896784,2.834325381982574,-0.7401329459819594,-1.1138360109463477,3.1339795481080395
225,1790565917.5815208,1.973789361447704,-0.569868014588648,-0.9066859654017855,2.2455897749303877,2.877728606573873,-0.7552462217792961,-1.1296342952228386,3.1824192730608436
226,1790565917.606614,1.7103372130102041,-0.766259616151148,-0.9066859654017855,2.0819429918727805,2.9309502346086957,-0.7738786221092576,-1.1498954076735524,3.2421623722600965
227,1790565917.626614,1.6241165098852042,-0.9339109833386481,-0.6767640904017854,1.991972338296798,2.9720079970930544,-0.7890517784445037,-1.1659968878887117,3.288614143741656
