imu_index,t_imu,ax,ay,az,mag,vx,vy,vz,velocity
0,1790597960.088272,-0.08823251953125008,-0.004071533203124973,0.22513183593750002,0.24183857930042096,0.0,0.0,0.0,0.0
1,1790597960.108272,-0.12176279296875009,0.06777905273437503,0.19639160156250002,0.24081079482739898,-0.00042748902346665307,9.036998827927176e-05,0.000919327370330575,0.0010178783885145604
2,1790597960.1330366,-0.09781259765625008,0.09172924804687503,0.11017089843750001,0.17354880025524386,-0.0012852448259556121,0.0004817450470794214,0.0024563046802992174,0.0028137813055550474
3,1790597960.1530366,-0.021171972656250076,0.04382885742187503,-0.0383203125,0.0619489105566975,-0.002052540686727753,0.0009537472174413024,0.0036191612962262225,0.00426859291963426
4,1790597960.178619,0.026728417968749925,-0.013651611328124973,-0.11017089843750001,0.11418582084257366,-0.0028761216175333297,0.001524831558983655,0.004598570256573887,0.00563418452366987
5,1790597960.198619,0.04109853515624993,-0.051971923828124975,-0.047900390625000004,0.08175951247661353,-0.003321668083263774,0.0018058938702869283,0.005012301340720502,0.006278367324098016
6,1790597960.208022,0.03630849609374993,-0.07113208007812498,0.0431103515625,0.0907556175488492,-0.0034451345033535813,0.001831398805538196,0.005174265702166329,0.006480431998542912
7,1790597960.228022,0.007568261718749924,-0.08071215820312498,0.13412109375,0.15671693863761524,-0.003602532880169433,0.001649742729953829,0.00573292603091908,0.006968955094110377
8,1790597960.2534757,0.007568261718749924,-0.04239184570312497,0.0814306640625,0.092115689310892,-0.003743907037369933,0.0012182235417709452,0.0067487643802231784,0.007813240631259362
9,1790597960.2734756,0.021938378906249924,-0.06634204101562498,0.0335302734375,0.07750379417774704,-0.003794068396913686,0.0007669188973341558,0.0075996659386581645,0.008528660033953077
10,1790597960.298165,0.031518457031249926,-0.10945239257812497,0.0335302734375,0.11873297188018268,-0.0037477163786993647,-3.21558875055394e-05,0.008616695201163389,0.00939648063085456
11,1790597960.318165,-0.002011816406250076,-0.08550219726562498,0.0622705078125,0.10579361646965722,-0.003671540641421527,-0.0008747927880694369,0.009460674727687924,0.01018576651051757
12,1790597960.3284752,-0.030752050781250078,-0.03760180664062497,0.052690429687500005,0.07166495566554767,-0.003663496831211971,-0.0013392135294425947,0.00991938705284999,0.010658749523935265
13,1790597960.3484752,-0.035542089843750076,-0.018441650390624974,-0.0143701171875,0.042542154242277426,-0.0037496748679570423,-0.002189041250770109,0.010733217730223822,0.011578165919408516
14,1790597960.3881092,-0.04512216796875008,-0.018441650390624974,-0.047900390625000004,0.06834143643030721,-0.004134615605468889,-0.003730167713001454,0.011918969535825908,0.013155646398716081
15,1790597960.4081092,-0.06907236328125008,-0.03760180664062497,0.0,0.07864405401488361,-0.004471017701164079,-0.004475259510685056,0.012355716861068997,0.013880982894701811
16,1790597960.4186666,-0.08344248046875008,-0.023231689453124975,0.05748046875,0.10395365904740393,-0.004742720286252464,-0.004857743436686634,0.012597194609164431,0.014310149511149914
17,1790597960.4386666,-0.06907236328125008,-0.008861572265624973,0.0718505859375,0.10006010959337366,-0.005408999088176157,-0.005521774740731351,0.013180028476438005,0.0152794115745007
18,1790597960.448562,-0.06907236328125008,-0.013651611328124973,0.0383203125,0.08016111408412954,-0.00579172779118665,-0.005817742379881771,0.013506903511787028,0.01580590648088875
19,1790597960.468562,-0.04512216796875008,-0.028021728515624972,-0.023950195312500002,0.058265248362213154,-0.006620540217487144,-0.0063887192289129825,0.014090023897664006,0.016827835855926038
20,1790597960.4937487,-0.011591894531250077,-0.03281176757812498,-0.0622705078125,0.07133442544558091,-0.007614866736119169,-0.007114830121794891,0.014551347106104662,0.017898287786075925
21,1790597960.5137486,0.002778222656249924,-0.051971923828124975,-0.0335302734375,0.061911861741653695,-0.008299214570052619,-0.007732098944595242,0.01471901925842427,0.018582568296622755
22,1790597960.5381296,-0.016381933593750078,-0.056761962890624976,0.009580078125,0.05985036404524059,-0.009033204406321264,-0.008570534274728436,0.01484896490838245,0.019378973101045634
23,1790597960.5581295,-0.016381933593750078,-0.04718188476562497,0.023950195312500002,0.055390521335456376,-0.009594136185154431,-0.009311062195346291,0.014989866930722613,0.020085801924385988
24,1790597960.5682502,-0.006801855468750077,-0.03281176757812498,0.028740234375,0.044146102901032956,-0.00985300579036626,-0.009690302357136745,0.015090467249363564,0.020462303992508646
25,1790597960.5882502,-0.021171972656250076,-0.03281176757812498,0.0335302734375,0.05146983344204071,-0.010329799005608554,-0.01042576079811352,0.015352854866927845,0.021239382954330432
26,1790597960.6132195,-0.016381933593750078,-0.03760180664062497,0.0383203125,0.05613118528061422,-0.010906098198424408,-0.011338091309495025,0.015765854689752973,0.022272347576188026
27,1790597960.6332195,-0.016381933593750078,-0.051971923828124975,0.0335302734375,0.06398224637710043,-0.011347608235154778,-0.012093597722178214,0.016154814929271014,0.02315170326182124
28,1790597960.6587243,-0.06907236328125008,-0.09029223632812498,0.19160156250000002,0.2227887745440339,-0.011989648060485211,-0.013184665299018232,0.01700707694142448,0.024633873543415064
29,1790597960.6787243,-0.16966318359375007,-0.08550219726562498,0.6274951171875001,0.6556266801302177,-0.01277569616543024,-0.01417559671231179,0.018803787379355005,0.02679082631180838
30,1790597960.688613,-0.18882333984375008,0.13004956054687503,0.5460644531250001,0.5922444840054563,-0.01337191807158921,-0.014559014965500628,0.02042925614986469,0.028427585485154196
31,1790597960.708613,-0.08823251953125008,0.30728100585937507,0.28261230468750004,0.4267040061044214,-0.014812491101629499,-0.014562169853585334,0.024466680417733203,0.032094939385267765
32,1790597960.732798,0.07941884765624993,0.35039135742187505,-0.1389111328125,0.38519833792248226,-0.016309201589383503,-0.013372468302776979,0.02887729028746787,0.03575906681302814
33,1790597960.752798,0.08420888671874993,0.22585034179687505,-0.2682421875,0.36062915113307425,-0.01711581165702024,-0.011671854521413507,0.031366818742380995,0.03759069718248139
34,1790597960.7935934,0.06983876953124993,0.04861889648437503,-0.3496728515625,0.3598782487798444,-0.018042982797536147,-0.007883545555439693,0.03379256727164926,0.03911057557190662
35,1790597960.8135934,0.060258691406249926,-0.09029223632812498,-0.3592529296875,0.3752951709257387,-0.018234201991696498,-0.00636741410348411,0.03374002299911514,0.03887697566195261
36,1790597960.8086114,0.03630849609374993,-0.09508227539062497,-0.21555175781250002,0.2383726206553663,-0.018234201991696498,-0.00636741410348411,0.03374002299911514,0.03887697566195261
37,1790597960.8286114,0.04588857421874993,-0.056761962890624976,-0.21555175781250002,0.22757469536634575,-0.018125939324949353,-0.005736127546691247,0.03232252982783276,0.03749931692864277
38,1790597960.8532925,0.09378896484374993,-0.08071215820312498,-0.2347119140625,0.26533093489291976,-0.01775382292705608,-0.005328417016448438,0.03000217916838737,0.0352664289555727
39,1790597960.8732924,0.11773916015624993,-0.15256274414062498,-0.0143701171875,0.19324699480716215,-0.017180222572958766,-0.005397503836213764,0.028030332027426177,0.03331655157554722
40,1790597960.8986175,0.060258691406249926,-0.06155200195312498,0.19639160156250002,0.21445143972171163,-0.01622476182420357,-0.005878548248301269,0.026253729132943573,0.03141748747347104
41,1790597960.9186175,-0.002011816406250076,0.10609936523437503,0.20118164062500002,0.22745367711460818,-0.01549601829488267,-0.0061346385353053265,0.02565750603939915,0.030595228208267957
42,1790597960.943349,0.055468652343749925,0.05340893554687503,0.0,0.07700185575089762,-0.014630891939774977,-0.006107946556592606,0.025403987385911098,0.029945493570737718
43,1790597960.9633489,0.14168935546874994,-0.07592211914062498,-0.1197509765625,0.2004503380282145,-0.013740480609338381,-0.0061233686425938875,0.025050096254459777,0.029219920829228918
44,1790597960.9734006,0.16084951171874992,-0.08550219726562498,-0.0814306640625,0.19953481953551325,-0.013132020077757019,-0.006251651430042495,0.024747247657477246,0.028704692361108466
45,1790597960.9934006,0.10336904296874994,0.04861889648437503,0.0143701171875,0.11513234301279605,-0.011706633749656465,-0.0065239345927248435,0.024134464243448922,0.0276057849125335
46,1790597961.0186381,0.03630849609374993,0.15399975585937503,0.028740234375,0.16081117114574753,-0.009913384150227434,-0.006432464753431045,0.023558794394143597,0.026356566191741385
47,1790597961.038638,0.007568261718749924,0.10609936523437503,-0.05748046875,0.12090640254469791,-0.008639638761756325,-0.0059807024935359734,0.02312791371288168,0.02540300283352994
48,1790597961.0637949,0.017148339843749926,-0.023231689453124975,-0.13412109375,0.13719418625779836,-0.007231164015613747,-0.00534134428916444,0.02230572707624136,0.024049223526672617
49,1790597961.0837948,0.012358300781249925,-0.09029223632812498,-0.124541015625,0.15432394536247546,-0.006235109416777047,-0.00507957559680544,0.02136213123077374,0.022825847813468875
50,1790597961.0938442,-0.006801855468750077,-0.08550219726562498,-0.047900390625000004,0.098241225547604,-0.005805509101352865,-0.0051002712389717295,0.020829154599797055,0.02221644399941674
51,1790597961.1138442,-0.016381933593750078,-0.04718188476562497,-0.023950195312500002,0.055390521335456376,-0.005113550843105261,-0.005334306981060595,0.019819768242032285,0.021152457218041733
52,1790597961.1391964,-0.006801855468750077,-0.04239184570312497,-0.0047900390625,0.04320044321711985,-0.004412067813830178,-0.005756790856301879,0.01867753630271462,0.0200364005174647
53,1790597961.1591964,0.012358300781249925,-0.051971923828124975,-0.009580078125,0.0542732564112139,-0.003933352615090806,-0.006181633596701349,0.017890055740123065,0.01933230330569068
54,1790597961.1837537,-0.06428232421875008,-0.013651611328124973,0.10059082031250001,0.1201544707031759,-0.0035293568267456567,-0.006745902580631977,0.01723579507875903,0.0188424041256642
55,1790597961.2037537,-0.12176279296875009,0.015088623046875029,0.1389111328125,0.1853379268154616,-0.0035287555720446236,-0.0071343658725784125,0.017142131544989777,0.01889984037490214
56,1790597961.2132876,-0.1361329101562501,0.02466870117187503,0.1293310546875,0.18938647193423835,-0.0037129179922973854,-0.007263339337203758,0.017295984187459063,0.019123099313597968
57,1790597961.2332876,-0.1361329101562501,0.0007185058593750272,0.10538085937500001,0.17215635626050274,-0.004449698634665286,-0.007455232751368279,0.017922388282543944,0.019914625657206936
58,1790597961.2578287,-0.1313428710937501,0.03424877929687503,0.1149609375,0.177876209261819,-0.005710472459664372,-0.0075910171955485585,0.01898128530509163,0.021225508936395063
59,1790597961.2778287,-0.11697275390625009,0.10130932617187503,0.143701171875,0.21117819850557443,-0.006956300851917481,-0.007481739976940444,0.020102790580928218,0.022549694981653143
60,1790597961.3038602,-0.1457129882812501,0.07256909179687503,0.1197509765625,0.20208623017352623,-0.008847467759228414,-0.007021368641027514,0.021857910209299846,0.024603770891097266
61,1790597961.3238602,-0.16487314453125007,0.019878662109375028,0.10538085937500001,0.19668106293564389,-0.010548381529433349,-0.006582049580486004,0.023341796371861546,0.026446761378965015
62,1790597961.3338478,-0.16487314453125007,0.015088623046875029,0.0814306640625,0.18450412836230223,-0.011517376532985225,-0.006369377534272578,0.024111600928619376,0.027469769415079802
63,1790597961.3538477,-0.17445322265625007,0.02945874023437503,0.0622705078125,0.18756161764757248,-0.013675701914933993,-0.005940565285778695,0.025637444698548718,0.02965794513198566
64,1790597961.3779016,-0.17924326171875007,0.03424877929687503,0.0622705078125,0.19281789828262577,-0.01652021317917578,-0.0053872650233977885,0.027421972916638865,0.03246389789533311
65,1790597961.3979015,-0.17924326171875007,0.010298583984375028,0.05748046875,0.18851581363742217,-0.01906829512747721,-0.00492940018272644,0.028862810977439545,0.034942248392875914
66,1790597961.4379528,-0.1409229492187501,-0.018441650390624974,0.028740234375,0.14500128674453336,-0.02436731416389287,-0.004174492953228817,0.03157436795936844,0.04010153492089802
67,1790597961.4579527,-0.11697275390625009,-0.03281176757812498,0.052690429687500005,0.1324217453013908,-0.027003358086949477,-0.003930948059244822,0.0328474506295488,0.04270349767263972
68,1790597961.4531763,-0.12176279296875009,0.02466870117187503,0.052690429687500005,0.13494815282067163,-0.027003358086949477,-0.003930948059244822,0.0328474506295488,0.04270349767263972
69,1790597961.4731762,-0.12176279296875009,0.02466870117187503,0.0431103515625,0.13150370709945902,-0.02957757538387676,-0.0036913632401700115,0.03404531436115188,0.045249779647081656
70,1790597961.4987438,-0.12176279296875009,-0.023231689453124975,0.0383203125,0.12974719841482046,-0.03284175039679625,-0.0034282697504655225,0.03550308698184446,0.048485077991561876
71,1790597961.5187438,-0.11697275390625009,-0.028021728515624972,0.028740234375,0.12366828007757473,-0.035370220198583865,-0.0033302175841244007,0.03657295824997461,0.05098748965391714
72,1790597961.543327,-0.1313428710937501,0.0055085449218750275,0.01916015625,0.13284730122147828,-0.03846977963146937,-0.0032692820666258165,0.03777906855847748,0.054017313625088006
73,1790597961.563327,-0.1457129882812501,-0.013651611328124973,0.023950195312500002,0.14829785332638099,-0.04102878457593124,-0.0032393582461124498,0.03867778895517854,0.056478544280869715
74,1790597961.5884159,-0.16966318359375007,0.0055085449218750275,0.0335302734375,0.17303242231187882,-0.04435081663294957,-0.0032227737147647664,0.03974423021093369,0.05964046479937752
75,1790597961.6084158,-0.17445322265625007,-0.004071533203124973,0.023950195312500002,0.17613664051889433,-0.04711797605809958,-0.0032093806386879267,0.04055306384621249,0.062249134766762956
76,1790597961.6181862,-0.16487314453125007,0.015088623046875029,-0.0383203125,0.1699390087153942,-0.04851566859505632,-0.0031957461718420638,0.040878395507712155,0.06352185538934706
77,1790597961.6381862,-0.18403330078125008,0.0055085449218750275,0.01916015625,0.18510999824731994,-0.05147094115414662,-0.0031411271757331885,0.04141571572029397,0.0661391409972337
78,1790597961.663762,-0.19361337890625008,-0.008861572265624973,0.076640625,0.2084189371312134,-0.055407649194819754,-0.0030881893959449065,0.04218353394501632,0.06970649208740733
79,1790597961.683762,-0.1600831054687501,0.02466870117187503,0.09101074218750001,0.18579047517982678,-0.05855487689676595,-0.0030292916062953667,0.042945370489166974,0.0726784360211693
80,1790597961.7084866,-0.1505030273437501,0.04382885742187503,0.0431103515625,0.1625750054417437,-0.062437888301744536,-0.0028403847998504993,0.04399460750018109,0.07643352124877761
81,1790597961.7284865,-0.1505030273437501,0.03424877929687503,0.0143701171875,0.15501819374170933,-0.06555926590952277,-0.0025933804995230676,0.04480225925567722,0.07944800440177045
82,1790597961.7380836,-0.1600831054687501,-0.008861572265624973,0.009580078125,0.160614152603122,-0.06705595318082998,-0.0024743602829075933,0.045148919540297414,0.08087674728533253
83,1790597961.7580836,-0.17445322265625007,-0.04239184570312497,0.023950195312500002,0.1811204221858364,-0.07020894945776265,-0.00234041107145989,0.04581327976573574,0.08386674377153112
84,1790597961.7831872,-0.16487314453125007,-0.023231689453124975,0.0383203125,0.17085465031004152,-0.0742117624189626,-0.0023210541667941444,0.046639328384241126,0.08768124044461748
85,1790597961.8031871,-0.1457129882812501,-0.004071533203124973,0.0335302734375,0.14957650742435924,-0.07738832168953352,-0.002348900583980262,0.04730649924498754,0.09073243377476521
86,1790597961.8430703,-0.1409229492187501,0.02945874023437503,0.047900390625000004,0.15172851549637725,-0.08363009612708412,-0.0023201621250120816,0.048680955430412606,0.09679468762349248
87,1790597961.8630702,-0.1505030273437501,0.04382885742187503,0.0431103515625,0.1625750054417437,-0.08672775921980906,-0.002197981211687769,0.04940332635805655,0.09983598547586313
88,1790597961.8578463,-0.1265528320312501,0.03903881835937503,0.0622705078125,0.1463463862801289,-0.08672775921980906,-0.002197981211687769,0.04940332635805655,0.09983598547586313
89,1790597961.8778462,-0.11697275390625009,0.019878662109375028,0.05748046875,0.13184001915727475,-0.08968435471866422,-0.0019156731795305535,0.05023922611438477,0.10281504328456144
90,1790597961.9031754,-0.11218271484375009,0.02466870117187503,0.0335302734375,0.1196569495015435,-0.0933024181252402,-0.0015271459877153578,0.051311954049645996,0.10649220643445195
91,1790597961.9231753,-0.11218271484375009,0.010298583984375028,0.0383203125,0.11899356575838471,-0.09606727914075514,-0.0012139297227515904,0.05213970598534224,0.10931122855003268
92,1790597961.948336,-0.1361329101562501,-0.004071533203124973,0.052690429687500005,0.14603091450404324,-0.09949239444605429,-0.0008672492133323117,0.05319658239271018,0.11282448782100311
93,1790597961.9683359,-0.1361329101562501,0.015088623046875029,0.047900390625000004,0.1451009413997302,-0.1022150069906926,-0.0006164853607160318,0.054061557838449084,0.11563277971331179
94,1790597961.9783964,-0.1361329101562501,0.0007185058593750272,0.05748046875,0.14777242559422019,-0.1035845603620408,-0.0004973381952887019,0.05451091281275591,0.1170531849475171
95,1790597961.9983964,-0.11697275390625009,0.0055085449218750275,0.028740234375,0.12057765255427057,-0.10627844464940614,-0.0002866666743744007,0.05539954897121694,0.1198511576960913
96,1790597962.0232284,-0.12176279296875009,-0.004071533203124973,-0.0047900390625,0.12192497532661273,-0.10956608752432537,-6.165578235034123e-05,0.05638198617182905,0.12322199357867875
97,1790597962.0432284,-0.1313428710937501,0.0007185058593750272,-0.028740234375,0.13445247156430165,-0.1121964645879488,8.735704348525439e-05,0.0570042669040279,0.12584729135962183
98,1790597962.068769,-0.1457129882812501,-0.013651611328124973,0.0047900390625,0.14642945714550126,-0.11558238884760905,0.00022433297176169603,0.05763386012080086,0.12915494868345603
99,1790597962.088769,-0.1313428710937501,-0.018441650390624974,0.047900390625000004,0.14101592703771826,-0.11825166555262916,0.0002673651980127243,0.05813195704906995,0.13176817643298736
100,1790597962.0985787,-0.1313428710937501,0.0055085449218750275,0.047900390625000004,0.13991333487674917,-0.11955779021414646,0.00027579066389723454,0.05841010414721152,0.13306344925586533
101,1790597962.1185787,-0.1313428710937501,0.04382885742187503,0.0143701171875,0.13920638921414127,-0.12221529487291012,0.0003643977865546636,0.05898553073013226,0.13570557808039652
102,1790597962.1589248,-0.12176279296875009,0.03424877929687503,0.009580078125,0.12685004742513048,-0.1275380400412382,0.0007525934337335026,0.06004469442654773,0.14096766786470744
103,1790597962.1789248,-0.10260263671875008,0.010298583984375028,0.0431103515625,0.11176700902129114,-0.13011734439468858,0.0009829819529289503,0.06057001217176652,0.14352775320589997
104,1790597962.1888618,-0.09302255859375008,0.010298583984375028,0.0622705078125,0.1124138487137484,-0.13135244422463474,0.001095631399146663,0.06087040505653055,0.1447752438219141
105,1790597962.2088618,-0.08344248046875008,0.04382885742187503,0.023950195312500002,0.09724828093694862,-0.1337301108123171,0.0013695395530601668,0.06151363852636579,0.14720579438736234
106,1790597962.2342856,-0.05949228515625008,0.07735913085937503,-0.0335302734375,0.10318937133844745,-0.13657175132904067,0.001896579462018854,0.06219039227445939,0.15007693082545437
107,1790597962.2542856,-0.035542089843750076,0.07735913085937503,0.01916015625,0.08726274614807585,-0.13861440851756593,0.002481069812175144,0.06262135871323009,0.15212345158843385
108,1790597962.2782671,-0.04512216796875008,0.12046948242187504,0.162861328125,0.20753967918408633,-0.14084140515011498,0.0034326108236015247,0.06338799444539886,0.1544866403982398
109,1790597962.2982671,0.007568261718749924,0.20669018554687504,0.25387207031250003,0.3274586072644909,-0.14247640260510666,0.004597875376923818,0.06455654437017691,0.15648710227457335
110,1790597962.3086233,0.08420888671874993,0.21148022460937504,0.3496728515625,0.4172362941105353,-0.14312474316839913,0.005435551903606329,0.06553964990953838,0.1575108981682914
111,1790597962.3286233,0.10336904296874994,0.34081127929687505,0.5604345703125,0.6640213812382884,-0.14390764645076895,0.007639058773663011,0.0685186061026033,0.15956993861060012
112,1790597962.3527498,0.07941884765624993,0.527622802734375,1.274150390625,1.3813588937195735,-0.14437966582583842,0.011469909870497286,0.0748928263453555,0.16305208423817735
113,1790597962.3727498,-0.06428232421875008,0.661743896484375,1.5088623046875,1.6488488882393566,-0.1446895543455586,0.015953244330169314,0.08355873085114175,0.1678440783668819
114,1790597962.3834772,-0.10260263671875008,1.250918701171875,1.1543994140625,1.705275023329379,-0.1449651054220794,0.019536107577286646,0.08965238982253351,0.1715636683281091
115,1790597962.4034772,0.20874990234374993,1.931104248046875,0.5460644531250001,2.017653717940697,-0.14524255725325871,0.029986989082646267,0.10185985464926603,0.17991678615648538
116,1790597962.4284265,0.32371083984374993,2.0460651855468748,0.21076171875000002,2.0822084317929765,-0.1445404127118639,0.048510620779960226,0.11622017260595063,0.19170899758730683
117,1790597962.4484265,0.050678613281249923,1.988584716796875,0.3879931640625,2.0267156172195073,-0.14350040121692031,0.06718423794133868,0.12690314985984727,0.20300368573384664
118,1790597962.5039473,-0.1505030273437501,2.256826904296875,0.3448828125,2.28798229703723,-0.14146202823601284,0.12892530053654688,0.15516281601208273,0.24639143252938983
119,1790597962.5239472,-0.16487314453125007,2.577759521484375,0.28740234375,2.598966604553427,-0.14131095974412908,0.15508175631313434,0.1647641098868947,0.2667702202116907
120,1790597962.5044572,0.06504873046874993,2.563389404296875,0.076640625,2.5653596942334373,-0.14131095974412908,0.15508175631313434,0.1647641098868947,0.2667702202116907
121,1790597962.5244572,0.27102041015624995,2.309517333984375,-0.028740234375,2.3255425990008196,-0.14082498553510603,0.1878441073774611,0.17223704957136554,0.2911746666048525
122,1790597962.5627327,0.11773916015624993,2.103545654296875,-0.052690429687500005,2.1074968827797163,-0.13891844974583442,0.2538073417792618,0.18415959143816532,0.34297413537978766
123,1790597962.5827327,-0.1600831054687501,1.873623779296875,-0.2347119140625,1.8950415165916832,-0.13813518125776836,0.2890705388283039,0.18902386325803755,0.37198538358461847
124,1790597962.5934615,-0.22714365234375009,1.7490827636718749,-0.5269042968750001,1.8407913762942938,-0.1380896165813845,0.3080647660601627,0.19062901014666456,0.3877009953621394
125,1790597962.6134615,-0.04991220703125008,1.476050537109375,-0.689765625,1.6300285377695831,-0.13843300213685614,0.3429990677029877,0.19134738365130033,0.41644432731871794
126,1790597962.6227698,0.012358300781249925,0.9683063964843751,-0.641865234375,1.1617921432726377,-0.13859506442785283,0.35852571091655067,0.19070193034522823,0.4290879904045032
127,1790597962.6427698,-0.19361337890625008,0.5132526855468751,-0.5029541015625,0.7442293248664126,-0.13916292403438676,0.3891046324753048,0.18780590010957163,0.4539160611341142
128,1790597962.6683564,-0.2510938476562501,0.364761474609375,-0.5795947265625,0.7294032497522102,-0.14063382371496483,0.4240420278563348,0.18257925867454972,0.48262272994478056
129,1790597962.6883564,-0.08823251953125008,-0.171722900390625,-0.7041357421875001,0.7301238767821132,-0.1421200925191888,0.4475443232543102,0.17718103452300335,0.5018836129716361
130,1790597962.7126186,0.017148339843749926,-0.708207275390625,-0.689765625,0.9887508421777702,-0.1437819990970918,0.470177397902925,0.1690782553225075,0.5199302887753555
131,1790597962.7326186,0.13210927734374994,-1.254271728515625,-0.641865234375,1.4151471334151569,-0.14472257433854496,0.48309218072526816,0.16140337144059505,0.529503283194223
132,1790597962.742934,0.32850087890624996,-1.5943645019531252,-0.63228515625,1.7463377426329945,-0.14477857389884174,0.4865502294835929,0.1570529040864429,0.5313732924721609
133,1790597962.762934,0.57758291015625,-1.7189055175781252,-0.3688330078125,1.850479933454319,-0.1435117377342143,0.48727925205301786,0.14838158446901528,0.5292010798915455
134,1790597962.7886362,0.63506337890625,-1.5752043457031253,-0.21555175781250002,1.7120270985723016,-0.1397903348417126,0.4817256473591831,0.1377830020521287,0.5201779432975595
135,1790597962.8086362,0.7212840820312499,-1.5368840332031253,-0.239501953125,1.7145333021137437,-0.13529440391757772,0.4733842519788505,0.13009030384749243,0.5092354199268952
136,1790597962.83301,0.79792470703125,-1.6757951660156252,-0.22034179687500002,1.8690970504450395,-0.12785996771179428,0.4588706328594486,0.12128093448913625,0.491548058804681
137,1790597962.85301,1.01826650390625,-1.5368840332031253,-0.37362304687500003,1.8810830352880012,-0.11995038404198702,0.443928798421509,0.11424571339822506,0.473827981159465
138,1790597962.8627448,0.92725576171875,-1.5464641113281252,-0.3879931640625,1.8444221834020913,-0.1152574782531332,0.4354956792158814,0.11077894745055412,0.46391028023447156
139,1790597962.8827448,0.65901357421875,-1.407552978515625,-0.19160156250000002,1.5659551197544652,-0.10468286379392396,0.4163379172903326,0.10385554920877425,0.4416805841863611
140,1790597962.9076142,0.5871629882812499,-1.192001220703125,-0.15328125,1.3375808112284917,-0.09118162212063678,0.3912403672298948,0.09589456933363891,0.41301196301126386
141,1790597962.9276142,0.5823729492187499,-1.158470947265625,-0.15328125,1.3056447944375307,-0.08019828733872457,0.37055875090599444,0.08999284562591162,0.38967199723475715
142,1790597962.9526005,0.47699208984374997,-1.3213322753906251,-0.10059082031250001,1.4083887776085184,-0.06654967508285473,0.34394950649133105,0.08324995409123861,0.3600842639236781
143,1790597962.9726005,0.46741201171874996,-1.3596525878906252,-0.01916015625,1.4378790839441846,-0.05584692176487439,0.32182381914396296,0.07848264583791048,0.33593001493873254
144,1790597962.9981048,0.53447255859375,-1.488983642578125,-0.1676513671875,1.5908614599250335,-0.04232939166477151,0.2923920452004479,0.07295785110489472,0.30431518781200256
145,1790597963.0181048,0.39077138671874995,-1.6135246582031253,-0.45026367187500005,1.7201457710083656,-0.03193138618921188,0.2681204703488845,0.06834841475197376,0.27853133727316837
146,1790597963.027608,0.35245107421874994,-1.8003361816406251,-0.5269042968750001,1.9086802416087496,-0.02720208572261528,0.25588441163973047,0.0657902793487465,0.2656033630145854
147,1790597963.047608,0.48657216796874997,-1.8242863769531252,-0.17244140625,1.89591911704272,-0.01748338536948928,0.22855860173688067,0.0601650560575119,0.23699058454356295
148,1790597963.0734947,0.59674306640625,-1.7045354003906252,-0.1484912109375,1.8120686681840863,-0.004687713409352442,0.19164381181213078,0.05335315430733175,0.1989871461613377
149,1790597963.0934947,0.5823729492187499,-1.7476457519531252,-0.3879931640625,1.8825415325194765,0.005483945539067087,0.16222340389189469,0.048075015987680866,0.16928589306603198
150,1790597963.1180742,0.6063231445312499,-1.8913469238281253,-0.4071533203125,2.02746017670135,0.018300892750904463,0.12478158602339795,0.041095485871076524,0.13264315227321244
151,1790597963.1380742,0.65901357421875,-1.9296672363281253,-0.22513183593750002,2.051486991797751,0.029063505683338233,0.09315411428995415,0.035319793304513056,0.1037779560929237
152,1790597963.1483207,0.67338369140625,-1.7045354003906252,-0.2442919921875,1.8489362088735444,0.03477431162962486,0.07658822437465365,0.03244386333466755,0.09015327575998079
153,1790597963.1683207,0.59195302734375,-1.6039445800781251,-0.354462890625,1.7460499830685416,0.0461471076349183,0.04414105686649284,0.02677427917756179,0.06924485879715336
154,1790597963.1930473,0.5488426757812499,-1.3883928222656252,-0.22513183593750002,1.5098169608366505,0.06021418515716564,0.004493607070552651,0.019741354217721087,0.06352685782403755
155,1790597963.2130473,0.5871629882812499,-1.096200439453125,-0.1197509765625,1.2493022351105691,0.07158955027636599,-0.026491584341933726,0.014388773367203183,0.07767821154436332
156,1790597963.2378066,0.5296825195312499,-1.110570556640625,-0.124541015625,1.2367057036122002,0.08563343926729476,-0.06319425746865673,0.008302770820223408,0.10674987635146699
157,1790597963.2578065,0.53447255859375,-1.134520751953125,-0.124541015625,1.260281205554911,0.09687234832526814,-0.09176232235216987,0.0037504364721679864,0.1334864841369619
158,1790597963.2678638,0.51052236328125,-0.962079345703125,0.076640625,1.0918349400157592,0.10246444633684804,-0.10555467000490695,0.0017684928557176356,0.14711858716675585
159,1790597963.2878637,0.6015331054687499,-0.689047119140625,0.1580712890625,0.928231943964844,0.11358500699829567,-0.13134494679373826,-0.0012295741152198677,0.17365068590580812
160,1790597963.3130906,0.5680028320312499,-0.770477783203125,0.028740234375,0.957647760231836,0.12772059645979505,-0.1617572083380965,-0.004090475999439124,0.20614237119835932
161,1790597963.3330905,0.5632127929687499,-0.928549072265625,-0.18202148437500001,1.1011556886031562,0.13894318025520713,-0.18480011364655408,-0.006248316576438694,0.23129057655522778
162,1790597963.3577673,0.66859365234375,-1.091410400390625,-0.1580712890625,1.2896436199435333,0.15299281131957648,-0.21270516617477173,-0.009140814324461042,0.262171399125494
163,1790597963.3777673,0.71170400390625,-1.096200439453125,-0.143701171875,1.3148490481540687,0.16474212434158225,-0.23521052426199332,-0.011586130273662704,0.28739901995465705
164,1790597963.3876786,0.67338369140625,-1.2015812988281251,-0.3209326171875,1.4142987514383976,0.17072089584572808,-0.24639851981794345,-0.012961556496900823,0.3000430915613018
165,1790597963.4076786,0.63985341796875,-1.196791259765625,-0.3400927734375,1.3990656919823652,0.18294561341693616,-0.26918586536530814,-0.016312241926622433,0.325877610181555
166,1790597963.432252,0.71649404296875,-0.899808837890625,-0.1484912109375,1.1597712266138815,0.1982124570167136,-0.296848258022243,-0.02071204842717684,0.3575416833845984
167,1790597963.452252,0.7260741210937499,-0.804008056640625,0.0814306640625,1.0863901405640404,0.2109380070078602,-0.31854100065986407,-0.0238564533605242,0.38279543135828886
168,1790597963.478391,0.6254833007812499,-0.770477783203125,0.13412109375,1.001425904275751,0.22772456981021127,-0.3457263372936056,-0.026927029118000042,0.41486171779379616
169,1790597963.498391,0.47699208984374997,-0.684257080078125,0.143701171875,0.8463918904436631,0.24029572525713347,-0.36558891159452245,-0.028507300452219886,0.4384175567159605
170,1790597963.5084958,0.45304189453124993,-0.583666259765625,0.18202148437500001,0.7609501177891601,0.24639935611643232,-0.3750799789848129,-0.02893910681684684,0.44970557616422435
171,1790597963.5284958,0.49136220703124994,-0.559716064453125,0.0622705078125,0.7473931411571438,0.2580844129274139,-0.39276236148452065,-0.02929911922634067,0.4708803193832001
172,1790597963.553083,0.44346181640624993,-0.636356689453125,-0.09101074218750001,0.780955295785611,0.2720186218399791,-0.4134452584255595,-0.02972831405808414,0.49579722165320306
173,1790597963.573083,0.3955614257812499,-0.598036376953125,-0.1676513671875,0.7363581537846603,0.28291150854215996,-0.42959735892227835,-0.030413059581868695,0.5152841610720514
174,1790597963.597734,0.49136220703124994,-0.617196533203125,-0.162861328125,0.8055384480552222,0.2959634361640209,-0.44876619811442625,-0.03174150875607003,0.5385099622980085
175,1790597963.617734,0.5680028320312499,-0.617196533203125,-0.0718505859375,0.8418558573134943,0.30655341940290115,-0.46383709903990683,-0.0330097082169816,0.556964535881718
176,1790597963.643247,0.5057323242187499,-0.650726806640625,-0.09101074218750001,0.8291522874803662,0.3200907058700812,-0.48260462103981006,-0.03469644807294509,0.5801457780095138
177,1790597963.6632469,0.47699208984374997,-0.765687744140625,-0.162861328125,0.9166913261830868,0.33058506499409424,-0.4972345674750331,-0.03620117792108617,0.5981966445677431
178,1790597963.6730664,0.48657216796874997,-0.8758586425781251,-0.1580712890625,1.0143309957043045,0.33567429982663366,-0.5045490135722241,-0.03706550105302156,0.6071414942409361
179,1790597963.6930664,0.47220205078124994,-0.909388916015625,-0.0718505859375,1.0271930120642632,0.3459231775074002,-0.5198899883027994,-0.038906739548578546,0.62566938478449
180,1790597963.7178452,0.5248924804687499,-0.928549072265625,-0.067060546875,1.0687434737134838,0.35856930299277184,-0.5394612450991376,-0.04110390546081913,0.6490607914955008
181,1790597963.7378452,0.6063231445312499,-0.880648681640625,-0.086220703125,1.0726620463673557,0.3689422332513506,-0.5556022620850054,-0.04284123345501753,0.6683170029218293
182,1790597963.7940702,0.64943349609375,-0.8375383300781251,-0.028740234375,1.0602171104403735,0.39902442369466723,-0.6014176976703863,-0.04747747220694101,0.7233103401328992
183,1790597963.8140702,0.63027333984375,-0.789637939453125,0.0431103515625,1.0112522241030744,0.41003951241964004,-0.6177110308700164,-0.04885771158305222,0.7430251647050504
184,1790597963.7940702,0.53926259765625,-0.784847900390625,0.0143701171875,0.9523638360660917,0.41003951241964004,-0.6177110308700164,-0.04885771158305222,0.7430251647050504
185,1790597963.8140702,0.48657216796874997,-0.775267822265625,-0.0335302734375,0.9159240962651258,0.42102782160263513,-0.6338306029902989,-0.049810387211495,0.7625527749111305
186,1790597963.837458,0.44346181640624993,-0.689047119140625,-0.11017089843750001,0.82679014379034,0.4335812972236916,-0.6524216046932364,-0.051009387496690185,0.7850150630309359
187,1790597963.8574579,0.43388173828124993,-0.665096923828125,-0.19639160156250002,0.8180323600346612,0.4440221568846042,-0.6679662094472565,-0.05234075776910829,0.8037873398428447
188,1790597963.8831384,0.43388173828124993,-0.641146728515625,-0.18202148437500001,0.7952699611291288,0.45708891021770176,-0.687447843692862,-0.05452268632365763,0.8273376172796205
189,1790597963.9031384,0.40993154296874995,-0.650726806640625,-0.086220703125,0.7739013221650515,0.467004547414975,-0.7022820881507673,-0.056369440467450876,0.8452638005157214
190,1790597963.9128125,0.38119130859374994,-0.689047119140625,-0.0047900390625,0.7874742475901231,0.47165534988494967,-0.7093532451985191,-0.0571947639331973,0.8537634546934758
191,1790597963.9328125,0.41951162109374995,-0.712997314453125,-0.0383203125,0.8281446836152316,0.4810291316828845,-0.7238822615903989,-0.058709747853387756,0.8711150260819917
192,1790597963.957982,0.48178212890624994,-0.7369475097656251,-0.086220703125,0.8846692384900494,0.4927577459780184,-0.742161179294281,-0.06056543919353841,0.8929062575083241
193,1790597963.977982,0.5057323242187499,-0.751317626953125,-0.01916015625,0.9058755278280225,0.5021607220293987,-0.7567394671013526,-0.06197687585767812,0.9103082691918184
194,1790597964.0034587,0.51052236328125,-0.804008056640625,0.0143701171875,0.9525064508029799,0.5142837041182146,-0.775496103516017,-0.06351427634823585,0.9326928745252193
195,1790597964.0234587,0.47699208984374997,-0.799218017578125,0.0047900390625,0.9307490735258546,0.5238543480732366,-0.7904167916299286,-0.06451140642509093,0.9504440036344746
196,1790597964.0329058,0.48657216796874997,-0.818378173828125,-0.0143701171875,0.952208911063139,0.5283796975626955,-0.7975535975271543,-0.06491854397868656,0.9589010705371354
197,1790597964.0529058,0.52010244140625,-0.851908447265625,-0.086220703125,1.0018425833066984,0.5380330415512816,-0.8129016554088834,-0.06580207113374739,0.9770458370685159
198,1790597964.0777726,0.48657216796874997,-0.780057861328125,-0.09580078125000001,0.924348706576543,0.5501125493165074,-0.8321657455215917,-0.06707529086021316,0.999811351995463
199,1790597964.0977726,0.45304189453124993,-0.765687744140625,-0.028740234375,0.8901408207691373,0.5597800190007847,-0.8476540885972298,-0.06813252774627664,1.0180929058417096
200,1790597964.1385567,0.49136220703124994,-0.7177873535156251,-0.023950195312500002,0.8701891261220704,0.5794256548737402,-0.8790381154210068,-0.07012623471308198,1.0551586547452532
201,1790597964.1585567,0.5057323242187499,-0.708207275390625,-0.09101074218750001,0.8749889621414838,0.5891101561723088,-0.8942588621423159,-0.07112970983884334,1.0732237065249677
202,1790597964.1683004,0.46741201171874996,-0.727367431640625,-0.1197509765625,0.8728560395037205,0.5938317295742942,-0.9016109682412972,-0.07169927592597235,1.0819793192434484
203,1790597964.1883004,0.41951162109374995,-0.7369475097656251,-0.067060546875,0.8506343217444474,0.6033999237880145,-0.9166347840707326,-0.07297322465738891,1.099834481598335
204,1790597964.1977723,0.3859813476562499,-0.751317626953125,-0.0431103515625,0.8457649080689339,0.607823872098588,-0.9237399606607268,-0.07356432469601258,1.1082224886196734
205,1790597964.2177722,0.4147215820312499,-0.689047119140625,-0.0383203125,0.8051387267723464,0.6169649482228469,-0.9386527488958594,-0.07474736629561449,1.1257450417894383
206,1790597964.2434506,0.47220205078124994,-0.722577392578125,-0.0622705078125,0.8654308066912377,0.6286490133937686,-0.9576461840493313,-0.07623218431261071,1.1480841179069923
207,1790597964.2634506,0.45304189453124993,-0.756107666015625,-0.047900390625000004,0.8827458344450501,0.6377721320413369,-0.9724385185578274,-0.07738044123196516,1.1654946149462673
208,1790597964.2730079,0.43388173828124993,-0.741737548828125,-0.052690429687500005,0.8609321898594382,0.6421135324448435,-0.9795205649299648,-0.0779189469719599,1.1738150143726784
209,1790597964.2930079,0.44346181640624993,-0.794427978515625,-0.0431103515625,0.9108417524853564,0.6511518262980875,-0.9944220235335101,-0.07902051680461095,1.1912674359084459
210,1790597964.3187282,0.46262197265624994,-0.741737548828125,-0.047900390625000004,0.875493077270142,0.6627795921588582,-1.013674354662783,-0.08040022285710804,1.213786093559629
211,1790597964.3387282,0.49136220703124994,-0.708207275390625,-0.0814306640625,0.8658090531199667,0.6718959901019889,-1.0285741828454962,-0.08150614204384606,1.2312807650257043
212,1790597964.3786316,0.47220205078124994,-0.7369475097656251,-0.067060546875,0.8778174786702235,0.6902401667986339,-1.0581677395454108,-0.08382606404808277,1.2661663642233763
213,1790597964.3986316,0.47220205078124994,-0.732157470703125,-0.067060546875,0.8738000089354483,0.6994719123709883,-1.072979091370413,-0.0850155982226539,1.2836560047984664
214,1790597964.4087005,0.44346181640624993,-0.693837158203125,-0.05748046875,0.8254528387506087,0.7041139174314296,-1.0803941532440902,-0.08561868291980582,1.2924234963623846
215,1790597964.4287004,0.47220205078124994,-0.7177873535156251,-0.09101074218750001,0.863988667068326,0.7133248184156458,-1.0950309311038262,-0.08685964760840946,1.3097593805827403
216,1790597964.4384637,0.43867177734374996,-0.780057861328125,-0.124541015625,0.9035671861187963,0.7178137534887473,-1.10220107510797,-0.08753240745505016,1.3182434210044993
217,1790597964.4584637,0.37161123046874994,-0.799218017578125,-0.1149609375,0.8888533981387963,0.7268454158257394,-1.1170548094984603,-0.08906308525875756,1.3356825742242586
218,1790597964.5131166,0.4051415039062499,-0.765687744140625,-0.0622705078125,0.8685015692892004,0.7510076108900501,-1.1579708477610215,-0.09334493606964069,1.3833373388183394
219,1790597964.5331166,0.48657216796874997,-0.7177873535156251,-0.0431103515625,0.8682336447757693,0.7598609149525801,-1.172923134325875,-0.09483489179840482,1.4007608453307874
220,1790597964.5281413,0.47699208984374997,-0.765687744140625,-0.0335302734375,0.9027311086572019,0.7598609149525801,-1.172923134325875,-0.09483489179840482,1.4007608453307874
221,1790597964.5481412,0.41951162109374995,-0.784847900390625,-0.028740234375,0.8903944227432068,0.7688307246787852,-1.1879433915634223,-0.09610250718876198,1.4182897717523306
222,1790597964.5578666,0.40035146484374995,-0.780057861328125,-0.028740234375,0.877267099288623,0.773136197429035,-1.1952931117921173,-0.09666837312380384,1.4268181303989356
223,1790597964.5778666,0.44825185546874996,-0.765687744140625,-0.0718505859375,0.8901516467197589,0.7819351131604204,-1.2104591167866097,-0.09780839885767308,1.4443684701253072
224,1790597964.6338053,0.49136220703124994,-0.746527587890625,-0.0814306640625,0.8974247662228158,0.8067956975632008,-1.2528590995012343,-0.10116177041752443,1.4935892757393325
225,1790597964.6538053,0.45783193359374996,-0.732157470703125,-0.0718505859375,0.8665028263220792,0.8157747108194092,-1.2679626362919543,-0.10241079407334436,1.5111934345369775
226,1790597964.648377,0.41951162109374995,-0.751317626953125,-0.1149609375,0.8681498683718497,0.8157747108194092,-1.2679626362919543,-0.10241079407334436,1.5111934345369775
227,1790597964.668377,0.40035146484374995,-0.7177873535156251,-0.124541015625,0.8312703801065017,0.8246104533185366,-1.2829700259380838,-0.10391065071698366,1.52865689757715
228,1790597964.6779482,0.37161123046874994,-0.712997314453125,0.023950195312500002,0.8043840431556146,0.8287588197861968,-1.2901018369949797,-0.10459297321609573,1.5369266805015176
229,1790597964.6979482,0.29976064453124995,-0.780057861328125,0.15328125,0.8496127662830646,0.8371339520917783,-1.305008505354067,-0.10553902590027456,1.5540202504405258
230,1790597964.723833,0.2853905273437499,-0.789637939453125,0.1149609375,0.847462002494625,0.8474834931818477,-1.324454801241586,-0.10605902992200365,1.5759623439586343
231,1790597964.743833,0.30934072265624996,-0.770477783203125,0.0383203125,0.8311414701801314,0.8551726893294954,-1.3395664007205959,-0.10617062286769594,1.5928059114891207
232,1790597964.7682335,0.32371083984374993,-0.799218017578125,0.0335302734375,0.862938251957026,0.8643050545936488,-1.3581100468338851,-0.10615485798510604,1.613305606691152
233,1790597964.7882335,0.26144033203124994,-0.679467041015625,0.10059082031250001,0.7349455899386573,0.8715453647035094,-1.373247563167433,-0.1059426930299008,1.6299153495466854
234,1790597964.8137841,0.18000966796874993,-0.598036376953125,0.09580078125000001,0.6318455336627379,0.8802535783155666,-1.3921334916694954,-0.10533595844331022,1.6504477225608907
235,1790597964.833784,0.22312001953124994,-0.588456298828125,-0.0047900390625,0.6293538775763133,0.8866522445377348,-1.4064788998414135,-0.10479575422689227,1.6659283443614552
236,1790597964.8429925,0.24707021484374994,-0.583666259765625,-0.1580712890625,0.6532201208456544,0.8894811497523006,-1.412902612552244,-0.10469681780464017,1.672851437510232
237,1790597964.8629925,0.16563955078124992,-0.540555908203125,-0.0622705078125,0.5687835852233661,0.8953227421329761,-1.4264479564371777,-0.10484468063371986,1.6874089581549276
238,1790597964.8878298,0.21353994140624993,-0.483075439453125,-0.009580078125,0.5282546399942887,0.9021953690577267,-1.442653024151087,-0.10513460517612384,1.7047749168869841
239,1790597964.9078298,0.32850087890624996,-0.497445556640625,-0.20597167968750002,0.6307053528367823,0.9077124333993194,-1.4552154439230385,-0.1056563728082081,1.7183588446814089
240,1790597964.9178784,0.37161123046874994,-0.530975830078125,-0.32572265625,0.725345081690231,0.9105962274720382,-1.4613555067759922,-0.10627991248156697,1.7251205252004609
241,1790597964.9378784,0.4147215820312499,-0.588456298828125,-0.3305126953125,0.7921574641419039,0.9166544466408932,-1.4734222376707993,-0.10831915131615408,1.7386665878054939
242,1790597964.9640365,0.5248924804687499,-0.602826416015625,-0.27303222656250004,0.8446646675696556,0.9252328789958034,-1.4891741910447078,-0.1117702829394998,1.7567550335197277
243,1790597964.9840364,0.5440526367187499,-0.641146728515625,-0.1676513671875,0.8574201886629161,0.9324113652791224,-1.5012772460663886,-0.11467417679923042,1.7709812225099784
244,1790597965.0087411,0.47699208984374997,-0.727367431640625,-0.0814306640625,0.8736222223791283,0.9418402656152627,-1.5165205094218628,-0.11818463385698597,1.7890961821856546
245,1790597965.0287411,0.42909169921874996,-0.760897705078125,0.0814306640625,0.8773345752797226,0.9496876771272346,-1.5292422161413002,-0.1206002764576176,1.804170963738673
246,1790597965.0536854,0.36682119140624997,-0.823168212890625,0.076640625,0.9044542434963954,0.9594959968826934,-1.5456924366675389,-0.1228654579011096,1.823429076643892
247,1790597965.0736854,0.28060048828124995,-0.842328369140625,-0.1676513671875,0.9035268100076604,0.9671516712612489,-1.5594017943821565,-0.12454573496180497,1.8391922008433192
248,1790597965.083228,0.27102041015624995,-0.904598876953125,-0.29219238281250004,0.9884976375691363,0.970651343674496,-1.5662121147057306,-0.12555630846349647,1.8468754169740529
249,1790597965.103228,0.24228017578124994,-0.842328369140625,-0.15328125,0.8897819433081686,0.977655834532399,-1.5809648441393032,-0.12802481867392249,1.8632367330524973
250,1790597965.1285965,0.33808095703124996,-0.665096923828125,-0.10538085937500001,0.7534970319221,0.9863120128544698,-1.5997387289372158,-0.1311784075373391,1.8839275894170473
251,1790597965.1485965,0.3955614257812499,-0.425594970703125,-0.0383203125,0.5822957727856065,0.9932131797626943,-1.613955577650126,-0.13350725159155508,1.8997760955727927
