imu_index,t_imu,ax,ay,az,mag,vx,vy,vz,velocity
0,1790598358.3521187,-0.03875141601562488,-0.07649692382812513,0.004933740234375959,0.08589408239851164,0.0,0.0,0.0,0.0
1,1790598358.3721187,-0.014801220703124882,-0.08128696289062513,0.004933740234375959,0.08277069688594377,-0.00012973688677119156,-0.0003342090892320563,2.1091719387306973e-05,0.0003591270467969719
2,1790598358.3976977,-0.053121533203124884,-0.06691684570312513,0.02888393554687596,0.09018893092493468,-0.00040107941505989285,-0.0009818479188701578,0.00010889729875610122,0.0010661841560681818
3,1790598358.4176977,-0.02438129882812488,-0.07170688476562513,0.014513818359375959,0.07711663879284368,-0.0006976698815710943,-0.001620209058991477,0.0002323501302928324,0.001779271548004005
4,1790598358.4417722,0.00435893554687512,-0.08607700195312513,0.004933740234375959,0.08632839843898657,-0.001037284423262487,-0.0025582539906685736,0.0003937776552119036,0.002788491222374361
5,1790598358.4617722,-0.04354145507812488,-0.08128696289062513,0.07199428710937596,0.11698976888040036,-0.001335873247400367,-0.0034716898859672753,0.0006231598705264652,0.003771672867797794
6,1790598358.4721532,-0.02438129882812488,-0.062126806640625136,0.11031459960937597,0.12893214774789444,-0.0015204911848885948,-0.003986348886822068,0.0008663024316346154,0.00435354462407904
7,1790598358.4921532,-0.0004311035156248802,-0.04775668945312513,0.11510463867187597,0.12461928053694799,-0.0018600416069902428,-0.004993983789896961,0.0016026032260471547,0.005564886878780664
8,1790598358.5170786,-0.03396137695312488,-0.019016455078125133,0.08157436523437596,0.0903846101484205,-0.0022840324005581796,-0.006186231601296803,0.0027502650748687536,0.0071449439055688594
9,1790598358.5370786,-0.03875141601562488,-0.062126806640625136,0.06241420898437596,0.09621302318149559,-0.002682277036741904,-0.007121098273355728,0.0037489905450142683,0.008482899317287058
10,1790598358.5618913,-0.03396137695312488,-0.11002719726562514,0.06241420898437596,0.1309766877952958,-0.0032375572535830654,-0.008427323618019959,0.005034486928772262,0.010336712193393221
11,1790598358.5818913,-0.04354145507812488,-0.09086704101562514,0.05283413085937596,0.11377224106486314,-0.0037342518630251345,-0.009623602004275327,0.006088094506980899,0.011984291687001354
12,1790598358.5921397,-0.04833149414062488,-0.08128696289062513,0.03367397460937596,0.1003864544041676,-0.004021207821740203,-0.010276974100563531,0.006613494985461637,0.012865637369831484
13,1790598358.6121397,-0.053121533203124884,-0.07170688476562513,0.043254052734375964,0.0991699939023368,-0.004649386971490397,-0.011590271932910389,0.007600416120971025,0.014619080952692997
14,1790598358.63707,-0.08665180664062488,-0.052546728515625134,0.08157436523437596,0.1300925491147376,-0.005576309197943331,-0.013214083888261034,0.00887949491683325,0.016868688960767958
15,1790598358.65707,-0.10581196289062489,-0.02380649414062513,0.10552456054687596,0.15132201932516592,-0.006497074850958609,-0.01443589450274116,0.010032349639390448,0.01874180010031611
16,1790598358.6818964,-0.08665180664062488,-0.02380649414062513,0.08636440429687596,0.12463584992652037,-0.007826966348275217,-0.015813716451637788,0.011606054622356017,0.021119553360025013
17,1790598358.7018964,-0.08665180664062488,-0.04296665039062513,0.014513818359375959,0.09780245172409233,-0.00899756577671678,-0.016857340744041112,0.012834967545931837,0.023018742771319572
18,1790598358.727485,-0.1441322753906249,-0.052546728515625134,-0.028596533203124042,0.1560545840345971,-0.010713514257607299,-0.018175598932272448,0.014144399419575807,0.02540070509327004
19,1790598358.747485,-0.1585023925781249,-0.08607700195312513,-0.019016455078124044,0.18136671216617078,-0.012307473337658545,-0.01925933232290157,0.014942914148246274,0.027307260293244283
20,1790598358.7570326,-0.1297621582031249,-0.07170688476562513,0.014513818359375959,0.1489655864543634,-0.013160686976514284,-0.019812073191573618,0.015263709681154838,0.028261329747070334
21,1790598358.7770326,-0.08665180664062488,-0.04775668945312513,0.04804409179687596,0.10998850730050444,-0.015004480001269482,-0.020975440020448766,0.01592873249202233,0.03031217615022629
22,1790598358.8026123,-0.09623188476562489,-0.004646337890625131,0.06720424804687596,0.11746733612747161,-0.017359795403604723,-0.02234071418665068,0.0168728052635698,0.0329417905446407
23,1790598358.8226123,-0.06749165039062488,-0.03338657226562513,0.04804409179687596,0.08931976733447523,-0.019170697416684666,-0.023305109827485453,0.01767309808248944,0.03497116211032358
24,1790598358.8321092,-0.057911572265624885,-0.062126806640625136,0.03367397460937596,0.0913642537956241,-0.01999093420959873,-0.023762390267816656,0.01805431739476967,0.03592000860806711
25,1790598358.8521092,-0.06749165039062488,-0.07649692382812513,0.03846401367187596,0.10902468791685016,-0.021647304525047192,-0.0247888809576875,0.0188449262709709,0.03792394571366302
26,1790598358.877091,-0.053121533203124884,-0.08128696289062513,0.04804409179687596,0.1083406774135145,-0.023631898548197645,-0.02617436029071299,0.019846419560561542,0.04046534486439228
27,1790598358.897091,-0.04354145507812488,-0.057336767578125135,0.043254052734375964,0.08398973928151275,-0.02512740210767779,-0.02732510947525646,0.020664879289095214,0.042486294031705764
28,1790598358.9228122,-0.03875141601562488,-0.03338657226562513,0.02888393554687596,0.058741954202596314,-0.026920973012828996,-0.028758073000065044,0.021698745369384008,0.04497333767066773
29,1790598358.9428122,-0.057911572265624885,-0.052546728515625134,0.03367397460937596,0.08514015178495045,-0.02825139198927953,-0.029834061262128123,0.022475895146337663,0.04683351602595631
30,1790598358.952072,-0.10102192382812489,-0.052546728515625134,0.03846401367187596,0.12019179722169288,-0.028885337704037083,-0.030330488210500568,0.022831831063620297,0.04770318395119216
31,1790598358.972072,-0.10102192382812489,-0.02380649414062513,0.01930385742187596,0.10556901613905095,-0.030352270911247696,-0.031356413484529416,0.02357194934881585,0.04959961504070058
32,1790598358.9976594,-0.09623188476562489,-0.00943637695312513,0.02888393554687596,0.10091532385233702,-0.032326063372445105,-0.03253587407907543,0.024469283069468092,0.0519836829128386
33,1790598359.0176594,-0.10102192382812489,-0.004646337890625131,0.02409389648437596,0.10395928721152886,-0.03393330141148083,-0.03334061376190478,0.025144924580225304,0.05380829585526882
34,1790598359.042089,-0.08665180664062488,-0.02859653320312513,0.01930385742187596,0.09326808787943386,-0.035945886997863864,-0.03423704874710162,0.025925928397425496,0.056003893277548525
35,1790598359.062089,-0.09144184570312489,-0.04296665039062513,0.01930385742187596,0.1028609892172364,-0.03761354048296643,-0.03496820246118787,0.026527322989446066,0.05780356802150516
36,1790598359.08768,-0.06749165039062488,-0.04296665039062513,0.01930385742187596,0.08230367445992104,-0.039732367538881326,-0.03592835779272943,0.027255515490332262,0.060103003656812974
37,1790598359.10768,-0.09623188476562489,-0.019016455078125133,0.03367397460937596,0.10371180152362486,-0.04138547226466068,-0.03665915577469913,0.027818714544809928,0.06189129095121764
38,1790598359.1173065,-0.09144184570312489,-0.019016455078125133,0.02888393554687596,0.09776256155609127,-0.04219729013557174,-0.03698560020399595,0.028094297120299455,0.06275217484612873
39,1790598359.1373065,-0.07707172851562488,-0.04296665039062513,0.01930385742187596,0.09032620491053804,-0.04388371219836349,-0.03765506822970832,0.028653251317062388,0.06453443399249367
40,1790598359.1620274,-0.07707172851562488,-0.04296665039062513,-0.004646337890624042,0.08836160273540901,-0.04594132638716004,-0.038517764007261146,0.029267686746063257,0.06671447445492108
41,1790598359.1820273,-0.09144184570312489,-0.02859653320312513,-0.014226416015624042,0.09685950531301067,-0.04760906916808106,-0.03921836418286381,0.029661910368942553,0.06844364457687831
42,1790598359.2071755,-0.11060200195312489,-0.02859653320312513,-0.06691684570312405,0.13239497266185069,-0.04977262576506596,-0.04007503642354083,0.02993021036631284,0.07056302369137234
43,1790598359.2271755,-0.1393422363281249,-0.03817661132812513,-0.014226416015624042,0.1451761116371125,-0.051610091584244754,-0.04075430076181581,0.029989864597314887,0.07227659761280932
44,1790598359.2374341,-0.1297621582031249,-0.052546728515625134,0.05283413085937596,0.14963562999130015,-0.05261826489856884,-0.04112025858876178,0.03004557828814392,0.07322768767352678
45,1790598359.2574341,-0.09144184570312489,0.02409389648437487,0.07199428710937596,0.1188499237264422,-0.05462074741816399,-0.04176937842849735,0.03032514570790886,0.07515132390735235
46,1790598359.2821178,-0.11060200195312489,0.02409389648437487,0.09115444335937596,0.14533565023075548,-0.057095508850824594,-0.042361134308554385,0.03092046212559325,0.07752701341404955
47,1790598359.3021178,-0.1441322753906249,-0.004646337890625131,0.04804409179687596,0.15199978954478668,-0.059182009182936986,-0.04273951270525072,0.03153926162295215,0.07952296008658472
48,1790598359.3270962,-0.1393422363281249,-0.04775668945312513,-0.004646337890624042,0.14737214346082875,-0.06192805789213371,-0.043239363552336096,0.03227746912027036,0.08213745751794709
49,1790598359.3470962,-0.1249721191406249,-0.052546728515625134,0.00972377929687596,0.135918141261598,-0.06419345519493821,-0.04373001072356175,0.032787499995419835,0.08430974844996883
50,1790598359.35722,-0.12018208007812489,0.004933740234374869,0.04804409179687596,0.12952339140553631,-0.06535430321189603,-0.043977267623728264,0.033050807303816036,0.08542564532618668
51,1790598359.37722,-0.11539204101562489,-0.004646337890625131,0.07199428710937596,0.13608853354317832,-0.06765698491373383,-0.04439203560399862,0.0336730159731572,0.08764697620233335
52,1790598359.4026926,-0.1249721191406249,0.02409389648437487,0.09115444335937596,0.1565492860234629,-0.07060904437110548,-0.04480390500523746,0.034658298960872636,0.09052195721249243
53,1790598359.4226925,-0.11060200195312489,0.0001437011718748693,0.06241420898437596,0.12699746835748812,-0.07293255675726451,-0.04504242289561051,0.03554621191627499,0.09279822669132938
54,1790598359.462323,-0.10102192382812489,-0.02859653320312513,0.06241420898437596,0.12214222975006746,-0.07747504087190417,-0.04552872699713893,0.03741274365503173,0.09733940788745504
55,1790598359.482323,-0.09623188476562489,-0.03817661132812513,0.07199428710937596,0.1260999868137602,-0.07971947924967106,-0.04583749312045364,0.0384150293983046,0.09965934793625221
56,1790598359.4769237,-0.10102192382812489,0.0001437011718748693,0.04804409179687596,0.11186458108154211,-0.07971947924967106,-0.04583749312045364,0.0384150293983046,0.09965934793625221
57,1790598359.4969237,-0.1297621582031249,-0.04296665039062513,0.043254052734375964,0.1433710703917328,-0.0819387601366245,-0.0461733029213216,0.039429176721159725,0.10198330398795606
58,1790598359.5222318,-0.1249721191406249,-0.04775668945312513,0.02409389648437596,0.13593839706948363,-0.0848093248656205,-0.04670670168652921,0.04064782398721797,0.10500658627673141
59,1790598359.5422318,-0.09144184570312489,-0.00943637695312513,0.00014370117187595844,0.09192756390562282,-0.08706216183800035,-0.047150785933437474,0.041502770343156206,0.1073568655662216
60,1790598359.5675795,-0.08186176757812488,-0.02859653320312513,-0.009436376953124041,0.08722474369268061,-0.08981855882068544,-0.04770149196549442,0.0424061197279998,0.11018659099338954
61,1790598359.5875795,-0.09144184570312489,-0.02859653320312513,-0.019016455078124044,0.09767803448355136,-0.09192715060144666,-0.04815662426588336,0.0429692911124986,0.11232106417363207
62,1790598359.5978162,-0.07228168945312488,-0.014226416015625132,-0.014226416015624042,0.07502949057202257,-0.09297021812995178,-0.048387512530592064,0.043188783110591066,0.11335821017730782
63,1790598359.6178162,-0.06749165039062488,-0.03817661132812513,0.014513818359375959,0.078887435300674,-0.0949120828096171,-0.048849549291859556,0.04355372091877258,0.1152888048994687
64,1790598359.6426847,-0.08665180664062488,-0.019016455078125133,0.02409389648437596,0.0919275639056231,-0.0972519610351775,-0.04944455426170765,0.04401143664324627,0.11764231562974742
65,1790598359.6626847,-0.04833149414062488,0.01451381835937487,0.043254052734375964,0.06646425601165157,-0.09905396574459886,-0.0498580508604854,0.04442535082662485,0.11946181465810576
66,1790598359.68751,-0.019591259765624883,0.004933740234374869,0.06720424804687596,0.07017528202615585,-0.10108168615469978,-0.05025811249990634,0.045067724781670225,0.12155033922176788
67,1790598359.70751,-0.06749165039062488,0.0001437011718748693,0.12947475585937596,0.14600978024544156,-0.10260086022655883,-0.05052445202411716,0.04580263020285506,0.12319714974408567
68,1790598359.7185578,-0.08665180664062488,0.02409389648437487,0.11989467773437597,0.14987923535604886,-0.10344188499792344,-0.050629424411026705,0.04635431755219432,0.12414622404183365
69,1790598359.7385578,-0.02438129882812488,0.05762416992187487,0.08636440429687596,0.10664803336811082,-0.10490257048449704,-0.0506683748270179,0.04751262077160633,0.12581447704637383
70,1790598359.7777636,0.00914897460937512,0.10073452148437488,0.11510463867187597,0.15323258595635622,-0.10738122388482742,-0.0502676325511169,0.050035047251561875,0.1286898134226776
71,1790598359.7977636,0.01393901367187512,0.15821499023437488,0.19653530273437597,0.2526903331310893,-0.10842135839434,-0.04970544319053353,0.05159625357870387,0.12995382034476397
72,1790598359.8068225,0.06183940429687512,0.14863491210937488,0.12468471679687597,0.20362398587659347,-0.10877033077548884,-0.04928051660494398,0.05241557089743211,0.130410683022378
73,1790598359.8268225,0.11931987304687512,0.16779506835937488,0.03367397460937596,0.2086297045860023,-0.10915347191097793,-0.04800845702149727,0.05419063541368741,0.1309805991066799
74,1790598359.8525667,0.12410991210937512,0.2923360839843749,0.14384487304687596,0.34864739176564646,-0.10910266006648636,-0.04572823094120994,0.05647554197433817,0.1310875599738249
75,1790598359.8725667,0.05704936523437512,0.32586635742187486,0.18216518554687597,0.37766078403558656,-0.10879736819993255,-0.04329519845465718,0.05847337702377251,0.1308834495153
76,1790598359.88199,-0.01001118164062488,0.22527553710937487,0.21090541992187598,0.30875619431872414,-0.10864185827614736,-0.0419312799605508,0.059551287870773885,0.13079618303258073
77,1790598359.90199,0.042679248046875125,0.3306563964843749,0.24443569335937598,0.41340534459287986,-0.10831230922279823,-0.03863681163851806,0.062178899256565834,0.1307309261633358
78,1790598359.9272451,0.04746928710937512,0.4839376464843749,0.16300502929687596,0.5128543833093205,-0.10778783471343527,-0.033557748057076536,0.06577098834899307,0.13065283263395575
79,1790598359.9472451,0.09536967773437513,0.30670620117187486,-0.009436376953124041,0.3213302265247429,-0.10722053800674819,-0.028952923639656652,0.06841927676002706,0.13044429075320046
80,1790598359.9725988,0.22470073242187513,0.15821499023437488,-0.08607700195312405,0.28797856265880034,-0.10600063567783967,-0.023107018551022464,0.07109127118603836,0.12970750907048614
81,1790598359.9925988,0.21991069335937513,0.2635958496093749,0.004933740234375959,0.34331884127992396,-0.10451575792084364,-0.018554543299347085,0.07276116534454123,0.12869344160877585
82,1790598360.0029216,-0.02438129882812488,0.5509981933593749,-0.052546728515624044,0.5540348504341005,-0.10371293168535724,-0.015926614803647515,0.07345691850826548,0.12808570620723178
83,1790598360.0229216,-0.00522114257812488,0.5941085449218749,-0.12918735351562405,0.6080144700476949,-0.10243521138541399,-0.009881186550686559,0.07433010967254532,0.12694713696321208
84,1790598360.0472176,-0.03396137695312488,0.5941085449218749,-0.019016455078124044,0.5953821997989847,-0.10118725775997599,-0.0014736074338229377,0.07496169446248674,0.12593763650529596
85,1790598360.0672176,-0.17766254882812488,0.7905001464843749,0.06720424804687596,0.8130011523998414,-0.10063149809396738,0.006486100880108434,0.075475897023448,0.12595784590392625
86,1790598360.0924194,-0.11060200195312489,0.9102511230468749,-0.009436376953124041,0.9169945229139252,-0.10058109533009205,0.018226213861932503,0.07613583683715096,0.1274575115889026
87,1790598360.1124194,0.00914897460937512,0.8910909667968749,-0.07649692382812405,0.8944152247130849,-0.10069927531902194,0.028847569477322782,0.07645210232460473,0.12968211235315755
88,1790598360.1229658,0.037889208984375124,0.8719308105468749,-0.019016455078124044,0.8729607987201546,-0.1007150400466091,0.035002840997234205,0.07651831072448043,0.13123936164731934
89,1790598360.1429658,0.08099956054687513,0.8767208496093749,0.07678432617187596,0.8837964752669248,-0.10056211847749914,0.04754759604051562,0.07671168482120137,0.13512289276810932
90,1790598360.167256,0.14806010742187511,0.8527706542968749,0.10073452148437596,0.8713707753065761,-0.09998695646369465,0.06364878806403126,0.07723471184717688,0.141469998229339
91,1790598360.187256,0.19596049804687513,0.8623507324218749,0.06720424804687596,0.8868854004091338,-0.09906838941579646,0.07749015277391103,0.0778526688610267,0.1479199364762865
92,1790598360.212975,0.26781108398437514,0.7665499511718749,-0.02380649414062404,0.8123351238926934,-0.09716976661913584,0.09576155037121002,0.07861184092282007,0.15745494469082222
93,1790598360.232975,0.37798198242187514,0.6659591308593749,-0.12439731445312405,0.7757877511624518,-0.09494610504806056,0.10998754433886943,0.07889134144790483,0.16533561784728065
94,1790598360.24203,0.44504252929687516,0.570158349609375,-0.12439731445312405,0.7339060487251728,-0.09353143509636286,0.11630165351908597,0.07882994186485022,0.168784962887321
95,1790598360.26203,0.4115122558593751,0.5222579589843749,-0.11002719726562404,0.6739448765167113,-0.08959065340714074,0.1297946053454559,0.07836303171265535,0.1761076077115912
96,1790598360.2870479,0.49294291992187517,0.4887276855468749,-0.13876743164062405,0.7078869069316401,-0.0837034851678586,0.14603815027663045,0.07739975710906567,0.18526774453748818
97,1790598360.3070478,0.5935337402343751,0.4216671386718749,-0.17229770507812406,0.7481791067702446,-0.07807337771201596,0.15844140437266538,0.07627860441467157,0.19239947094104892
98,1790598360.3323019,0.6941245605468751,0.3929269042968749,-0.22498813476562404,0.8287461121839623,-0.0695917128165901,0.17329665608167077,0.07432279557716176,0.20099406818172572
99,1790598360.3523018,0.7276548339843751,0.33544643554687487,-0.30162875976562403,0.8561458855006434,-0.06174953035403104,0.18438917254816717,0.07221629920426954,0.20743086877970152
100,1790598360.362703,0.7516050292968751,0.24443569335937487,-0.3734793457031241,0.8741543055543847,-0.057128904884092994,0.1897450206671235,0.07075846754784068,0.21041303517354074
101,1790598360.382703,0.7468149902343751,0.14384487304687488,-0.44053989257812404,0.8789194354964431,-0.04732924564210411,0.19908113311759335,0.0671547342118828,0.21536739164391663
102,1790598360.4072742,0.6941245605468751,0.05762416992187487,-0.43574985351562406,0.8215883308278333,-0.0344402761971485,0.20920188769553252,0.06177658089648948,0.2208345724454633
103,1790598360.4272742,0.6222739746093752,0.043254052734374875,-0.36868930664062405,0.724587894865241,-0.02354823030004275,0.21635541891548585,0.05684895761102661,0.2249355250417762
104,1790598360.452171,0.5695835449218751,0.02409389648437487,-0.33036899414062404,0.6589002980596208,-0.009797651978761559,0.2240504523815269,0.050329626107447074,0.22984270808702895
105,1790598360.472171,0.6749644042968752,0.01451381835937487,-0.33994907226562404,0.7558789385380856,0.0014582882135667115,0.22936265875834322,0.04487264365950166,0.23371544661447313
106,1790598360.496786,0.6270640136718751,0.01451381835937487,-0.22977817382812404,0.6679954620605129,0.015637296223516218,0.23497356225448,0.03811208296997368,0.23855739531620507
107,1790598360.516786,0.5121030761718751,-0.03338657226562513,-0.23456821289062404,0.564257450399236,0.02713854666737598,0.23882033245938877,0.03274649268948947,0.24257779101701193
108,1790598360.5276144,0.44504252929687516,-0.04775668945312513,-0.2537283691406241,0.5145110684691273,0.03320875395414032,0.24052472327588392,0.0298806857756039,0.24463813935800677
109,1790598360.5476143,0.40672221679687515,-0.057336767578125135,-0.16271762695312406,0.4418002859593102,0.04401641278365643,0.24304291715369455,0.024756800851191148,0.24823417041435775
110,1790598360.5722618,0.4115122558593751,-0.08128696289062513,-0.16750766601562406,0.4516732505168482,0.05685019302272708,0.24542451785836772,0.01877899434392958,0.2526218300964961
111,1790598360.5922618,0.43546245117187515,-0.08607700195312513,-0.23456821289062404,0.5020548208558078,0.0669724353337093,0.2468161221394461,0.014052837395853408,0.2561268972235367
112,1790598360.6170876,0.45941264648437513,-0.10523715820312514,-0.33515903320312407,0.578330715727688,0.07931859288077048,0.24792818632530264,0.008005483112423075,0.2604302450004659
113,1790598360.6370876,0.34445170898437516,-0.12918735351562513,-0.35910922851562405,0.5140970629518462,0.08897867299512305,0.24833805866457692,0.0028230317720002633,0.2638123672947302
114,1790598360.6476412,0.31571147460937515,-0.07170688476562513,-0.29683872070312406,0.43923665447169147,0.09383402516953389,0.24836288624925068,-2.0640470314638518e-05,0.26549754795779934
115,1790598360.6676412,0.33966166992187513,-0.04296665039062513,-0.22498813476562404,0.409677731693122,0.10263819908779837,0.24823086896614946,-0.005384033938157932,0.2686673631856379
116,1790598360.6930282,0.2821812011718751,-0.062126806640625136,-0.18666782226562406,0.34399250902825557,0.11332147446100702,0.247888327885841,-0.011954675274120977,0.2728246578609869
117,1790598360.7130282,0.3731919433593751,-0.13397739257812513,-0.19145786132812406,0.44031611482515526,0.12145839780075535,0.2473647953505735,-0.016921775883783307,0.2760938805446775
118,1790598360.7372057,0.38756206054687514,-0.21061801757812515,-0.09565708007812404,0.45134751253657285,0.13119895589644226,0.24620198062252838,-0.022546334977645355,0.2798873318171021
119,1790598360.7572057,0.4402524902343751,-0.27767856445312517,-0.17229770507812406,0.5482829009640052,0.13928956408133733,0.24465192546232092,-0.026903068163728297,0.28280721767842526
120,1790598360.7671342,0.47378276367187516,-0.41179965820312514,-0.18187778320312406,0.6535507582978183,0.143384100926757,0.24348445441414374,-0.029005167414462327,0.28405101597542065
121,1790598360.7871342,0.48336284179687516,-0.5028104003906252,-0.22019809570312404,0.7313994373269739,0.15183067621666227,0.24011354188583722,-0.03320759370149677,0.28602414498921996
122,1790598360.8130453,0.5456333496093752,-0.45011997070312515,-0.22498813476562404,0.7422556170330027,0.16313191609216163,0.23454955714683914,-0.038700544679984517,0.28831102816958964
123,1790598360.8330452,0.5360532714843751,-0.5267605957031252,-0.07170688476562405,0.7549647093589229,0.17216906401624443,0.2294337683285238,-0.04274945167976839,0.2900164758640055
124,1790598360.8580225,0.5887437011718751,-0.7135721191406251,-0.052546728515624044,0.9265880819231895,0.18386936012414978,0.2216796896278454,-0.047280260429446046,0.2918651219523128
125,1790598360.8780224,0.6558042480468752,-0.6513016113281251,-0.04296665039062404,0.9252670607563687,0.1936996344152446,0.21435480086011482,-0.050507288874365584,0.2932891325191193
126,1790598360.887472,0.7611851074218752,-0.5842410644531252,-0.03338657226562404,0.9601328305822169,0.19865174181574463,0.2105374580046486,-0.051857386741580566,0.2940709511481103
127,1790598360.907472,0.7324448730468751,-0.5698709472656251,-0.06691684570312405,0.9304333682907818,0.209801217530365,0.2019387440940738,-0.05443672004254904,0.2962417319226078
128,1790598360.9320774,0.6941245605468751,-0.38784946289062516,-0.07170688476562405,0.7983595610636409,0.22409322809379034,0.1911793754413914,-0.05738983797973491,0.30010151944799657
129,1790598360.9520774,0.6893345214843751,-0.27767856445312517,0.02888393554687596,0.743721553674167,0.236042785234813,0.1827474211936073,-0.05949438574004428,0.30438856474727655
130,1790598360.9774272,0.5504233886718751,-0.16750766601562514,0.06241420898437596,0.5787229548360577,0.2512739544966242,0.1728166821393462,-0.061588182506883804,0.3111226607923708
131,1790598360.9974272,0.3827720214843751,-0.04775668945312513,0.14863491210937596,0.41338536369411905,0.26288799113928524,0.16583408706752692,-0.06267573986071012,0.31707930977258103
132,1790598361.0072079,0.31571147460937515,0.14863491210937488,0.15821499023437596,0.38314234356522303,0.26822806007943933,0.1630055761966493,-0.06290272407998966,0.32011538979228144
133,1790598361.0272079,0.38756206054687514,0.4120870605468749,0.12947475585937596,0.580330775205269,0.2785646764586646,0.1589303530253504,-0.06286571680815321,0.3268168209151511
134,1790598361.0524776,0.2821812011718751,0.570158349609375,0.03367397460937596,0.6370562851821504,0.2909351615778628,0.15641528686224385,-0.06251676775075879,0.3361805414602956
135,1790598361.0724776,0.14806010742187511,0.5462081542968749,-0.03817661132812404,0.5672059563180508,0.29990265010360584,0.15639784798346756,-0.06228876951252455,0.343921178761079
136,1790598361.0973334,0.07620952148437513,0.5797384277343749,-0.09565708007812404,0.5924987871092017,0.30979375926449343,0.15847840312368025,-0.06229740922004335,0.3535089033269009
137,1790598361.1173334,0.15285014648437512,0.6180587402343749,-0.14355747070312405,0.6526626395428773,0.31690230240278167,0.16169807809526718,-0.06266213977070176,0.36124767333303365
138,1790598361.1273394,0.20075053710937513,0.6228487792968749,-0.13397739257812405,0.6679755397792217,0.32019059230417707,0.16399849004716857,-0.06302551766497264,0.36522559605644944
139,1790598361.1473393,0.24865092773437514,0.5462081542968749,-0.12439731445312405,0.6128991136612236,0.32645145671760867,0.16966044452072115,-0.06403045379198152,0.37343690101652316
140,1790598361.1722286,0.24865092773437514,0.5174679199218749,-0.13876743164062405,0.5906409502359049,0.33400246678528167,0.17763517805353166,-0.06558471611524705,0.38394434399881533
141,1790598361.1922286,0.29655131835937515,0.4887276855468749,-0.21540805664062404,0.6108993909854378,0.3399778031742446,0.18459141783077038,-0.06717757992405912,0.39264707490622264
142,1790598361.2172918,0.32529155273437516,0.3402364746093749,-0.25851840820312405,0.5370355857062301,0.347511579761862,0.1935593785088344,-0.06976514418060303,0.40385233244324775
143,1790598361.2372918,0.35882182617187514,0.22048549804687487,-0.26809848632812405,0.49924318338634244,0.3536477782971392,0.2004832722009874,-0.07231016853734723,0.41290320173233985
144,1790598361.2774305,0.34924174804687513,0.23485561523437487,-0.12439731445312405,0.43886404549598634,0.36624706023826514,0.21366548443984235,-0.07783328966022146,0.4311007647330446
145,1790598361.2974305,0.3013413574218751,0.3210763183593749,0.03367397460937596,0.4416226358216502,0.37255911760370924,0.22008245410331503,-0.08030858630670079,0.4400977752140688
146,1790598361.2929564,0.31571147460937515,0.34502651367187487,0.02888393554687596,0.46856302891849105,0.37255911760370924,0.22008245410331503,-0.08030858630670079,0.4400977752140688
147,1790598361.3129563,0.34924174804687513,0.31628627929687486,-0.06212680664062405,0.4752541942515176,0.37890374954354766,0.22655996322951388,-0.08206709113348554,0.44903504963847757
148,1790598361.337912,0.41630229492187515,0.32586635742187486,-0.16271762695312406,0.5531487230192953,0.38706584979526826,0.23463204635425935,-0.08435303426830601,0.4604211155500913
149,1790598361.357912,0.3827720214843751,0.3785567871093749,-0.15792758789062405,0.5610354574487768,0.39382452442725946,0.2411874242380502,-0.08639119774867282,0.46982184783106096
150,1790598361.3824477,0.2630210449218751,0.4168770996093749,-0.10523715820312404,0.504025243134894,0.40206061480047484,0.24948688877494749,-0.08900079506513933,0.4814743888999349
151,1790598361.4024477,0.34445170898437516,0.4599874511718749,-0.15792758789062405,0.5959669102180133,0.40867835085837684,0.25655262210616414,-0.09120364965366315,0.4910757050394765
152,1790598361.411996,0.41630229492187515,0.4887276855468749,-0.19624790039062406,0.6713237592882835,0.41190860382716254,0.26009927323416154,-0.09235119444205037,0.4958316982189166
153,1790598361.4319959,0.34924174804687513,0.4456173339843749,-0.15313754882812405,0.5865114796721929,0.4188081935282836,0.2678153924044119,-0.09491840787319136,0.5060977094675838
154,1790598361.4573734,0.26781108398437514,0.3977169433593749,-0.11481723632812404,0.4930360448263783,0.42742415840986375,0.2777427058038145,-0.09819726575448903,0.5191099351979909
155,1790598361.4773734,0.35882182617187514,0.3929269042968749,-0.14834750976562405,0.552405321038191,0.4341358020482964,0.2855788167229535,-0.10078846622642751,0.529327375170863
156,1790598361.5019398,0.4210923339843751,0.3881368652343749,-0.17708774414062406,0.599440613421539,0.4425802282850432,0.29519938758749675,-0.10409347822289973,0.5420843007405909
157,1790598361.5219398,0.38756206054687514,0.32586635742187486,-0.17229770507812406,0.5348642190780096,0.44963676085469273,0.302927836895599,-0.10690462779092594,0.5526002990600558
158,1790598361.5318873,0.3205015136718751,0.31628627929687486,-0.17708774414062406,0.48385772688078366,0.45314831838089165,0.30667428731969065,-0.10835376408549505,0.5577930217795533
159,1790598361.5518873,0.34924174804687513,0.31628627929687486,-0.13397739257812405,0.48985380550969543,0.4601540572931359,0.3140256937087835,-0.11129688293141385,0.5681028858427549
160,1790598361.592549,0.38756206054687514,0.34502651367187487,-0.11960727539062405,0.5324974612505461,0.4745078587637988,0.32874663293942696,-0.11715631183558767,0.5890311181088254
161,1790598361.612549,0.36361186523437516,0.34502651367187487,-0.14355747070312405,0.5214073561721854,0.48163568890205594,0.33593627561635536,-0.12000078208776219,0.5993549080476612
162,1790598361.6219573,0.31571147460937515,0.3402364746093749,-0.13397739257812405,0.48309888798948264,0.4849650971280514,0.33929459073105017,-0.12133397813622238,0.6041803530255949
163,1790598361.6419573,0.36840190429687514,0.3785567871093749,-0.13397739257812405,0.544954260354178,0.4920072599249575,0.34644100590629057,-0.12414489630105975,0.6144139237271792
164,1790598361.6525052,0.3923520996093751,0.4456173339843749,-0.11481723632812404,0.6047296719801792,0.4957659825286985,0.35029663437206415,-0.12560180835994464,0.6198931002586895
165,1790598361.6725051,0.35882182617187514,0.46477749023437487,-0.07649692382812405,0.5921342733882659,0.5029506653935253,0.3578763312724258,-0.12823688054993435,0.6304597828870443
166,1790598361.6973763,0.33008159179687513,0.4456173339843749,-0.06212680664062405,0.5580218684727888,0.511830076523204,0.3675864367105636,-0.13128079250958538,0.6436804037480579
167,1790598361.7173762,0.33487163085937516,0.3977169433593749,-0.11481723632812404,0.5324479072618936,0.518896789796051,0.3754885202245894,-0.13362679306597583,0.6542947555239887
168,1790598361.7425451,0.38756206054687514,0.35460659179687487,-0.17708774414062406,0.5543557114758991,0.5278196195752812,0.38536135015882084,-0.13668728025330407,0.6676678317755538
169,1790598361.762545,0.41630229492187515,0.32586635742187486,-0.16750766601562406,0.5545766870601602,0.5350522173762899,0.3930505255406561,-0.1392713367727431,0.6783554349996301
170,1790598361.7726083,0.3923520996093751,0.2923360839843749,-0.16271762695312406,0.5156331856935321,0.5387558144364433,0.39680565277264807,-0.14062573300985495,0.6837310512518513
171,1790598361.7926083,0.40672221679687515,0.2923360839843749,-0.17229770507812406,0.5296884431537769,0.5462110100489528,0.404026296762696,-0.14341627321095599,0.6943716176487882
172,1790598361.817237,0.35403178710937516,0.33544643554687487,-0.11960727539062405,0.5021640346852114,0.5554197239135268,0.41274388317972577,-0.1468763740137833,0.7074045886604738
173,1790598361.837237,0.3013413574218751,0.3881368652343749,-0.052546728515624044,0.4941841747006072,0.5627591219527962,0.41984659432767285,-0.14952294856383014,0.7178621763659438
174,1790598361.862379,0.31571147460937515,0.3881368652343749,-0.06212680664062405,0.5041663430430029,0.5717651478647162,0.4288999470211164,-0.15256716629832967,0.7308538082953248
175,1790598361.882379,0.34445170898437516,0.3737667480468749,-0.12918735351562405,0.524440591560344,0.5788448483896519,0.4361642582179676,-0.15491249599518445,0.7411467466497623
176,1790598361.9222734,0.3109214355468751,0.35460659179687487,-0.16271762695312406,0.4988937764189699,0.5928094857575588,0.45066032715134685,-0.15976243048677305,0.7616047866625717
177,1790598361.9422734,0.23428081054687513,0.3833468261718749,-0.13397739257812405,0.46882003908598363,0.5995779719384337,0.4579443961850205,-0.16227415179278212,0.7717121968526447
178,1790598361.9520564,0.23907084960937514,0.4120870605468749,-0.13876743164062405,0.49621267284023235,0.6027394783836423,0.46155659172754243,-0.1635185934498605,0.7765743342225208
179,1790598361.9720564,0.27739116210937514,0.3977169433593749,-0.14355747070312405,0.5057008713124709,0.6090079247192322,0.4690482136901678,-0.16610454836233765,0.7864398261300222
180,1790598361.982107,0.3109214355468751,0.3929269042968749,-0.11960727539062405,0.5151403609980717,0.6121289442318973,0.4728442257145564,-0.16740750521893882,0.7913967266559071
181,1790598362.002107,0.3205015136718751,0.4072970214843749,-0.09565708007812404,0.5270316508001005,0.6183551280765934,0.480465327270886,-0.16993428859974694,0.8013037236716436
182,1790598362.041964,0.28697124023437515,0.3833468261718749,-0.10044711914062404,0.4892820307362164,0.6307177604091558,0.4957384040148521,-0.17480069549063368,0.8210461263867842
183,1790598362.061964,0.26781108398437514,0.34502651367187487,-0.11481723632812404,0.45160720720498115,0.6368228779522376,0.5033452788015098,-0.17719922532408652,0.8308425922102192
184,1790598362.0571833,0.2917612792968751,0.34502651367187487,-0.09565708007812404,0.4618638502877122,0.6368228779522376,0.5033452788015098,-0.17719922532408652,0.8308425922102192
185,1790598362.0771832,0.3109214355468751,0.35460659179687487,-0.09086704101562404,0.48028615758864024,0.6428513026700153,0.5107705112630437,-0.17948030354106687,0.8404507670765969
186,1790598362.1021569,0.3013413574218751,0.3498165527343749,-0.11481723632812404,0.47577434989483014,0.6503965359359501,0.5199709071822597,-0.18228664632381036,0.8524164590746753
187,1790598362.1221569,0.26781108398437514,0.3833468261718749,-0.11960727539062405,0.4826836087617895,0.6563864349590384,0.5273335203080235,-0.18454860897132444,0.8619640263444521
188,1790598362.1470757,0.23907084960937514,0.4072970214843749,-0.10523715820312404,0.48386009786885836,0.6636773527231647,0.5366085360076935,-0.18736435393958442,0.873797316636499
189,1790598362.1670756,0.23907084960937514,0.4072970214843749,-0.10523715820312404,0.48386009786885836,0.6693685404811837,0.5441579838346152,-0.18960100950537265,0.883238754336742
190,1790598362.1772008,0.27739116210937514,0.3641866699218749,-0.15313754882812405,0.4827306663412429,0.6722097653476257,0.5479925148053164,-0.1907596928991869,0.8880039557042283
191,1790598362.1972008,0.23907084960937514,0.35460659179687487,-0.14355747070312405,0.4511202206434802,0.6777548292185249,0.5555088204930726,-0.1931501460876382,0.8973564715921497
192,1790598362.2225292,0.24386088867187514,0.4120870605468749,-0.11481723632812404,0.4924092568707748,0.6846412487367922,0.5650562414959615,-0.19621418468216825,0.9091326645742658
193,1790598362.2425292,0.2534409667968751,0.4264571777343749,-0.12439731445312405,0.5114418245854092,0.6900092468344191,0.5727221209877289,-0.19862953603209507,0.9184645236317027
194,1790598362.2675297,0.25823100585937514,0.4168770996093749,-0.12439731445312405,0.505909537772336,0.696672287702575,0.5824486001017775,-0.2016624086333747,0.9301969550955722
195,1790598362.2875297,0.2630210449218751,0.4264571777343749,-0.10523715820312404,0.5119772006443575,0.7019849248016024,0.5903274484223695,-0.2040691642135239,0.9396347986278407
196,1790598362.2970011,0.24386088867187514,0.4312472167968749,-0.07170688476562405,0.5005838314824781,0.7044835170210686,0.5941082408972751,-0.20516366228079919,0.9441153298071686
197,1790598362.317001,0.24386088867187514,0.4168770996093749,-0.12439731445312405,0.4987277223553056,0.7096997531424365,0.6021664661303754,-0.20742230264538852,0.9535733868859255
198,1790598362.342572,0.2630210449218751,0.4216671386718749,-0.15792758789062405,0.521463679391453,0.716340671376228,0.6125320199547059,-0.21041835638795575,0.965720103157507
199,1790598362.362572,0.2917612792968751,0.3689767089843749,-0.16750766601562406,0.4993268208737551,0.7215878485156186,0.6206091952102736,-0.2128983403738917,0.9752797032846016
200,1790598362.3875337,0.25823100585937514,0.3881368652343749,-0.18187778320312406,0.5004128361303241,0.7281840967604316,0.6305954716032263,-0.21618338449456662,0.9872375516119849
201,1790598362.4075336,0.22949077148437513,0.3881368652343749,-0.15313754882812405,0.47620095465207446,0.7334080037067848,0.6385609590971368,-0.21892316146613292,0.9967821973784208
202,1790598362.4175918,0.21991069335937513,0.3881368652343749,-0.10523715820312404,0.4583511739642845,0.7359800913050617,0.6425515768488875,-0.2202892486617339,1.0015321147044411
203,1790598362.4375918,0.19596049804687513,0.4120870605468749,-0.06212680664062405,0.4605171032310359,0.7409511565872356,0.6504967243696297,-0.22284921066883817,1.0108493337581543
204,1790598362.4627848,0.25823100585937514,0.45519741210937487,-0.08128696289062405,0.5296182650874103,0.7471318712917875,0.6606423244587329,-0.22586114486636164,1.022578882398101
205,1790598362.4827847,0.24386088867187514,0.4264571777343749,-0.12439731445312405,0.5067628136595604,0.7520556966969201,0.6688109608140932,-0.22820209592004692,1.031974839238662
206,1790598362.5072079,0.22470073242187513,0.3881368652343749,-0.17708774414062406,0.48218327887817675,0.7580248275074641,0.6787819918897876,-0.2311842054246234,1.0434523316708832
207,1790598362.5272079,0.22949077148437513,0.4025069824218749,-0.15792758789062405,0.48950894589558624,0.7628609934659598,0.6869084027112866,-0.23376245816283547,1.0528271158711546
208,1790598362.5372744,0.22949077148437513,0.4216671386718749,-0.11481723632812404,0.49361137323834847,0.7652765617321002,0.6910073428190688,-0.23507142355067837,1.0575433503816842
209,1790598362.5572743,0.2630210449218751,0.4312472167968749,-0.12439731445312405,0.5202200725750548,0.7700946595663725,0.6992088659529538,-0.2376407819572483,1.0669639001246085
210,1790598362.5823705,0.2630210449218751,0.4025069824218749,-0.11960727539062405,0.49547738727062723,0.776223711161776,0.7095258201909455,-0.2408404990006725,1.078867130487479
211,1790598362.6023705,0.22470073242187513,0.3977169433593749,-0.11481723632812404,0.4710118724024689,0.7811070718402797,0.7177147909893329,-0.24335960243700758,1.088332060991523
212,1790598362.6269603,0.22470073242187513,0.4216671386718749,-0.13397739257812405,0.49622931867100123,0.7870393097198938,0.7277839455831882,-0.24645106842896958,1.099926577378136
213,1790598362.6469603,0.23907084960937514,0.4408272949218749,-0.14834750976562405,0.5229632479770907,0.7918361808409619,0.7360389311098778,-0.2490118204607057,1.1093983649380987
214,1790598362.6726067,0.22470073242187513,0.4072970214843749,-0.13397739257812405,0.48407770510838777,0.7979567078869,0.7466680128849226,-0.2523460236971586,1.1215732454026288
215,1790598362.6926067,0.21512065429687513,0.4216671386718749,-0.13397739257812405,0.4919654596238181,0.8026734869259542,0.7549570424545016,-0.2549580627417095,1.1310386714531575
216,1790598362.7024913,0.21033061523437513,0.4168770996093749,-0.11960727539062405,0.482007659907977,0.8049703916763998,0.7590608786609809,-0.2562433628253983,1.1356986439990608
217,1790598362.7224913,0.20554057617187513,0.4264571777343749,-0.10044711914062404,0.48394449747660667,0.8095445205756487,0.7673838456188116,-0.25878396245541063,1.1450805371391553
218,1790598362.747583,0.23428081054687513,0.4408272949218749,-0.11960727539062405,0.5133440390858816,0.8152500418775234,0.7778915445605534,-0.26190736245156276,1.1568679061960538
219,1790598362.767583,0.24386088867187514,0.4360372558593749,-0.11960727539062405,0.5137144360903042,0.8198328336053439,0.7863259704074685,-0.26438233625367497,1.1663328969541955
220,1790598362.7920315,0.21033061523437513,0.4120870605468749,-0.12439731445312405,0.47909227192492254,0.8254274925007005,0.7966450725976678,-0.26740142049254406,1.1779123213344733
221,1790598362.8120315,0.18638041992187512,0.4120870605468749,-0.14834750976562405,0.47598360271555595,0.8299127191244987,0.8050565627468682,-0.2699098114660908,1.187317353074603
222,1790598362.822034,0.20075053710937513,0.4120870605468749,-0.12918735351562405,0.4762414260941998,0.8321098120839091,0.8092505757548334,-0.2711843323761239,1.1919874898052127
223,1790598362.8420339,0.22949077148437513,0.4025069824218749,-0.10044711914062404,0.4740965184838504,0.8364893411665177,0.8176005882890502,-0.2736949528482203,1.201288502846167
224,1790598362.866707,0.21991069335937513,0.4025069824218749,-0.11002719726562404,0.4716763382768879,0.8419133859988552,0.8278461916812154,-0.27671710309845143,1.212732378454681
225,1790598362.886707,0.19117045898437512,0.4312472167968749,-0.11002719726562404,0.48438238048206916,0.8462672032227322,0.8361560976696516,-0.27912946216404255,1.2219813646568236
226,1790598362.9122732,0.21512065429687513,0.4264571777343749,-0.11481723632812404,0.49124903878207454,0.8517769342855263,0.846829923671509,-0.282181765494605,1.233803636801252
227,1790598362.9322731,0.21033061523437513,0.4504073730468749,-0.11481723632812404,0.5101850322754341,0.8560787642008714,0.8552426983800759,-0.2845558226794201,1.2430940993621062
228,1790598362.9425876,0.16243022460937512,0.4599874511718749,-0.09565708007812404,0.49711398096545495,0.8582528987053062,0.8596348333669908,-0.2857593463833638,1.2478896140762619
229,1790598362.9625876,0.21033061523437513,0.4791476074218749,-0.14834750976562405,0.5439010765356508,0.8623953811632179,0.8682825166322757,-0.28810896373260186,1.2572378840633158
230,1790598362.9873927,0.22470073242187513,0.4360372558593749,-0.18187778320312406,0.5231619593120124,0.8675717779523401,0.8791016382430158,-0.2912003135494444,1.2689752175957707
231,1790598363.0073926,0.19117045898437512,0.4264571777343749,-0.16271762695312406,0.4948625010553143,0.8717431921596742,0.8878101894066451,-0.29383584155355835,1.2784688605016898
232,1790598363.03208,0.14806010742187511,0.4456173339843749,-0.11960727539062405,0.48456424144120225,0.8767479863956764,0.8985619823742619,-0.2971238038475644,1.2901097715427483
233,1790598363.05208,0.18638041992187512,0.47435756835937487,-0.14355747070312405,0.5294917477966505,0.8806960120327556,0.9073457655695207,-0.2997826834804168,1.299527399180971
234,1790598363.0622253,0.20075053710937513,0.4695675292968749,-0.17708774414062406,0.5405131930346282,0.8826928963346726,0.9118514052105025,-0.3011731230470504,1.3043484904234661
235,1790598363.0822253,0.16243022460937512,0.4408272949218749,-0.13876743164062405,0.48986598361074735,0.8865837069799951,0.9207667828548353,-0.3039767681526658,1.313866056136535
