imu_index,t_imu,ax,ay,az,mag,vx,vy,vz,velocity
0,1790994824.2416835,0.061146314971301005,-0.005181062659438823,0.15078847456951425,0.16279704944455115,0.0,0.0,0.0,0.0
1,1790994824.2616835,0.08988654934630101,0.03792928890306118,0.17952870894451425,0.20432518211263387,0.0003045105576606369,4.251644392776977e-05,0.0006877304244757055,0.0007533309129994529
2,1790994824.2720184,0.137786939971301,0.03792928890306118,0.17952870894451425,0.22946552926012853,0.0006147376111602826,0.00011999092276580477,0.0012681203207044515,0.001414365334665977
3,1790994824.2920184,0.147367018096301,0.03313924984056118,0.14599843550701425,0.21007329928643106,0.0015527604402993211,0.00035403135441841675,0.0027110935746132445,0.0031442696377981167
4,1790994824.3169477,0.061146314971301005,0.013979093590561178,0.15557851363201425,0.1677467162007354,0.0029364481476850395,0.0006900931639148421,0.0048037747538501405,0.005672319471314436
5,1790994824.3369477,0.04198615872130101,-0.019551179846938823,0.17473866988201425,0.18077247829720425,0.004034722450867295,0.0009109050849520708,0.006726308476002133,0.007896325667274764
6,1790994824.3618026,0.08509651028380101,-0.043501375159438825,0.10767812300701425,0.14397348324450926,0.005431764161611499,0.0010266189031753483,0.009283604634439988,0.010804782426699746
7,1790994824.3818026,0.109046705596301,-0.05787149234693883,0.05498769331951424,0.13514414543171707,0.006678512140214005,0.0009537044289148911,0.011276714808022396,0.01314063824196486
8,1790994824.3924084,0.118626783721301,-0.10577188297193883,0.08372792769451425,0.17963955833698672,0.007421580271706312,0.000790670599668605,0.012285443507901101,0.014374878639918667
9,1790994824.4124084,0.09467658840880101,-0.12972207828443882,0.11246816206951424,0.19606264679040245,0.008932593861352688,0.00017610418245577028,0.014196621710423418,0.01677397727922092
10,1790994824.4368198,0.061146314971301005,-0.10577188297193883,0.08851796675701425,0.15087078411937466,0.010785540704972204,-0.0008926566008017814,0.016547421664048732,0.019772250449389836
11,1790994824.4568198,0.109046705596301,-0.13930215640943883,0.07414784956951424,0.19181808667982647,0.012331211323219191,-0.002004546059985485,0.018428503477033387,0.022264022952007665
12,1790994824.481621,0.128206861846301,-0.12972207828443882,0.11246816206951424,0.2142753007189702,0.014401746057000793,-0.003676948322444894,0.02075838920956407,0.025531176256334415
13,1790994824.501621,0.137786939971301,-0.17283242984693883,0.15557851363201425,0.270297916265366,0.016219981410907917,-0.005277125358213268,0.022757475637480797,0.02844008696201592
14,1790994824.5121427,0.132996900908801,-0.18241250797193884,0.14120839644451424,0.26627487666392635,0.017246724707418018,-0.006273009652975436,0.02388560985099183,0.030121794787057163
15,1790994824.5321426,0.07072639309630101,-0.13930215640943883,0.14120839644451424,0.21058757011553023,0.019211233468061705,-0.008364645961438037,0.026131977529968802,0.03349505997981449
16,1790994824.557167,0.10425666653380102,-0.10098184390943883,0.14599843550701425,0.2058696881199033,0.021628978028830598,-0.011040154411336775,0.029060114994467787,0.037870674452529715
17,1790994824.577167,0.20484748684630102,-0.13930215640943883,0.14599843550701425,0.2875467384931727,0.023735094584549175,-0.013218149109187203,0.03148729889285825,0.04158754828525474
18,1790994824.6024175,0.142576979033801,-0.12972207828443882,0.11246816206951424,0.22317056262897564,0.026653208408292328,-0.01606492557135034,0.0345814975068101,0.046522632361920405
19,1790994824.6224174,0.037196119658801007,-0.12014200015943882,0.13162831831951424,0.18205401864173668,0.02888750278222207,-0.018356328072898435,0.03703082684242948,0.05042543736991047
20,1790994824.6324701,0.037196119658801007,-0.10098184390943883,0.20347890425701426,0.2301837279102441,0.02989816936384296,-0.0195020219445652,0.03832993116231262,0.0523776003091299
21,1790994824.65247,0.118626783721301,-0.03392129703443882,0.16994863081951425,0.21001310750995164,0.031841031195844735,-0.02164184740268468,0.0410869736770366,0.056305952017112235
22,1790994824.6764598,0.137786939971301,-0.08182168765943883,0.13162831831951424,0.20737898539079855,0.03428324599110073,-0.024031780454404995,0.04444055521247695,0.06105596101191315
23,1790994824.6964598,0.022826002471301003,-0.08182168765943883,0.16036855269451425,0.1814769617708865,0.03625481003455297,-0.025970841341529684,0.047255023561635565,0.06497640419751743
24,1790994824.722369,-0.020284349091198996,-0.009971101721938823,0.18431874800701425,0.18569943067892292,0.03843071979741792,-0.028284392349655654,0.05102394380308353,0.06985964440188008
25,1790994824.742369,0.10425666653380102,-0.00039102359693882275,0.12204824019451424,0.16051597537557247,0.03998437377982184,-0.029817942708605633,0.05395642311866861,0.07347894562185137
26,1790994824.7514172,0.137786939971301,-0.06266153140943882,0.08372792769451425,0.17297998214027194,0.040746086058016114,-0.030450457813284874,0.05522375080123527,0.07508086682133358
27,1790994824.7714171,0.04677619778380101,-0.09140176578443883,0.09809804488201425,0.14200535862176597,0.042454050806900685,-0.03186993460399307,0.057877570169354256,0.07853567527109082
28,1790994824.7961276,-0.010704270966198998,-0.10098184390943883,0.13162831831951424,0.16624658913761642,0.04431459607806594,-0.033717201147068714,0.06109034215498478,0.08265992368353083
29,1790994824.8161275,0.07072639309630101,-0.10098184390943883,0.15557851363201425,0.19850498579055792,0.045684625369299195,-0.03529100723960611,0.06373143731927505,0.0859897452601171
30,1790994824.8414478,0.147367018096301,-0.08182168765943883,0.13641835738201424,0.21684509407602753,0.04757309642590565,-0.03733174899294894,0.06712806370029857,0.09034952087627474
31,1790994824.8614478,0.09467658840880101,-0.05787149234693883,0.10288808394451425,0.15132324288411456,0.049204076486416386,-0.03891143774545723,0.06976750993165122,0.09382242041411401
32,1790994824.871502,0.013245924346301004,-0.07703164859693883,0.15557851363201425,0.17410917064100054,0.04998237437656386,-0.03968816382050791,0.07109024458913293,0.09553643792556432
33,1790994824.891502,0.04198615872130101,-0.12014200015943882,0.19868886519451426,0.23595381513924443,0.05138120658841016,-0.04129725047594057,0.07385818965037302,0.09899759323227977
34,1790994824.9160507,0.109046705596301,-0.08661172672193883,0.17952870894451425,0.22720768592291563,0.053118716672983374,-0.04335671489353523,0.0774424104597951,0.10343466404048192
35,1790994824.9360507,0.118626783721301,-0.07703164859693883,0.13641835738201424,0.19650994105243008,0.054663449572688025,-0.04502835558134464,0.08039839786120431,0.10714265212413925
36,1790994824.9611053,0.056356275908801004,-0.10577188297193883,0.13162831831951424,0.17801610951080185,0.056637131535980045,-0.04715186765509118,0.0840496955993646,0.11178289056171783
37,1790994824.9811053,0.013245924346301004,-0.09619180484693883,0.13162831831951424,0.16356751515849002,0.05808070744509296,-0.048895647575323574,0.08692204026084184,0.11541054549840812
38,1790994825.0063982,0.04677619778380101,-0.05787149234693883,0.09809804488201425,0.12312736785639801,0.05974633658432572,-0.05106237332412613,0.09044544480964749,0.11982223997052865
39,1790994825.0263982,0.07072639309630101,-0.07703164859693883,0.11725820113201424,0.1571164641235624,0.06104210202962404,-0.052721039351520636,0.09313664872226594,0.12320747357897727
40,1790994825.036436,0.056356275908801004,-0.11056192203443883,0.18431874800701425,0.22220119105245917,0.06169056319600554,-0.05356987311389303,0.09451178614645456,0.12493171980514842
41,1790994825.056436,0.008455885283801003,-0.08182168765943883,0.19868886519451426,0.21504314850665535,0.06288600212776521,-0.05529601603247288,0.09741520208868126,0.12846018936096662
42,1790994825.081891,0.037196119658801007,-0.06266153140943882,0.15078847456951425,0.1674729318404887,0.06426642930282586,-0.05743926031163833,0.10122342495810893,0.13294970598212386
43,1790994825.101891,0.09467658840880101,-0.07224160953443882,0.11725820113201424,0.167128669813326,0.06538614905527017,-0.05907296901737825,0.10416879578973366,0.13644083762968245
44,1790994825.1267643,0.065936354033801,-0.05787149234693883,0.11725820113201424,0.1464452052559197,0.06686944346958933,-0.06104271128726911,0.10771987876004868,0.14071711818863078
45,1790994825.1467643,0.018035963408801006,-0.038711336096938824,0.15078847456951425,0.15671958263565794,0.06800918065309033,-0.06253383397835889,0.110548986943736,0.14407223035486033
46,1790994825.1563096,-0.0011241928411989963,-0.038711336096938824,0.16515859175701425,0.16963841482139136,0.06848365265912168,-0.06319417463798246,0.11192287669866596,0.145637374043258
47,1790994825.1763096,-0.0011241928411989963,-0.05787149234693883,0.13641835738201424,0.14819022122533243,0.06932530268580399,-0.06451509869970408,0.11482210447907461,0.14883652518691246
48,1790994825.2016013,0.056356275908801004,-0.10098184390943883,0.11246816206951424,0.1613147547899872,0.07033475859659698,-0.06623628174123518,0.11841058400347505,0.15282437531293847
49,1790994825.2216012,0.04677619778380101,-0.08661172672193883,0.14120839644451424,0.17213197004419659,0.07116797014263425,-0.06767457727399294,0.12120312055937504,0.1559965538618303
50,1790994825.2467387,0.032406080596301005,-0.019551179846938823,0.15557851363201425,0.16011582244415493,0.0722074075551777,-0.06941131781884509,0.12474603780661901,0.15997941960026818
51,1790994825.2667387,-0.0011241928411989963,0.01876913265306118,0.19389882613201426,0.19480836461883638,0.07295728299272732,-0.07058701698772281,0.1276662639274455,0.16310722563423774
52,1790994825.2762125,0.037196119658801007,-0.024341218909438824,0.17473866988201425,0.18030432331978238,0.07328484089159135,-0.0710643560331039,0.12910398461653091,0.16458629787066437
53,1790994825.2962124,0.08030647122130101,-0.11535196109693883,0.16515859175701425,0.2168699257160555,0.07404887127628364,-0.07213044265599652,0.13219370575423842,0.16781302671747444
54,1790994825.3212082,0.056356275908801004,-0.13930215640943883,0.16515859175701425,0.22329012751527721,0.07511671772049575,-0.07374036697757341,0.1360952273455149,0.17205253241180504
55,1790994825.3412082,0.032406080596301005,-0.13451211734693883,0.08851796675701425,0.16425314064445307,0.07597611791763591,-0.07524601927173127,0.13912921934972863,0.17547442431004348
56,1790994825.3659134,0.008455885283801003,-0.17762246890943884,0.01666738081951424,0.17860303760238816,0.07695417566560771,-0.07740526059439141,0.14250971899696946,0.17950637740385172
57,1790994825.3859134,0.08988654934630101,-0.2590531329719388,0.050197654257014244,0.27876140684978035,0.07777470477611828,-0.07954607837301467,0.14493618686723903,0.18271010248793956
58,1790994825.3962748,0.109046705596301,-0.27342325015943886,0.15078847456951425,0.33073950745588054,0.07829062658123537,-0.08090260310256976,0.1461608972940316,0.18449298441146975
59,1790994825.4162748,0.08030647122130101,-0.07703164859693883,-0.007282814492985761,0.11151701032810715,0.07942112801609573,-0.08365393253546584,0.14838553568499746,0.1879467030956409
60,1790994825.441728,-0.049024583466199,-0.08182168765943883,-0.05997324418048577,0.11267203900260812,0.08070378486093897,-0.08693348231511422,0.15066368544065892,0.19175525377124564
61,1790994825.461728,-0.058604661591199,-0.22073282047193885,0.11725820113201424,0.25672352857973896,0.08139901280285539,-0.0895776869703426,0.15227116263858256,0.1945159845862076
62,1790994825.4867303,0.003665846221301004,-0.19678262515943884,0.24179921675701424,0.31177508113616775,0.08203473990167609,-0.09317032059055892,0.1546525549104357,0.19831243009455685
63,1790994825.5067303,0.07072639309630101,-0.08182168765943883,0.23221913863201424,0.25616935725969625,0.08257858341947354,-0.09603099621015154,0.1569827818121485,0.20170465651085429
64,1790994825.516275,0.109046705596301,0.009189054528061178,0.29448964644451425,0.31416520270001425,0.08292788138111842,-0.09724341261051632,0.15830507214127254,0.20345468948184378
65,1790994825.536275,0.142576979033801,0.11935995296556118,0.20826894331951426,0.2791969664480131,0.08392745397196237,-0.09921003393724835,0.16141435130373322,0.20722220240806927
66,1790994825.561419,0.08030647122130101,0.06666952327806118,0.08851796675701425,0.136855343676955,0.08541593779417621,-0.10096079941343862,0.1652966885956271,0.21168835751674886
67,1790994825.581419,-0.063394700653699,-0.08182168765943883,0.13641835738201424,0.1712414811697733,0.08644767275078341,-0.10216722419088832,0.16825894990441354,0.21499399072028436
68,1790994825.6062963,-0.049024583466199,-0.17283242984693883,0.21784902144451426,0.28236971285030515,0.08732876067041753,-0.10391789423516525,0.1720519007635,0.2191508561216116
69,1790994825.6262963,0.022826002471301003,-0.06745157047193882,0.18910878706951426,0.20207145789263176,0.0878915568919929,-0.10547464548379978,0.17525426116694923,0.22262947394719532
70,1790994825.6518884,0.08509651028380101,0.01876913265306118,0.07414784956951424,0.11441852996264448,0.08871083772464432,-0.10726131042519992,0.17924265241677792,0.22694168830195377
71,1790994825.6718884,0.022826002471301003,-0.05787149234693883,0.11725820113201424,0.13273892325914635,0.0894169426820168,-0.10850678673496722,0.1821791185021256,0.23012679901384422
72,1790994825.6814966,0.003665846221301004,-0.13930215640943883,0.18431874800701425,0.2310669385171994,0.0897243724800882,-0.10915746654675247,0.18359555217333706,0.23167464750741185
73,1790994825.7014966,-0.058604661591199,-0.09619180484693883,0.19389882613201426,0.22424121934939528,0.09018590224219629,-0.11066195994798118,0.18666898498361909,0.23499973680321898
74,1790994825.7265732,-0.063394700653699,-0.06745157047193882,0.12683827925701424,0.1570240475691012,0.0904483311933337,-0.11257315716763538,0.19054774502550087,0.2390858830308712
75,1790994825.7465732,-0.11129509127869901,-0.06745157047193882,0.15557851363201425,0.20283240768134592,0.09036420296993497,-0.11407115327301036,0.19360086443563834,0.24219663890659723
76,1790994825.7712016,-0.087344895966199,-0.048291414221938826,0.17473866988201425,0.20123318387143946,0.08990923139116092,-0.11585291017518964,0.19740672784495863,0.24591661774647
77,1790994825.7912016,-0.092134935028699,-0.03392129703443882,0.16036855269451425,0.18803609583953398,0.08932596351780696,-0.11720610347535018,0.20053642098060925,0.24885990956755413
78,1790994825.801288,-0.154405442841199,0.004399015465561177,0.12683827925701424,0.19987081127801867,0.08888943422348486,-0.11780850702987455,0.20209528453406975,0.250245239467379
79,1790994825.8212879,-0.12087516940369901,-0.00039102359693882275,0.11725820113201424,0.16840559732545174,0.08774076397840425,-0.11881781808027424,0.20508882055749147,0.25274006384927206
80,1790994825.8468516,-0.068184739716199,-0.019551179846938823,0.15557851363201425,0.17098561713641297,0.08613030029876324,-0.11995262792192564,0.20886427876357053,0.25579552091144514
81,1790994825.8668516,-0.044234544403699,-0.05787149234693883,0.18910878706951426,0.20265225854149146,0.08489070612708638,-0.12082341533851873,0.21189200547803838,0.25826914578850607
82,1790994825.8916316,-0.058604661591199,-0.06266153140943882,0.16994863081951425,0.19037728592514022,0.08339409750084702,-0.12196449821810967,0.21574797256868158,0.2614901565854299
83,1790994825.9116316,-0.077764817841199,-0.09140176578443883,0.19389882613201426,0.2280315865352021,0.08216281682514226,-0.12297841631072877,0.21893907355604206,0.2642134312946917
84,1790994825.921317,-0.029864427216199,-0.08661172672193883,0.19389882613201426,0.2144533282420223,0.0815777954429509,-0.12352509176479533,0.22053434343106518,0.26561020619961884
85,1790994825.941317,0.027616041533801004,-0.10098184390943883,0.18431874800701425,0.21197494997338745,0.08054759542286892,-0.12476600466079778,0.22390168124969706,0.26867533179260306
86,1790994825.9668405,0.09946662747130101,-0.13930215640943883,0.16036855269451425,0.23455654638949544,0.07967335835886102,-0.12657204594121846,0.22821420938062117,0.27285536866469645
87,1790994825.9868405,0.027616041533801004,-0.13930215640943883,0.17952870894451425,0.2289067361734916,0.0792816929145235,-0.12819287338749877,0.23159643225009152,0.2763257263623988
88,1790994826.0121686,-0.010704270966198998,-0.15367227359693883,0.18431874800701425,0.2402147996195144,0.07889221131079897,-0.13049414725157443,0.23592838758813578,0.28091797297852084
89,1790994826.0321686,0.04198615872130101,-0.18241250797193884,0.16515859175701425,0.24962876641113105,0.07867771830105874,-0.1325428638151125,0.23936016418624123,0.2846947177322343
90,1790994826.0412264,0.08988654934630101,-0.19199258609693884,0.15078847456951425,0.26014978172694386,0.07868473345934954,-0.13358587323105905,0.2408958773130134,0.286473901975171
91,1790994826.0612264,0.04198615872130101,-0.18720254703443884,0.16994863081951425,0.2563009330021627,0.07889570867570579,-0.13611222914515503,0.2442592732298053,0.2905402972550584
92,1790994826.0865264,-0.034654466278698996,-0.13451211734693883,0.15078847456951425,0.20501611109671156,0.07913647212669807,-0.1394391529191469,0.24848437112773344,0.2957200386889838
93,1790994826.1065264,-0.058604661591199,-0.12493203922193882,0.11246816206951424,0.17802137024432077,0.07915836106106833,-0.14206379673669894,0.25171824867535814,0.2996835751009888
94,1790994826.131199,-0.034654466278698996,-0.15367227359693883,0.12204824019451424,0.19927837976080534,0.07900874317172568,-0.14533149261576864,0.2555431944930014,0.30441082190879953
95,1790994826.1511989,-0.029864427216199,-0.13930215640943883,0.15557851363201425,0.2109541388482773,0.07880887440422375,-0.14802247915993566,0.25859511888248177,0.3082092284980435
96,1790994826.1615493,-0.092134935028699,-0.08661172672193883,0.15557851363201425,0.20048718503297225,0.07862624682302746,-0.14938160480781879,0.26017919232984643,0.31014538956084164
97,1790994826.1815493,-0.106505052216199,-0.05308145328443883,0.12683827925701424,0.1739221547567867,0.07802833290327778,-0.1518234220824523,0.2632045573179941,0.3137123064552177
98,1790994826.206634,-0.020284349091198996,-0.10098184390943883,0.12683827925701424,0.16339136054970663,0.07715235967187334,-0.1547164966374708,0.2669071612920688,0.3180080402815329
99,1790994826.226634,0.003665846221301004,-0.11535196109693883,0.14599843550701425,0.18610496105134788,0.076533782801823,-0.15700164053302637,0.2698256794815067,0.32142313598693395
100,1790994826.251092,-0.044234544403699,-0.07703164859693883,0.15078847456951425,0.17500781087473247,0.07581637799959363,-0.15972986113322002,0.27340378093437934,0.32559388682809925
101,1790994826.271092,-0.058604661591199,-0.10098184390943883,0.15557851363201425,0.19451609975402054,0.07516347250824892,-0.1618931864503019,0.2763503633197631,0.328980964077704
102,1790994826.2961671,0.003665846221301004,-0.13451211734693883,0.16515859175701425,0.21303593258611317,0.07436435302904196,-0.16464151484464562,0.2800937179910743,0.3333007294768961
103,1790994826.316167,0.04677619778380101,-0.10098184390943883,0.16515859175701425,0.19915497962546563,0.07389824488260052,-0.16685801250550164,0.28312703848663817,0.33684338624385846
104,1790994826.326229,0.027616041533801004,-0.11056192203443883,0.16036855269451425,0.19673499192385463,0.07375506093336054,-0.16796550461054707,0.2846698496184884,0.3386578554148305
105,1790994826.346229,-0.025074388153698998,-0.12493203922193882,0.16515859175701425,0.20860033508265158,0.07351696028866472,-0.17018988281987832,0.28776476064089623,0.3423125722655265
106,1790994826.3711638,-0.020284349091198996,-0.11056192203443883,0.15078847456951425,0.188075935422382,0.07317981248534701,-0.1729875192607877,0.2916353816374989,0.34688782422887315
107,1790994826.3911638,0.04677619778380101,-0.11535196109693883,0.11725820113201424,0.17100752422257584,0.07298969016986231,-0.17523375753281079,0.29467635660669234,0.35052606150349924
108,1790994826.4159973,0.07072639309630101,-0.12972207828443882,0.12204824019451424,0.19163980069240422,0.07300788037224977,-0.17806093973407205,0.2983315793950022,0.35501771803636234
109,1790994826.4359972,0.018035963408801006,-0.15367227359693883,0.16994863081951425,0.22983254940491693,0.0731534760675908,-0.18042140711024915,0.30127179412077093,0.35870323268289905
110,1790994826.4467592,-0.034654466278698996,-0.12493203922193882,0.17952870894451425,0.22144864820652588,0.073206655676223,-0.1817259231019971,0.3028986825589312,0.36073693664290357
111,1790994826.4667592,0.008455885283801003,-0.10098184390943883,0.15557851363201425,0.1856704303308147,0.07325136216113982,-0.1841254514428891,0.30597123123604664,0.364535784624243
112,1790994826.4912307,0.04677619778380101,-0.09140176578443883,0.15078847456951425,0.18242658668797082,0.07339922970540382,-0.18697415243051801,0.30972910173318596,0.36915971754635346
113,1790994826.5112307,0.061146314971301005,-0.09619180484693883,0.14599843550701425,0.18522224036215768,0.07366383459425706,-0.1892344906128386,0.3127848156303943,0.3729214312071248
114,1790994826.5365777,0.022826002471301003,-0.08182168765943883,0.12683827925701424,0.1526557042666239,0.07410851319762465,-0.19200784407791135,0.31659524749998325,0.37761307532365146
115,1790994826.5565777,0.013245924346301004,-0.13451211734693883,0.12683827925701424,0.18535617958359227,0.07446086267108068,-0.19419240579917238,0.31953138174517254,0.3812550517170509
116,1790994826.5670502,-0.049024583466199,-0.11056192203443883,0.14599843550701425,0.18958610592150324,0.07458958550771277,-0.19535720854260863,0.3210525027202126,0.3831484760490178
117,1790994826.5870502,-0.0011241928411989963,-0.14409219547193883,0.20826894331951426,0.2532583213971353,0.07472331716268871,-0.19763000430041086,0.3240531267533906,0.3868483187067319
118,1790994826.6111522,0.051566236846301,-0.11056192203443883,0.15078847456951425,0.1939592210992795,0.07495148460939566,-0.20041843310643861,0.32777581980993253,0.3914361524259938
119,1790994826.6311522,-0.0059142319036989965,-0.043501375159438825,0.06456777144451424,0.07807909380291245,0.07518089721699622,-0.20261630645703008,0.3307246025060732,0.395075053187925
120,1790994826.6561446,-0.039444505341199,-0.014761140784438824,0.12204824019451424,0.12911054648419604,0.07533955288563933,-0.20506005466387617,0.3342065424929595,0.3992739501806476
121,1790994826.6761446,0.032406080596301005,-0.05308145328443883,0.20826894331951426,0.21735626858645934,0.07543691353274795,-0.20682406659071723,0.33707044848159656,0.4025958391290866
122,1790994826.6866455,0.065936354033801,-0.06745157047193882,0.16515859175701425,0.19019641840361182,0.07555781588332168,-0.20770625369301285,0.338642677865086,0.4043880990284958
123,1790994826.7066455,-0.025074388153698998,-0.09140176578443883,0.15078847456951425,0.1781015771766124,0.0758148383257997,-0.20937271154602766,0.34166188974255923,0.4078206333094979
124,1790994826.7316952,-0.082554856903699,-0.10098184390943883,0.13641835738201424,0.1887395174004306,0.07588626176636021,-0.2115082799037557,0.34541576409814767,0.41207587563484616
125,1790994826.7516952,-0.0059142319036989965,-0.13930215640943883,0.12683827925701424,0.18848877421271226,0.07580202981781749,-0.21331801022774197,0.3483582176195024,0.41545633825356537
126,1790994826.7768686,0.027616041533801004,-0.13930215640943883,0.09330800581951425,0.16992386671780657,0.07575288561417191,-0.21578019619789549,0.3519219028209436,0.4197006295387103
127,1790994826.7968686,-0.044234544403699,-0.10577188297193883,0.05977773238201424,0.12929719035914145,0.0756947700817083,-0.21781055722554582,0.3545581401242228,0.42294516404017846
128,1790994826.8064597,-0.101715013153699,-0.08661172672193883,0.08851796675701425,0.16025905760801432,0.07556609460907664,-0.21877656537484835,0.35573940304824353,0.42441011191158473
129,1790994826.8264596,-0.039444505341199,-0.13930215640943883,0.16515859175701425,0.21963223855593633,0.0751262815526391,-0.22082766058728415,0.35821367581083097,0.42746444460128646
130,1790994826.852055,0.04198615872130101,-0.15846231265943883,0.16994863081951425,0.2361264050778218,0.07465272908065128,-0.22363046127736677,0.36154849713882037,0.43162591320917765
131,1790994826.872055,0.003665846221301004,-0.12493203922193882,0.17473866988201425,0.2148372770373099,0.07440668269445248,-0.22591711802677547,0.3642804509690795,0.4350576348087146
132,1790994826.8961127,-0.082554856903699,-0.06745157047193882,0.16036855269451425,0.192569705433784,0.07401277136173251,-0.22860223245395886,0.36767837880120613,0.439231443825987
133,1790994826.9161127,-0.063394700653699,-0.08182168765943883,0.16036855269451425,0.19087102801563172,0.07351549532745413,-0.23072354049750038,0.3705605819441503,0.44266581648432035
134,1790994826.9269843,-0.0011241928411989963,-0.13451211734693883,0.18910878706951426,0.23207090914115827,0.07323312416024923,-0.2318800742493318,0.3721772455945249,0.44457548453156237
135,1790994826.9469843,-0.0059142319036989965,-0.12493203922193882,0.18431874800701425,0.22274737580953904,0.07278102308767907,-0.23407771051284137,0.375265361316982,0.4482338042640112
136,1790994826.9713192,-0.049024583466199,-0.11535196109693883,0.18431874800701425,0.22289658045788235,0.07221317471103693,-0.23678912854869238,0.37913200426474414,0.45279676529155755
137,1790994826.9913192,-0.049024583466199,-0.14409219547193883,0.20826894331951426,0.25795721221044543,0.07166941115317225,-0.23907244842103043,0.38242206120878675,0.45666045700087254
138,1790994827.016356,-0.044234544403699,-0.10098184390943883,0.19868886519451426,0.22722520298205687,0.0709156927588984,-0.2419622408081857,0.3866870668090608,0.46162934167336894
139,1790994827.036356,0.003665846221301004,-0.11535196109693883,0.16994863081951425,0.20543137655882918,0.07034306532446447,-0.24424890891620873,0.39013595937883366,0.46563047918541933
140,1790994827.0611753,-0.010704270966198998,-0.12493203922193882,0.14599843550701425,0.19245295272238788,0.06972594223465606,-0.24710821962843746,0.39436205606235164,0.4705800787221789
141,1790994827.0811753,-0.068184739716199,-0.12014200015943882,0.13162831831951424,0.19081214090329726,0.06918491152711409,-0.24943430985321183,0.3976731528029994,0.474497590484125
142,1790994827.0914276,-0.092134935028699,-0.14409219547193883,0.17952870894451425,0.24795556937473723,0.06882590070438437,-0.2506510094289189,0.3993551197123364,0.47649495776551537
143,1790994827.1114275,-0.039444505341199,-0.15367227359693883,0.20826894331951426,0.26181479985954065,0.06803322965549487,-0.2531151541721047,0.40272580786251644,0.48050377514379855
144,1790994827.1370149,0.013245924346301004,-0.09619180484693883,0.11725820113201424,0.15224258131093088,0.06712095353031891,-0.25627431973095627,0.40701600619774486,0.4856374971700047
145,1790994827.1570148,-0.053814622528699,-0.09140176578443883,0.11246816206951424,0.1545942556038687,0.06645399254934391,-0.2586546307916978,0.41021096431578197,0.4894807313885006
146,1790994827.181206,-0.144825364716199,-0.10577188297193883,0.20347890425701426,0.27123005358965063,0.06540787404123562,-0.2614596260268847,0.41406901296988574,0.49405715613739265
147,1790994827.201206,-0.044234544403699,-0.12493203922193882,0.19389882613201426,0.2348647783685923,0.06438913939704972,-0.2637768524839508,0.417376268362693,0.49792282391049253
148,1790994827.2115684,0.051566236846301,-0.12493203922193882,0.13162831831951424,0.18866135107717277,0.06394618480752218,-0.26499155242917316,0.4190857826338045,0.4999425273129397
149,1790994827.2315683,0.022826002471301003,-0.13930215640943883,0.13641835738201424,0.19630610128049142,0.06333108517860478,-0.26738067585605796,0.42229239099857213,0.5038195268808395
150,1790994827.2563844,-0.077764817841199,-0.17762246890943884,0.16994863081951425,0.2578364704086429,0.06258009806390295,-0.27049030360677506,0.4262445559414822,0.5086901753412625
151,1790994827.2763844,-0.058604661591199,-0.20157266422193884,0.16994863081951425,0.270089952495788,0.061861087635145036,-0.2731893159518753,0.4294617934286931,0.5127344620060622
152,1790994827.3014767,0.051566236846301,-0.21115274234693884,0.15078847456951425,0.264540585631246,0.061081070085766305,-0.27684433332193753,0.4334963445115553,0.5179698473079021
153,1790994827.3214767,0.008455885283801003,-0.16325235172193883,0.13162831831951424,0.2098781706664602,0.060642644165330044,-0.27988220123831314,0.4366533628007738,0.522185538009806
154,1790994827.3310177,-0.063394700653699,-0.12972207828443882,0.14599843550701425,0.20533448038725005,0.060425551940923285,-0.2813236854892514,0.4381321794027351,0.5241698865566495
155,1790994827.3510177,-0.044234544403699,-0.18241250797193884,0.17473866988201425,0.256446136128722,0.059877298576992255,-0.2843602885337256,0.4412482040895137,0.5283427317490826
156,1790994827.376683,0.018035963408801006,-0.18241250797193884,0.16036855269451425,0.24355223615074745,0.05922884764789295,-0.28837479127132526,0.445292134346054,0.5338100425665875
157,1790994827.396683,-0.010704270966198998,-0.14409219547193883,0.13641835738201424,0.19871363929949096,0.05881032896171588,-0.29152364501078,0.44841590342412585,0.5380720331299811
158,1790994827.4220557,-0.092134935028699,-0.10577188297193883,0.16036855269451425,0.21306010929666142,0.05816332395978112,-0.29539466852883095,0.45234916915562995,0.5433790143951982
159,1790994827.4420557,-0.072974778778699,-0.11056192203443883,0.17473866988201425,0.21927804197840908,0.0574821600119007,-0.2983127921498261,0.455487155618501,0.5475064105682158
160,1790994827.4513748,0.013245924346301004,-0.12014200015943882,0.16036855269451425,0.20081739816916191,0.05717063143494773,-0.2996297922057148,0.45696420531236004,0.5494204022537452
161,1790994827.4713748,-0.0059142319036989965,-0.10098184390943883,0.16994863081951425,0.1977747406920018,0.056613333794005044,-0.30236396919194314,0.46015413713584946,0.5535077861710853
162,1790994827.496223,-0.087344895966199,-0.05308145328443883,0.22263906050701426,0.24497943341754252,0.055851000087953545,-0.30553851302649865,0.46425449912742706,0.5585743971158422
163,1790994827.516223,-0.092134935028699,-0.06745157047193882,0.27532949019451425,0.29806859744468994,0.05506022777799096,-0.3078911857788506,0.467806725812681,0.5627359448967623
164,1790994827.54218,-0.010704270966198998,-0.08182168765943883,0.2896996073820143,0.30122289505555483,0.05398765944088019,-0.3107772055402013,0.47282545365753387,0.5683845955704058
165,1790994827.56218,0.018035963408801006,-0.05308145328443883,0.2896996073820143,0.2950742265535316,0.05329620411251032,-0.31286968934482184,0.47698144684331023,0.5729216600166774
166,1790994827.5717406,-0.130455247528699,0.05229940609056118,0.37113027144451427,0.3968519596369387,0.05293463879340422,-0.313720479113965,0.4791439758355268,0.5751535139240304
167,1790994827.5917406,-0.317266770966199,0.2630611248405612,0.5531517558195143,0.6898088317265236,0.05162014548082778,-0.31476025542675484,0.484375659922928,0.5799641693600992
168,1790994827.6172166,-0.192725755341199,0.6079439373405612,0.49088124800701427,0.8048002530851389,0.0492224620495942,-0.3142218245822111,0.4920349941390504,0.5858810811687069
169,1790994827.6372166,0.008455885283801003,0.6558443279655612,0.4477708964445143,0.7941675265479289,0.04734609623884749,-0.3119668519829106,0.4985540035765252,0.5900178506175616
170,1790994827.6612782,-0.068184739716199,0.5552535076530613,0.5435716776945143,0.7800165288523205,0.045319494346435965,-0.3074752879344427,0.507009491019748,0.5946877611337642
171,1790994827.6812782,-0.240626145966199,0.6031538982780612,0.6729027323820143,0.9351436544070376,0.04342444994463047,-0.30256431251186866,0.5148081457898771,0.5987138490384073
172,1790994827.7060964,-0.38911735690369903,0.7420650310905612,0.5771019511320142,1.0174082218124316,0.040253425207756835,-0.29488040298006923,0.5253606753324781,0.6038034692583689
173,1790994827.7260964,-0.508868333466199,0.8234956951530612,0.42382070113201425,1.0567479015585137,0.036734356176044244,-0.2872687318882001,0.5340903404020173,0.6075567701499719
174,1790994827.7363787,-0.460967942841199,0.9432466717155612,0.3998705058195143,1.1234331975930232,0.03444862327173632,-0.28257999245147314,0.5385403865461019,0.6091501520318431
175,1790994827.7563787,-0.42743766940369904,1.1875386639030612,0.5723119120695143,1.385818156969592,0.029336948675796747,-0.2716317907627686,0.5473560470822679,0.6117541406383129
176,1790994827.7814438,-0.183145677216199,1.4845210857780613,0.47651113081951424,1.5698433205251874,0.022743799550223858,-0.25494581036751196,0.5587187880867599,0.6145578335706623
177,1790994827.8014438,-0.159195481903699,1.4174605389030615,0.4381908183195143,1.4921624489530065,0.01775861038118977,-0.23927589342992614,0.5677974025437399,0.6164107492206622
178,1790994827.8266995,-0.23104606784119902,0.7564351482780612,0.7495433573820143,1.0896750266069395,0.011668484528410577,-0.21833857395094208,0.5797918691636716,0.6196503029567765
179,1790994827.8466995,-0.154405442841199,0.4738228435905612,0.7687035136320143,0.9161081921680629,0.006990951137736176,-0.20239995937779096,0.5901428958733034,0.623925680272635
180,1790994827.8562646,0.061146314971301005,0.7420650310905612,0.3998705058195143,0.8451602236418603,0.0050225481043371665,-0.19504837121007446,0.5951890880751421,0.6263538486070656
181,1790994827.8762646,0.09467658840880101,0.6127339764030612,0.16994863081951425,0.6428756639886628,0.001757859087101508,-0.17995027004600975,0.6050123632165677,0.6312092754412739
182,1790994827.90173,0.152157057158801,0.1816304607780612,0.13162831831951424,0.27104871980752987,-0.001304032098926224,-0.1620926664594352,0.6162199249074911,0.6371834342421645
183,1790994827.92173,0.08030647122130101,-0.08661172672193883,0.13641835738201424,0.1804458055943125,-0.0029993623558854945,-0.15002894671172906,0.6241038210707339,0.6418903804397317
184,1790994827.9464855,0.25753791653380104,-0.33569375797193884,0.11246816206951424,0.4377958029414949,-0.004155771816718288,-0.13812067888857152,0.632860635570439,0.6477709289792593
185,1790994827.9664855,0.439559400908801,-0.37401407047193885,-0.09829355668048577,0.5854576117219695,-0.003904251764822147,-0.13100764107776322,0.6388953424458594,0.6522005088940173
186,1790994827.9768074,0.516200025908801,-0.5177152423469389,-0.20846445511798578,0.7602295495139841,-0.0030540243243399935,-0.1285776213656798,0.641305169915695,0.6540748066859234
187,1790994827.9968073,0.6215808852838011,-0.8673880939094388,-0.21804453324298578,1.0891594561326614,5.296075938656221e-05,-0.12665305835990856,0.6446343666687254,0.656958496928953
188,1790994828.0218842,0.592840650908801,-1.188320711096939,-0.24199472855548576,1.3498620664499572,0.005648326976421517,-0.12846822611682251,0.6473172917360227,0.6599664119481344
189,1790994828.0418842,0.463509596221301,-1.183530672034439,-0.26115488480548577,1.2976085200449674,0.011026033540976173,-0.1332565292536646,0.6483813631903917,0.6620251265148553
190,1790994828.066893,0.6024207290338011,-0.9919291095344389,-0.14619394730548577,1.169703707500391,0.018741222402413008,-0.14242636275573095,0.6487482919560121,0.6644628270571702
191,1790994828.086893,0.885033033721301,-0.9104984454719389,-0.12703379105548576,1.276098928004673,0.026216853780215252,-0.15151325895944764,0.6485878730994759,0.6665656908320047
192,1790994828.0964546,1.043104322783801,-1.1595804767219389,-0.17493418168048577,1.5694889225875894,0.03063739156794187,-0.1566903481213511,0.648306138481144,0.6676760922399497
193,1790994828.1164546,0.8754529555963011,-1.3320218829719388,-0.24678476761798576,1.612948509936592,0.041374741196510724,-0.16963237871252776,0.6471726492385577,0.6703129500757105
194,1790994828.1420352,0.7796521743463011,-1.4900931720344388,-0.21325449418048578,1.6952028355317086,0.05622355534513854,-0.1891170394155332,0.6450577366157755,0.6745560216474324
195,1790994828.1620352,0.8754529555963011,-1.7679154376594388,-0.19888437699298578,1.9828005112942533,0.06857420280722352,-0.2069528580352058,0.6430340334214006,0.6789879784486478
196,1790994828.2022688,0.9808338149713011,-1.8206058673469387,-0.24199472855548576,2.082114825233685,0.09529433132679778,-0.24827929997747927,0.6382432804108996,0.6914319238869397
197,1790994828.2222688,0.832342604033801,-1.6290043048469387,-0.28989511918048577,1.8521577729298049,0.10930419952824226,-0.27091544955425195,0.6354212005187403,0.6993587712400334
198,1790994828.21665,0.8754529555963011,-1.6433744220344388,-0.39048593949298577,1.9025184985699994,0.10930419952824226,-0.27091544955425195,0.6354212005187403,0.6993587712400334
199,1790994828.23665,1.047894361846301,-2.1654886798469386,-0.25157480668048576,2.418824859201432,0.12448878479053979,-0.2971556357254447,0.6315516725733605,0.7089826828013698
200,1790994828.2617562,1.138905104033801,-2.3187699298469386,-0.22283457230548578,2.5929624120243604,0.1448086177950278,-0.3335979851853819,0.6265295354964128,0.724428333485655
201,1790994828.2817562,1.091004713408801,-2.0361576251594387,-0.3856959004304858,2.3420056547293027,0.16191250884328173,-0.36480632907159816,0.6222161353359255,0.7392240778836926
202,1790994828.306394,1.081424635283801,-1.9499369220344387,-0.4192261738679858,2.268806696606794,0.18383653479554948,-0.40485068854627637,0.6162121449838872,0.7598798320574593
203,1790994828.326394,1.158065260283801,-2.2421293048469386,-0.2563648457429858,2.536529499308539,0.2023231724956991,-0.4387690760484321,0.6110560531389616,0.7790009424274689
204,1790994828.3359344,1.277816236846301,-2.333140047034439,-0.3377955098054858,2.6815037983692385,0.21156176945064664,-0.4557954747000553,0.6085403077365282,0.7891952883730401
205,1790994828.3559344,1.114954908721301,-2.1654886798469386,-0.5293970723054858,2.492534238720219,0.23161326443143748,-0.49288290918576466,0.6027566900150678,0.8123385339782486
206,1790994828.3817618,0.966463697783801,-2.0792679767219386,-0.4383863301179858,2.334435686111228,0.25765492985474514,-0.541814850193508,0.5945335599325108,0.8446416687890146
207,1790994828.4017618,1.009574049346301,-2.213389070471939,-0.3042652363679858,2.4517153734600163,0.2777599949647418,-0.5804615606153067,0.5880069971800699,0.87168713819093
208,1790994828.4260004,1.1101648696588011,-2.246919343909439,-0.4862867207429858,2.552956590040248,0.3023245055667141,-0.6283814857084519,0.5798465782711345,0.9069098370731582
209,1790994828.4460003,1.0239441665338012,-2.203808992346939,-0.6204078144929858,2.5080154678972364,0.32275424015437537,-0.6686667079306604,0.5724631436787243,0.9375497409220394
210,1790994828.47121,0.813182447783801,-2.261289461096939,-0.34258554886798576,2.4273567060786343,0.3481163998297476,-0.7202710430779923,0.5627316892261919,0.9780809564583328
211,1790994828.49121,0.7604920180963011,-2.2564994220344388,-0.21325449418048578,2.390735290766863,0.36757972671642253,-0.7618467880943587,0.5553355830963902,1.0118908013593257
212,1790994828.5014038,1.033524244658801,-2.1894388751594387,-0.3665357441804858,2.4487064756966923,0.3773835704207341,-0.7832580629871577,0.551688038114888,1.0296947333345692
213,1790994828.5214038,1.129325025908801,-2.1798587970344387,-0.2994751973054858,2.4732255827064185,0.3969774634618335,-0.8255190449423941,0.5446061041276905,1.065677535050981
214,1790994828.5466902,1.0239441665338012,-2.117588289221939,-0.08392343949298577,2.3536535349377212,0.42211815959670634,-0.8790858811390304,0.5362682209636637,1.1129058054906664
215,1790994828.5666902,1.033524244658801,-1.8541361407844388,-0.05997324418048577,2.1235795212042543,0.44210636259458685,-0.9210562613746626,0.5304468460425188,1.1511631200401369
216,1790994828.5910392,1.043104322783801,-1.6769046954719389,-0.14619394730548577,1.9802647944491787,0.4665830856664704,-0.9709368620033604,0.5240462017381823,1.1979326305695128
217,1790994828.6110392,0.9568836196588011,-1.7583353595344389,-0.15098398636798577,2.007527250699228,0.4866722402835417,-1.0109153896646754,0.5191316289638026,1.2362432781269612
218,1790994828.6210656,1.047894361846301,-1.8158158282844388,-0.04081308793048576,2.096887079454683,0.4967402872910614,-1.0306389343323317,0.5168931795605499,1.2554465679812525
219,1790994828.6410656,1.086214674346301,-1.7295951251594388,0.07893788863201424,2.043916046710876,0.5170119514920567,-1.069398570344581,0.5131550468410571,1.2939253310524166
220,1790994828.6660318,1.124534986846301,-1.6481644610969388,0.011877341757014239,1.9952859691561975,0.5426610873588072,-1.1168498571055636,0.5093586891403441,1.3421180772394545
221,1790994828.6860318,1.134115064971301,-1.6864847735969388,-0.09350351761798577,2.0345001302472587,0.5635140397206211,-1.1541623025715422,0.5066512384118069,1.3807006087576392
222,1790994828.711576,1.043104322783801,-1.7966556720344389,-0.07913340043048576,2.0790142681394626,0.5903237351734096,-1.2013427863628197,0.5033812138184597,1.4300696658136678
223,1790994828.731576,0.990413893096301,-1.8062357501594388,-0.06955332230548576,2.0611271017178763,0.6112162197417003,-1.2381463600242109,0.500981938935089,1.4688684690113334
224,1790994828.7416337,1.081424635283801,-1.7535453204719387,-0.09829355668048577,2.062537770813576,0.6217095998020021,-1.2565633637381537,0.4998297523954058,1.4883897658055036
225,1790994828.7616336,1.009574049346301,-1.7248050860969388,-0.11266367386798577,2.0017206222519635,0.6425825065428038,-1.2929101828791356,0.4975658361815083,1.52712173059072
226,1790994828.7861896,0.9760437759088011,-1.7056449298469387,-0.06476328324298576,1.9662350729399802,0.6680229500568551,-1.3371605683483754,0.4948763844146701,1.574533481130125
227,1790994828.8061895,1.0622644790338012,-1.6769046954719389,0.06935781050701424,1.986259219485492,0.6886927449564934,-1.372868784376062,0.4930213775798758,1.613113906337886
228,1790994828.8315308,1.086214674346301,-1.5811039142219387,0.09809804488201425,1.9207746178932212,0.7150376091770279,-1.4175188714902753,0.49134179158715907,1.6619432269872347
229,1790994828.8515308,0.971253736846301,-1.5667337970344388,-0.007282814492985761,1.8433777831727258,0.7357970439737224,-1.4521937666499793,0.49035127787669713,1.700208340625593
230,1790994828.8609948,0.932933424346301,-1.6721146564094387,0.04540761519451424,1.915305210654277,0.745498529984907,-1.4684396946830682,0.48997993305520865,1.718186116207248
231,1790994828.8809948,1.019154127471301,-1.7152250079719387,0.11246816206951424,1.9983295651602164,0.7658531864759147,-1.5027028389268107,0.48954970941399,1.7562191900048612
232,1790994828.9054399,1.095794752471301,-1.6385843829719389,-0.012072853555485761,1.9712611885430458,0.7908774663713689,-1.5444481692058813,0.48928680590570345,1.8028335731871648
233,1790994828.9254398,0.9808338149713011,-1.7439652423469387,-0.09350351761798577,2.0030458424390365,0.8113952028169319,-1.5785532134166276,0.4889456088154722,1.840994359340143
234,1790994828.9506304,0.865872877471301,-1.8014457110969389,-0.03602304886798576,1.9990598165186884,0.836850488109732,-1.621764438764655,0.48833560899555134,1.889155975906751
235,1790994828.9706304,1.0287342055963011,-1.7152250079719387,-0.08392343949298577,2.0018326696885835,0.8568710093933849,-1.6562007289095373,0.4877440283221289,1.9274654389490926
236,1790994828.9809353,1.052684400908801,-1.7535453204719387,-0.17014414261798577,2.0523193387319054,0.8672478590358291,-1.6739633484762972,0.48728857863173025,1.947234526170163
237,1790994829.0009353,0.8994031509088011,-1.7679154376594388,-0.09829355668048577,1.9859790144571379,0.887294620390936,-1.7085484321566493,0.48613456957197615,1.9856375067299092
238,1790994829.02685,0.908983229033801,-1.7152250079719387,-0.0024927754304857608,1.9411989987032239,0.9128883919322182,-1.7534093932530057,0.4846676851057671,2.0353654417470706
239,1790994829.04685,1.076634596221301,-1.6529545001594388,0.00708730269451424,1.972676066473517,0.9326562913442634,-1.787890380488946,0.48371230289352635,2.073735123490824
240,1790994829.0709827,1.047894361846301,-1.6673246173469387,-0.06476328324298576,1.9703421672533918,0.9567763791514476,-1.8292650818272533,0.4826280319166058,2.1200381120362715
241,1790994829.0909827,0.9185633071588011,-1.7104349689094387,-0.15577402543048577,1.947719661328489,0.9767171420053653,-1.8634775814902589,0.4815334258156638,2.158332576870785
242,1790994829.1160645,0.885033033721301,-1.9211966876594389,-0.26115488480548577,2.1313099392883466,1.0013664267561662,-1.9067790522579195,0.4795822950829327,2.206476886922008
243,1790994829.1360645,1.014364088408801,-2.2996097735969387,-0.4958667988679858,2.561839865584023,1.020922304025774,-1.9424591128647117,0.47712432687882755,2.2456797143199276
244,1790994829.1462257,0.865872877471301,-2.6349125079719387,-0.6635181660554857,2.851798751892047,1.030800409521224,-1.961628074722294,0.47517930153606397,2.266347183556862
245,1790994829.1662257,0.564100416533801,-2.8744144610969387,-0.26115488480548577,2.9408620586410676,1.0494717885891818,-2.0019624109920926,0.470538196834521,2.3088202019105193
246,1790994829.1916282,0.37728889309630104,-2.8313041095344387,0.22263906050701426,2.86499529158145,1.0714231081853254,-2.0563782161320767,0.4654542373543436,2.365013000304049
247,1790994829.2116282,0.49703986965880104,-2.6780228595344386,0.4286107401945143,2.7572744213860068,1.0874249416804307,-2.1010585408992273,0.463028805347763,2.41067120749721
248,1790994829.2509573,0.516200025908801,-2.543901765784439,0.43340077925701426,2.631679102050632,1.1171605195262417,-2.1911440926274497,0.4615173861589312,2.5024304902976393
249,1790994829.2709572,0.291068189971301,-2.3523002032844387,0.33759999800701423,2.394161794081494,1.131224625030284,-2.2374278707690083,0.4620205752362982,2.5493559267215953
250,1790994829.26621,0.10425666653380102,-2.323559968909439,0.2896996073820143,2.3438699290174925,1.131224625030284,-2.2374278707690083,0.4620205752362982,2.5493559267215953
251,1790994829.28621,0.152157057158801,-2.1463285235969387,0.20826894331951426,2.1617709994355248,1.1422746001870454,-2.2835344428548234,0.46393088769251406,2.595101670935443
252,1790994829.3110166,0.16652717434630102,-1.7008548907844387,0.16515859175701425,1.7169496264399458,1.1545172454410864,-2.3393011886174393,0.4666396438703959,2.650092956543096
253,1790994829.3310165,0.142576979033801,-1.4086625079719388,0.21305898238201426,1.4318004002967233,1.1633708302874095,-2.382182612774787,0.46906329009333486,2.6922566852889998
254,1790994829.3565695,0.18089729153380102,-1.2505912189094388,0.17473866988201425,1.2756315414922117,1.1736057803012825,-2.4338483601544803,0.47243858138817857,2.743021432830467
255,1790994829.3765695,0.25753791653380104,-1.030249422034439,-0.06476328324298576,1.0639238379279212,1.1810725768393158,-2.471641992075106,0.47484907024198947,2.7801849233927842
256,1790994829.3861198,0.056356275908801004,-0.8482279376594388,0.04061757613201424,0.8510678301705062,1.1843281060110327,-2.488327538298829,0.4758101674896055,2.7965697409559587
257,1790994829.4061198,-0.140035325653699,-0.8003275470344389,0.22263906050701426,0.8424382625667862,1.1899975627685377,-2.5205013245797483,0.47791584451764385,2.8279718317275258
258,1790994829.4321125,-0.135245286591199,-0.6374662189094389,0.02624745894451424,0.6521835607379843,1.195723898031588,-2.558846220605491,0.48072715164902574,2.865056407012512
259,1790994829.4521124,0.04198615872130101,-0.5177152423469389,-0.22762461136798579,0.5671021719081549,1.1993292095346,-2.5856577370361546,0.48226376787089154,2.890777547259361
260,1790994829.476044,0.051566236846301,-0.41712442203443884,-0.25157480668048576,0.4898384872551127,1.203164049016343,-2.614605367418493,0.4829665474650053,2.9183936749776
261,1790994829.496044,0.132996900908801,-0.19678262515943884,-0.03602304886798576,0.2402274698400059,1.2061650102104773,-2.6360894671676194,0.48303437763805607,2.9388984196035572
262,1790994829.5065851,0.123416822783801,0.3253316326530612,0.05498769331951424,0.35227266395131407,1.2077121633279915,-2.6456127455347462,0.4830797589133961,2.948084381807634
263,1790994829.526585,-0.125665208466199,0.8426558514030612,-0.04081308793048576,0.8529515441507172,1.2102039124013717,-2.659219128219978,0.48317420799984784,2.9613336854800556
264,1790994829.551183,0.04677619778380101,0.9145064373405613,0.01666738081951424,0.9158536117741841,1.212663276676264,-2.670201705353376,0.48322840112068616,2.972211139458458
265,1790994829.571183,0.324598463408801,0.5887837810905612,0.13641835738201424,0.6860324129029616,1.2149200434496183,-2.67553700388473,0.483495483226752,2.97796857831522
266,1790994829.5962808,0.013245924346301004,0.8474458904655612,-0.06476328324298576,0.8500201613109933,1.21796318270567,-2.678524480383888,0.48391524800271596,2.9819627217139777
267,1790994829.6162808,-0.11608513034119901,0.9719869060905613,-0.10308359574298577,0.9843071323571408,1.2198701892211299,-2.677818895895804,0.48394780487837585,2.982113813323297
268,1790994829.626335,-0.106505052216199,0.9911470623405613,-0.07913340043048576,0.9999889601378563,1.2205172073942865,-2.676037081958665,0.4838243141865896,2.980758743099065
269,1790994829.646335,0.233587721221301,1.4030904217155613,-0.24199472855548576,1.4428400478445125,1.2218018412113152,-2.6694329509422174,0.4831338183465952,2.9752462595882037
270,1790994829.6709213,0.142576979033801,1.5324214764030615,-0.17014414261798577,1.5484162249081972,1.2238378280533595,-2.6571190977420462,0.48165232517072015,2.964801830022073
271,1790994829.6909213,-0.135245286591199,1.6186421795280614,0.09809804488201425,1.627242151402846,1.2252565830497721,-2.6438782480056884,0.4805198963231708,2.9533447572789164
272,1790994829.7160451,-0.317266770966199,1.6569624920280615,0.09330800581951425,1.6896417631844853,1.22591881568749,-2.6235679642192964,0.479671393626488,2.9353143701140394
273,1790994829.7360451,0.032406080596301005,1.6809126873405613,-0.09350351761798577,1.6838231867773465,1.2259396232211792,-2.6048182503172814,0.4790969629986227,2.918482478433642
274,1790994829.7613008,0.46829963528380103,1.1779585857780612,-0.045603126992985764,1.268452057985137,1.226910382103328,-2.5792777127744237,0.4782168954049317,2.895975484077607
275,1790994829.7813008,0.592840650908801,0.7755953045280612,-0.06955332230548576,0.9786959581094007,1.2291555236366556,-2.5591556590423146,0.47745177396434957,2.8788993009406405
276,1790994829.7914722,0.626370924346301,0.9624068279655612,-0.21804453324298578,1.168807450292102,1.2310561486015994,-2.5491313419659445,0.4769016273215027,2.8707150680178617
277,1790994829.8114722,0.750911939971301,1.0198872967155612,-0.19888437699298578,1.282027236452146,1.2362986789616546,-2.529403769187536,0.47535674739562567,2.855220112088908
278,1790994829.836552,0.908983229033801,0.5744136639030613,0.03582753706951424,1.0758648522726828,1.245008865461647,-2.50537751056969,0.4734033696459446,2.8374415052893354
279,1790994829.856552,1.205965650908801,0.11456991390306118,-0.13182383011798576,1.2185470604497055,1.2540853782633994,-2.488058133069957,0.4719353023246136,2.825931057030556
280,1790994829.8816695,1.354456861846301,-0.22552285953443885,-0.27073496293048577,1.3995396996613179,1.2685979425469764,-2.469778703973485,0.4696097902873746,2.8159689170104705
281,1790994829.9016695,1.205965650908801,-0.6039359454719389,-0.14619394730548577,1.3566371834922306,1.2822608887431175,-2.4586511056216556,0.467410456907129,2.812050991927602
282,1790994829.9118476,1.196385572783801,-1.0541996173469388,-0.14619394730548577,1.6012644822790565,1.290004909331146,-2.4551033981604764,0.4662358967698237,2.812298219107344
283,1790994829.9318476,1.555638502471301,-1.2889115314094388,-0.3569556660554858,2.051516861666141,1.3070674150230444,-2.452692492548976,0.4635193604922117,2.8176188329815375
284,1790994829.9568708,1.881361158721301,-1.2937015704719388,-0.28989511918048577,2.3015696259534244,1.3316635445952145,-2.4549754210557997,0.4594163850923456,2.8304232066748094
285,1790994829.9768708,1.9771619399713012,-1.4278226642219387,-0.03602304886798576,2.4390868285870146,1.3541611544748415,-2.4606086527749698,0.4561400768812804,2.8454193265908887
286,1790994830.0018468,1.9340515884088012,-1.6146341876594388,0.23221913863201424,2.5301234821510703,1.3853684442217085,-2.4722873585142167,0.45302985056086176,2.8699628141865663
287,1790994830.0218468,1.8286707290338011,-1.5715238360969388,0.2992796855070143,2.4296691406039277,1.4122538379461895,-2.4850157296958355,0.451710115130148,2.8937529451804207
288,1790994830.046296,1.847830885283801,-1.3990824298469386,0.26574941206951425,2.3329237827521117,1.446931671875173,-2.503688780538477,0.4513748780534681,2.9267401752474567
289,1790994830.0662959,1.9388416274713012,-1.2601712970344388,0.2609593730070143,2.3270664684630815,1.4767239072812337,-2.5206614248804406,0.4519318430413008,2.9561275188954474
290,1790994830.0763679,2.120863111846301,-0.9488187579719388,-0.11266367386798577,2.3261578790097674,1.4925434734991065,-2.529595406713039,0.45228228002456067,2.9717163732046665
291,1790994830.0963678,2.0825427993463013,-0.9009183673469389,-0.33300547074298575,2.2933667520213508,1.5255495850400478,-2.5474492049261612,0.45220526098497255,3.0035460020045104
292,1790994830.1210015,1.799930494658801,-0.8386478595344389,-0.28031504105548577,2.0054068265931257,1.5672776653385645,-2.5693547883188796,0.45099150333995114,3.043244427352342
293,1790994830.1410015,1.7041297134088012,-0.8865482501594388,-0.4288062519929858,1.9682227215769554,1.60133081495542,-2.587059894048563,0.4490901932518968,3.075519675761379
294,1790994830.151112,1.752030104033801,-0.9679789142219388,-0.48149668168048576,2.0587451805136774,1.6185843015066403,-2.59607408763944,0.44758291792694876,3.0918839366989004
295,1790994830.171112,1.795140455596301,-0.9679789142219388,-0.5581373066804858,2.1144809497380974,1.6529150524347698,-2.6141344803819946,0.4434891367594317,3.12450153888762
296,1790994830.1963058,1.713709791533801,-1.1691605548469388,-0.5725074238679858,2.1520925637603936,1.6963041836486212,-2.6375105194639636,0.4369694070109552,3.1662046501150853
297,1790994830.2163057,1.8574109634088012,-1.5523636798469387,-0.6299878926179858,2.5013382870664236,1.7309386070166375,-2.657366285903769,0.43076633820621946,3.200516157879895
298,1790994830.241053,2.0059021743463012,-1.8110257892219388,-0.5437671894929857,2.756653895330944,1.774536370495744,-2.6844925008733282,0.4220636203968093,3.2455534223179576
299,1790994830.261053,1.9340515884088012,-1.7870755939094387,-0.47191660355548576,2.675238308204472,1.8103953859402202,-2.70852375653706,0.41456184264628043,3.2841275728171015
300,1790994830.2710304,1.809510572783801,-1.8972464923469388,-0.49107675980548576,2.667401197750383,1.8284022586776256,-2.7214708875768467,0.4106601999673503,3.304254895025954
301,1790994830.2910304,1.8669910415338011,-2.246919343909439,-0.4862867207429858,2.961549739912004,1.8645981817020516,-2.7497472188000827,0.40254630635255206,3.34662212914208
302,1790994830.3162615,1.9723719009088012,-2.491211336096939,-0.6443580098054857,3.242157010601581,1.9106772874641123,-2.7890347271402893,0.3917060278159395,3.4033565811200375
303,1790994830.3362615,1.962791822783801,-2.6349125079719387,-0.6395679707429858,3.347291868578871,1.9476267648887016,-2.823194665737952,0.3824762818884368,3.4510818944454593
304,1790994830.361727,1.958001783721301,-2.6349125079719387,-0.4479664082429858,3.313187108002941,1.995104973168498,-2.8702303307489347,0.37040997830380107,3.5150916855097587
305,1790994830.381727,2.0729627212213013,-2.534321687659439,-0.33300547074298575,3.291026208291111,2.0328464186797013,-2.9093837507721094,0.3611834251590544,3.5675526398085986
306,1790994830.3918672,2.044222486846301,-2.567851961096939,-0.026442970742985763,3.282287083808969,2.052242574913327,-2.9301375058887666,0.35693380206750913,3.5951087784323428
307,1790994830.4118671,1.953211744658801,-2.2564994220344388,0.20826894331951426,2.991688772895045,2.090756321058111,-2.9721676372271713,0.35008205979336154,3.6506985504714238
308,1790994830.4361646,2.058592604033801,-1.9020365314094387,0.22263906050701426,2.811603568688545,2.137838052580249,-3.0231479323619914,0.3437918995125224,3.7185975622773597
309,1790994830.4561646,1.991532057158801,-1.5811039142219387,0.07414784956951424,2.5439314900081107,2.1768544610343854,-3.064041536223896,0.3398361028409313,3.773928252765904
310,1790994830.4821558,1.953211744658801,-1.4661429767219387,-0.25157480668048576,2.4551784519705424,2.227642690961244,-3.115153840372019,0.33512055710081473,3.8443310465631275
311,1790994830.5021558,1.929261549346301,-1.5667337970344388,-0.4192261738679858,2.5204078045848117,2.266685294007209,-3.1531340160650148,0.33103007433977905,3.897396214840395
312,1790994830.5266402,1.8143006118463012,-1.8445560626594388,-0.5677173848054858,2.648844428699038,2.3141869656341423,-3.1989199772318964,0.3249612140267169,3.9615842946056308
313,1790994830.5466402,1.5412683852838012,-2.261289461096939,-0.40006601761798577,2.7656809434199268,2.3522016322339603,-3.236868807005465,0.31929581467540896,4.013990783462055
314,1790994830.5582576,1.440677564971301,-2.064897859534439,-0.17014414261798577,2.5235498896968047,2.37356921768469,-3.2593751325773592,0.3160017473336237,4.044405295012098
315,1790994830.5782576,1.6610193618463012,-1.6146341876594388,-0.19888437699298578,2.324991156068951,2.4094893327169955,-3.297828338469384,0.31062793678982425,4.0960713262348145
316,1790994830.600879,1.7472400649713011,-1.7343851642219388,-0.15577402543048577,2.4668208871973043,2.449805763356667,-3.340479601339671,0.304859785868829,4.153708190783505
317,1790994830.620879,1.8143006118463012,-2.2325492267219387,-0.19409433793048578,2.883337540403354,2.485445879012881,-3.3784824341097894,0.30000021667453475,4.204947669721383
