imu_index,t_imu,ax,ay,az,mag,vx,vy,vz,velocity
0,1790596903.15941,0.05771997070312478,-0.010585986328124903,-0.0060354492187499565,0.0589922433187698,0.0,0.0,0.0,0.0
1,1790596903.17941,0.038559814453124786,-0.0010059082031249021,-0.0060354492187499565,0.03904225645687803,0.00021801243246780263,-3.088494491102714e-05,-2.5801520803884877e-05,0.00022169578031274904
2,1790596903.204655,0.024189697265624782,0.0181542480468751,-0.0060354492187499565,0.03084063590819996,0.0005707285950924932,-3.1553580726768486e-05,-7.633896112739547e-05,0.0005766752939904238
3,1790596903.224655,0.014609619140624783,0.0133642089843751,-0.010825488281249957,0.02256621921677715,0.0008664470477990813,1.5273799483894364e-05,-0.0001356623228688251,0.0008771362730138249
4,1790596903.2332,0.019399658203124785,0.008574169921875098,-0.015615527343749958,0.026338333707177777,0.0009956391218539408,4.634010550369977e-05,-0.00017415247167572401,0.001011817053490869
5,1790596903.2532,0.019399658203124785,0.003784130859375098,-0.02519560546874996,0.03202319346498479,0.001310856410301176,0.00012668172762891956,-0.0003119425041431881,0.001353403455896968
6,1790596903.2790654,0.005029541015624782,-0.029746142578124902,-0.0060354492187499565,0.030766149066434958,0.0017047576964307073,0.00016463575102578887,-0.000523997000274493,0.0017910546028394065
7,1790596903.2990654,-0.014130615234375218,-0.0010059082031249021,-0.010825488281249957,0.017829114805355623,0.0019499977883244935,0.00014345300745725328,-0.0006886612376141086,0.0020729989001471135
8,1790596903.3246796,-0.004550537109375218,-0.0010059082031249021,-0.06830595703124996,0.06846475739569871,0.0021810801133526903,0.0001165284818134372,-0.0010199329206766702,0.0024105917345366413
9,1790596903.3446796,-0.004550537109375218,-0.034536181640624906,-0.0012454101562499565,0.034856940151931415,0.002320796034913797,4.534580219118187e-05,-0.0013441222799965265,0.0026823152650333674
10,1790596903.3537061,-0.009340576171875219,-0.0489062988281249,0.046654980468750044,0.06823312707789306,0.002364990805207372,-3.8451538957151344e-05,-0.0014377485195784568,0.0027679922028635904
11,1790596903.373706,0.024189697265624782,0.0229442871093751,0.013124707031250044,0.035830708887993765,0.002470498066391151,-0.00023521306656044394,-0.0015244087390192188,0.002912474529729204
12,1790596903.3987684,0.019399658203124785,0.0277343261718751,-0.02998564453124996,0.045218120975561375,0.0026648128835441596,-0.0003495342722870951,-0.001648407917242434,0.0031528797270802683
13,1790596903.4187684,-0.009340576171875219,-0.010585986328124903,-0.03477568359374996,0.037532088127020864,0.0028117068636275256,-0.00040135682043403875,-0.0018296595001447615,0.0033785258132429646
14,1790596903.4443507,-0.009340576171875219,-0.034536181640624906,-0.02519560546874996,0.04375857333681873,0.002935574217550937,-0.0005442755614913736,-0.0021417904920622475,0.003674384082465358
15,1790596903.4643507,0.005029541015624782,-0.0441162597656249,-0.010825488281249957,0.045702646040064535,0.0030114201250705593,-0.0007572266114182389,-0.0024032396704391037,0.0039265257192959
16,1790596903.4739072,0.005029541015624782,-0.015376025390624902,0.003544628906250044,0.016561486458769845,0.0030494349128212077,-0.0008863578118774714,-0.0025146465192143605,0.004050695073046847
17,1790596903.4939072,0.014609619140624783,-0.0010059082031249021,0.027494824218750043,0.03115153578183888,0.003146517610503121,-0.0011406404136411938,-0.0026662675021565077,0.004279090559861257
18,1790596903.5182953,0.009819580078124782,0.0229442871093751,0.03228486328125005,0.04080657864802131,0.0032918268461984016,-0.0013640752360146661,-0.0027140784050198,0.004479179257794424
19,1790596903.5382953,0.009819580078124782,0.0325243652343751,0.017914746093750045,0.03840828835568263,0.0034225750067135075,-0.0014366201101920421,-0.002672106194069818,0.004573625315870819
20,1790596903.564255,0.009819580078124782,0.003784130859375098,0.04186494140625004,0.043167315392786815,0.0036050651376189854,-0.0014459662071556096,-0.0025094088492441822,0.004624331918383106
21,1790596903.584255,0.009819580078124782,-0.0010059082031249021,0.008334667968750044,0.012919082567006338,0.0037540293010507606,-0.0014479192603678987,-0.0023275655557071367,0.004648308035598142
22,1790596903.609334,0.024189697265624782,0.008574169921875098,-0.020405566406249957,0.03278787861407992,0.003976773029126891,-0.0014357656003188093,-0.0021564507059582873,0.004746201242201799
23,1790596903.629334,0.019399658203124785,-0.015376025390624902,0.008334667968750044,0.02611963983979328,0.004193145395314618,-0.0014377299302487864,-0.002058565637596851,0.004887456203678545
24,1790596903.6394076,-0.014130615234375218,-0.0010059082031249021,0.03707490234375004,0.039689224255629804,0.0042897620121582075,-0.0014509478752589135,-0.001982349952920409,0.004943381352224157
25,1790596903.6594076,0.00023950195312478218,0.0373144042968751,0.03228486328125005,0.049343029156155474,0.004431972420056705,-0.0014187913568450856,-0.0017496912948783484,0.0049715961293909094
26,1790596903.6845021,0.00023950195312478218,0.0421044433593751,0.022704785156250046,0.04783668864772988,0.004584543858384991,-0.001235022587447163,-0.0013980613609220658,0.004949535205437323
27,1790596903.704502,-0.018920654296875217,0.0468944824218751,0.003544628906250044,0.05069169591481862,0.004659879905697663,-0.0009770323073416997,-0.0011204796620490269,0.0048912725888238745
28,1790596903.7297308,-0.03329077148437522,0.0229442871093751,-0.020405566406249957,0.04528910373745768,0.004641864773032391,-0.0005682635391205441,-0.0008547538549736391,0.004753991604284252
29,1790596903.7497308,-0.02371069335937522,-0.005795947265624902,-0.03477568359374996,0.04248691744173534,0.004544223447106013,-0.00026709873027666136,-0.0007584705484111571,0.00461482242797603
30,1790596903.758779,-0.02850073242187522,-0.024956103515624904,-0.0060354492187499565,0.03836046791343954,0.004471243939662463,-0.00017215470073563168,-0.0007491399346519057,0.004536834827348682
31,1790596903.778779,-0.02850073242187522,-0.005795947265624902,0.017914746093750045,0.034158789218775985,0.004248626461570872,-3.9899985880245854e-05,-0.0007137904620537455,0.004308354168653312
32,1790596903.803804,-0.009340576171875219,0.0325243652343751,0.022704785156250046,0.04075031246644746,0.003940836570025081,0.0001509263709677721,-0.0005999567663116835,0.003989100119393309
33,1790596903.823804,-0.014130615234375218,0.0181542480468751,0.03228486328125005,0.039642949009104166,0.0036965410661258693,0.00035657695028647006,-0.0004401425254135353,0.0037396909521654306
34,1790596903.8488758,-0.018920654296875217,0.0229442871093751,0.022704785156250046,0.037415755223846166,0.0033740815023444153,0.0006529902133486345,-0.00016644970083351806,0.0034407161618040232
35,1790596903.8688757,-0.018920654296875217,0.0277343261718751,0.013124707031250044,0.03604777305030039,0.0030986757635548786,0.000929991186683013,7.287201013613241e-05,0.003236044719223109
36,1790596903.8794148,-0.004550537109375218,0.0325243652343751,0.017914746093750045,0.03740962241838804,0.002956766394660992,0.0011016929885742325,0.00020460114719230774,0.0031619703640455884
37,1790596903.8994148,0.009819580078124782,0.008574169921875098,0.017914746093750045,0.022155781872085337,0.0027357635647977177,0.001440303694023102,0.00047083053538705597,0.003127388432309644
38,1790596903.925198,0.009819580078124782,0.0181542480468751,-0.0012454101562499565,0.02067732868422476,0.002531567761345095,0.0018630363754379316,0.0007947966731705191,0.0032421353485272086
39,1790596903.945198,0.009819580078124782,0.0229442871093751,-0.0012454101562499565,0.024988307472204516,0.0024263918342284905,0.002203409054477333,0.0010046645622871096,0.0034280810488200165
40,1790596903.9690437,0.005029541015624782,0.0229442871093751,-0.0012454101562499565,0.023522067091192877,0.0023463586728061417,0.0026304253346660935,0.0012128988601200186,0.003727688306120332
41,1790596903.9890437,-0.02371069335937522,0.0229442871093751,0.003544628906250044,0.03318435903588888,0.0022612799750113405,0.003003685267287449,0.001364801441972934,0.003999774404428125
42,1790596903.9988155,-0.03329077148437522,0.0133642089843751,0.003544628906250044,0.03604777305030043,0.0021841709234804016,0.003185311221096217,0.001433082649829488,0.004119531050915991
43,1790596904.0188155,-0.03808081054687522,0.0277343261718751,0.003544628906250044,0.04724304577605028,0.0019429674950089293,0.0035629325547283644,0.0015625049368865676,0.004348681725994599
44,1790596904.0440102,-0.02850073242187522,0.0421044433593751,-0.0012454101562499565,0.050858892493284256,0.001558880897390974,0.004099246670653513,0.001705431483197187,0.004705574296830787
45,1790596904.0640101,-0.02371069335937522,0.0277343261718751,0.003544628906250044,0.03665998120394089,0.0012214029700111585,0.0045658804848274104,0.0018053194115424183,0.005059473094559524
46,1790596904.0889661,-0.009340576171875219,0.0181542480468751,-0.020405566406249957,0.028865381094486664,0.000801601556387459,0.005146696142612993,0.0018797049933249592,0.005537538902935224
47,1790596904.108966,-0.02371069335937522,0.003784130859375098,0.017914746093750045,0.02995754919125941,0.00046605656837473,0.005575254486661301,0.0019266401198380861,0.005917145719629685
48,1790596904.1194491,-0.018920654296875217,0.0181542480468751,0.027494824218750043,0.037993857924528994,0.00028304361213107605,0.005783438224690898,0.0019832533119134555,0.006120585354718918
49,1790596904.1394491,-0.004550537109375218,0.0373144042968751,-0.015615527343749958,0.04070524352264527,-4.894931166646977e-05,0.0062042459338627134,0.002092880016071582,0.006547916493407382
50,1790596904.164755,-0.009340576171875219,0.0277343261718751,0.027494824218750043,0.04015475775360279,-0.00043237413415274725,0.006780286089247599,0.002233330433016611,0.007151712498903112
51,1790596904.184755,-0.018920654296875217,0.0229442871093751,0.08497529296875005,0.09002906133634961,-0.0007323419794144922,0.007243274558802418,0.0024963868307334896,0.00769631719185655
52,1790596904.2092917,-0.009340576171875219,0.0708446777343751,0.07539521484375004,0.10387806865669622,-0.0010971581281313213,0.007898676873094614,0.0030658249997875843,0.008543543482244759
53,1790596904.2292917,0.028979736328124783,0.0516845214843751,0.051445019531250046,0.07847104506304962,-0.001320459218676446,0.00853656048203119,0.0036506156197149823,0.009377818073223174
54,1790596904.2389138,0.014609619140624783,0.0421044433593751,0.027494824218750043,0.05236592862593864,-0.0013803192823926976,0.008865099783417714,0.0039467271237426885,0.009801628970767263
55,1790596904.2589138,-0.018920654296875217,0.008574169921875098,0.027494824218750043,0.034459728781448845,-0.0014925444916580972,0.009521569354434448,0.004552370945428711,0.01065889549886233
56,1790596904.2843287,-0.04766088867187522,-0.010585986328124903,0.03707490234375004,0.06130392972176199,-0.0017406754581097029,0.010226811095969705,0.005329626420840841,0.011662869888189582
57,1790596904.3043287,-0.02850073242187522,0.0277343261718751,0.09455537109375005,0.10257778901627812,-0.0020208918808208515,0.010724267782792292,0.006046975626721239,0.01247637117519213
58,1790596904.3294294,0.019399658203124785,0.0995849121093751,0.08976533203125005,0.13546703028010393,-0.002336954722123809,0.011494630404981174,0.007159223718343728,0.013741992932965357
59,1790596904.3494294,0.028979736328124783,0.0373144042968751,0.06102509765625005,0.07717676094287154,-0.0024784459235056133,0.012221723513980532,0.008138702620778553,0.014891329698767466
60,1790596904.3740463,0.024189697265624782,-0.0393262207031249,0.022704785156250046,0.05145095098814926,-0.002528311859418963,0.01297870971216861,0.009318042779569819,0.016176068369449716
61,1790596904.3940463,0.05771997070312478,-0.1351270019531249,0.051445019531250046,0.1556839481429608,-0.0024398839044554436,0.013239789835521877,0.010243696386313946,0.016916807737010865
62,1790596904.4041831,0.08167016601562478,-0.15907719726562491,0.08497529296875005,0.19798073421934556,-0.0022958145145279512,0.013128594761855879,0.01074619832443074,0.01712050066832582
63,1790596904.4241831,0.11041040039062479,-0.16865727539062492,0.08497529296875005,0.21876136192603132,-0.0017660824874037942,0.012450513914551369,0.011843844423652659,0.01727457654532926
64,1790596904.4492967,0.09125024414062478,-0.1159668457031249,0.08497529296875005,0.17028128720790464,-0.000820852920451192,0.011190684197508922,0.013335498251507462,0.017428158994608343
65,1790596904.4692967,0.04813989257812479,-0.1111768066406249,0.13766572265625004,0.18338370371084733,2.808055139610292e-05,0.009997160223437218,0.01467919555356376,0.01776014592142216
66,1790596904.4940774,0.024189697265624782,-0.17823735351562492,0.20951630859375006,0.2761354363510919,0.0010565913723532944,0.00820226869170862,0.01673961190408071,0.01867105256053754
67,1790596904.5140774,0.019399658203124785,-0.2405078613281249,0.2717868164062501,0.36343974971275683,0.001827549915713735,0.006342827694905542,0.018875043871499797,0.019995966668624153
68,1790596904.5241299,0.06730004882812479,-0.2261377441406249,0.25741669921875004,0.3491861007170176,0.0022222917164459815,0.005196600565402687,0.020186346891803125,0.020962629576118014
69,1790596904.5441298,0.11999047851562479,-0.08243657226562491,0.2622067382812501,0.29990978140335167,0.003170786808161932,0.002795320832460142,0.023183364740131055,0.02356557039863774
70,1790596904.5689394,0.1774709472656248,-0.1255469238281249,0.38674775390625005,0.44365729156364886,0.0047243809313196,-0.0001236090669370707,0.027550969762295506,0.027953371696962902
71,1790596904.5889394,0.3163820800781248,-0.28361821289062494,0.26699677734375005,0.5018208748047264,0.006529710425814984,-0.002737459498375931,0.03152434720785112,0.032309677646664876
72,1790596904.629472,0.4169729003906248,-0.5087500488281249,0.022704785156250046,0.6581857785699877,0.011868995419743702,-0.00964892939004236,0.03924970949005787,0.04212498766411522
73,1790596904.649472,0.3930227050781248,-0.6716113769531249,-0.06351591796874996,0.7807451313938577,0.01532336493739758,-0.014318245347131546,0.04242862719356315,0.047328702373461345
74,1790596904.6444921,0.3355422363281248,-0.7722021972656249,-0.04914580078124996,0.8433861129733927,0.01532336493739758,-0.014318245347131546,0.04242862719356315,0.047328702373461345
75,1790596904.6644921,0.34033227539062477,-0.8105225097656249,-0.14015654296874996,0.8901778771943721,0.019761877129039925,-0.021906771474115308,0.04429779843510294,0.05322342877229343
76,1790596904.6890264,0.4026027832031248,-0.973383837890625,-0.15452666015624997,1.0646330755751625,0.025756988760584264,-0.03310187702550328,0.04570455690136526,0.06203275952409776
77,1790596904.7090263,0.3211721191406248,-1.021284228515625,-0.11620634765624996,1.0768829652119307,0.030996716433539653,-0.043851064822610863,0.04627321327327685,0.07088668832984267
78,1790596904.7339444,0.1631008300781248,-0.9063232910156249,-0.27906767578124997,0.9622383053461939,0.037450725987322554,-0.05883708384442186,0.04613672118179996,0.08362389822114366
79,1790596904.7539444,0.038559814453124786,-0.7865723144531249,-0.35091826171874996,0.8621638426439108,0.042156367330761425,-0.071600410257886,0.04509862350620281,0.09453921883418492
80,1790596904.7790244,0.019399658203124785,-0.6141309082031249,-0.27906767578124997,0.6748421199174974,0.04728112995924859,-0.0878395533386574,0.04280711373394368,0.10855294269244377
81,1790596904.7990243,-0.014130615234375218,-0.5901807128906249,-0.044355761718749956,0.5920138357780489,0.050762757643960654,-0.10065341728696725,0.04076872216544497,0.11987517124979255
82,1790596904.8091028,0.10083032226562479,-0.7434619628906249,0.17119599609375005,0.7695521510800304,0.0523195908514754,-0.10715010377147362,0.03999148666470714,0.12576884880906242
83,1790596904.8291028,0.2876418457031248,-0.6907715332031249,0.10413544921875005,0.7554782156139824,0.05552831657096276,-0.12025986145657926,0.03909346667516946,0.1381091139477887
84,1790596904.853601,0.4505031738281248,-0.5710205566406249,0.08976533203125005,0.7328542833128994,0.06022540641986126,-0.13622779520174041,0.03851473710378809,0.15384569132133244
85,1790596904.873601,0.6564748535156248,-0.556650439453125,0.09455537109375005,0.8658866341758573,0.06514531021202788,-0.14899988339051748,0.038389621712684785,0.16708871819561064
86,1790596904.884604,0.7810158691406248,-0.580600634765625,0.046654980468750044,0.9742995289654366,0.06863225352059764,-0.1559109677187592,0.03844764466359399,0.17463343740101306
87,1790596904.904604,0.7570656738281248,-0.542280322265625,-0.02998564453124996,0.9317271710556139,0.07632680304813964,-0.16827311500120923,0.03856229580012204,0.18875558999175573
88,1790596904.9292793,0.6037844238281248,-0.6045508300781249,-0.12578642578124996,0.8636316121567299,0.08691457030728646,-0.18335973686297807,0.03839425092613827,0.20651647425408964
89,1790596904.9492793,0.4217629394531248,-0.6668213378906249,-0.14494658203124997,0.8022120576287326,0.09574728413860695,-0.19566065303255528,0.037872378047607944,0.22109941335070535
90,1790596904.9742267,0.3163820800781248,-0.6332910644531249,-0.16410673828124997,0.7266954069347374,0.10649341800739222,-0.21113547502919505,0.036740798252552755,0.23930926256820023
91,1790596904.9942267,0.1870510253906248,-0.6476611816406249,-0.11620634765624996,0.6840738319358663,0.11457133669092373,-0.22360195523057474,0.03554923326228967,0.25374824838728965
92,1790596905.003531,0.06251000976562479,-0.676401416015625,-0.12099638671874996,0.6899757260279773,0.11793975722944781,-0.2294555657469134,0.034912524610014796,0.26034309547637724
93,1790596905.023531,-0.04766088867187522,-0.676401416015625,-0.26469755859375,0.7279115560440205,0.1241165171550724,-0.24217997820729512,0.03317064534041551,0.27414657281733606
94,1790596905.048861,-0.10514135742187522,-0.537490283203125,-0.44671904296875,0.7067590911542673,0.13047569064879225,-0.25818427228137597,0.029943944788355832,0.29082583126887324
95,1790596905.068861,-0.14825170898437523,-0.6093408691406249,-0.26948759765624997,0.6825675272911662,0.13436348777995635,-0.27064561581245306,0.026704072777718645,0.30334090345651393
96,1790596905.0934308,-0.16741186523437523,-0.8488428222656249,0.04186494140625004,0.86620640891884,0.1378415021465715,-0.28634498281808396,0.022901501268749666,0.31861922048030095
97,1790596905.1134307,-0.15783178710937523,-0.978173876953125,0.18556611328125006,1.0080524733236638,0.13976009988728413,-0.2999480083880337,0.020611621387808362,0.3315517036491985
98,1790596905.138568,-0.12909155273437523,-0.8680029785156249,0.28615693359375005,0.9230274049794763,0.14126886474431777,-0.3179611249252013,0.019054604998790244,0.34845264682809873
99,1790596905.158568,-0.06682104492187523,-0.6093408691406249,0.37237763671875007,0.717235282998365,0.14199535608633276,-0.3323591978035091,0.018989414009418823,0.3619197637033623
100,1790596905.1681392,0.07209008789062478,-0.42252934570312495,0.32447724609375006,0.5375997693312126,0.14229466150057105,-0.3389567900805153,0.019463131798546838,0.36812808875805203
101,1790596905.1881392,0.2157912597656248,-0.46563969726562493,0.29573701171875005,0.5923230331172292,0.14325809112822202,-0.3520072832982487,0.02123484093647699,0.38063489939614437
102,1790596905.2138257,0.3499123535156248,-0.5710205566406249,0.18077607421875005,0.693673641029379,0.14539966651881803,-0.3682513249562452,0.024086972345221586,0.3966488164517487
103,1790596905.2338257,0.4121828613281248,-0.6045508300781249,0.08018525390625005,0.7360747871410893,0.14796015757595044,-0.38076540226768657,0.026366027421416936,0.40935274177164144
104,1790596905.2589111,0.4936135253906248,-0.7482520019531249,0.09455537109375005,0.901374555375343,0.1523941537804518,-0.39665224316114944,0.029124560885424543,0.4259169169662088
105,1790596905.278911,0.5702541503906248,-0.781782275390625,0.10413544921875005,0.9732510025356599,0.156994797852704,-0.40971353521186976,0.03129200820861674,0.4398769569622255
106,1790596905.289469,0.5702541503906248,-0.7674121582031249,0.05623505859375005,0.9577440150743589,0.159962258389753,-0.4168009941921125,0.03239155318606385,0.44761613642326287
107,1790596905.309469,0.4936135253906248,-0.7051416503906249,0.022704785156250046,0.8610427206783452,0.1663361704204646,-0.4304218273242561,0.03428041573223172,0.46271569881523605
108,1790596905.3480482,0.3690725097656248,-0.6285010253906249,0.003544628906250044,0.728862552732576,0.1792830873879116,-0.45661361696267844,0.037453381143457115,0.49197680471558636
109,1790596905.3680482,0.2349514160156248,-0.5470703613281249,0.008334667968750044,0.5954474072674946,0.18589419750056374,-0.46991841708906057,0.03886937123239455,0.5068439596205805
110,1790596905.3788428,0.08646020507812478,-0.5135400878906249,0.003544628906250044,0.520779563084944,0.18918740800361786,-0.4768809631670541,0.03952860616999193,0.5145579064439754
111,1790596905.3988428,-0.018920654296875217,-0.5470703613281249,0.003544628906250044,0.5474089292263965,0.19447504371564378,-0.4894368724480987,0.040577438974897885,0.5282192000426902
112,1790596905.409403,-0.09077124023437522,-0.5518604003906249,0.10892548828125005,0.5697842412442593,0.19676132025317566,-0.49594249194397005,0.04113724645097413,0.5351319888671726
113,1790596905.429403,-0.13388159179687523,-0.556650439453125,0.17119599609375005,0.59757180442517,0.2001048010962868,-0.5080780364585162,0.04245860924102192,0.5477115628248208
114,1790596905.4535725,-0.14346166992187523,-0.580600634765625,0.19993623046875006,0.6305972122369975,0.2030364901676491,-0.5226052013829539,0.044488670758313476,0.5624226655087411
115,1790596905.4735725,-0.10035131835937522,-0.5518604003906249,0.19514619140625006,0.593887467990469,0.2047328236216922,-0.5345218159642552,0.04650917157936019,0.5742753728402729
116,1790596905.4985912,-0.08119116210937523,-0.5039600097656249,0.14724580078125005,0.5312711380221509,0.2061958805667066,-0.5491738411519704,0.049300025843180564,0.5886757524447797
117,1790596905.5185912,-0.10035131835937522,-0.4895898925781249,0.12808564453125004,0.5159211008924818,0.20691770158439438,-0.5606200883583322,0.05160938383420351,0.5998110929281142
118,1790596905.5291686,-0.07161108398437523,-0.4991699707031249,0.12329560546875006,0.5191344848197638,0.20710577103550448,-0.5665500442265834,0.05284695917408772,0.6055283264251987
119,1790596905.5491686,-0.03808081054687522,-0.575810595703125,0.12329560546875006,0.5900930406163085,0.20724349718200932,-0.5776930947684332,0.055205867574343294,0.6162198200983116
120,1790596905.5746806,-0.03808081054687522,-0.5901807128906249,0.12329560546875006,0.6041235207537436,0.20724710062741422,-0.5920060668523289,0.05823536529037834,0.629931664292991
121,1790596905.5946805,-0.07161108398437523,-0.5279102050781249,0.18077607421875005,0.5625809461624062,0.20708496410909563,-0.6032206931470143,0.0607101871882227,0.6406599049646067
122,1790596905.6193545,-0.07161108398437523,-0.48479985351562493,0.24783662109375004,0.5491648532757315,0.20664990159472885,-0.6168549029075461,0.06409856008453653,0.6536993027953297
123,1790596905.6393545,-0.04287084960937522,-0.5327002441406249,0.24304658203125007,0.5870937752103867,0.20617842713360943,-0.6277749231897127,0.0671694236735609,0.6641706328028794
124,1790596905.6493537,-0.04287084960937522,-0.580600634765625,0.21430634765625006,0.6203726440472999,0.20591376320615826,-0.6332505149992845,0.0688174371853815,0.6694344869256026
125,1790596905.6693537,-0.02850073242187522,-0.575810595703125,0.18077607421875005,0.6041937792484411,0.20535674507480287,-0.6442943021114977,0.0722118836253344,0.6800743316857197
126,1790596905.6939821,0.009819580078124782,-0.5662305175781249,0.16161591796875005,0.5889254011592502,0.20473920320450673,-0.6579634212595108,0.07639732052048559,0.6933040859731368
127,1790596905.713982,0.014609619140624783,-0.5662305175781249,0.11850556640625005,0.5786829954970956,0.20434958292196112,-0.6690973484116068,0.07970653927290981,0.7041329037154042
128,1790596905.7393315,0.009819580078124782,-0.6093408691406249,0.09455537109375005,0.6167117942447993,0.2039762705361194,-0.6833274808786286,0.08367679700701139,0.7180143253606499
129,1790596905.7593315,0.00023950195312478218,-0.618920947265625,0.08976533203125005,0.625396683042087,0.20374100568993703,-0.6947129863022331,0.0866158407828968,0.7291356764080618
130,1790596905.7841206,0.024189697265624782,-0.6332910644531249,0.03707490234375004,0.6348364058194623,0.2035385636732452,-0.7090361338488035,0.08994805282544377,0.7431358141097191
131,1790596905.8041205,0.04334985351562479,-0.6285010253906249,0.12808564453125004,0.6428831006115178,0.2035010412507338,-0.7207514166394485,0.09248097368216811,0.7546177899248775
132,1790596905.8137662,-0.009340576171875219,-0.5518604003906249,0.24783662109375004,0.6050290394995025,0.20351026245667486,-0.7264079167881471,0.09379127851408055,0.7601853013726233
133,1790596905.8337662,-0.04766088867187522,-0.4416895019531249,0.2622067382812501,0.5158619486303331,0.20344101217794622,-0.7378674914192479,0.09686567857407843,0.7715047893661696
134,1790596905.8594544,-0.02850073242187522,-0.4177393066406249,0.35321748046875007,0.547796502882106,0.20321867434394997,-0.7520342494189389,0.10140783390080176,0.7855806073711797
135,1790596905.8794544,0.009819580078124782,-0.28361821289062494,0.4202780273437501,0.5071186597869739,0.20304351334148954,-0.7624615980518538,0.10557399522996533,0.7960654654503353
136,1790596905.9043245,0.014609619140624783,-0.1207568847656249,0.52565888671875,0.5395488220505428,0.20290393804572626,-0.7742373904874801,0.11174197562646758,0.8081459113428916
137,1790596905.9243245,0.028979736328124783,-0.1447070800781249,0.54960908203125,0.5690782961892131,0.20287391539159624,-0.7826849232000954,0.1175709960169622,0.8170535194560246
138,1790596905.934162,-0.02850073242187522,-0.08722661132812491,0.6645700195312501,0.670875610178323,0.2028617166482987,-0.7863878689900827,0.12090387424432568,0.8210825192290637
139,1790596905.954162,0.00023950195312478218,-0.005795947265624902,0.7028903320312501,0.702914268761769,0.20279824420481266,-0.7929264602542948,0.1287146069257637,0.8285088709603624
140,1790596905.9788988,0.024189697265624782,0.008574169921875098,0.62624970703125,0.6267753611944061,0.20277683711854758,-0.7997954475843039,0.139392082797567,0.836792301825861
141,1790596905.9988987,-0.02371069335937522,0.0516845214843751,0.6022995117187501,0.6049778413771003,0.20276284398260266,-0.8044256495912799,0.14857281116423435,0.8427854275184812
142,1790596906.0235713,-0.13867163085937523,0.20496577148437511,0.66936005859375,0.713641140017875,0.20244769258130796,-0.8088058833660849,0.16055269052864454,0.849075492306235
143,1790596906.0435712,-0.22010229492187522,0.29118647460937513,0.68852021484375,0.7792911326800762,0.2016923848992135,-0.8110797478452708,0.170843949647148,0.8530637904764906
144,1790596906.0538096,-0.3206931152343752,0.20496577148437511,0.4106979492187501,0.5599355740899129,0.20094845940688397,-0.811688195138062,0.17616608242473356,0.8545481250704157
145,1790596906.0738096,-0.37817358398437523,0.0708446777343751,0.20951630859375006,0.438099659385426,0.19866493706710214,-0.8122847534345149,0.18593333945994955,0.8566478183038669
146,1790596906.1134377,-0.42607397460937524,0.0900048339843751,0.23825654296875007,0.49639307232011737,0.19242873919787667,-0.8128114114598913,0.20371411041966214,0.8597619723230259
147,1790596906.1334376,-0.4787644042968752,0.20975581054687512,0.21909638671875006,0.5667592800767628,0.18839622337411216,-0.8125877013592339,0.21202789220916796,0.8606670299579126
148,1790596906.143826,-0.38296362304687526,0.22412592773437512,0.30531708984375006,0.5386205467772651,0.18594444561320425,-0.8121508824903332,0.2161070647579466,0.8607361130001019
149,1790596906.163826,-0.22489233398437522,0.0708446777343751,0.25262666015625007,0.34556585431713116,0.1810204676774742,-0.8109935977676271,0.22361931347268424,0.8605141618220156
150,1790596906.1882186,-0.10514135742187522,-0.0489062988281249,0.17119599609375005,0.20677185539650134,0.1753120666646326,-0.8097537210290642,0.23218252214894322,0.8604325267155377
151,1790596906.2082186,-0.04766088867187522,-0.2117676269531249,0.2813668945312501,0.35536518888674273,0.17110449690026883,-0.809280621926254,0.2388293389052603,0.8609595385421793
152,1790596906.218764,0.11999047851562479,-0.17823735351562492,0.15203583984375005,0.2632131564334444,0.16927593844052136,-0.8093770461365629,0.24215111818010834,0.861616335838373
153,1790596906.238764,0.04334985351562479,-0.2213477050781249,0.09934541015625005,0.2464620191069858,0.1665731996892579,-0.8101318649269392,0.24788310276128236,0.8634270681761594
154,1790596906.2793345,0.05292993164062478,-0.3889990722656249,0.13287568359375004,0.4144608584384109,0.1622059672828674,-0.8132905149880024,0.2584730638980174,0.868654455092731
155,1790596906.2993345,0.2253713378906248,-0.6093408691406249,0.04186494140625004,0.6510308810391494,0.16079344665026757,-0.8161115714469934,0.2631726150576127,0.8724405165119373
156,1790596906.2938511,0.2924318847656248,-0.815312548828125,0.05623505859375005,0.8679938601852157,0.16079344665026757,-0.8161115714469934,0.2631726150576127,0.8724405165119373
157,1790596906.313851,0.3068020019531248,-0.9494336425781249,-0.16889677734374997,1.0119673075048996,0.16133194894535313,-0.8226133328768587,0.266524125734176,0.8796339026979613
158,1790596906.3387065,0.3547023925781248,-1.083554736328125,-0.41797880859375,1.2143355954402428,0.16313394374365078,-0.8332712992270368,0.2689704830055772,0.8906732635737552
159,1790596906.3587065,0.4840334472656248,-1.4715479003906249,-0.47066923828124996,1.6190340123296214,0.16562453151047565,-0.8443935298712132,0.269310713011835,0.9016430440420282
160,1790596906.3987758,0.5463039550781248,-1.701469775390625,-0.50898955078125,1.858095199581099,0.17296224517715428,-0.8728696721722198,0.26694603603518613,0.9290196924767846
161,1790596906.4187758,0.5606740722656248,-1.6727295410156249,-0.52335966796875,1.8401860978590243,0.17773583923132133,-0.8900123716388544,0.2643942660985163,0.9453128467143845
162,1790596906.4143047,0.6947951660156249,-1.792480517578125,-0.68143095703125,2.0396261612894526,0.17773583923132133,-0.8900123716388544,0.2643942660985163,0.9453128467143845
163,1790596906.4343047,0.7379055175781248,-1.940971728515625,-0.70538115234375,2.1930431764675697,0.1849345316635928,-0.9124162836431299,0.25893428955713227,0.9663080367911827
164,1790596906.4588728,0.7858059082031248,-2.008032275390625,-0.56167998046875,2.2282659053256557,0.1952586062181437,-0.9430856624035521,0.2508985909096455,0.9952319291772367
165,1790596906.4788728,0.8432863769531248,-2.022402392578125,-0.43234892578125,2.2334209062970314,0.2048460278128964,-0.9703531103662605,0.24384721451741803,1.0212778847777435
166,1790596906.5039372,0.8289162597656248,-1.917021533203125,-0.29822783203125,2.109742535065915,0.21820240689299822,-1.0068049792630605,0.23496243597294533,1.0566342332903707
167,1790596906.5239372,0.9534572753906249,-1.873911181640625,-0.41318876953125,2.142743300523846,0.22993493307676274,-1.0372148647806987,0.22786920816702957,1.086558385546643
168,1790596906.5487685,0.9869875488281248,-1.955341845703125,-0.42755888671875,2.2316614341587817,0.24593041403060772,-1.07643875939777,0.21881774067633095,1.1256479800158532
169,1790596906.5687685,1.0253078613281248,-2.031982470703125,-0.33175810546874995,2.300059219300721,0.2598996692264249,-1.1092731754087013,0.21148195694506278,1.1587749711909652
170,1790596906.5938473,1.0253078613281248,-2.084672900390625,-0.30780791015625,2.343472428188365,0.27864580391633215,-1.1520127513447582,0.20246015515339197,1.2024005063729115
171,1790596906.6138473,1.0636281738281248,-2.122993212890625,-0.27906767578124997,2.390875120495957,0.29448652441276923,-1.1872958406560234,0.1954642929759254,1.2387897384658886
172,1790596906.623506,1.0971584472656248,-2.2092139160156252,-0.27906767578124997,2.4823902901818964,0.3025544372302325,-1.2049178461014705,0.1921881724081108,1.2571008300669757
173,1790596906.643506,1.0732082519531247,-2.252324267578125,-0.33654814453125,2.5175395154732025,0.32000990504752097,-1.242625737843643,0.18549861724048194,1.2965086967228998
174,1790596906.6691902,1.0492580566406249,-2.400815478515625,-0.36049833984374996,2.6447715372666067,0.34315240164143224,-1.2927501543937594,0.1768537320912683,1.3491603963176437
175,1790596906.6891901,1.077998291015625,-2.4726660644531253,-0.30301787109374995,2.714401888433786,0.36166100058051937,-1.333237069038716,0.17013652169540266,1.3918571038775707
176,1790596906.6986294,1.0205178222656248,-2.5540967285156255,-0.33175810546874995,2.77036643148884,0.3705716800481172,-1.3530377674384995,0.16699240941389373,1.4127706944053238
177,1790596906.7186294,0.9726174316406249,-2.6690576660156253,-0.42755888671875,2.8727443489562656,0.3896094483040391,-1.3965334038383148,0.16019091190254023,1.4586850923006565
178,1790596906.7437017,1.0157277832031248,-2.6690576660156253,-0.25990751953124996,2.8675989386238094,0.4136345584895214,-1.4529192065126384,0.15165067495566134,1.5182442806889291
179,1790596906.7637017,1.0636281738281248,-2.5301465332031254,-0.14973662109374997,2.7487028626858376,0.43304351474665703,-1.4989496932303517,0.14524560854671711,1.5669949442488988
180,1790596906.7887933,1.1306887207031249,-2.501406298828125,-0.27906767578124997,2.759233448370804,0.4578705763042312,-1.5575051694468476,0.13760831546658775,1.6292341347959705
181,1790596906.8087933,1.2216994628906248,-2.578046923828125,-0.24074736328124996,2.8630114935175817,0.4782198774826652,-1.6047965924109637,0.1316542082140156,1.6797021119156323
182,1790596906.8189108,1.279179931640625,-2.410395556640625,-0.0012454101562499565,2.7287926978851726,0.48886768913478795,-1.6289169940989316,0.12891034136645102,1.705573237142135
183,1790596906.8389108,1.245649658203125,-2.190053759765625,0.003544628906250044,2.5195219995148275,0.5105459181962956,-1.6763459726810963,0.1243034072094182,1.7567709844356207
184,1790596906.8643477,1.2169094238281248,-2.127783251953125,-0.020405566406249957,2.4512744644846025,0.538679551778066,-1.73585736258368,0.11929082975917343,1.8214298627189627
185,1790596906.8843477,1.1737990722656249,-2.094252978515625,-0.010825488281249957,2.400795074817869,0.5610678914344887,-1.7819630848550592,0.11589397561855165,1.8717962036956843
186,1790596906.9237812,1.207329345703125,-2.008032275390625,-0.0012454101562499565,2.34304061404254,0.6056312710483944,-1.8713653465179805,0.11016540483264094,1.970008607352261
187,1790596906.9437811,1.2312795410156248,-1.787690478515625,-0.0012454101562499565,2.1706883945296083,0.6285006921293933,-1.9156007182707055,0.10769205110830571,2.0189444791074083
188,1790596906.938554,1.1354787597656248,-1.706259814453125,-0.14015654296874996,2.054331624843819,0.6285006921293933,-1.9156007182707055,0.10769205110830571,2.0189444791074083
189,1790596906.958554,0.9821975097656248,-1.754160205078125,-0.06351591796874996,2.0114234375448987,0.6512179741910241,-1.9572061818162954,0.10541925732412422,2.0653944194424834
190,1790596906.9842916,1.006147705078125,-1.596088916015625,-0.03956572265624996,1.887166786129732,0.679905309298679,-2.0091831777735774,0.10273419139072631,2.1235919065445623
191,1790596907.0042915,1.006147705078125,-1.414067431640625,-0.02998564453124996,1.7357474022848618,0.7018721235560577,-2.0480299189563973,0.10085634196391165,2.1673077835139103
192,1790596907.0288663,0.9295070800781249,-1.337426806640625,-0.015615527343749958,1.6287841231208402,0.7283825011807937,-2.0936738466743408,0.09881101532886515,2.218958057518177
193,1790596907.0488663,0.8289162597656248,-1.356586962890625,0.10892548828125005,1.5935165877975515,0.749359114473515,-2.1292897857875785,0.09753609248722425,2.2594086313992694
194,1790596907.0589237,0.9103469238281249,-1.3517969238281249,0.26699677734375005,1.6514762257163917,0.7596373414615571,-2.1465564917289672,0.0972746983477464,2.2790822779498767
195,1790596907.0789237,0.9342971191406249,-1.318266650390625,0.18077607421875005,1.6258591751368052,0.7797774664354684,-2.1797472854424016,0.09750452566303533,2.3170796831526554
196,1790596907.1033695,0.8624465332031248,-1.332636767578125,-0.06351591796874996,1.5886374818600295,0.8039961838695988,-2.219090991608606,0.09795829253358374,2.3622807876692895
197,1790596907.1233695,0.8480764160156248,-1.4715479003906249,-0.11620634765624996,1.7024073383833753,0.8234040521121703,-2.2506575116916814,0.0980042661841753,2.3985533773837995
198,1790596907.1485744,0.8432863769531248,-1.562558642578125,0.013124707031250044,1.7756389506273444,0.8473912348451962,-2.29020743225456,0.09785865141940757,2.4439104532089786
199,1790596907.1685743,0.9007668457031248,-1.500288134765625,0.03707490234375004,1.7503199553282462,0.8661859824939987,-2.3214769909521697,0.09783573775775503,2.479738979685571
200,1790596907.1943529,1.0109377441406249,-1.500288134765625,-0.03956572265624996,1.809537249203775,0.8904733651608637,-2.361536848600472,0.09780581808314016,2.525740501201514
201,1790596907.2143528,1.0109377441406249,-1.677519580078125,-0.06351591796874996,1.9596176504382272,0.9095228017047721,-2.392721542881018,0.09763146485624842,2.5616166792706894
202,1790596907.2238975,1.0109377441406249,-1.854751025390625,0.022704785156250046,2.112489525650885,0.9186974872963296,-2.407900061556975,0.09753152462659151,2.579050247262868
203,1790596907.2438974,1.1306887207031249,-2.008032275390625,0.046654980468750044,2.304957112255727,0.9382510306220376,-2.440728813327047,0.09745755982466751,2.616671571411886
204,1790596907.2696288,1.159428955078125,-2.099043017578125,0.08018525390625005,2.399309643722761,0.9640540229042355,-2.484555793955219,0.09762145577034712,2.666823503905163
205,1790596907.2896287,1.087578369140625,-2.233164111328125,0.09934541015625005,2.485903893489374,0.9844718629810053,-2.5200093876097833,0.09799903308482878,2.707256170577193
206,1790596907.3137162,1.0684182128906248,-2.410395556640625,0.051445019531250046,2.637076185312786,1.009268878167593,-2.5646926799429064,0.09865797682447354,2.7578987667029216
207,1790596907.3337162,1.1019484863281248,-2.5061963378906253,0.022704785156250046,2.7378506273802117,1.0300252075876914,-2.6036033150972795,0.09923425864964588,2.801704764735456
208,1790596907.3443356,1.1354787597656248,-2.578046923828125,-0.015615527343749958,2.817069718702887,1.0411750686644752,-2.6252140296989994,0.09949999532746327,2.8258971096639556
209,1790596907.3643355,1.0684182128906248,-2.5828369628906254,-0.010825488281249957,2.795117429681085,1.0623300759949847,-2.6675506860219915,0.09988573625562783,2.87303828954075
210,1790596907.389489,0.9534572753906249,-2.534936572265625,-0.010825488281249957,2.708339231448239,1.0887594895778374,-2.7224641424765204,0.10025725652555414,2.9338131758348625
211,1790596907.409489,0.9582473144531248,-2.376865283203125,-0.0060354492187499565,2.5627647018015853,1.1094894253132708,-2.766945227461142,0.10048305799523179,2.982792235740873
212,1790596907.4347491,1.044468017578125,-2.266694384765625,-0.020405566406249957,2.495843196359089,1.135538429838274,-2.8234956357913643,0.10067537648919979,3.044948384193679
213,1790596907.454749,1.0205178222656248,-2.199633837890625,-0.09704619140624997,2.426780502975428,1.156166743826073,-2.868253238567999,0.1006286283195679,3.0941435488552687
214,1790596907.4637978,0.8480764160156248,-2.099043017578125,-0.20242705078124998,2.2729258474339598,1.1653679034343536,-2.8883829836281176,0.10040741209788866,3.1162349492410937
215,1790596907.4837978,0.7762258300781248,-2.099043017578125,-0.20242705078124998,2.247105880863639,1.1850907667178159,-2.9324982824453723,0.09938452795248516,3.1644689264237083
216,1790596907.5095332,0.8049660644531248,-2.103833056640625,-0.27906767578124997,2.269793528671922,1.2097146824048886,-2.9888617897293246,0.09733638502431011,3.2258609366771442
217,1790596907.5295331,0.9630373535156248,-2.218793994140625,-0.34612822265625,2.443418195729102,1.2286324714678951,-3.032577689401601,0.09504565308504873,3.2733925625216456
218,1790596907.5540516,0.9869875488281248,-2.228374072265625,-0.45629912109375,2.4795169520288347,1.2519313790019664,-3.0863091045020408,0.0911830530777376,3.331808880387729
219,1790596907.5740516,1.0157277832031248,-2.194843798828125,-0.54730986328125,2.479635117768328,1.2710898311125136,-3.130198796371639,0.08699949332315096,3.379553635526825
220,1790596907.5830913,0.9007668457031248,-2.300224658203125,-0.74370146484375,2.579826788242648,1.279749554330233,-3.1501080965429447,0.0845169612007706,3.4011884773479486
221,1790596907.6030912,0.9534572753906249,-2.376865283203125,-0.84429228515625,2.696553135628139,1.298816397830778,-3.1945652339572126,0.0774663130511512,3.4493727109345484
222,1790596907.6288087,1.2216994628906248,-2.429555712890625,-0.88261259765625,2.8590724959693183,1.3238518249448026,-3.2524273314939753,0.06642911695903542,3.512161731560587
223,1790596907.6488087,1.327080322265625,-2.439135791015625,-0.81076201171875,2.8927254671683396,1.344224107602082,-3.29797882449265,0.056593162553482436,3.561854231198736
224,1790596907.673892,1.207329345703125,-2.324174853515625,-0.74370146484375,2.722595226529469,1.3707096571070592,-3.355499569943812,0.043183296885851936,3.6249258096007417
225,1790596907.693892,1.1115285644531248,-2.218793994140625,-0.61916044921875,2.5577142529818486,1.3921382841200085,-3.401298185687972,0.03205058986384474,3.675310271308738
226,1790596907.7050455,1.082788330078125,-2.233164111328125,-0.43713896484375,2.520028370963703,1.4041315019557392,-3.426731864334324,0.0258898319809731,3.7033426560647444
227,1790596907.7250454,1.159428955078125,-2.161313525390625,-0.20242705078124998,2.4610014969109626,1.425774759065193,-3.472089315549389,0.01554032258050341,3.753462319028331
228,1790596907.7787938,1.2264895019531248,-1.907441455078125,0.022704785156250046,2.267845874441376,1.4848325635784327,-3.592101369203148,-0.008825626597446607,3.8869008065782777
229,1790596907.7987938,1.006147705078125,-1.629619189453125,0.08976533203125005,1.9173027204650073,1.5068608125883405,-3.6353653712657805,-0.016363587794535825,3.9353244666886473
230,1790596907.7944334,0.7283254394531248,-1.390117236328125,0.12808564453125004,1.5745760727339018,1.5068608125883405,-3.6353653712657805,-0.016363587794535825,3.9353244666886473
231,1790596907.8144333,0.7618557128906248,-1.136245166015625,0.013124707031250044,1.368082403399961,1.5272229432450644,-3.6742633130166262,-0.02132018970386745,3.9790797129792512
232,1790596907.8244357,0.8289162597656248,-0.896743212890625,0.008334667968750044,1.2211961440568762,1.537072274321878,-3.692323983067819,-0.023411149404719403,3.999549431416405
233,1790596907.8444357,0.6421047363281248,-0.738671923828125,0.08976533203125005,0.9828491839044455,1.556018675442051,-3.7254729240595275,-0.026817783747512876,4.037457345873787
234,1790596907.8691375,0.4313430175781248,-0.575810595703125,0.12329560546875006,0.7299427698561688,1.5778978651374804,-3.762708901108255,-0.02999944236100457,4.080274490010039
235,1790596907.8891375,0.4361330566406248,-0.4081592285156249,0.22388642578125006,0.6379115381981014,1.5942564973981872,-3.7898109279175896,-0.03166831068720143,4.111608387329914
236,1790596907.9143965,0.5271437988281248,-0.1159668457031249,0.22867646484375007,0.5861926471039309,1.6136424980963868,-3.8198981236215452,-0.032602509270030666,4.146869507245297
237,1790596907.9343965,0.4313430175781248,-0.0010059082031249021,0.16640595703125005,0.4623297018364728,1.6281275155776713,-3.840323057062144,-0.03263862643280541,4.1713242105498916
238,1790596907.9589148,0.2636916503906248,-0.19260747070312492,0.09934541015625005,0.3413216002181816,1.6444993678449515,-3.861962412238022,-0.032187579567314,4.197638369924233
239,1790596907.9789147,0.1870510253906248,-0.2979883300781249,0.017914746093750045,0.3522869130269207,1.6565270747006022,-3.877702176470908,-0.03169895148075801,4.216830675062532
240,1790596907.9888506,0.2014211425781248,-0.3506787597656249,-0.08746611328124997,0.4137588551327483,1.6618955511771312,-3.8848320537356233,-0.03154444533575979,4.225495469265779
241,1790596908.0088506,0.2205812988281248,-0.41294926757812495,-0.09225615234374997,0.47717334861796873,1.6717138739805721,-3.898176524093334,-0.031549672593159966,4.241627384777246
242,1790596908.0488591,0.3020119628906248,-0.40336918945312494,0.022704785156250046,0.5044139530168754,1.6899767189808632,-3.9233164700320686,-0.03176725951243068,4.271936632664294
243,1790596908.068859,0.3499123535156248,-0.37462895507812494,0.16640595703125005,0.5389586734261335,1.6987146485216256,-3.935165651009501,-0.03157604827174028,4.286275446679954
244,1790596908.079421,0.3594924316406248,-0.3027783691406249,0.23825654296875007,0.5269494562989563,1.7031989085873682,-3.941021152326421,-0.031169665123788732,4.29342588072991
245,1790596908.099421,0.4121828613281248,-0.19260747070312492,0.4202780273437501,0.6193754670724771,1.711574064754616,-3.951188957148422,-0.029527769893505623,4.306071509325775
246,1790596908.1086068,0.5415139160156248,-0.06806645507812491,0.4585983398437501,0.7128694136045698,1.7155007307761627,-3.9553380196821766,-0.028281291660058473,4.311431483706407
247,1790596908.1286068,0.5223537597656248,-0.0489062988281249,0.39632783203125005,0.6575112370514595,1.7243635433302764,-3.9631920765680095,-0.02469206802184038,4.32214423215621
248,1790596908.153918,0.4505031738281248,-0.07285649414062491,0.36758759765625004,0.5859879011706383,1.7357443377658373,-3.971872055844506,-0.019380865301868586,4.334622434771508
249,1790596908.173918,0.4313430175781248,-0.17823735351562492,0.34842744140625004,0.5824320002597403,1.744710879269204,-3.9780784997697918,-0.014739638444949753,4.343885571641187
250,1790596908.1994412,0.4840334472656248,-0.2213477050781249,0.3005270507812501,0.6112280203544934,1.7561894627355443,-3.9855757568588532,-0.008462876650013627,4.355351554463264
251,1790596908.2194412,0.4457131347656248,-0.3027783691406249,0.20951630859375006,0.5781280333012818,1.7652295113943983,-3.9913555714202698,-0.0035171097479974054,4.364283090665214
252,1790596908.2291284,0.3642824707031248,-0.3698389160156249,0.10413544921875005,0.529458906852247,1.769539844877798,-3.9942238370295886,-0.0012530287884385837,4.368649321356276
253,1790596908.2491283,0.3642824707031248,-0.4608496582031249,0.06581513671875004,0.5911139975916809,1.7781968698157797,-4.000503370943946,0.0029751190438889884,4.377901344261864
254,1790596908.2739515,0.3594924316406248,-0.518330126953125,0.03707490234375004,0.631882486937192,1.788677394587216,-4.008951171983475,0.007627312465797514,4.389887754504715
255,1790596908.2939515,0.3163820800781248,-0.5901807128906249,0.003544628906250044,0.6696442778496134,1.796868718026065,-4.016399352946082,0.010874263188119591,4.400036272778467
256,1790596908.3184545,0.3068020019531248,-0.7434619628906249,-0.02519560546874996,0.8046725900654024,1.8065442241425604,-4.026606593829747,0.014215778292655766,4.41331675541293
257,1790596908.3384545,0.3259621582031248,-0.9254834472656249,-0.020405566406249957,0.9814210752187175,1.8142061596090255,-4.036191713093018,0.016465693528162954,4.425207187631721
258,1790596908.3482447,0.3690725097656248,-0.973383837890625,0.04186494140625004,1.0418460954720368,1.8179045004487322,-4.041574188820977,0.01741760215571913,4.431636500138583
259,1790596908.3682446,0.4457131347656248,-0.9685937988281249,0.08018525390625005,1.0692351568176703,1.8255485944810332,-4.053833454645423,0.01925360170877942,4.445960419301197
260,1790596908.4089954,0.5127736816406248,-0.9877539550781249,0.07060517578125004,1.1151590986056028,1.8417168921713134,-4.081044574155418,0.022894246003981475,4.477428957968248
261,1790596908.4289954,0.5510939941406248,-1.045234423828125,0.03707490234375004,1.1821988578564007,1.8500576196269083,-4.095445714381165,0.024574533258717685,4.493995182804218
262,1790596908.4385524,0.5510939941406248,-1.083554736328125,0.06581513671875004,1.2174264204535268,1.8542354215975894,-4.102820936685421,0.02533077008415924,4.5024404810196526
263,1790596908.4585524,0.5606740722656248,-1.131455126953125,0.051445019531250046,1.2638008979479332,1.863334536038339,-4.119262475715579,0.02685185236703627,4.521179045227826
264,1790596908.4685977,0.5463039550781248,-1.126665087890625,0.008334667968750044,1.2521548220151295,1.8680531712282624,-4.127983044008038,0.027546278595583576,4.531073323134189
265,1790596908.4885976,0.4936135253906248,-1.126665087890625,0.008334667968750044,1.2300804849319007,1.8775985517836435,-4.146121148525783,0.0287464835538971,4.551540756736064
266,1790596908.5135205,0.4744533691406248,-1.093134814453125,0.05623505859375005,1.1929845363094194,1.8895187530293491,-4.169482708709297,0.0301384617073989,4.577747863649711
267,1790596908.5335205,0.4744533691406248,-1.045234423828125,0.09934541015625005,1.1521677441949658,1.899072933344033,-4.188625282198184,0.03132130659320039,4.599134786574148
268,1790596908.5589206,0.4505031738281248,-0.992543994140625,0.046654980468750044,1.09099650647304,1.911148799940756,-4.21317183418035,0.03287632951136935,4.626487597831399
269,1790596908.5789206,0.3978127441406248,-0.9063232910156249,-0.020405566406249957,0.9899966032156107,1.9205034863491408,-4.232448806742559,0.03395645934542452,4.647914541373043
270,1790596908.6041827,0.4073928222656248,-0.9254834472656249,-0.020405566406249957,1.011387616068427,1.9320726511544675,-4.256616003851827,0.035038807862336374,4.674709857482382
271,1790596908.6241827,0.4217629394531248,-0.9877539550781249,0.013124707031250044,1.07411084660908,1.9411017806590773,-4.275749021258581,0.03575624624408182,4.6958688572847755
272,1790596908.6338172,0.4409230957031248,-1.026074267578125,-0.03477568359374996,1.1173410075173225,1.9454222717891922,-4.285038515687912,0.0360343684523481,4.706115316501716
273,1790596908.6538172,0.4121828613281248,-0.9829639160156249,-0.02519560546874996,1.066183656738533,1.9543253992172962,-4.304443303700934,0.03643515586656404,4.727467339007713
274,1790596908.678759,0.4169729003906248,-0.973383837890625,-0.04914580078124996,1.0600744338306074,1.9653140604247605,-4.328672643189471,0.03672093730426899,4.75407347810661
275,1790596908.698759,0.4552932128906248,-1.059604541015625,-0.02519560546874996,1.1535547284720122,1.974112140501693,-4.3482364231964645,0.03680420900543679,4.775524398962807
276,1790596908.7236736,0.4552932128906248,-1.1554053222656249,-0.04914580078124996,1.2428470051291232,1.9851296512270367,-4.373090812157048,0.03675346925471296,4.802709006493671
277,1790596908.7436736,0.4457131347656248,-1.136245166015625,0.013124707031250044,1.2206086734621917,1.9939987689008623,-4.393487250548667,0.03666481626713584,4.8249461779240335
278,1790596908.7534926,0.5271437988281248,-1.0356543457031249,0.19514619140625006,1.1783643513095086,1.9984163717613113,-4.403598318154615,0.03678119693622776,4.8359796317836015
279,1790596908.7734926,0.5750441894531249,-1.050024462890625,0.2717868164062501,1.2276380843167058,2.007717981093781,-4.424232429358416,0.037683089138733,4.858619566893564
280,1790596908.7985642,0.5367238769531248,-1.0739746582031249,0.23346650390625007,1.2231110722253802,2.0197198006024477,-4.4502129090084805,0.03959415976049829,4.887251856200829
281,1790596908.8185642,0.4936135253906248,-1.030864306640625,0.11850556640625005,1.14907749974642,2.029403220907594,-4.470986406086246,0.04141793184782036,4.91018455065761
282,1790596908.8441653,0.5031936035156248,-1.030864306640625,0.08497529296875005,1.1502633705981518,2.0418532205086013,-4.49754770308168,0.043792987578956104,4.939536186865902
283,1790596908.8641653,0.47924340820312483,-1.126665087890625,0.14245576171875005,1.232615961532466,2.051594073668563,-4.518421547200798,0.04571124701701849,4.962586124131678
284,1790596908.8742335,0.3786525878906248,-1.188935595703125,0.06581513671875004,1.249510810384416,2.0564099737959034,-4.5291019639667445,0.04668933449540786,4.974310653175002
285,1790596908.8942335,0.3115920410156248,-1.188935595703125,-0.06351591796874996,1.2307281270002894,2.065576922511806,-4.550702507784307,0.048344270906507864,4.997783359220087
