imu_index,t_imu,ax,ay,az,mag,vx,vy,vz,velocity
0,1791353821.9631495,0.02126777343749999,-0.022704785156250046,-0.004742138671873955,0.03146924427379191,0.0,0.0,0.0,0.0
1,1791353821.9831495,0.02126777343749999,-0.022704785156250046,-0.014322216796873954,0.03424837733319582,9.091964473749973e-05,-9.706286397652022e-05,-3.464272697185068e-05,0.00013743252851695562
2,1791353821.9929798,0.02126777343749999,-0.046654980468750044,0.014418017578126047,0.05326241282941874,0.00016026463534789793,-0.00018875103311931778,-4.904532331739914e-05,0.0002524225615631707
3,1791353822.0129797,0.05000800781249999,0.010825488281249957,4.790039062604557e-05,0.0511663398764262,0.0003871004191300938,-0.00040105675620402963,-5.225369141548585e-05,0.0005598425711341873
4,1791353822.0225163,0.08353828125,-0.017914746093750045,-0.03348237304687396,0.09176410990500407,0.0005745547407225637,-0.0004921751615903686,-7.746764943946974e-05,0.0007604937714951743
5,1791353822.0425162,0.064378125,-0.046654980468750044,-0.047852490234373955,0.09279596436637709,0.001130589348455197,-0.0007514593390859508,-0.00024441678594433285,0.0013793705007688103
6,1791353822.0681112,0.10269843749999999,-0.06102509765625005,-0.047852490234373955,0.1286891309727714,0.002056159949276903,-0.0012402101051817637,-0.0006097390984700564,0.00247743750884022
7,1791353822.0881112,0.0691681640625,-0.07539521484375004,-0.08617280273437396,0.13377004624432734,0.002928717023883636,-0.0017694651656989255,-0.001053421331049864,0.0035802355899184363
8,1791353822.1131806,0.01647773437499999,-0.07539521484375004,-0.08617280273437396,0.11567932435213135,0.004019418526420061,-0.0026168797040005015,-0.0018501902530746461,0.005140718689863411
9,1791353822.1331806,-0.002682421875000011,-0.03228486328125005,-0.023902294921873957,0.040259501819281465,0.00477973237820706,-0.0033530440628743025,-0.0025556035925458813,0.006373370836307185
10,1791353822.1577756,-0.05537285156250001,0.09225615234374997,0.05752836914062605,0.12201173546596245,0.005467390113460102,-0.004011924254680761,-0.0032309371542873166,0.0075117804662417605
11,1791353822.1777756,-0.05058281250000001,0.19763701171874998,0.10542875976562605,0.22963935356825396,0.005783763123811865,-0.004032500351935317,-0.003453289628066152,0.007850998931093655
12,1791353822.1888254,-0.036212695312500015,0.20242705078124998,0.09105864257812606,0.2248994143566444,0.005860406411772811,-0.0037106176753928595,-0.0033948744084892567,0.007722578526211376
13,1791353822.2088253,-0.05537285156250001,0.14973662109374997,0.07189848632812605,0.17509026450094714,0.005840943555530372,-0.002687157708385247,-0.003060567411474707,0.007120710010160997
14,1791353822.2327096,-0.08411308593750001,0.09225615234374997,0.05752836914062605,0.13746171149517455,0.005571322869218849,-0.001214773280759358,-0.002489372669348587,0.0062219200351360604
15,1791353822.2527096,-0.05058281250000001,0.05872587890624996,4.790039062604557e-05,0.07750710979109666,0.005177372899904764,5.9689868182503025e-05,-0.001996452458724164,0.005549286030200432
16,1791353822.2780068,0.01647773437499999,0.0060354492187499565,-0.06222260742187396,0.06464978926324362,0.004689118124972377,0.0015527749642822411,-0.0015844621756175982,0.005187432820346595
17,1791353822.2980068,0.02605781249999999,-0.027494824218750043,-0.05743256835937396,0.06880025333862719,0.004424808598468038,0.002523956172204443,-0.0014870825918096762,0.005306665669433959
18,1791353822.3086073,0.02605781249999999,-0.03228486328125005,-0.03348237304687396,0.05331408157536051,0.004347164813105444,0.0029139697279872354,-0.0015154919450716,0.0054484655934955665
19,1791353822.3286073,0.03084785156249999,-0.03707490234375004,-0.023902294921873957,0.05382804132004876,0.0043080069534014035,0.003435389572619166,-0.0016471285553804017,0.005750987559034088
20,1791353822.353181,0.03563789062499999,-0.03707490234375004,0.004837939453126046,0.05165281492958712,0.004389645741923621,0.0038432893446330822,-0.0018197428055481022,0.006111573169365023
21,1791353822.3731809,0.0787482421875,-0.003544628906250044,0.019208056640626046,0.08113445311095452,0.004617702464322264,0.004064545032796119,-0.0019030883267952977,0.006439367014871884
22,1791353822.3978662,0.05000800781249999,0.020405566406249957,0.004837939453126046,0.05422724079175567,0.005095343360699731,0.004327887364625878,-0.0019460097479887467,0.006962764317681763
23,1791353822.4178662,0.04042792968749999,0.044355761718749956,0.03836821289062605,0.07123181070903904,0.0055599321817039055,0.004606384173680049,-0.0019107591045999424,0.007468776431015214
24,1791353822.4278862,0.00689765624999999,0.06351591796874996,0.08626860351562606,0.10735046087321855,0.005793343108179894,0.004806048071387471,-0.0018020828451201026,0.007740053295311271
25,1791353822.4478862,-0.026632617187500013,0.09225615234374997,0.10542875976562605,0.14260335665490914,0.006159746182705736,0.005378456159000763,-0.0013301566952073564,0.008284900755196533
26,1791353822.4732814,-0.06495292968750001,0.09704619140624997,0.09105864257812606,0.14808282388453678,0.006380766044512724,0.006356805588070371,-0.0004465720048983454,0.009017903257126248
27,1791353822.4932814,-0.07453300781250001,0.08267607421874996,0.05273833007812605,0.12317399872226206,0.0063194920982403025,0.007281313830815663,0.00036061109076719524,0.009647981749637246
28,1791353822.517862,-0.031422656250000014,0.03477568359374996,0.07668852539062605,0.08987692374467972,0.006060145376669342,0.008463659095421832,0.001442465684531925,0.010509024432407399
29,1791353822.537862,-0.026632617187500013,-0.017914746093750045,0.05273833007812605,0.061737880472922196,0.0057936987805354894,0.009306658531332805,0.0023848146525548516,0.011219098872255669
30,1791353822.5782473,-0.060162890625000014,-0.013124707031250044,0.07668852539062605,0.09835121386948184,0.005073482262803082,0.010659546157097343,0.0043942586464959885,0.012596652555285113
31,1791353822.5982473,-0.002682421875000011,-0.022704785156250046,0.10542875976562605,0.10787921969417948,0.004676042551324051,0.011175293797523845,0.005513300526454113,0.013309735087437588
32,1791353822.5930018,0.04042792968749999,-0.003544628906250044,0.13416899414062605,0.14017239700314685,0.004676042551324051,0.011175293797523845,0.005513300526454113,0.013309735087437588
33,1791353822.6130018,0.02126777343749999,0.03477568359374996,0.10542875976562605,0.11303490497240014,0.0045295613027764026,0.011561300034074747,0.006986691417731134,0.014247611766190995
34,1791353822.6378865,0.02605781249999999,0.08267607421874996,0.08626860351562606,0.12229723951523065,0.004462968846744851,0.012188746924045315,0.008902725654956806,0.015739827400351798
35,1791353822.6578865,0.05479804687499999,0.05393583984374996,0.02878813476562605,0.08210150707660115,0.004538759882591928,0.012822304954019445,0.01038424942182846,0.01711269942646227
36,1791353822.6684394,0.01647773437499999,0.015615527343749958,-0.028692333984373954,0.0365870257581471,0.00462916438198283,0.013161501997771474,0.011048785634296404,0.01779690876824949
37,1791353822.6884394,-0.02184257812500001,-0.04186494140625004,-0.009532177734373955,0.048172958705638716,0.004766752681858864,0.013668551499478258,0.012061971988843262,0.018842568813289166
38,1791353822.7139072,-0.060162890625000014,-0.04186494140625004,0.07668852539062605,0.10608193368285271,0.004759038416511378,0.014057442938788226,0.01328690502602201,0.019919889402244356
39,1791353822.7339072,-0.08411308593750001,-0.017914746093750045,0.12458891601562605,0.15138806870913413,0.004537475331773551,0.014227361259261042,0.01440647230296579,0.020749769516890927
40,1791353822.7579646,-0.060162890625000014,-0.008334667968750044,0.05273833007812605,0.08043861981619524,0.004050622636923369,0.014353730617100862,0.015871114926280863,0.021779105017843824
41,1791353822.7779646,-0.06495292968750001,-0.03228486328125005,-0.028692333984373954,0.0780028557268847,0.003518918062024143,0.014382099393862065,0.01694216326676647,0.02250032140792523
42,1791353822.7885048,-0.05058281250000001,-0.046654980468750044,-0.07180268554687395,0.09945317377888384,0.0031894020456225843,0.014332404088659977,0.017342507895782247,0.022723394827457635
43,1791353822.8085048,-0.002682421875000011,-0.07539521484375004,-0.10533295898437396,0.12956336695553458,0.002578039784086784,0.01406917720669985,0.017722506080673845,0.0227744430926725
44,1791353822.8332918,-0.04579277343750001,-0.10413544921875005,-0.09096284179687396,0.14565510108077986,0.0018438860297839007,0.013458130502118953,0.017757895726678796,0.022357639699719958
45,1791353822.8532917,-0.17512382812500002,-0.09455537109375005,-0.009532177734373955,0.19924842732676967,0.0010089963944235056,0.012741011755281396,0.017631425122412177,0.0217765609341651
46,1791353822.8785403,-0.20865410156250003,0.010825488281249957,0.10542875976562605,0.23402766648646406,-0.0006136302240689676,0.011812943624758892,0.017677307702164694,0.021269917412407458
47,1791353822.8985403,-0.02184257812500001,0.06351591796874996,0.08626860351562606,0.1093327124290621,-0.0020518990691225977,0.011299581834421658,0.01799574648676452,0.021348014686114393
48,1791353822.9086103,0.1362287109375,0.0012454101562499565,0.03357817382812605,0.1403114624247858,-0.00258105713245995,0.011128785155159422,0.01822254666038312,0.021507508496814758
49,1791353822.9286103,0.188919140625,-0.08018525390625005,0.06231840820312605,0.21448473288201603,-0.002986642880545317,0.010722042223553949,0.018749267913509633,0.021804065502381606
50,1791353822.9529092,0.11227851562499999,-0.09455537109375005,0.16290922851562606,0.21928657051718106,-0.002856585086623433,0.009983546510353644,0.01970367421732847,0.022272540424121547
51,1791353822.9729092,0.05958808593749999,-0.10413544921875005,0.17248930664062606,0.21011304736986153,-0.0025077944876464543,0.009168844711627636,0.020874492608609598,0.022936895783978895
52,1791353822.9986567,-0.002682421875000011,-0.09934541015625005,0.11500883789062605,0.151999140455403,-0.0020162343589051777,0.007884405009147066,0.022710863376312302,0.024124932303238006
53,1791353823.0186567,0.03563789062499999,-0.07539521484375004,-0.014322216796873954,0.0846145588153206,-0.001642245342676374,0.006774234423752318,0.02407436923631854,0.025063169710156246
54,1791353823.0426738,0.1458087890625,-0.03707490234375004,-0.15323334960937396,0.21474452445680622,-0.0009336677875672466,0.005438462322247062,0.02516432235792235,0.025762215116357373
55,1791353823.0626738,0.10748847656249999,-0.10892548828125005,-0.16760346679687396,0.22695694894267213,-5.217089127484216e-05,0.004273964434559353,0.025454567432696903,0.02581093754545713
56,1791353823.0881257,0.04521796874999999,-0.051445019531250046,-0.09575288085937396,0.11772794453873786,0.0011928503978445794,0.002708189200383978,0.02526580855210646,0.025438519269179373
57,1791353823.1081257,0.11227851562499999,-0.051445019531250046,-0.05743256835937396,0.13620409323466834,0.0022606769387701767,0.0015080323626603751,0.024909953640898912,0.025057745553422228
58,1791353823.118164,0.1362287109375,-0.03228486328125005,-0.052642529296873956,0.1495720895473289,0.002903340920964932,0.0009329693914015068,0.0246752616286205,0.024862991711166075
59,1791353823.138164,0.1362287109375,-0.05623505859375005,0.004837939453126046,0.14745863540968887,0.004400377751541322,-0.00017367917881339545,0.024206104023224862,0.024603433922861177
60,1791353823.1629162,0.1362287109375,0.03477568359374996,0.047948291015626046,0.14854847176738206,0.006481003847649913,-0.001377674314793385,0.023810558638266165,0.02471526046913538
61,1791353823.1829162,0.10748847656249999,0.05393583984374996,-0.009532177734373955,0.12063875756048488,0.008275571271951297,-0.0020715214255520543,0.02359651876299805,0.025091272957468415
62,1791353823.193331,0.1937091796875,-0.003544628906250044,-0.06222260742187396,0.20348823937432806,0.009305171950035801,-0.0023392784897368303,0.0234457294748365,0.025332995864672133
63,1791353823.213331,0.2320294921875,-0.09934541015625005,-0.12449311523437397,0.2814351284126802,0.011624380958364048,-0.0029306692059954498,0.02291952508424482,0.025865414838109092
64,1791353823.2537103,0.323040234375,-0.17598603515625005,-0.19155366210937397,0.4147515919952376,0.017285423833881593,-0.0047793939353736655,0.0210593637935687,0.02766089815780176
65,1791353823.2737103,0.265559765625,-0.26699677734375005,-0.10054291992187396,0.3897667853693659,0.020551664726838316,-0.006222194570916886,0.019838077409345834,0.0292341571389003
66,1791353823.2833474,0.227239453125,-0.10413544921875005,-0.028692333984373954,0.2516052679695137,0.022245632039628652,-0.007081382158247953,0.019244456373408294,0.030254970157343082
67,1791353823.3033473,0.4236310546875,-0.07060517578125004,-0.07180268554687395,0.435435399335525,0.026210114320125457,-0.008859109442554075,0.01804655978368085,0.03303229075942453
68,1791353823.3137045,0.3565705078125,-0.08018525390625005,-0.15323334960937396,0.396298702266589,0.028561245249790698,-0.00975875937850818,0.01734446618627901,0.034811041669465866
69,1791353823.3337045,0.2990900390625,-0.09934541015625005,-0.15802338867187396,0.35255602867184593,0.03340382962334551,-0.011504720695192669,0.015725180566840316,0.03867112276155971
70,1791353823.3577893,0.4619513671875,-0.022704785156250046,-0.09096284179687396,0.4713690820399181,0.03973543953390337,-0.01351236251499223,0.013617912417990229,0.04412410491231647
71,1791353823.3777893,0.5002716796875,0.044355761718749956,-0.12928315429687395,0.5186070970204248,0.04564786680523016,-0.014896956983043356,0.011800152737772933,0.049445835778733155
72,1791353823.4035883,0.3469904296875,0.06830595703124996,-0.12928315429687395,0.3765397668847477,0.05376999819129358,-0.016197117259220514,0.009306744705961895,0.05692253341184494
73,1791353823.4235883,0.39010078125000003,0.06830595703124996,-0.07659272460937395,0.4033742291729886,0.060227620816053686,-0.016848925532301662,0.007354928084096066,0.06297100577152644
74,1791353823.433374,0.50506171875,0.09704619140624997,-0.05743256835937396,0.5174976356675621,0.063570266614823,-0.016998650579199352,0.00644482150455423,0.06611859529072708
75,1791353823.453374,0.44758125,0.08267607421874996,-0.12449311523437397,0.4718716396866269,0.07080619315061128,-0.016989175126957357,0.004590863644543182,0.07296043509313034
76,1791353823.4787443,0.4715314453125,-0.003544628906250044,-0.13407319335937395,0.4902347289719062,0.08035713446896992,-0.016828388812299273,0.002099855690873642,0.08212717652521927
77,1791353823.4987442,0.44758125,0.03956572265624996,-0.10533295898437396,0.4615078049278014,0.08813562668818681,-0.016666618712403256,7.159052191601893e-05,0.08969765881129164
78,1791353823.5235472,0.5385919921875,0.07788603515624996,-0.10533295898437396,0.5542946876610532,0.09816963011576574,-0.016277606747122437,-0.002458339782790161,0.09954034454917199
79,1791353823.5435472,0.5673322265625,0.06351591796874996,-0.13886323242187396,0.5875228714275116,0.1067058451749044,-0.01579887427413992,-0.004558654094400105,0.10796537940457182
80,1791353823.5531895,0.514641796875,0.044355761718749956,-0.17239350585937396,0.5445577412459264,0.11098645188328653,-0.01552467898451254,-0.005644458356621877,0.11220903737824721
81,1791353823.5731895,0.4332111328125,0.0012454101562499565,-0.13886323242187396,0.4549246464611455,0.11995516086640397,-0.014972856819766532,-0.008025672071766302,0.12115212945728034
82,1791353823.6128137,0.438001171875,0.11620634765624996,-0.11012299804687396,0.466343238932774,0.13764782492944913,-0.013694526328304117,-0.012775650370350038,0.13891609338572086
83,1791353823.6328137,0.42842109375000004,0.18326689453124997,-0.13407319335937395,0.48487834492649257,0.14653814395790124,-0.012696874530996521,-0.015179828358422447,0.14786840584274122
84,1791353823.6433542,0.40926093750000003,0.11620634765624996,-0.18197358398437397,0.46272326013190884,0.15118296770126222,-0.012013210902009235,-0.01650667699319596,0.15255516164487765
85,1791353823.6633542,0.370940625,0.10662626953124996,-0.12449311523437397,0.40554240761022825,0.15984456799825864,-0.010576330851788725,-0.019106354456823287,0.16132946870756812
86,1791353823.688583,0.27992988281250003,0.22637724609374996,-0.043062451171873954,0.36257657334877585,0.17036327818943617,-0.008405581442532832,-0.022210828091704864,0.1720105265364813
87,1791353823.7085829,0.514641796875,0.24074736328124996,-0.09096284179687396,0.5754039542837415,0.1786429998929483,-0.0062421702829018,-0.02450376595033534,0.18042372528673017
88,1791353823.7184966,0.3661505859375,0.22158720703124996,-0.05743256835937396,0.43181667616088976,0.182786403221798,-0.004986898215263085,-0.025580189754455775,0.1846350033564738
89,1791353823.7384965,0.2895099609375,0.30301787109374995,-0.03348237304687396,0.4204246864648546,0.19087500125206794,-0.0020474507707159834,-0.02756241360688088,0.19286561332044708
90,1791353823.7632363,0.3661505859375,0.41797880859375,-0.014322216796873954,0.5558575913935168,0.2005962426375548,0.0023809973991131992,-0.029735303645012173,0.20280214493880586
91,1791353823.7832363,0.4044708984375,0.38923857421874997,-0.023902294921873957,0.5618493526250751,0.20843215223862963,0.006634842987200144,-0.031285747885210345,0.21087148040697445
92,1791353823.807799,0.3326203125,0.41318876953125,-0.004742138671873955,0.5304561427993171,0.21797010561431923,0.012553765732609544,-0.0329570591202217,0.2208047366372391
93,1791353823.827799,0.303880078125,0.48024931640624996,-0.028692333984373954,0.5690393288863235,0.22552609037420268,0.017990418908417134,-0.03416392836292312,0.22880744440065823
94,1791353823.83822,0.3086701171875,0.5137795898437499,-0.03348237304687396,0.6003064030055043,0.2293512627773181,0.021175120914199704,-0.034747025172711596,0.23293291575394504
95,1791353823.8582199,0.265559765625,0.68622099609375,0.047948291015626046,0.7373739100415898,0.23645280652331258,0.028170487642806784,-0.03567656202016836,0.24078273020373273
96,1791353823.8835442,0.2320294921875,0.72454130859375,0.05273833007812605,0.7626133519438026,0.24504118045511283,0.038378997943232,-0.03648577251004295,0.25069770481122555
97,1791353823.9035442,0.265559765625,0.67664091796875,0.009627978515626046,0.7269509054665899,0.2515528546851803,0.047333641963168756,-0.03693543818918938,0.2586185201333971
98,1791353823.928436,0.370940625,0.61916044921875,-0.023902294921873957,0.7221689060425457,0.25962986152757045,0.05922591995352753,-0.03743779022283022,0.2689181338770885
99,1791353823.948436,0.2511896484375,0.69580107421875,0.043158251953126045,0.7410114770216254,0.2660792779030899,0.0693202358295747,-0.03775198950407383,0.27754042937275514
100,1791353823.9584904,0.265559765625,0.71017119140625,0.023998095703126048,0.7585782878645776,0.2692248482654077,0.07469385103820489,-0.03783560908006611,0.2819445399735716
101,1791353823.9784904,0.35178046875,0.71017119140625,-0.019112255859373956,0.7927533649385391,0.2754694159397668,0.08591011873015297,-0.037969665046384264,0.29104233898551574
102,1791353824.003496,0.342200390625,0.70059111328125,-0.03348237304687396,0.7804166096755077,0.2834072605451133,0.1004758435982436,-0.03821076836819507,0.3031091112054408
103,1791353824.023496,0.284719921875,0.68143095703125,-0.009532177734373955,0.7385827276110586,0.2897441650136387,0.11245134835722806,-0.038439203656402826,0.3131685796572634
104,1791353824.047968,0.27034980468750003,0.70538115234375,0.004837939453126046,0.755430336056554,0.2973537065816211,0.12745195756633879,-0.03868540607581693,0.32582171343937694
105,1791353824.067968,0.27513984375,0.71975126953125,-0.03827241210937395,0.7714976352130253,0.3034580669788964,0.14001014010202936,-0.03890658738080371,0.33645707049723056
106,1791353824.0776348,0.27992988281250003,0.71975126953125,-0.03348237304687396,0.7729965708773332,0.30636844583439854,0.14621326672814342,-0.03904948207991591,0.34170865663750705
107,1791353824.0976348,0.303880078125,0.71496123046875,-0.014322216796873954,0.776992785583381,0.31236227355412793,0.1592739842947707,-0.039372479652974544,0.3528293981048895
108,1791353824.1231427,0.31346015625,0.72454130859375,-0.009532177734373955,0.7894987269320818,0.32004114005243756,0.17618685497077197,-0.03976827313444636,0.3674910267457584
109,1791353824.1431427,0.2990900390625,0.72933134765625,0.004837939453126046,0.7882908548236759,0.3260776130448334,0.18963939430421717,-0.040039094555709885,0.37933209552307534
110,1791353824.1687388,0.303880078125,0.78202177734375,-0.019112255859373956,0.8392058391391042,0.33380184025258275,0.20717492587298644,-0.04036110669267334,0.39493561171404323
111,1791353824.1887388,0.303880078125,0.78202177734375,-0.03348237304687396,0.8396560197044881,0.3398436175207976,0.2211674220327178,-0.040653866773719724,0.40750638009959533
112,1791353824.2133384,0.2607697265625,0.75807158203125,4.790039062604557e-05,0.8016691188197851,0.3472019466068688,0.2386377449124617,-0.04102162763716087,0.42329651422909925
113,1791353824.2333384,0.2511896484375,0.7724416992187499,0.047948291015626046,0.813671590253355,0.35305499682768954,0.2530067082808759,-0.041203781489249185,0.43630032870619967
114,1791353824.2424104,0.2128693359375,0.81076201171875,0.07189848632812605,0.8413190751225021,0.355627465287521,0.2596240705557675,-0.04119246896664025,0.44223565163647843
115,1791353824.2624104,0.217659375,0.83471220703125,0.02878813476562605,0.8631041818897965,0.36109376116340663,0.2744924383700749,-0.041020240841779375,0.45543107407400557
116,1791353824.302867,0.27513984375,0.75807158203125,-0.009532177734373955,0.8065143021140396,0.3719878049606321,0.3048900623776725,-0.040665683866279945,0.4826868291350019
117,1791353824.322867,0.2990900390625,0.68622099609375,0.014418017578126047,0.7487068760050153,0.37742686613843035,0.31982969231895353,-0.040509368971490725,0.4963699027402664
118,1791353824.3184144,0.2224494140625,0.76765166015625,0.043158251953126045,0.8003970563845457,0.37742686613843035,0.31982969231895353,-0.040509368971490725,0.4963699027402664
119,1791353824.3384144,0.2032892578125,0.83471220703125,0.019208056640626046,0.8593252820375106,0.38266015740675446,0.33488080432901485,-0.04022947241268725,0.5100905406153041
120,1791353824.3637583,0.303880078125,0.78681181640625,-0.014322216796873954,0.8435763523307984,0.3892610455888442,0.35417478645513595,-0.03991870422740225,0.5277854146532057
121,1791353824.3837583,0.3374103515625,0.7724416992187499,0.03836821289062605,0.8437914693772982,0.3946506735440018,0.3694555340835281,-0.03967418056406426,0.5420521989597581
122,1791353824.4086304,0.265559765625,0.82034208984375,0.11500883789062605,0.869890893319943,0.4014726372761323,0.3885794451191423,-0.03912959316922336,0.5600940891601538
123,1791353824.4286304,0.2032892578125,0.91135283203125,0.08147856445312605,0.9372989188400246,0.40683870250443777,0.4042481225805922,-0.03846263844677391,0.5748161871604828
124,1791353824.4536054,0.1793390625,0.84429228515625,0.03357817382812605,0.8637820650316683,0.4132511772386142,0.4241680520200507,-0.03753918909466385,0.5933837397177899
125,1791353824.4736054,0.1649689453125,0.74370146484375,-0.009532177734373955,0.7618382270145138,0.41813247152839444,0.4401091052289691,-0.03687454814654445,0.6081862548207574
126,1791353824.4836733,0.19849921875,0.70538115234375,4.790039062604557e-05,0.7327786242929063,0.420495571204983,0.44802428391519217,-0.03659731789666935,0.6155336286978604
127,1791353824.5036733,0.2032892578125,0.73891142578125,0.019208056640626046,0.7666065267997308,0.42508840993665603,0.4635557102346703,-0.03610032334573309,0.6299899095218197
128,1791353824.528536,0.2224494140625,0.72933134765625,0.03357817382812605,0.7632401000002969,0.43073539637163133,0.48270512360343976,-0.035476733944035936,0.6479165198478692
129,1791353824.548536,0.246399609375,0.70538115234375,0.043158251953126045,0.7484236582936156,0.4352998115086976,0.4979506535677354,-0.0349352484724219,0.6623150691882771
130,1791353824.5731282,0.23681953125,0.70538115234375,0.08626860351562606,0.7490582970742682,0.4409616466739002,0.5164868183430658,-0.03413058881117064,0.6799784588147612
131,1791353824.5931282,0.2320294921875,0.73412138671875,0.08626860351562606,0.7747349015212791,0.44557881329162685,0.5314596857147198,-0.03331554091085103,0.694334070646505
132,1791353824.6036844,0.246399609375,0.71975126953125,0.08147856445312605,0.7651100665638512,0.44802903834515484,0.5393281653286367,-0.032817069753587745,0.7019129926026796
133,1791353824.6236844,0.227239453125,0.68622099609375,0.07189848632812605,0.7264340416532827,0.4526853956654199,0.5541087042607393,-0.031784254853652036,0.7162197724461921
134,1791353824.647843,0.2224494140625,0.71017119140625,0.02878813476562605,0.7447520524465884,0.45828103156991423,0.5718145231164425,-0.03054139365783567,0.7334344752397669
135,1791353824.6678429,0.188919140625,0.69101103515625,0.004837939453126046,0.7163868354878896,0.4628356547362413,0.5863756321714638,-0.029616370509940305,0.7476164489240396
136,1791353824.6931891,0.1649689453125,0.67664091796875,0.019208056640626046,0.6967256520518107,0.4684147072634322,0.6046609859707768,-0.028574208285789982,0.7654042927205194
137,1791353824.7131891,0.14101875,0.65748076171875,0.043158251953126045,0.6738173896490649,0.47261561048561884,0.6189263224513434,-0.0277816710719795,0.7792349640162396
138,1791353824.7227526,0.11227851562499999,0.65748076171875,0.06231840820312605,0.6699037252487797,0.4745047339494251,0.6256675907185276,-0.027383892796125717,0.7857254954502949
139,1791353824.7427526,0.1841291015625,0.74370146484375,0.06710844726562605,0.7690896817324727,0.4783074512349006,0.6397526420046489,-0.026482661947644634,0.7992263710880594
140,1791353824.7676938,0.19849921875,0.78202177734375,0.06231840820312605,0.8092240629672411,0.48305408105183417,0.6575368315939846,-0.0252852505673824,0.8162936199798105
141,1791353824.7876937,0.16017890625,0.78202177734375,0.07668852539062605,0.8019329598999612,0.4868274116081444,0.6720046395214654,-0.024260581994467154,0.8301685010105904
142,1791353824.8127093,0.09790839843749999,0.68622099609375,0.10063872070312604,0.700438050129529,0.4913232951922124,0.6901409599313204,-0.022838495604345397,0.8474754992652755
143,1791353824.8327093,0.131438671875,0.6526907226562499,0.11979887695312605,0.6764858275123227,0.4947226077961909,0.7044743245725671,-0.021541424456117095,0.861103109746003
144,1791353824.8425221,0.1841291015625,0.6526907226562499,0.07189848632812605,0.6819663465450674,0.49637252269236426,0.7114127050657494,-0.020859404393159104,0.8677147186515772
145,1791353824.8625221,0.1841291015625,0.67185087890625,0.03357817382812605,0.6974343146755441,0.49978326135405166,0.7254197312821367,-0.01951964174412324,0.8811345591207728
146,1791353824.887593,0.1458087890625,0.6335305664062499,0.019208056640626046,0.6503769145494065,0.5040378410106837,0.7427989530590333,-0.017992850309170062,0.8978464080779938
147,1791353824.907593,0.10269843749999999,0.58084013671875,0.05273833007812605,0.592202300694473,0.5072955305874681,0.7564049435734042,-0.016849649938420606,0.9109232156001695
148,1791353824.933009,0.150598828125,0.59042021484375,0.02878813476562605,0.6100039293578747,0.511297244159021,0.7733344645432336,-0.015459386450952623,0.9272055104260432
149,1791353824.953009,0.1649689453125,0.60479033203125,0.019208056640626046,0.6271802357184877,0.5144472297926596,0.7864509623244826,-0.014457483821090944,0.939877698012291
150,1791353824.9623864,0.169758984375,0.66227080078125,0.047948291015626046,0.6853610471530964,0.5159380531632245,0.7925695921142557,-0.014010950483912613,0.9458091455359684
151,1791353824.9823864,0.1362287109375,0.68622099609375,0.09105864257812606,0.7055134254936346,0.5190996765921224,0.8056844989311599,-0.01299294137069395,0.9585201106818065
152,1791353825.008309,0.09790839843749999,0.70059111328125,0.10063872070312604,0.714522298181113,0.5230380722456364,0.8228295346592338,-0.01149869555690481,0.9750638379744545
153,1791353825.0283089,0.131438671875,0.67664091796875,0.07189848632812605,0.6930284616594995,0.5259648899801579,0.8361390846643559,-0.010259964503781794,0.9878627947578578
154,1791353825.0524993,0.1553888671875,0.63832060546875,0.06231840820312605,0.6599109632463894,0.5294943199905849,0.8522082651772711,-0.008742925153425545,1.003344208573999
155,1791353825.0724993,0.1266486328125,0.67664091796875,0.09584868164062606,0.6950322135233116,0.53239770641386,0.8654734298035359,-0.007439565181710014,1.0161431604949802
156,1791353825.0986662,0.14101875,0.69101103515625,0.07668852539062605,0.7094107896598862,0.5361518501397697,0.8829095953957469,-0.005651497598276474,1.0329666497400982
157,1791353825.1186662,0.1266486328125,0.65748076171875,0.06231840820312605,0.672461457798523,0.5389923231095233,0.8962601671817616,-0.004281325088001528,1.045855315706809
158,1791353825.1276565,0.11706855468749999,0.6335305664062499,0.047948291015626046,0.6460379738676073,0.5402419641693521,0.9022317473008877,-0.0036834494668243896,1.0516164098601481
159,1791353825.1476564,0.11706855468749999,0.59042021484375,0.03836821289062605,0.6031361341796564,0.5429561503368441,0.9153594977108566,-0.002423435288341315,1.0642792228906257
160,1791353825.1727486,0.1458087890625,0.55688994140625,0.014418017578126047,0.5758424168452793,0.5463453141166325,0.931518278817604,-0.0009803966945080215,1.079916879767231
161,1791353825.1927485,0.12185859375,0.59042021484375,0.009627978515626046,0.6029413279392654,0.5490429826076024,0.9441868611361055,3.333488885160136e-05,1.0922165657981564
162,1791353825.2184703,0.11706855468749999,0.60000029296875,0.03836821289062605,0.6125173612393582,0.5524529344066633,0.9603323454115075,0.0012341140814182748,1.107900709186372
163,1791353825.2384703,0.150598828125,0.58563017578125,0.014418017578126047,0.6048558415433253,0.5551081324064446,0.9727816248436791,0.0021069095062701566,1.1200239137469106
164,1791353825.247944,0.188919140625,0.53772978515625,0.019208056640626046,0.5702742436570188,0.5564184525465352,0.9785923508962511,0.002482221665247356,1.1257222770254338
165,1791353825.267944,0.1793390625,0.54730986328125,0.02878813476562605,0.5766622429868313,0.5593221048765916,0.9906467957907525,0.003227683781894913,1.1376434893922884
166,1791353825.2930171,0.14101875,0.57605009765625,0.08147856445312605,0.5986307370380174,0.5630186794526697,1.005604535674097,0.004229406661475303,1.152496595856861
167,1791353825.3130171,0.11706855468749999,0.59042021484375,0.05273833007812605,0.604220496219873,0.5659121546703731,1.017495858494738,0.00510991809797803,1.1642939921345365
168,1791353825.337874,0.1362287109375,0.57605009765625,-0.004742138671873955,0.5919581611673679,0.5694410780981528,1.032232637765438,0.006129581211526363,1.1788998819491032
169,1791353825.357874,0.1649689453125,0.55209990234375,0.06710844726562605,0.5801142980309141,0.5723063637021308,1.0440035901196054,0.006920495183757225,1.1905989935197194
170,1791353825.367924,0.2416095703125,0.6526907226562499,0.023998095703126048,0.6963880186401149,0.5738366674261336,1.0499394083440001,0.007326988553754801,1.1965429231071265
171,1791353825.387924,0.23681953125,0.71496123046875,-0.043062451171873954,0.7543920904647589,0.5771428663560021,1.0620315039750599,0.007985988124265804,1.2087466978765529
172,1791353825.413054,0.16017890625,0.58563017578125,-0.019112255859373956,0.6074415717721814,0.5814222213441574,1.0773974868603629,0.008572633814582167,1.224300058897458
173,1791353825.433054,0.10269843749999999,0.60000029296875,0.06231840820312605,0.6119075948445963,0.5847114382356516,1.089570722422405,0.009034297495120644,1.2365813534478498
174,1791353825.458155,0.11706855468749999,0.64311064453125,0.07668852539062605,0.6581621969792922,0.5886340729658686,1.1048972680667688,0.009788486685050404,1.251952019571589
175,1791353825.478155,0.150598828125,0.69580107421875,0.05273833007812605,0.7138630634624676,0.5916922355091073,1.1172857613569114,0.010493412463604652,1.2643327433068359
176,1791353825.4880855,0.1362287109375,0.70059111328125,0.08626860351562606,0.7189078116454783,0.5931965651017527,1.123554368776878,0.010894459124115564,1.2705806836583555
177,1791353825.5080855,0.0787482421875,0.70059111328125,0.15332915039062606,0.721483902811278,0.5960942574249443,1.1363872248555833,0.011940397958541722,1.283295313500902
178,1791353825.5325196,0.064378125,0.68143095703125,0.12937895507812605,0.6965856775703536,0.5993656526277406,1.1522461355341789,0.013544631572687456,1.2988817496014664
179,1791353825.5525196,0.05000800781249999,0.60000029296875,0.03836821289062605,0.6033019742785377,0.6018133003109664,1.1652020955521412,0.014912395383267284,1.3115248954733363
180,1791353825.5777261,0.00689765624999999,0.58084013671875,0.004837939453126046,0.5809012375123258,0.6045429962214496,1.1813139272188198,0.016459334399126835,1.3271193384961357
181,1791353825.597726,-0.026632617187500013,0.59042021484375,0.047948291015626046,0.5929623639032371,0.6063543739118912,1.1939370672956664,0.017581810814165003,1.339201429022596
182,1791353825.6090362,0.04521796874999999,0.60479033203125,0.05273833007812605,0.6087670670098497,0.607240831619342,1.2010186012452755,0.01820677066222793,1.3459266676237807
183,1791353825.6290362,0.10269843749999999,0.54251982421875,0.06710844726562605,0.5562178282199233,0.6087951226991085,1.2133836755378995,0.019325905186132614,1.3576836656951237
184,1791353825.6532314,0.12185859375,0.52814970703125,0.043158251953126045,0.543740990380137,0.6108008852175514,1.2280415203699881,0.020676801879732164,1.3717110582302492
185,1791353825.6732314,0.02126777343749999,0.57605009765625,0.06231840820312605,0.5798013601206325,0.6124248598105171,1.2399966870243493,0.021784181320028902,1.383159623218187
186,1791353825.6980493,-0.012262500000000011,0.5329397460937499,0.10063872070312604,0.5424972755484422,0.6141545310386958,1.2546707752883872,0.023255524415879192,1.3971132243930628
187,1791353825.7180493,0.08353828125,0.54251982421875,0.06710844726562605,0.5530008569604127,0.6154462479647107,1.2663355317154965,0.024514996714692698,1.4081834923343375
188,1791353825.7426462,0.150598828125,0.54730986328125,0.004837939453126046,0.5676719996051557,0.6172284997859951,1.2805400088104222,0.02596433642041115,1.4217692787080536
189,1791353825.7626462,0.11227851562499999,0.57126005859375,0.06231840820312605,0.5855152462715718,0.6188546054343745,1.2920351801380947,0.02706677113730466,1.4328532860979222
190,1791353825.7723742,0.0691681640625,0.58563017578125,0.11979887695312605,0.6017463823111735,0.6196592829587729,1.2976317894522156,0.02765543222132978,1.438259611782688
191,1791353825.7923741,0.05958808593749999,0.59521025390625,0.11979887695312605,0.6100637321297405,0.621258622776514,1.3091833433339095,0.029043536909528867,1.449402231912639
192,1791353825.8175943,0.09311835937499999,0.54730986328125,0.09105864257812606,0.562592918268443,0.6232617334040456,1.323726054762189,0.0309302269856104,1.4634420163858446
193,1791353825.8375943,0.11706855468749999,0.52814970703125,0.09584868164062606,0.5493943295175711,0.6249272370248747,1.3351419520189085,0.032482336422802655,1.4745145593706048
194,1791353825.8629768,0.11227851562499999,0.57605009765625,0.10063872070312604,0.5954564066205774,0.6271605179809292,1.349558996304354,0.03453073790201751,1.4885671539034375
195,1791353825.8829768,0.08353828125,0.5329397460937499,0.06231840820312605,0.5430349909551374,0.62894998649795,1.3608783186598779,0.03614709362970867,1.4996247851019877
196,1791353825.8920245,0.01647773437499999,0.49461943359375,0.05752836914062605,0.4982262669457676,0.6297059590783027,1.3659282152891328,0.036849955996583916,1.5045422571262765
197,1791353825.9120245,0.02126777343749999,0.52335966796875,0.11979887695312605,0.5373168815164654,0.6311829885878826,1.3769435295917682,0.03843656812070017,1.515203886787605
198,1791353825.9384077,0.04521796874999999,0.58563017578125,0.07189848632812605,0.5917573487669836,0.6329707180697743,1.3914892404461467,0.040594931874195495,1.5292292780041294
199,1791353825.9584076,0.04042792968749999,0.54730986328125,0.019208056640626046,0.5491370078438235,0.6342511098560313,1.402561174170033,0.04212233272308577,1.5398787642398553
200,1791353825.982483,0.011687695312499989,0.50419951171875,0.047948291015626046,0.506609108140056,0.6356553089819152,1.4157886289545454,0.04380642971562571,1.5525572830006356
201,1791353826.002483,0.01647773437499999,0.53772978515625,0.06710844726562605,0.5421516220290438,0.636689087510232,1.426691666699432,0.045168186033384815,1.5629658572770428
202,1791353826.0129533,0.03563789062499999,0.58084013671875,0.05752836914062605,0.5847690458015333,0.6371900360186762,1.4324218211891704,0.04587203142709856,1.5684220283736232
203,1791353826.0329533,0.05479804687499999,0.59042021484375,0.02878813476562605,0.5936561401524778,0.6381390421407712,1.443482330101976,0.04714428678842988,1.5789506826363389
204,1791353826.0587027,0.002107617187499989,0.56647001953125,0.09584868164062606,0.5745256259299405,0.6392874860147002,1.4578206212852072,0.048777282229198735,1.5925792529356426
205,1791353826.0787027,-0.026632617187500013,0.55209990234375,0.17727934570312606,0.5804752922210924,0.6400089101254832,1.4689647258995198,0.0502650901674312,1.603120503975481
206,1791353826.1031928,-0.01705253906250001,0.54251982421875,0.15332915039062606,0.564028702388746,0.6406795516130027,1.4825744080191927,0.052420894886356165,1.615934749112471
207,1791353826.1231928,0.05000800781249999,0.50898955078125,0.047948291015626046,0.5136829783642756,0.6411945151679248,1.4935989249817183,0.05421927742642998,1.6263172768659315
208,1791353826.1332777,0.10269843749999999,0.39402861328125,0.019208056640626046,0.40764502522316615,0.6415307341145127,1.4990071245607874,0.0550408719840902,1.6314452304280014
209,1791353826.1532776,0.064378125,0.43713896484375,0.03357817382812605,0.4431280980944593,0.6423481104197813,1.5093704353055735,0.05650500690108934,1.6413418357366305
210,1791353826.1774743,0.05000800781249999,0.50898955078125,0.07189848632812605,0.5164693175650896,0.6433962473754414,1.5217446077249133,0.058202074509555335,1.653194744654684
211,1791353826.1974742,0.131438671875,0.49461943359375,0.09105864257812606,0.5198232247033956,0.6444048136962176,1.5319438244859007,0.05963883006078103,1.6630292346637698
212,1791353826.2230496,0.1745490234375,0.49940947265624996,0.08626860351562606,0.5360218791377036,0.6460880122307506,1.5449366208245043,0.06154066056095383,1.6757225709571377
213,1791353826.2430496,0.1458087890625,0.52814970703125,0.06231840820312605,0.5514398425993893,0.6476873715974483,1.5551142778807083,0.06302768877488826,1.6857792969862788
214,1791353826.2678146,0.131438671875,0.5137795898437499,-0.014322216796873954,0.5305192902225634,0.6498856727313025,1.5677616602776263,0.06468195395502555,1.6983556065280667
215,1791353826.2878146,0.09311835937499999,0.48024931640624996,-0.023902294921873957,0.4897772498431244,0.6517315352749656,1.5779345180247366,0.06576019021237839,1.7084951682292198
216,1791353826.2978761,0.09790839843749999,0.47545927734375,-0.004742138671873955,0.48545861489525605,0.6526650036391972,1.5830057669121553,0.06619964396113465,1.7135522337860247
217,1791353826.317876,0.0691681640625,0.5137795898437499,0.06710844726562605,0.5227401319529544,0.6544928128156737,1.593058040815058,0.06703569741274472,1.7235685504674587
218,1791353826.343017,0.0691681640625,0.56167998046875,0.03836821289062605,0.5672219628501463,0.6567066586624412,1.6058266903904956,0.06812789929327899,1.7362558583815335
219,1791353826.363017,0.09311835937499999,0.56647001953125,0.02878813476562605,0.5747939357575985,0.6584470589956004,1.616152891315971,0.06896716495093021,1.7464991175063038
220,1791353826.372316,0.11227851562499999,0.52335966796875,0.004837939453126046,0.5352898399796747,0.6592781100844979,1.6209938583500916,0.06932229343061314,1.7513064539399676
221,1791353826.3923159,0.10269843749999999,0.54730986328125,0.014418017578126047,0.5570484132826923,0.6611198952132418,1.6314500728104182,0.07000041998000894,1.7617062509729777
222,1791353826.4178216,0.09790839843749999,0.54251982421875,0.014418017578126047,0.5514722961181485,0.6635001318313608,1.6448693469463342,0.07079066836475967,1.775060255932576
223,1791353826.4378216,0.09311835937499999,0.48982939453124996,0.06231840820312605,0.5024812917915592,0.6653731349222265,1.6553620157716586,0.07143248523535917,1.7855104065456298
224,1791353826.4631007,0.064378125,0.55688994140625,0.08626860351562606,0.5671976919650753,0.6676840174048859,1.6686194289817955,0.07240373822469567,1.7987037130062224
225,1791353826.4831007,0.0883283203125,0.55209990234375,0.07189848632812605,0.5637247437122851,0.6694671294136295,1.6791984312678725,0.0732941495814789,1.80921685856082
226,1791353826.508254,0.12185859375,0.47066923828124996,0.03357817382812605,0.4873464296500093,0.6717698312677953,1.6924370601029202,0.07444499977144298,1.8224049952198738
227,1791353826.528254,0.10269843749999999,0.44671904296875,0.05752836914062605,0.46196794874951813,0.6736629529796122,1.7027604997748278,0.07535946427428951,1.8327286058405758
228,1791353826.5383792,0.0787482421875,0.51856962890625,0.09105864257812606,0.5323602371137028,0.6746153888365516,1.7079359071243516,0.0758658114302459,1.8379082150759714
229,1791353826.5583792,0.11706855468749999,0.5329397460937499,0.06710844726562605,0.5497575494320147,0.6765082384845079,1.7182025967285213,0.07695321070132762,1.8481897512915952
230,1791353826.583458,0.131438671875,0.45629912109375,0.06710844726562605,0.4795712210606428,0.678993149414601,1.731006003760208,0.0783646636398933,1.8610627347065
231,1791353826.603458,0.09311835937499999,0.47066923828124996,0.10063872070312604,0.4902333248787821,0.6810144149225916,1.7410754165650582,0.07957305650256709,1.8712178149057666
232,1791353826.6281123,0.05958808593749999,0.52814970703125,0.12937895507812605,0.5470208104268044,0.6834146885041041,1.753473168513167,0.08126454654228736,1.883700537687318
233,1791353826.6481123,0.11227851562499999,0.48982939453124996,0.08147856445312605,0.5090953322150445,0.6853275530222064,1.7635487794015592,0.08274716862016655,1.8938387592862251
234,1791353826.6576753,0.16017890625,0.46108916015624996,4.790039062604557e-05,0.4881193480241176,0.6863004046494388,1.768325795829861,0.08340821826959183,1.8986682955414311
235,1791353826.6776752,0.10269843749999999,0.48024931640624996,-0.028692333984373954,0.49194473775321823,0.6884241477849438,1.7782298510659442,0.08454039225499003,1.9087106350618115
236,1791353826.70258,0.05000800781249999,0.50419951171875,-0.009532177734373955,0.5067630717358563,0.6909572612765787,1.7905516248780344,0.0856673461839635,1.921154848643493
237,1791353826.72258,0.05479804687499999,0.44671904296875,0.03357817382812605,0.4513183167675144,0.6928435751561784,1.8003888523166698,0.08647267464219337,1.9310385192018065
238,1791353826.7477503,0.0883283203125,0.45150908203124995,0.023998095703126048,0.46069322973460985,0.6951316306505683,1.8126077789867392,0.08744285762610672,1.943296477052325
239,1791353826.7677503,0.11706855468749999,0.52335966796875,0.009627978515626046,0.5363796104656456,0.6969850733913882,1.8223227173087804,0.08814855617404681,1.9530536210011298
240,1791353826.7925062,0.05958808593749999,0.56647001953125,0.023998095703126048,0.5701008082881536,0.6992631321820315,1.8345675695087944,0.08895347555587167,1.9653294420874836
241,1791353826.8125062,0.04042792968749999,0.54251982421875,0.03836821289062605,0.5453753725000619,0.7009775054446312,1.8446396271520722,0.08959976533417509,1.9753715941936225
242,1791353826.8223598,0.0691681640625,0.43234892578125,0.05752836914062605,0.44160994304924556,0.7017764417587108,1.8495780355635532,0.08994128707557378,1.9802824341410143
243,1791353826.8423598,0.0883283203125,0.48503935546875,0.07668852539062605,0.4989450856049759,0.7033910558284706,1.8594741347912351,0.09073182461568192,1.9901344927856495
244,1791353826.8676667,0.10748847656249999,0.50898955078125,0.03836821289062605,0.5216284646744712,0.705499311794815,1.8720045317715397,0.091800464136847,2.002637653479001
245,1791353826.8876667,0.11706855468749999,0.44192900390625,0.009627978515626046,0.4572734290995792,0.7072523718637752,1.8818482255820657,0.09259031892943252,2.012493882920581
246,1791353826.8978329,0.131438671875,0.39402861328125,0.02878813476562605,0.4163693423535078,0.7081992809569747,1.8867387035721128,0.09296087646423774,2.0174168834571478
247,1791353826.9178329,0.12185859375,0.42276884765625,0.09584868164062606,0.45029988362375484,0.71016265880459,1.8961418123186302,0.09376748209591787,2.026937866606175
248,1791353826.9430943,0.1458087890625,0.46587919921875,0.11500883789062605,0.5015283282383246,0.7127776861064538,1.9079207268521177,0.09503295420820672,2.038932267670685
249,1791353826.9630942,0.19849921875,0.46108916015624996,0.08626860351562606,0.5093598191951271,0.7150539637081579,1.9172379493137277,0.09618648573228866,2.04850076039551
250,1791353826.9882674,0.1649689453125,0.46587919921875,0.06710844726562605,0.49876018774219105,0.7181754893406499,1.9289561928204453,0.09771017886584449,2.060629832445416
251,1791353827.0082674,0.10748847656249999,0.47545927734375,0.03357817382812605,0.48861312995415906,0.7206922071181663,1.9382817759482769,0.09889019073285056,2.0702929189361683
252,1791353827.018164,0.03563789062499999,0.46108916015624996,0.004837939453126046,0.46248965233824146,0.7218569785050193,1.9428992808188401,0.09941502044326225,2.075046616129984
253,1791353827.038164,0.02605781249999999,0.42276884765625,4.790039062604557e-05,0.42357113975733296,0.7239503365098376,1.9521568984950788,0.10032388826767263,2.0844868741807363
254,1791353827.0632532,0.05958808593749999,0.45150908203124995,0.019208056640626046,0.45582906947923624,0.7263436325665383,1.9636733716949624,0.10132924307622665,2.096152618197496
255,1791353827.0832531,0.0787482421875,0.49940947265624996,0.009627978515626046,0.5056716375245028,0.7281727864356834,1.972903080235063,0.1020537054126481,2.105468387246638
256,1791353827.1085331,0.03563789062499999,0.51856962890625,0.02878813476562605,0.5205893544584341,0.73035490722934,1.984749576352098,0.10290490539888329,2.117365955827892
257,1791353827.1285331,0.04042792968749999,0.50898955078125,0.019208056640626046,0.5109537452091193,0.731936411701703,1.9942573001886126,0.10354930415312018,2.1268557893098756
258,1791353827.1375866,0.05958808593749999,0.51856962890625,0.05752836914062605,0.5251425647056625,0.7326128434750468,1.9986133367016772,0.10384935606984459,2.1311878229810075
259,1791353827.1575866,0.05000800781249999,0.52335966796875,0.09584868164062606,0.534409124804191,0.7340473947384845,2.0083556963330365,0.1046428383761096,2.140856908889317
260,1791353827.1832879,0.073958203125,0.52335966796875,0.07189848632812605,0.5334271742254183,0.7358533199720508,2.021014982949941,0.10583291239126101,2.153411775570863
261,1791353827.2032878,0.09311835937499999,0.45629912109375,0.014418017578126047,0.46592681398960445,0.73729845463284,2.030857890446357,0.10674955542511065,2.163189369883196
262,1791353827.228339,0.09311835937499999,0.43713896484375,0.043158251953126045,0.44902576557365437,0.7391869590256208,2.0430159947254087,0.10783365719845703,2.1753022347991533
263,1791353827.248339,0.0787482421875,0.45150908203124995,0.10542875976562605,0.47029454620486644,0.7407263200644822,2.052599598663868,0.10879222176907946,2.1848744451772952
264,1791353827.2729652,0.08353828125,0.5137795898437499,0.09105864257812606,0.528431440929083,0.7426371794448094,2.064412818282532,0.11015837775427709,2.1966895849829178
265,1791353827.2929652,0.131438671875,0.47545927734375,0.03357817382812605,0.49443416410492586,0.7442787480376003,2.074051570896645,0.11128841690193919,2.2063603253448423
266,1791353827.3029575,0.11227851562499999,0.43234892578125,0.043158251953126045,0.44877020111277854,0.7451585306718265,2.078825251447195,0.11182582548049491,2.2111717882452924
267,1791353827.3229575,0.10269843749999999,0.42755888671875,0.08147856445312605,0.4472050169021592,0.7469777682199966,2.088236565054683,0.11292707266056037,2.220689141141999
268,1791353827.3483834,0.08353828125,0.47545927734375,0.05752836914062605,0.48615808344860956,0.7492987832673721,2.1001284561327584,0.11438216118025683,2.2327273630384865
269,1791353827.3683834,0.0691681640625,0.48982939453124996,0.014418017578126047,0.49489892897187704,0.7510796934354,2.109527408902293,0.1154629654163208,2.2422217310479726
270,1791353827.4079485,0.09790839843749999,0.48982939453124996,0.043158251953126045,0.5013796215873724,0.7545701054339164,2.1282389363871914,0.11745120770535103,2.2610996883287746
271,1791353827.4279485,0.10748847656249999,0.48024931640624996,0.07668852539062605,0.49807058578979163,0.7563779304630274,2.137733860206731,0.11848526843412405,2.2706942527786103
272,1791353827.422619,0.11227851562499999,0.49461943359375,0.07189848632812605,0.512273600233148,0.7563779304630274,2.137733860206731,0.11848526843412405,2.2706942527786103
273,1791353827.442619,0.064378125,0.50419951171875,0.05752836914062605,0.5115380766393853,0.7582292714026049,2.1473351261263685,0.11961596566798838,2.2804095577660073
274,1791353827.4683995,0.0691681640625,0.49461943359375,0.05752836914062605,0.50273465393223,0.7605159457592731,2.1597861917981884,0.12107730238280481,2.29297200401325
275,1791353827.4883995,0.10269843749999999,0.42755888671875,0.11021879882812605,0.4533230131950431,0.7622816106007755,2.1693798655271834,0.12229254884766778,2.3026588375872166
276,1791353827.5135343,0.0787482421875,0.46108916015624996,0.11979887695312605,0.4828625789812742,0.7645097939031519,2.181303315998712,0.12402432035086974,2.3147227508708923
277,1791353827.5335343,0.02605781249999999,0.52335966796875,0.06231840820312605,0.5277006117578573,0.7661740399792166,2.1908444422810605,0.12546878384588137,2.3243417230544328
278,1791353827.5427005,0.04042792968749999,0.48982939453124996,0.043158251953126045,0.49338614487773963,0.7668680798256033,2.1952578719858504,0.12610400896942328,2.3287649081539796
279,1791353827.5627005,0.073958203125,0.44192900390625,0.06231840820312605,0.4523877145812213,0.768326845891595,2.204840786812328,0.12744033129736446,2.338351999881565
280,1791353827.5872953,0.04521796874999999,0.49461943359375,0.03836821289062605,0.49816178952916335,0.7700714972885023,2.2165851748614367,0.12902288880076052,2.3500865631261663
281,1791353827.6072953,0.01647773437499999,0.52814970703125,0.009627978515626046,0.5284943961269841,0.7713699487118425,2.226237081190452,0.13018875122061446,2.3596805399010004
282,1791353827.6333878,0.00689765624999999,0.46108916015624996,0.08626860351562606,0.469140771227438,0.772855589291561,2.2388762847752854,0.13166927900400666,2.37217401964144
283,1791353827.6533878,0.01647773437499999,0.49940947265624996,0.12458891601562605,0.5149793540549712,0.7738585870920469,2.2485518120260277,0.13295016860549977,2.381704874982176
284,1791353827.662945,-0.031422656250000014,0.49461943359375,0.15332915039062606,0.5187924399737519,0.7742552757171489,2.2531943639973946,0.13366965456214078,2.3862572473386483
285,1791353827.682945,0.05958808593749999,0.46108916015624996,0.09105864257812606,0.47375693133447844,0.7750031349750217,2.262885879606323,0.13531602383581087,2.3957447254767206
286,1791353827.7081037,0.11227851562499999,0.42276884765625,0.019208056640626046,0.4378457640076656,0.7761270733288551,2.2749162186471454,0.13728445532429756,2.407584693731776
287,1791353827.7281036,0.11706855468749999,0.41797880859375,4.790039062604557e-05,0.4340637432734025,0.777230551628067,2.2843063768415193,0.13864343093995202,2.416891589336539
288,1791353827.7535954,0.04521796874999999,0.39402861328125,0.02878813476562605,0.3976581062741016,0.778736330930884,2.2960321234874987,0.1401708746231624,2.428547232254467
289,1791353827.7735953,0.02605781249999999,0.36528837890625,0.05752836914062605,0.370707597187084,0.7798474226920318,2.304990795660546,0.14131897504761687,2.437440383572027
290,1791353827.7833176,0.04042792968749999,0.33654814453125,-0.014322216796873954,0.3392700944383711,0.7803549998130617,2.30920423315286,0.14182486925454285,2.441616761427436
291,1791353827.8033175,0.0787482421875,0.31738798828125,-0.004742138671873955,0.3270457286558308,0.7814212969382672,2.317552617775638,0.14268086309698227,2.449903509969626
292,1791353827.8277128,0.11227851562499999,0.37965849609374996,0.004837939453126046,0.3959424761064079,0.7828763424201628,2.3274835531105342,0.14356853121434385,2.4598144199667282
293,1791353827.8477128,0.09311835937499999,0.42755888671875,0.019208056640626046,0.43800294508687726,0.7841983959957362,2.335614819339991,0.14422317787112848,2.46796759169121
294,1791353827.8730705,0.09311835937499999,0.42276884765625,0.043158251953126045,0.43504845949955356,0.7859773692108875,2.3459950977889865,0.14504730343486108,2.4784051613881353
295,1791353827.8930705,0.14101875,0.49461943359375,0.07668852539062605,0.5200151938806723,0.7875212098383204,2.354330185576695,0.14577957260658508,2.4868276905431475
296,1791353827.9176023,0.1649689453125,0.49940947265624996,0.05273833007812605,0.5285885978298639,0.7896938077537629,2.364849285468352,0.1467811704868213,2.497533416191722
297,1791353827.9376023,0.1649689453125,0.44671904296875,0.03357817382812605,0.47738888762314774,0.7916942729105031,2.3735579634617556,0.14760472867912258,2.5064605290330113
298,1791353827.9481466,0.131438671875,0.42755888671875,0.043158251953126045,0.4493833116484081,0.7928251535387704,2.378152009694279,0.14803447732390146,2.5111935233616056
299,1791353827.9681466,0.1266486328125,0.44671904296875,0.07668852539062605,0.4706154581723597,0.7950355395538513,2.3868701484856665,0.14890710696197718,2.5201991868480267
300,1791353827.9931114,0.11706855468749999,0.44192900390625,0.13895903320312605,0.4778241349062833,0.7978370975640298,2.3977840106115527,0.1502367417458672,2.53149822720938
301,1791353828.0131114,0.10269843749999999,0.45629912109375,0.19164946289062607,0.505455609922509,0.8000744907515461,2.4065632319701318,0.15163807930557197,2.5406022686200522
302,1791353828.0386505,0.0787482421875,0.48024931640624996,0.19164946289062607,0.5230393944843514,0.8028505412873176,2.417886232892885,0.15389329750718678,2.5523373550289
303,1791353828.0586505,0.064378125,0.52335966796875,0.20122954101562607,0.5643963263631643,0.8049130915073097,2.4269287304843776,0.15598378750221953,2.5616789591386944
304,1791353828.0667818,0.064378125,0.58563017578125,0.22038969726562604,0.6290300981868258,0.8057043871411768,2.4307299406640364,0.15696333954548167,2.565588644709124
305,1791353828.0867817,0.05000800781249999,0.66227080078125,0.24912993164062605,0.7093441599478184,0.8075303227728999,2.440548955555919,0.1597155613547461,2.5756345795166
306,1791353828.1127279,-0.036212695312500015,0.6526907226562499,0.2587100097656261,0.7030273166074446,0.8095706490641619,2.4539353644542543,0.1637387058861227,2.5892110328342617
307,1791353828.1327279,-0.036212695312500015,0.71975126953125,0.24433989257812605,0.7609567874713598,0.8107988385824131,2.464764838082102,0.16712925558500596,2.600075508858325
308,1791353828.1578352,-0.01705253906250001,0.79639189453125,0.17248930664062606,0.8150358272302609,0.8120090951161798,2.4791755675907745,0.1715321037087757,2.6144011796381204
309,1791353828.1778352,0.1745490234375,0.79639189453125,0.13416899414062605,0.8262619017277548,0.8130647934353171,2.491322116382641,0.1749732196008793,2.6264759419189043
310,1791353828.188005,0.05479804687499999,0.63832060546875,0.21559965820312604,0.6759728056102635,0.8136960116953873,2.4976663310060205,0.1767272993052074,2.632806646681402
311,1791353828.208005,-0.06974296875000001,0.60000029296875,0.23475981445312605,0.6480560189788499,0.8147287536053078,2.5101289487773513,0.18033499870843467,2.64519394245498
312,1791353828.2479775,0.00689765624999999,0.62395048828125,0.29224028320312606,0.6890327805081532,0.816294804901932,2.5349702086083874,0.18804379882628233,2.6697886877651857
313,1791353828.2679775,0.1266486328125,0.5329397460937499,0.33056059570312607,0.6397929013292908,0.8171611524773821,2.5472703194026414,0.1922564865562636,2.68203299492209
314,1791353828.2775357,0.10748847656249999,0.49461943359375,0.3784609863281261,0.6320086034657971,0.8176809283017094,2.553003539937906,0.19447605389293876,2.6877965159181216
315,1791353828.2975357,0.03084785156249999,0.51856962890625,0.4167812988281261,0.6660125381874186,0.8188128932490255,2.5647202888357823,0.19961658472294724,2.6996465500159816
316,1791353828.307587,0.05000800781249999,0.48982939453124996,0.3593008300781261,0.6095332009719048,0.8193573970829751,2.570485607998244,0.20239755392762793,2.7054958094435437
317,1791353828.327587,0.05958808593749999,0.39881865234374997,0.2874502441406261,0.4952117731834385,0.8204427268636452,2.5815696374047863,0.2080712169091426,2.716785175927568
318,1791353828.353153,0.0691681640625,0.39881865234374997,0.21080961914062607,0.45637840428670334,0.8218688877979361,2.595142539771731,0.21519138619324726,2.730666695727411
319,1791353828.373153,0.05479804687499999,0.38444853515625,0.14374907226562605,0.4140860996246183,0.8230031517657322,2.605342637272337,0.22045772594713284,2.741121313319658
320,1791353828.3974645,0.131438671875,0.38444853515625,0.11979887695312605,0.4235900985236559,0.824514698059833,2.617283782279221,0.226379671243456,2.753406370271344
321,1791353828.4174645,0.2128693359375,0.38923857421874997,0.14853911132812606,0.467850285279882,0.8260881168857025,2.6267942251104226,0.23092313162899644,2.763294224409441
322,1791353828.428053,0.27034980468750003,0.39402861328125,0.08626860351562606,0.4855819569665358,0.827179906637707,2.6316960144903527,0.23315419199095613,2.7684673355256564
323,1791353828.448053,0.284719921875,0.37486845703125,-0.043062451171873954,0.47270092943681236,0.8297654093519418,2.6407193186531095,0.23680103083713275,2.7781259659472366
324,1791353828.4729862,0.23681953125,0.31738798828125,-0.10533295898437396,0.40977269032366276,0.8334804625049458,2.6515755440729425,0.24038796936468343,2.7898618107566646
325,1791353828.4929862,0.3278302734375,0.29343779296874994,-0.16760346679687396,0.47081774457512515,0.83686042428385,2.6598937452546507,0.24242420221530278,2.79895330429021
326,1791353828.5176315,0.5242218750000001,0.22637724609374996,-0.20113374023437397,0.6054007046891955,0.8419756219521604,2.6695672835297617,0.24387543469978065,2.8098020672111774
327,1791353828.5376315,0.5098517578125,0.15452666015624997,-0.13886323242187396,0.5505545394983069,0.8470551187606012,2.6768113027407767,0.24436647847113388,2.818250538986854
328,1791353828.5477314,0.5385919921875,0.25511748046875,-0.10533295898437396,0.6051952537302543,0.8500296579554676,2.6802310684150017,0.24439228030950205,2.8223955403479133
329,1791353828.5677314,0.8786847656250001,0.32696806640625,-0.16760346679687396,0.9524106025623791,0.857162272015265,2.686860295563789,0.24402630533895522,2.8308115878915157
330,1791353828.5931146,0.897844921875,0.30780791015625,-0.07659272460937395,0.9522277347119071,0.8682389090190559,2.6952202794464077,0.24316660907808282,2.842038204817857
331,1791353828.6131146,0.8403644531250001,0.32217802734374995,-0.08138276367187396,0.903678178115452,0.8782646074446494,2.7017642126647257,0.2423538793083103,2.8512477942721035
332,1791353828.6376863,0.8403644531250001,0.22158720703124996,-0.06701264648437395,0.8716673672822851,0.89183178056704,2.7096001097067077,0.24123167442843296,2.862776519412496
333,1791353828.6576862,0.8068341796875,0.12099638671874996,0.11979887695312605,0.8246049296664583,0.9036890705842257,2.715535276370143,0.24053445247245406,2.8720450198996312
334,1791353828.6829684,0.8068341796875,0.35091826171874996,0.19164946289062607,0.9004746173801768,0.9194894105940994,2.7228073925420913,0.24037584908743986,2.8839073185352286
335,1791353828.7029684,0.9313751953125,0.38923857421874997,-0.08617280273437396,1.0131101490135908,0.9327210394035752,2.7288074752544667,0.24042741731819384,2.8938148035679547
336,1791353828.7126358,0.9409552734375001,0.02998564453124996,-0.24424409179687398,0.9726001963116575,0.9395149912833713,2.7315766582154395,0.240209034550318,2.89860308404466
337,1791353828.7326357,0.9792755859375001,-0.3915377929687501,-0.32088471679687397,1.1023835621097966,0.9543424057113924,2.735903900638836,0.2389773190538084,2.9074128946353577
338,1791353828.7576442,0.8930548828125,-0.56876923828125,-0.512486279296874,1.1763025361690906,0.9736136719918463,2.738701968725776,0.23610508013037523,2.916188893857059
339,1791353828.7776442,0.725403515625,-0.58792939453125,-0.680137646484374,1.155187626145768,0.989141383269549,2.7388689647849587,0.23236368449484263,2.921266294645294
340,1791353828.8176498,0.7206134765625001,-0.5927194335937501,-0.646607373046874,1.1352097623090491,1.0198809359846461,2.73561044891085,0.22202160141503546,2.9279711821105816
341,1791353828.8376498,0.897844921875,-0.6118795898437501,-0.627447216796874,1.2546761120186454,1.035371062571996,2.732418880931379,0.21571576471948029,2.929955540486965
342,1791353828.83228,0.9457453125,-0.7124704101562501,-0.522066357421874,1.2940639717632518,1.035371062571996,2.732418880931379,0.21571576471948029,2.929955540486965
343,1791353828.85228,0.8786847656250001,-0.58792939453125,-0.498116162109374,1.1687033846318386,1.0516498968458183,2.7264738305797396,0.20816389697763218,2.929668797385959
344,1791353828.8780043,0.8212042968750001,-0.65019990234375,-0.680137646484374,1.2488889575855369,1.0727270076920437,2.717585414316573,0.1976342853483733,2.9283225621306253
345,1791353828.8980043,0.8164142578125,-0.9184420898437501,-0.723247998046874,1.4258877162788455,1.0891122474320127,2.709358541345162,0.18857071227237318,2.926149023305769
346,1791353828.9376717,0.8834748046875001,-0.9567624023437501,-0.684927685546874,1.4714101941623206,1.1217928048150194,2.689910314250077,0.1691013572378263,2.919354700043037
347,1791353828.9576716,0.8595246093750001,-0.8944918945312501,-0.699297802734374,1.424049058288539,1.1384129936425935,2.6787986362837475,0.1586811671538125,2.9149830172162674
348,1791353828.953222,0.75414375,-1.09567353515625,-0.622657177734374,1.468650827218639,1.1384129936425935,2.6787986362837475,0.1586811671538125,2.9149830172162674
349,1791353828.973222,0.6343927734375,-1.2441647460937502,-0.584336865234374,1.5138856226558808,1.1545613080654422,2.6647232363754245,0.1476565994875916,2.9078452867945264
350,1791353828.997988,0.6152326171875,-1.14836396484375,-0.622657177734374,1.4439366087149306,1.1738794053351345,2.645464111875607,0.13381071122591762,2.897305391554461
351,1791353829.017988,0.6439728515625001,-1.1196237304687502,-0.747198193359374,1.492167373835057,1.1890286397610437,2.628842185945971,0.12225176405286707,2.8878271829517823
352,1791353829.0428069,0.591282421875,-1.42139619140625,-0.694507763671874,1.6888821951702453,1.2073074404633475,2.606579411252233,0.10737572233219342,2.87460902188603
353,1791353829.0628068,0.6631330078125001,-1.55072724609375,-0.828628857421874,1.8791290964646998,1.2217093326577855,2.5868720915528014,0.09490150690469372,2.862426803880001
354,1791353829.0732872,0.7014533203125001,-1.4788766601562502,-0.857369091796874,1.8477539598390615,1.229196794968895,2.575712744251666,0.08802002646390829,2.855340334657317
355,1791353829.0932872,0.62002265625,-1.4405563476562502,-0.617867138671874,1.6856424549964888,1.243324220062945,2.5532323191367223,0.07464490824698859,2.8408488615212564
356,1791353829.1182141,0.457161328125,-1.5267770507812501,-0.41189545898437396,1.646117405247042,1.2603045480184711,2.523869203066399,0.05855022502212161,2.821650480976197
357,1791353829.138214,0.41884101562500003,-1.55072724609375,-0.574756787109374,1.706027008131928,1.2731990231817085,2.499227497403021,0.04609377909278628,2.8052269913283805
358,1791353829.16307,0.4523712890625,-1.6417379882812502,-0.761568310546874,1.865456967330808,1.288444525124662,2.4672452641286267,0.0304439420500582,2.783579587742445
359,1791353829.18307,0.4715314453125,-1.7231686523437502,-0.876529248046874,1.9899637260564047,1.3002574308391492,2.440323887347437,0.017283202996912567,2.765167042100127
360,1791353829.1936224,0.4140509765625,-1.81896943359375,-0.751988232421874,2.0113613084778432,1.3062561324914257,2.425446894295652,0.01009204670935513,2.754850190142227
361,1791353829.2136223,0.3853107421875,-1.9243502929687502,-0.627447216796874,2.0604073451529286,1.3171191148158519,2.3958650035836992,-0.0035620962644991264,2.734041800437625
362,1791353829.2374656,0.3853107421875,-1.7998092773437502,-0.670557568359374,1.9589347246250322,1.3295050784664109,2.359228753215767,-0.019719548080428688,2.708123506091348
363,1791353829.2574656,0.5194318359375,-1.62257783203125,-0.771148388671874,1.8700903963541071,1.3396932372243042,2.3279739624842692,-0.033402177774993436,2.6861415534832407
364,1791353829.2825396,0.4140509765625,-1.7662790039062501,-0.723247998046874,1.9530149506624945,1.352305671699821,2.288294496415412,-0.05079330828228819,2.6584962464150346
365,1791353829.3025396,0.35178046875,-2.2309127929687502,-0.45021577148437397,2.3029145943605616,1.3620055519257204,2.2553963397894297,-0.0643445557882326,2.6355287884733167
366,1791353829.3281753,0.4859015625,-2.39377412109375,-0.16281342773437396,2.4480120676803687,1.3741843503955826,2.2106613813175424,-0.08028755723587964,2.604199006137553
367,1791353829.3481753,0.6439728515625001,-1.85728974609375,-0.378365185546874,2.0018457603243176,1.3839553674348675,2.1746194032435726,-0.09167171218828453,2.57928395312163
368,1791353829.3581102,0.533801953125,-1.7614889648437502,-0.905269482421874,2.051170576580782,1.3889586013712034,2.1567048478945887,-0.09743494544224088,2.567114209739879
369,1791353829.3781102,0.5577521484375,-2.09679169921875,-1.159141552734374,2.45992520786197,1.3991571522168291,2.12026316480312,-0.11039324363576826,2.5427039333868335
370,1791353829.402685,0.629602734375,-2.48957490234375,-1.025020458984374,2.764968307024315,1.411997227629836,2.0737492818321157,-0.1279528988171101,2.512079656191113
371,1791353829.422685,0.6535529296875,-2.43209443359375,-0.646607373046874,2.600060741732661,1.4228042883081653,2.034190056994858,-0.14260751252784062,2.486491128766444
372,1791353829.4482658,0.7301935546875,-1.9914108398437502,-0.49332612304687395,2.177675463432239,1.437208410375192,1.9826949322719638,-0.1607268788915848,2.4540742325586535
373,1791353829.4682658,0.7876740234375,-1.6321579101562502,-0.5555966308593739,1.8955361845942496,1.449057585996178,1.9430380805406628,-0.17434163374938572,2.43013577300171
374,1791353829.478041,0.7589337890625,-1.57467744140625,-0.589126904296874,1.8446300577679295,1.4551141396541194,1.924211798814595,-0.18083705178180262,2.4192251332639096
375,1791353829.498041,0.687083203125,-1.78543916015625,-0.435845654296874,1.9621003432560313,1.4678161155403824,1.886430842169132,-0.1936706906536345,2.3980437460032404
376,1791353829.5221832,0.552962109375,-1.9147702148437502,-0.32088471679687397,2.018682508848541,1.483094255747296,1.8409659375913505,-0.2082087994892895,2.3731993298050202
377,1791353829.5421832,0.6056525390625,-1.90519013671875,-0.560386669921874,2.0761978891592654,1.495590409905989,1.8032214988982451,-0.21976783969660707,2.3530185616897525
378,1791353829.568106,0.744563671875,-1.85249970703125,-0.814258740234374,2.1561881926387874,1.511982761719492,1.7543320024598792,-0.23517525071319506,2.3278917597559827
379,1791353829.588106,0.81162421875,-1.90040009765625,-0.718457958984374,2.187792550143049,1.5250670367361112,1.71664125118397,-0.2475784013457114,2.3095414515912953
380,1791353829.5981011,0.8355744140625,-1.8285495117187502,-0.641817333984374,2.1103808681007274,1.531860010723831,1.6978349441844751,-0.2538669458162441,2.3008013856756047
381,1791353829.6181011,0.7637238281250001,-1.8764499023437502,-0.589126904296874,2.109836209523903,1.5458125207527549,1.6602914763487873,-0.2664089860893083,2.284092354442253
382,1791353829.6433227,0.7972541015625,-1.90519013671875,-0.632237255859374,2.15988136415064,1.5637212489531107,1.6128945189650938,-0.2821633859057124,2.2641265534596102
383,1791353829.6633227,0.830784375,-1.97704072265625,-0.670557568359374,2.2468956694224422,1.5782342377972285,1.5751244362667456,-0.2947364381947665,2.2491575905391263
384,1791353829.6876335,0.8020441406250001,-1.9578805664062502,-0.718457958984374,2.2344469012823165,1.5962063754978528,1.528925376545425,-0.31025966467058586,2.2319831226391624
385,1791353829.7076335,0.7397736328125001,-1.9291403320312501,-0.723247998046874,2.189048906523803,1.611086588764305,1.490788946149693,-0.32327724493100846,2.218684262248349
386,1791353829.7183926,0.725403515625,-1.85728974609375,-0.684927685546874,2.1082839931694908,1.6190730579682981,1.4702951761395666,-0.3303660048904324,2.2118560462212185
387,1791353829.7383926,0.81162421875,-1.8716598632812502,-0.747198193359374,2.17259054044683,1.6339976505388347,1.4323204923533355,-0.34371481568260687,2.199915950508442
388,1791353829.763473,0.7828839843750001,-1.9291403320312501,-0.780728466796874,2.2235167398802096,1.6529053924008226,1.3846930929705656,-0.3608176584237868,2.1862434861146034
389,1791353829.783473,0.65834296875,-1.8381295898437502,-0.742408154296874,2.0888527284440634,1.6678832449211973,1.3467594688138256,-0.37469498160774917,2.176233423778477
390,1791353829.808148,0.62002265625,-1.78064912109375,-0.708877880859374,2.0143602549412374,1.6859560432088918,1.300282113667403,-0.3919336819067571,2.1649003131250497
391,1791353829.828148,0.6391828125,-1.81417939453125,-0.799888623046874,2.083176265373866,1.7002962626741456,1.2628688941269177,-0.40607358343487654,2.156557669013433
392,1791353829.8377852,0.6535529296875,-1.7279586914062501,-0.732828076171874,1.9874631217547873,1.707104236234043,1.244984624523298,-0.4129729678092645,2.1528442258576965
393,1791353829.8577852,0.69666328125,-1.6752682617187502,-0.522066357421874,1.88796630206048,1.721138603682002,1.2083325160914036,-0.427025598446401,2.1458649594642996
394,1791353829.88286,0.706243359375,-1.6465280273437501,-0.507696240234374,1.8621465301736881,1.7387330130044838,1.1630262371172726,-0.44393773423233235,2.1384347618316886
395,1791353829.90286,0.7589337890625,-1.7710690429687501,-0.641817333984374,2.03091002788056,1.7528593113732918,1.1271834118292048,-0.4571279746444868,2.133547326537086
396,1791353829.9284415,0.81162421875,-1.8093893554687501,-0.6753476074218739,2.0949267536111176,1.7712309946511733,1.0813448738276745,-0.4739957929882329,2.128670473402804
397,1791353829.9484415,0.84994453125,-1.7710690429687501,-0.670557568359374,2.0757501568464503,1.7859320555210088,1.0455126699768722,-0.4872239812230599,2.1260379248495336
398,1791353829.9575095,0.8068341796875,-1.81896943359375,-0.742408154296874,2.1238646523323608,1.7927244871407115,1.0292616766660516,-0.4932829637134804,2.125222051489513
399,1791353829.9775095,0.7301935546875,-1.8812399414062502,-0.828628857421874,2.181483927926502,1.8077639338639049,0.9932453059221742,-0.5069984125616471,2.1240513338089464
400,1791353830.0034227,0.7158234375,-1.9914108398437502,-0.747198193359374,2.2441981790566135,1.827137406136719,0.9460535145869076,-0.5251660327781599,2.123498932269618
401,1791353830.0234227,0.7828839843750001,-1.8908200195312501,-0.6561874511718739,2.149113689483754,1.842095135289897,0.9092707209517663,-0.5391896986038411,2.123867524710369
402,1791353830.0477018,0.7876740234375,-1.7710690429687501,-0.684927685546874,2.055782541172354,1.8603893519584453,0.8646478418214448,-0.5561022891519771,2.1255385640460434
403,1791353830.0677018,0.7206134765625001,-1.7662790039062501,-0.780728466796874,2.061204075561308,1.875461199914259,0.8280973523078905,-0.5701427900115175,2.127948011180087
404,1791353830.0926075,0.65834296875,-1.8333395507812502,-0.718457958984374,2.076230047896753,1.8939904263669258,0.782685112571652,-0.5878049240417047,2.1319733463011548
405,1791353830.1126075,0.73498359375,-1.8812399414062502,-0.613077099609374,2.110717444446153,1.9087279921566338,0.746116010693251,-0.6018579474657952,2.13592243266998
406,1791353830.1234004,0.7493537109375,-1.8429196289062502,-0.598706982421874,2.077578829672766,1.9166896691697295,0.7263270959731835,-0.609284999318537,2.138335462139043
407,1791353830.1434004,0.77330390625,-1.7566989257812502,-0.684927685546874,2.037919522869121,1.9315140729590148,0.6897581982594898,-0.6229087821392808,2.1434850913806565
408,1791353830.1682327,0.8355744140625,-1.7519088867187502,-0.694507763671874,2.061482569075113,1.9501557323369465,0.6446299264263329,-0.6398560215912154,2.151295156592328
409,1791353830.1882327,0.7876740234375,-1.8860299804687501,-0.689717724609374,2.1571393079876655,1.965352552310987,0.6082785240368219,-0.6535343194519246,2.158638581231517
410,1791353830.213451,0.6439728515625001,-1.9243502929687502,-0.6753476074218739,2.1386723625765827,1.9843479200003435,0.5621111086796629,-0.670776240465893,2.168766084870456
411,1791353830.233451,0.6152326171875,-1.85249970703125,-0.660977490234374,2.0608633094892004,1.9990417768582407,0.5253237206406094,-0.6844037530436209,2.177278469620374
412,1791353830.2427847,0.6727130859375,-1.8285495117187502,-0.617867138671874,2.043990218628505,2.005772279435296,0.5081536931767073,-0.6907048775145215,2.1813793435949056
413,1791353830.2627847,0.7589337890625,-1.85249970703125,-0.665767529296874,2.109735069575726,2.020178188485066,0.4713599034781588,-0.7041067308644927,2.190677146520323
414,1791353830.2870648,0.7014533203125001,-1.9483004882812502,-0.584336865234374,2.151595018883973,2.03770307656956,0.4264709667812628,-0.7202126038959388,2.2029111440498377
415,1791353830.3070648,0.7301935546875,-1.9195602539062502,-0.397525341796874,2.0918701185911415,2.0521208059112492,0.389239652516301,-0.7329621164302567,2.2135809841220553
416,1791353830.3326375,0.8643146484375,-1.7662790039062501,-0.6561874511718739,2.0730082735529867,2.0708488294426597,0.341705734276101,-0.7488398254263807,2.228438638909722
417,1791353830.3526375,0.8738947265625,-1.7902291992187502,-0.972330029296874,2.2167630150112156,2.085905946488168,0.3047719119306335,-0.7618376046533047,2.2414919298896527
418,1791353830.3631957,0.7397736328125001,-1.9195602539062502,-1.005860302734374,2.2899195498528147,2.093940188170603,0.28526130205964956,-0.7692364286843936,2.248929568773515
419,1791353830.3831956,0.591282421875,-1.90519013671875,-0.819048779296874,2.1564334588241936,2.1088729626100107,0.24810951825858868,-0.7838868754563292,2.2634889306092747
420,1791353830.4077258,0.610442578125,-1.8477096679687501,-0.6753476074218739,2.059797453426801,2.1266517666109954,0.20247309985861206,-0.8019097894239067,2.281819976021316
421,1791353830.4277258,0.6918732421875,-1.7710690429687501,-0.589126904296874,1.9905890202610144,2.1409263659247393,0.1654178304849485,-0.8162968007513408,2.29723077418681
422,1791353830.4528866,0.7637238281250001,-1.6704782226562502,-0.550806591796874,1.9175921045888715,2.1589374863483357,0.11929894635753904,-0.833832451372072,2.3174382118026897
423,1791353830.4728866,0.744563671875,-1.62736787109375,-0.512486279296874,1.8615432941008223,2.1733691979396306,0.08319178123307387,-0.8472754186631659,2.3341658420275815
424,1791353830.4830081,0.7397736328125001,-1.65610810546875,-0.474165966796874,1.8747779732203786,2.1807040428673687,0.06516709573227246,-0.8538071356199134,2.342798219604016
425,1791353830.5030081,0.7301935546875,-1.7279586914062501,-0.445425732421874,1.9280632639042554,2.1952284314291437,0.029817145697855617,-0.8661570461351352,2.3601154541466753
426,1791353830.5279698,0.7206134765625001,-1.7614889648437502,-0.498116162109374,1.9672943010196444,2.2133530698813617,-0.014217379612976533,-0.8810251726558114,2.3822970639048164
427,1791353830.5479698,0.6918732421875,-1.74232880859375,-0.728038037109374,2.0110787264522565,2.2278154458755477,-0.049462481679525494,-0.8929902273161016,2.4006331964833
428,1791353830.5731673,0.610442578125,-1.82375947265625,-0.771148388671874,2.072054196357452,2.2457642656632473,-0.09394552591162139,-0.9086367267324694,2.4244388216525268
429,1791353830.5931673,0.5625421875000001,-1.8716598632812502,-0.689717724609374,2.0725044984693293,2.2596332588768835,-0.12949999409473256,-0.9213842366746234,2.4436983497734697
430,1791353830.603193,0.62002265625,-1.8716598632812502,-0.627447216796874,2.0691130341156905,2.266431964963869,-0.14746426801276458,-0.9278062950000197,2.4534229319854717
431,1791353830.623193,0.6056525390625,-1.9578805664062502,-0.584336865234374,2.131093823006403,2.279798592338207,-0.1836694045411268,-0.9405134290215081,2.4730106311865216
432,1791353830.6477125,0.552962109375,-1.9147702148437502,-0.45021577148437397,2.0432342770594127,2.2958582958599782,-0.2285196001751881,-0.9556577446007519,2.497292182975133
433,1791353830.6677125,0.5481720703125,-1.8716598632812502,-0.340044873046874,1.9797054776340206,2.3086446161002416,-0.2652950760547887,-0.9673430921214652,2.5171360906201845
434,1791353830.6927092,0.648762890625,-1.9147702148437502,-0.426265576171874,2.06614147756973,2.3244722942518936,-0.31146262414300696,-0.9811938211265148,2.54222770962783
435,1791353830.7127092,0.648762890625,-1.9291403320312501,-0.603497021484374,2.1228952785905997,2.3371827880610336,-0.3486264595331302,-0.9921581720245977,2.5628776075752318
436,1791353830.7385595,0.5673322265625,-1.90040009765625,-0.5364364746093739,2.054543861240149,2.3535047589561566,-0.39688069120995406,-1.00641410283275,2.59024483010105
437,1791353830.7585595,0.4811115234375,-1.9626706054687502,-0.296934521484374,2.0424774940264525,2.3658112746541713,-0.4344088221992189,-1.0170393154800434,2.6115403464846993
438,1791353830.7679482,0.5098517578125,-1.9626706054687502,-0.474165966796874,2.0825124452410795,2.371419602601347,-0.45214731283994347,-1.021821954028388,2.6214858820609175
439,1791353830.7879481,0.6008625,-2.00099091796875,-0.953169873046874,2.2964174717554875,2.383240606969639,-0.49021167936576676,-1.0326228240689534,2.6431899625421855
440,1791353830.8133724,0.4332111328125,-2.10637177734375,-1.034600537109374,2.3863931405721823,2.397985362752826,-0.5391734131745387,-1.0480838190902304,2.6719882973714246
441,1791353830.8333724,-0.07932304687500001,-2.1015817382812503,-0.670557568359374,2.2073933498420284,2.408375312656052,-0.5782237246855961,-1.060979587269444,2.6944929034983303
442,1791353830.8731477,0.002107617187499989,-2.09679169921875,-0.464585888671874,2.147645203453284,2.425708708982345,-0.6567609050005148,-1.086165608274591,2.73772777239966
443,1791353830.8931477,0.11227851562499999,-2.13032197265625,-0.43105561523437397,2.1763931436388173,2.4332885772440513,-0.696668340555996,-1.0982735682861613,2.759065948409976
444,1791353830.8875551,0.09790839843749999,-2.08242158203125,-0.28256440429687396,2.1037842908363436,2.4332885772440513,-0.696668340555996,-1.0982735682861613,2.759065948409976
445,1791353830.907555,-0.031422656250000014,-1.9291403320312501,-0.019112255859373956,1.929490886819495,2.4391327486411627,-0.7368900427871449,-1.1083839486103901,2.778649038325962
446,1791353830.932587,-0.19907402343750003,-1.8045993164062502,0.16769926757812606,1.8232751311658204,2.444917355232893,-0.7866896786796438,-1.1188609492234043,2.80149091523731
447,1791353830.952587,0.03084785156249999,-1.6513180664062501,0.20601958007812607,1.664405904147563,2.4485935470638105,-0.8256942431839122,-1.125415673011515,2.8184999164466102
448,1791353830.9773242,0.12185859375,-1.5650973632812502,0.12937895507812605,1.5751565596593111,2.452741786435241,-0.8726686736858957,-1.131684642414229,2.838697415159717
449,1791353830.9973242,-0.041002734375000016,-1.3303854492187501,0.20601958007812607,1.346867007204041,2.4557138192385684,-0.9092936173788585,-1.1354897003036948,2.8542393214481825
450,1791353831.0071597,-0.39546562500000004,-1.18668427734375,0.14853911132812606,1.259633479328669,2.456634188081565,-0.9264598948202216,-1.1368187021815488,2.861072566781767
451,1791353831.0271597,-0.673287890625,-1.01424287109375,0.08626860351562606,1.2204292102286358,2.45662185640991,-0.9594320650533665,-1.1387635833698946,2.8726787727925447
452,1791353831.0528433,-0.4385759765625,-0.8705416992187501,-0.06701264648437395,0.9770785188945968,2.454466642235571,-0.9990536386045823,-1.1408494374828926,2.8851433430006983
453,1791353831.0728433,0.01647773437499999,-0.4490182617187501,-0.06222260742187396,0.45360838612335824,2.452406960764625,-1.0272584676871634,-1.1424239155156584,2.8939060564199197
454,1791353831.098447,0.2128693359375,-0.28615693359375005,-0.043062451171873954,0.3592401975380541,2.450606106312133,-1.059361615879937,-1.1443393786923186,2.904691022315452
455,1791353831.118447,0.1266486328125,-0.37716767578125004,-0.10533295898437396,0.4115706064527804,2.4499196801525924,-1.0816719383373694,-1.1458337702956323,2.9129118851306517
456,1791353831.143533,-0.16075371093750002,-0.3101071289062501,0.009627978515626046,0.34942937047270695,2.449123678119616,-1.1067512221181082,-1.1476070838033354,2.922346159711693
457,1791353831.163533,-0.5439568359375,-0.03707490234375004,0.13416899414062605,0.5614845560971754,2.4475271864739923,-1.1242674771841255,-1.148593110217175,2.9280766420334046
458,1791353831.1731236,0.0883283203125,0.32217802734374995,0.009627978515626046,0.3342054329938923,2.446548721118843,-1.1312020636918776,-1.1488915838180875,2.930046181389816
459,1791353831.1931236,0.73498359375,0.37486845703125,-0.24424409179687398,0.860454774834991,2.446049296794809,-1.1424484831099373,-1.1497725707710984,2.934335131406799
460,1791353831.217804,0.725403515625,0.56647001953125,-0.25382416992187395,0.9547383163701836,2.4482286598679797,-1.1525025993610691,-1.1516185913474764,2.940801114062311
461,1791353831.237804,0.5194318359375,0.60958037109375,-0.22029389648437397,0.8306184815163119,2.4515970688291753,-1.1576638580740224,-1.1536013172704778,2.946406250908183
462,1791353831.2477133,0.6391828125,0.72454130859375,-0.306514599609374,1.0136399634129707,2.4538767601539324,-1.1588459947448164,-1.1548278677421853,2.9492478020121715
463,1791353831.2677133,0.8068341796875,0.79160185546875,-0.33046479492187397,1.1776340143594382,2.4599566913160915,-1.158599788068295,-1.157887535594099,2.955409267283786
464,1791353831.29365,1.0367560546875,0.90656279296875,-0.30172456054687397,1.4098783369368066,2.47024487535934,-1.155025046055505,-1.1624899913239288,2.964384519792078
465,1791353831.31365,0.897844921875,1.04068388671875,-0.502906201171874,1.463578868045687,2.4798900996285176,-1.1497611366358451,-1.1667135869980028,2.972040741921186
466,1791353831.3384385,0.9313751953125,1.00236357421875,-0.613077099609374,1.4993518664507766,2.49345229791858,-1.1404171928930693,-1.1732379942843314,2.98233853327785
467,1791353831.3584385,1.4726496093750001,0.86345244140625,-0.5555966308593739,1.7952533544837177,2.5063592596463087,-1.131210413954516,-1.179465428434285,2.9920916489849727
468,1791353831.3675504,1.7456818359375001,0.80597197265625,-0.622657177734374,2.0210635452685954,2.51355692832319,-1.1265041700286171,-1.1826822436151265,2.997618615897607
469,1791353831.3875504,1.721731640625,0.79160185546875,-0.823838818359374,2.066326145250694,2.5321866921056357,-1.115327399690654,-1.1908535788866568,3.0123175294986346
470,1791353831.4136157,2.0905646484375002,0.60000029296875,-0.977120068359374,2.3843708874354723,2.5602770049340187,-1.1002255700413983,-1.2034263044323903,3.0354158721938957
471,1791353831.4336157,2.4641876953125004,0.30780791015625,-1.072920849609374,2.7052034778941847,2.5854298043998862,-1.089014351419002,-1.214701373001135,3.057106304439973
472,1791353831.457528,2.4689777343750006,0.21200712890624998,-1.254942333984374,2.7777109887770415,2.619839370132719,-1.0766883696739487,-1.2303348559470206,3.0881288879265907
473,1791353831.477528,2.7036896484375004,0.05872587890624996,-1.326792919921874,3.0122692270572724,2.6520610413459114,-1.067519401552092,-1.2453217149041482,3.118309095219187
474,1791353831.503438,3.1204230468750005,-0.23825654296875007,-1.523184521484374,3.480502443358669,2.698860301555858,-1.0577716637859127,-1.2673630192148335,3.163690383475591
475,1791353831.523438,3.5611066406250003,-0.51128876953125,-1.863277294921874,4.051505768171093,2.7395884805854167,-1.0525003025927702,-1.2869044304640016,3.2045631438718853
476,1791353831.548349,3.4365656250000005,-0.66936005859375,-1.944707958984374,4.004986295695585,2.7957819185447557,-1.0491252605631314,-1.314707756629934,3.2627468234229218
477,1791353831.568349,3.4509357421875007,-0.8609616210937501,-2.136309521484374,4.148979486727835,2.8444612937217024,-1.0491175082517419,-1.3398031232086876,3.314616117525684
478,1791353831.5779812,3.7670783203125007,-0.9902926757812501,-2.428501904296874,4.590117662353329,2.8696039061134635,-1.0504517292101607,-1.3533742837739349,3.3421097177326295
479,1791353831.5979812,4.088010937500001,-1.01424287109375,-2.462032177734374,4.8787420992386545,2.925760336481784,-1.0558132755954943,-1.3846616092715243,3.4047177550634204
480,1791353831.6233792,4.1023810546875,-0.94718232421875,-2.332701123046874,4.813333481344868,3.0019780037049033,-1.0653368414800948,-1.4275669246474827,3.490667822192529
481,1791353831.6433792,4.3514630859375005,-0.9376022460937501,-2.452452099609374,5.082209190995112,3.0656745185946885,-1.0745385476418194,-1.463463019436672,3.56296468598661
482,1791353831.6535714,4.720296093750001,-1.1196237304687502,-2.620103466796874,5.513591813620344,3.1002003079130955,-1.0800969910090574,-1.4828895451904616,3.6023343629383495
483,1791353831.6735713,4.5909650390625005,-1.2441647460937502,-2.5099325683593743,5.378165802857676,3.1717544002237523,-1.0929138636629854,-1.5229870225690811,3.6842877411569424
484,1791353831.6984723,4.519114453125001,-1.22979462890625,-2.514722607421874,5.315883751739555,3.264493065258823,-1.111098118122679,-1.5748056624567086,3.790971758761125
485,1791353831.7184722,4.691555859375001,-1.25853486328125,-2.941036083984374,5.678406434117621,3.34162222952133,-1.127245094488791,-1.6183661493348136,3.8802357687636637
486,1791353831.7583091,4.792146679687501,-1.7135885742187502,-3.137427685546874,5.978671096771339,3.5005423258009603,-1.1634630524315763,-1.7102780954923167,4.066016971560525
487,1791353831.778309,4.634075390625,-1.9483004882812502,-3.0751571777343742,5.892972186121741,3.5824991758075124,-1.1844115249803724,-1.7588194495846323,4.163000944199392
488,1791353831.7733295,4.480794140625001,-1.77585908203125,-3.003306591796874,5.679000096339387,3.5824991758075124,-1.1844115249803724,-1.7588194495846323,4.163000944199392
489,1791353831.7933295,4.5574347656250005,-1.69442841796875,-2.926665966796874,5.675092332971735,3.6668917779365886,-1.2095005216064048,-1.8105355621864643,4.264624936006328
490,1791353831.8179126,4.7346662109375,-1.7183786132812502,-2.9889364746093743,5.856930120534645,3.77219586657837,-1.2420053773277406,-1.8754744561827956,4.39197489165593
491,1791353831.8379126,4.686765820312501,-1.8908200195312501,-2.9889364746093743,5.8715173038968365,3.8591490736325644,-1.2698972949913607,-1.9293485343298378,4.4975611701527916
492,1791353831.862623,4.418523632812501,-1.9578805664062502,-3.017676708984374,5.697632852859211,3.967341447510477,-1.3063219362982952,-1.9970586962628198,4.629742822091483
493,1791353831.882623,4.2844025390625005,-2.07284150390625,-2.893135693359374,5.569830442413085,4.054828749396606,-1.337427012717037,-2.052507352377521,4.737418456590281
494,1791353831.89257,4.519114453125001,-2.15906220703125,-2.854815380859374,5.764886461420136,4.09838173603233,-1.3537338254008264,-2.080236442232766,4.791316288857476
495,1791353831.91257,4.5239044921875005,-2.04410126953125,-2.7063241699218743,5.654047432347631,4.186380300587421,-1.387907654401264,-2.135968428277031,4.900451898028211
496,1791353831.9386308,4.586175000000001,-1.61299775390625,-2.394971630859374,5.419469715512102,4.301652479443629,-1.4329061300725148,-2.2076671858914083,5.042938472276317
497,1791353831.9586308,4.844837109375001,-1.09567353515625,-2.337491162109374,5.489700542375544,4.39099328728285,-1.4663225213922284,-2.2615363791711536,5.152229670736707
498,1791353831.9832025,4.9358478515625,-1.05735322265625,-2.529092724609374,5.645963147321082,4.502316146453429,-1.5051868970751863,-2.3267602875081437,5.286799761033802
499,1791353832.0032024,4.658025585937501,-1.2776950195312502,-2.514722607421874,5.445506102692571,4.593726037981892,-1.535577915324918,-2.379451383973689,5.396490279316802
500,1791353832.013556,4.418523632812501,-1.1244137695312502,-2.4668222167968743,5.183904828227145,4.640996951278509,-1.5508160613793769,-2.4065051421775623,5.4529946045577296
501,1791353832.033556,4.3514630859375005,-0.8178512695312501,-2.500352490234374,5.084867182412125,4.731768154657796,-1.5787496526302165,-2.4583766779225105,5.561087683688056
502,1791353832.0585122,4.3227228515625,-0.7412106445312501,-2.471612255859374,5.034301661035156,4.844279402190495,-1.6112952771413493,-2.522699847163406,5.6944999706298525
503,1791353832.0785122,4.308352734375,-0.7795309570312501,-2.1602597167968742,4.882242706050357,4.933867774187152,-1.6357462090916985,-2.5734640820778543,5.800123641394652
504,1791353832.1178577,4.605335156250001,-0.7986911132812501,-2.145889599609374,5.14313732750141,5.10997966268674,-1.68128989770178,-2.6710583686600593,6.00609529411373
505,1791353832.1378577,4.4760041015625,-0.8992819335937501,-2.3997616699218742,5.157729809297756,5.199694198572168,-1.7035148843978833,-2.72004433392986,6.110435655382857
