imu_index,t_imu,ax,ay,az,mag,vx,vy,vz,velocity
0,1790565695.4136274,0.02586621093749989,0.008909472656250066,-0.02011816406249913,0.033958505510716136,0.0,0.0,0.0,0.0
1,1790565695.4336274,0.049816406249999896,0.028069628906250067,-0.04406835937499913,0.07219140320428528,0.0001465032050100849,6.682816624810249e-05,-0.00012193032805400061,0.00020198068665510372
2,1790565695.428614,0.011496093749999891,0.028069628906250067,-0.02969824218749913,0.0424505574459362,0.0001465032050100849,6.682816624810249e-05,-0.00012193032805400061,0.00020198068665510372
3,1790565695.448614,-0.03640429687500011,-0.010250683593749935,0.027782226562500872,0.04692761935014865,0.0002931628645218414,0.00021341739429016408,-0.0003069513380664419,0.0004750900685775635
4,1790565695.4735997,-0.002874023437500109,-0.04857099609374994,0.018202148437500874,0.05194920480622574,0.0003752953409555877,0.00025885210888735747,-0.00041725291560085366,0.0006180218465360398
5,1790565695.4935997,0.049816406249999896,-0.005460644531249935,-0.03448828124999913,0.06083530647527585,0.0005015906413814012,0.00020871787242489134,-0.0005167297490450874,0.0007497772704871612
6,1790565695.5182548,0.049816406249999896,0.047229785156250065,-0.04406835937499913,0.0815741824082512,0.000818162575159338,0.0002334217553734859,-0.0007662275022384836,0.001144980480383672
7,1790565695.5382547,0.05460644531249989,0.028069628906250067,0.013412109375000873,0.06284626173837722,0.001193076772473151,0.00036340438641475393,-0.000984243466824946,0.001588782595281061
8,1790565695.547694,0.0737666015624999,0.004119433593750065,0.05173242187500087,0.0901927087533521,0.0014343609255589983,0.0004383372110915545,-0.0010255858544731622,0.0018169637091294461
9,1790565695.567694,0.0977167968749999,0.008909472656250066,0.02299218750000087,0.10077991754589628,0.0021261367641378843,0.0005928340183035713,-0.000987956383586537,0.002418257126309372
10,1790565695.593307,0.0833466796874999,-0.015040722656249936,-0.02011816406249913,0.08704960010361087,0.003226993201304851,0.0007492345110502586,-0.000941473636551,0.003444010755229579
11,1790565695.613307,0.045026367187499895,-0.043780957031249935,-0.02011816406249913,0.06594608757099509,0.0041502163438072925,0.0007648086825799788,-0.0009709764020761919,0.004330360631026441
12,1790565695.6382341,0.021076171874999893,-0.0006706054687499347,-0.01053808593749913,0.0235734169739003,0.005251864070547017,0.0006982042571581059,-0.0010595447085871167,0.005402980694923067
13,1790565695.6582341,0.03544628906249989,0.04243974609375007,0.02299218750000087,0.059884990964677205,0.006087957058483565,0.0007154345591372939,-0.0011012660036250484,0.006227989608620756
14,1790565695.6679587,0.05939648437499989,0.008909472656250066,-0.005748046874999129,0.060335405045456196,0.0065026846853075615,0.0007600071460887714,-0.001105932323978185,0.00663969918624777
15,1790565695.6879587,0.03544628906249989,0.013699511718750066,-0.058438476562499134,0.06970775833851087,0.007369950314384479,0.0008718396749577739,-0.0012103693946506524,0.007519392670078704
16,1790565695.7135155,0.0019160156249998911,-0.043780957031249935,-0.04406835937499913,0.062148721728217955,0.008383558597666315,0.0009356493534337523,-0.001520286325456689,0.00857150890943108
17,1790565695.7335155,-0.01724414062500011,-0.024620800781249935,0.0038320312500008716,0.03030228837077754,0.009034802742147883,0.0008754920104759936,-0.001786792634825201,0.009251312056665031
18,1790565695.7579124,0.021076171874999893,0.06159990234375007,0.027782226562500872,0.07078562779572002,0.00971706938704358,0.000880779869502829,-0.0020052780549058347,0.00996084086453688
19,1790565695.7779124,0.030656249999999892,0.03764970703125007,0.0038320312500008716,0.04870308580677858,0.01027007767542444,0.0010333387708286565,-0.0021100993816603256,0.010535407152788752
20,1790565695.802943,-0.01245410156250011,-0.015040722656249936,-0.015328124999999129,0.02482497532258383,0.010892539854327754,0.00123807500032219,-0.002243190095965219,0.011189823769442381
21,1790565695.822943,0.011496093749999891,-0.04857099609374994,-0.02011816406249913,0.053814889745250706,0.011313859049459803,0.0012817077469894694,-0.0023867503929855104,0.011633690677431337
22,1790565695.8329148,0.030656249999999892,0.018489550781250065,0.0038320312500008716,0.03600491099358394,0.011523941234567342,0.0012777019034574068,-0.0024597720925819727,0.01185260403790261
23,1790565695.8529148,0.0737666015624999,0.047229785156250065,0.013412109375000873,0.08861178696919016,0.012038722668042661,0.0013694516666221397,-0.0025583930204426323,0.01238352196236224
24,1790565695.89283,0.049816406249999896,0.03285966796875007,0.02299218750000087,0.06395367696009921,0.013281956114072357,0.001764853595947504,-0.002616711799976259,0.013651822115578855
25,1790565695.9128299,0.030656249999999892,-0.015040722656249936,0.013412109375000873,0.036686696225903336,0.013932162753708278,0.0019599851476633937,-0.00258694359286947,0.014305208070054965
26,1790565695.9234676,0.021076171874999893,-0.024620800781249935,0.0038320312500008716,0.03263546101276213,0.01426739836354913,0.0020165619112550268,-0.002559727303095701,0.014634800370088501
27,1790565695.9434676,0.045026367187499895,-0.024620800781249935,-0.015328124999999129,0.05355846328293189,0.014902285149706769,0.0020331137313096955,-0.0025334776393116216,0.015252218300185154
28,1790565695.953678,0.0929267578124999,-0.015040722656249936,-0.02011816406249913,0.09626186254592663,0.015283426556384542,0.002009924549058535,-0.002549230664230365,0.015624388019271691
29,1790565695.9736779,0.05460644531249989,0.03285966796875007,-0.02969824218749913,0.07031079033626982,0.016139321919655995,0.0019980432373695903,-0.0026501837957127353,0.01647705565189804
30,1790565695.9985821,0.02586621093749989,0.04243974609375007,-0.02011816406249913,0.053618405813776714,0.017195537030678193,0.0021261133443195262,-0.0028500838101351306,0.01755932314900301
31,1790565696.018582,0.05460644531249989,-0.03420087890624993,0.018202148437500874,0.06695432917569878,0.01803723283876901,0.002225894046990233,-0.002989412325723006,0.018418277846790624
32,1790565696.043953,0.0833466796874999,-0.07731123046874994,0.02299218750000087,0.11598420606943892,0.019207300042574572,0.002121297083955319,-0.0030612598031983553,0.019565060383923187
33,1790565696.063953,0.06418652343749989,-0.05336103515624994,-0.0009580078124991287,0.08347591055453109,0.020212614924192747,0.0018552026262639047,-0.0030763506894687996,0.020529381686324386
34,1790565696.0735278,0.040236328124999894,0.013699511718750066,-0.03448828124999913,0.054736461941688096,0.020696698744830506,0.001718438347348463,-0.003107946246659354,0.02099918329745303
35,1790565696.0935278,0.0737666015624999,0.023279589843750066,-0.03448828124999913,0.08469292976956745,0.0217271819870192,0.0015310853069541496,-0.0032675081325222936,0.022024787597394027
36,1790565696.118191,0.0929267578124999,-0.005460644531249935,-0.01053808593749913,0.09368165354788417,0.023115661057586858,0.0013676646358754445,-0.003518046000083337,0.023421804805440684
37,1790565696.138191,0.0737666015624999,-0.015040722656249936,0.02299218750000087,0.07871705996884054,0.0243227588311888,0.0012242691763435071,-0.003672056891506229,0.024628833386719236
38,1790565696.163062,0.040236328124999894,-0.0006706054687499347,0.013412109375000873,0.042418115122720396,0.025811342672277283,0.001043389981857318,-0.003766943832274713,0.026105630408696796
39,1790565696.183062,0.040236328124999894,0.008909472656250066,-0.02490820312499913,0.04815349817937781,0.026949533279694068,0.0009321131270855243,-0.0038490453912570785,0.02723896711145598
40,1790565696.1936204,0.0737666015624999,-0.03420087890624993,-0.04885839843749913,0.09485965803184197,0.027550551063135195,0.0008621520552381392,-0.003944301019857414,0.027844814249407723
41,1790565696.2136204,0.0833466796874999,-0.029410839843749936,-0.015328124999999129,0.08970294271238272,0.028753917070847908,0.0006540905283217621,-0.004193951416855673,0.029065526140487886
42,1790565696.2382824,0.03544628906249989,0.004119433593750065,0.02299218750000087,0.042450557445937176,0.030234934789124337,0.0003892333108608884,-0.00444144333090858,0.030561891354014024
43,1790565696.2582824,0.0689765624999999,0.03285966796875007,-0.01053808593749913,0.07712700699858,0.031412461748374185,0.00026213094489247705,-0.004593362937843302,0.031747605402677126
44,1790565696.2833524,0.1072968749999999,-0.043780957031249935,-0.04885839843749913,0.1257638051317436,0.0329985235766067,0.00010617196713823927,-0.004866909351533848,0.03335566874398596
45,1790565696.3033524,0.05460644531249989,-0.10126142578124994,-0.015328124999999129,0.11606330874541802,0.03431688997200441,-0.0002171474892830073,-0.005148681406236747,0.03470165717376746
46,1790565696.3134,0.03544628906249989,-0.005460644531249935,0.037362304687500875,0.05178995905154414,0.034947728978504705,-0.0004356366287590162,-0.005252401138047068,0.035342909582295176
47,1790565696.3334,0.0785566406249999,0.08076005859375007,0.032572265625000874,0.11727866531597698,0.03618607005745818,-0.0006923564325276555,-0.005322986139833926,0.03658203391116734
48,1790565696.3575199,0.1264570312499999,0.03764970703125007,-0.02011816406249913,0.1334676804224455,0.037826354509909794,-0.0007413165919127594,-0.00537281312278093,0.03821321455532294
49,1790565696.3775198,0.1264570312499999,-0.06294111328124993,-0.05364843749999913,0.15109969999916578,0.03936181885376459,-0.0008137614161376281,-0.0055185816190428975,0.03975512211281723
50,1790565696.4030085,0.0881367187499999,-0.05815107421874994,-0.01053808593749913,0.10611635067244475,0.041435364282631164,-0.001123723927339231,-0.005799189764751857,0.04185430408723605
51,1790565696.4230084,0.0689765624999999,-0.010250683593749935,0.042152343750000876,0.08148412589010084,0.0430540137385069,-0.0014330602435332499,-0.00593892390114312,0.04348531450686203
52,1790565696.4490135,0.1025068359374999,0.013699511718750066,-0.02011816406249913,0.10535686290173661,0.04517742641291858,-0.0017682168072840514,-0.0060503851766387715,0.045615059012983045
53,1790565696.4690135,0.0929267578124999,-0.06773115234374993,-0.058438476562499134,0.12898816557460235,0.04685869188033899,-0.002068362427713023,-0.00624108438643334,0.04731771615565891
54,1790565696.4780521,0.05939648437499989,-0.08210126953124994,-0.02969824218749913,0.10559614767490294,0.047607801007679806,-0.0022852333575045856,-0.006374088463610691,0.04808694221955712
55,1790565696.4980521,0.049816406249999896,0.004119433593750065,0.008622070312500871,0.050724591287383027,0.049180546436172194,-0.002810097366321032,-0.006655857079587807,0.04970838187300602
56,1790565696.5236342,0.0785566406249999,0.047229785156250065,0.0038320312500008716,0.09174139118027319,0.051136800633567486,-0.0032822286389699784,-0.006938311840372057,0.051709627489181835
57,1790565696.5436342,0.0833466796874999,-0.0006706054687499347,0.032572265625000874,0.0894878271865567,0.052679639433189804,-0.003526133990943101,-0.00707140430783097,0.05326896648723139
58,1790565696.5687308,0.0929267578124999,-0.010250683593749935,0.018202148437500874,0.09524587675812009,0.054657035473220913,-0.0038068421846391494,-0.007117791815474968,0.05524985551535968
59,1790565696.5887308,0.045026367187499895,0.08076005859375007,0.037362304687500875,0.09972714082801715,0.05620341441458001,-0.0038912244700793127,-0.007065867206820803,0.05677932633554214
60,1790565696.5973694,0.0785566406249999,0.03285966796875007,0.018202148437500874,0.087075954046124,0.056851223634622805,-0.00384859090078763,-0.0070108035006162224,0.05741101502673309
61,1790565696.6173694,0.1072968749999999,0.028069628906250067,-0.07280859374999914,0.13267107738897957,0.05840483061201873,-0.0036732982306526924,-0.006984352950545562,0.05893554568210692
62,1790565696.6430192,0.0833466796874999,-0.019830761718749937,-0.04885839843749913,0.09862591557574492,0.06046519138149072,-0.003466359332189825,-0.007189573681148444,0.06098971212866004
63,1790565696.6630192,0.06418652343749989,-0.029410839843749936,-0.04885839843749913,0.08586064517102611,0.062052042316715274,-0.003403068164274269,-0.007472163481349826,0.06259289141506516
64,1790565696.6883633,0.0977167968749999,-0.019830761718749937,-0.13986914062499914,0.17177080078124923,0.0640690292720418,-0.003428494486534549,-0.00813528369323899,0.06467439931746895
65,1790565696.7083633,0.1312470703124999,-0.038990917968749934,-0.11591894531249913,0.17939700954035506,0.06576540108252192,-0.0035337820352193345,-0.008963763969707255,0.06646747068696113
66,1790565696.718055,0.12166699218749989,-0.07252119140624994,0.06131250000000087,0.15434183764354112,0.0666479715619288,-0.0036582055672820146,-0.009344705838198047,0.06739924412405984
67,1790565696.738055,0.1456171874999999,0.004119433593750065,0.037362304687500875,0.1503904147215011,0.06859699120433935,-0.003979056163937698,-0.009864893923446118,0.06941682953264881
68,1790565696.7633402,0.1264570312499999,-0.04857099609374994,-0.015328124999999129,0.13632855104532624,0.07120741400789378,-0.004408147526874475,-0.010382114998690309,0.07209518628976769
69,1790565696.7833402,0.1025068359374999,-0.07731123046874994,-0.06322851562499913,0.14311716514328549,0.07330592047086296,-0.004885460930863286,-0.010847692186533921,0.07426505322398459
70,1790565696.808474,0.03544628906249989,-0.11084150390624994,-0.058438476562499134,0.13022032844163495,0.07580757014803902,-0.0057499972987725394,-0.0115743638594812,0.07690133977660865
71,1790565696.828474,0.05460644531249989,-0.07731123046874994,-0.005748046874999129,0.09482578905095596,0.07763471010690828,-0.006616979573108986,-0.012162148338134835,0.07885968858836195
72,1790565696.8378646,0.1072968749999999,0.047229785156250065,-0.0009580078124991287,0.11723561647229887,0.07847795030574362,-0.006984178883462153,-0.012401456492746366,0.07975815671145142
73,1790565696.8578646,0.0977167968749999,0.07597001953125007,-0.015328124999999129,0.12471955610530414,0.08031200567709931,-0.007464127852074082,-0.0128591101660673,0.08167672970151042
74,1790565696.8830962,0.006706054687499892,0.028069628906250067,0.013412109375000873,0.031823889050418004,0.08247635064693218,-0.007781916747815081,-0.013353498153825699,0.08391199292860266
75,1790565696.9030962,0.006706054687499892,-0.024620800781249935,0.0038320312500008716,0.025803865293454,0.08395471280638381,-0.0079908562151309,-0.013660729664122635,0.08543338410954772
76,1790565696.9285285,0.0833466796874999,-0.010250683593749935,-0.03927832031249913,0.09270669865571292,0.08572440767233871,-0.00828320861569601,-0.01406041995584755,0.08726385864193299
77,1790565696.9485285,0.0929267578124999,0.013699511718750066,-0.005748046874999129,0.09410684875051534,0.08717175136346121,-0.008473455243754452,-0.014395128183861908,0.08875772301592029
78,1790565696.9585881,0.02586621093749989,0.018489550781250065,0.042152343750000876,0.05279909506775568,0.08788016453051233,-0.008530506323228729,-0.014510761127083934,0.08947767902962085
79,1790565696.978588,0.045026367187499895,-0.005460644531249935,0.008622070312500871,0.046168522580584556,0.08918367000383494,-0.008607375155716253,-0.01463001083911356,0.09078464143001695
80,1790565697.0030892,0.0737666015624999,-0.029410839843749936,-0.02969824218749913,0.0847849903899427,0.09075929824523575,-0.008751497640354372,-0.014792914401853263,0.09237244851911927
81,1790565697.0230892,0.06418652343749989,-0.05336103515624994,-0.03448828124999913,0.09031473527347743,0.09205947133057955,-0.008975654166097167,-0.01500222410564473,0.09370472430721496
82,1790565697.0481691,0.016286132812499892,-0.05815107421874994,0.018202148437500874,0.06307221069949716,0.0935966941013093,-0.009424336496909219,-0.015255961399388373,0.09529902215301408
83,1790565697.068169,0.016286132812499892,-0.029410839843749936,0.037362304687500875,0.05026109264493505,0.09468753004618195,-0.00985981013645549,-0.015344605859708853,0.09642821750485368
84,1790565697.0783556,0.0833466796874999,0.008909472656250066,-0.02490820312499913,0.08744407527591215,0.095235896670704,-0.010063999747103109,-0.015373467444590765,0.09699228632655585
85,1790565697.0983555,0.0785566406249999,-0.029410839843749936,-0.058438476562499134,0.10223110500012143,0.09639391210452919,-0.010435520691364837,-0.015546654003126364,0.09819564569576661
86,1790565697.1234412,0.03544628906249989,-0.09168134765624994,-0.02011816406249913,0.10033269378230655,0.09784300999495202,-0.011059441108665993,-0.015879094146548395,0.0997382147094246
87,1790565697.1434412,0.011496093749999891,-0.05336103515624994,0.032572265625000874,0.06356502758908346,0.09889544324968928,-0.011699820749451348,-0.01608569992183947,0.10087588533984358
88,1790565697.1681094,0.049816406249999896,0.03285966796875007,0.037362304687500875,0.07040862107897852,0.10011224974752121,-0.012409124811848086,-0.016172918374827615,0.10216659051208925
89,1790565697.1881094,0.0977167968749999,0.06638994140625007,0.008622070312500871,0.11845056693789616,0.10117210573065645,-0.012749064048466447,-0.016164048058644024,0.10324538760510893
90,1790565697.2135186,0.1072968749999999,0.018489550781250065,-0.02969824218749913,0.112855963342153,0.10270732957204641,-0.012954407896219416,-0.016194633750935074,0.10478014312878903
91,1790565697.2335186,0.0881367187499999,-0.07731123046874994,-0.0009580078124991287,0.11724344471047224,0.10402761781327399,-0.013180025180731206,-0.016261081372151685,0.10611258690212509
92,1790565697.243099,0.1072968749999999,-0.08210126953124994,0.02299218750000087,0.1370469938723347,0.10470561917166733,-0.013386431279601919,-0.016272304426676213,0.10680473360240247
93,1790565697.263099,0.1072968749999999,-0.010250683593749935,0.0038320312500008716,0.10785351344488395,0.10623059533837219,-0.013891218308903459,-0.016251982990943124,0.1083606583737313
94,1790565697.288685,0.0833466796874999,-0.015040722656249936,-0.03927832031249913,0.09335779988583824,0.10825470922227971,-0.014488662710330133,-0.016297905225599495,0.11042927660125582
95,1790565697.308685,0.0833466796874999,-0.06773115234374993,-0.02969824218749913,0.1114278403352157,0.10984961460374615,-0.015009775545310428,-0.01643188170881488,0.1120813897442597
96,1790565697.3480437,0.1312470703124999,-0.08689130859374994,-0.02969824218749913,0.16018076839550974,0.11315093952250885,-0.016337892725781004,-0.016831322158420866,0.11555671879707442
97,1790565697.3680437,0.1264570312499999,-0.029410839843749936,-0.02011816406249913,0.13138157701186187,0.11496342121463142,-0.017085993255023448,-0.017078575151011913,0.1174742402064054
98,1790565697.3630679,0.0689765624999999,-0.015040722656249936,-0.03927832031249913,0.08078846426879213,0.11496342121463142,-0.017085993255023448,-0.017078575151011913,0.1174742402064054
99,1790565697.3830678,0.006706054687499892,-0.05815107421874994,-0.02490820312499913,0.06361554200965766,0.11663564064910313,-0.01779295916614921,-0.017429225576851507,0.1192654181635387
100,1790565697.4230564,0.049816406249999896,-0.06773115234374993,-0.02011816406249913,0.0864518585961165,0.11964711907052218,-0.019371995638920586,-0.018160201079700608,0.12255815036204337
101,1790565697.4430563,0.0833466796874999,-0.04857099609374994,-0.015328124999999129,0.09767682474612581,0.1211271081193106,-0.020217731251796253,-0.018524123958672076,0.1241920937368932
102,1790565697.4535573,0.049816406249999896,-0.015040722656249936,-0.02490820312499913,0.057691561363889914,0.12189248596615822,-0.02064527232225526,-0.018718227588693827,0.12503750416707898
103,1790565697.4735572,0.02586621093749989,-0.015040722656249936,-0.015328124999999129,0.03361897711562723,0.12324508464407694,-0.021382543291553376,-0.0190928175728143,0.12653497433282868
104,1790565697.482824,0.0929267578124999,0.004119433593750065,0.008622070312500871,0.0934167658782407,0.12386035710504043,-0.021680501749665137,-0.019245007509214915,0.12720771412274928
105,1790565697.502824,0.15040722656249988,0.004119433593750065,0.032572265625000874,0.15394887470618973,0.1253540711690189,-0.022214746366262684,-0.01946240753933711,0.12878634796434008
106,1790565697.5281935,0.11687695312499989,-0.03420087890624993,0.032572265625000874,0.1260590130759757,0.12747315788696778,-0.022848005453937757,-0.019572857566343055,0.13097531862229364
107,1790565697.5481935,0.045026367187499895,-0.019830761718749937,0.0038320312500008716,0.04934893429396818,0.12913600805115785,-0.023353398379270463,-0.01959226349673835,0.13268514076630902
108,1790565697.5732615,0.049816406249999896,-0.03420087890624993,0.013412109375000873,0.061897165747003206,0.13108591104948406,-0.02399342548933131,-0.019580517670923305,0.1346944587377175
109,1790565697.5932615,0.06418652343749989,-0.05336103515624994,-0.005748046874999129,0.08366809372046463,0.13257924894537032,-0.024558804899817543,-0.019561056114518305,0.13624620018679828
110,1790565697.6033204,-0.002874023437500109,-0.06773115234374993,-0.02969824218749913,0.07401185443939988,0.1332639102096506,-0.024891860064049705,-0.01957947749185186,0.136975291204903
111,1790565697.6233203,-0.03161425781250011,-0.019830761718749937,-0.005748046874999129,0.03775924324265847,0.1343692878298373,-0.025586081825783737,-0.01966377987569098,0.1381897873726311
112,1790565697.6480453,0.0019160156249998911,-0.019830761718749937,0.0038320312500008716,0.020288289472552016,0.1354757601048209,-0.026389125475476203,-0.019755918822522707,0.13942870525061013
113,1790565697.6680453,0.03544628906249989,-0.05815107421874994,0.02299218750000087,0.07187925658444208,0.13629257361631192,-0.027058241734838367,-0.019779033922685946,0.14035321247357865
114,1790565697.693515,0.016286132812499892,-0.015040722656249936,-0.005748046874999129,0.022901997792459133,0.1372755680322471,-0.02792235121343599,-0.019771114913380437,0.14147486087917058
115,1790565697.713515,0.02586621093749989,0.008909472656250066,-0.0009580078124991287,0.027374392235162335,0.13799490302461231,-0.028508304029073506,-0.01977588838735741,0.14228985354161927
116,1790565697.7232935,0.0689765624999999,-0.06294111328124993,0.07568261718750087,0.12019654096416141,0.13836340553123397,-0.028791444312985887,-0.019723070087083773,0.14269680707531088
117,1790565697.7432935,0.1360371093749999,-0.11084150390624994,0.11400292968750088,0.20925726293880026,0.13931156969856612,-0.029544359175565138,-0.019346717086974108,0.14371805061653412
118,1790565697.7688699,0.2414179687499999,-0.0006706054687499347,0.10921289062500088,0.2649727171346874,0.1410662647219099,-0.030576680132436095,-0.01850944436798041,0.14552396346074634
119,1790565697.7888699,0.2126777343749999,0.06159990234375007,0.11879296875000088,0.25127303096846915,0.14291371100355438,-0.031171445066358838,-0.017610920963021106,0.14733001159810674
120,1790565697.8136902,0.15519726562499989,0.07597001953125007,0.13795312500000087,0.2211078918137504,0.14554732566230555,-0.03154275194886367,-0.016185160964357525,0.149802966070098
121,1790565697.8336902,0.2174677734374999,-0.038990917968749934,0.09005273437500087,0.23858335888390045,0.14791014280397383,-0.031741599531063557,-0.014866618384032169,0.15200643350614734
122,1790565697.8575308,0.1599873046874999,-0.05815107421874994,0.10442285156250088,0.19970382325436228,0.15097912680466444,-0.03211677245327192,-0.013182900397397272,0.15491924562946296
123,1790565697.8775308,0.1791474609374999,-0.13479169921874995,0.16669335937500088,0.27937303198117425,0.15367621861846972,-0.03267370963748147,-0.011575623318940109,0.15753712745117623
124,1790565697.8879442,0.1695673828124999,-0.11563154296874995,0.19064355468750088,0.28012268024403325,0.15514221953443522,-0.033115775439432824,-0.010585208123566647,0.1589899666521289
125,1790565697.9079442,0.11687695312499989,-0.08689130859374994,0.07089257812500087,0.16197555159383487,0.15796514546582063,-0.03414123587194745,-0.008576042478361716,0.16183991990078495
126,1790565697.933022,0.1695673828124999,-0.14916181640624995,-0.02011816406249913,0.22673130642401004,0.16151259847869875,-0.035678157503034755,-0.00633915856859482,0.1655277478899248
127,1790565697.953022,0.2366279296874999,-0.14437177734374995,0.09484277343750087,0.29296951867882576,0.16452667103183036,-0.0371603200835982,-0.004710712266574851,0.16873679408946365
128,1790565697.9785986,0.2222578124999999,-0.09168134765624994,0.15232324218750087,0.28461618863983007,0.16868324149682146,-0.039224247537229195,-0.002466456264626179,0.17320121524759038
129,1790565697.9985986,0.040236328124999894,-0.05815107421874994,-0.02011816406249913,0.07352040573216971,0.1718397285152096,-0.04082082586751159,-0.0007764600139660012,0.17662342712913234
130,1790565698.008163,-0.055564453125000114,-0.05336103515624994,-0.05364843749999913,0.09387738476447983,0.1731118053162382,-0.04154980578219604,-0.00014241286779692706,0.1780283791472873
131,1790565698.028163,-0.05077441406250011,-0.08210126953124994,0.10921289062500088,0.14576047153018395,0.17521331569762436,-0.04304870469293761,0.0010679036962101553,0.18042737428616398
132,1790565698.0532572,-0.007664062500000109,-0.12042158203124995,0.10442285156250088,0.15957514593869893,0.17734460700588328,-0.04502845390072821,0.0027607929018846973,0.18299260441943627
133,1790565698.0732572,-0.02203417968750011,-0.29286298828124996,0.02299218750000087,0.2945893339304052,0.1787438919490774,-0.04698955101748704,0.004098754307226833,0.1848626425235761
134,1790565698.0982811,-0.1609453125000001,-0.37429365234374995,0.027782226562500872,0.4083760324912773,0.1798886421084518,-0.05032733022217459,0.0056169939897473785,0.18688048145377653
135,1790565698.1182811,-0.11783496093750012,-0.26412275390624995,-0.005748046874999129,0.28927313596848364,0.18024815683850373,-0.05355247049072378,0.006681459659309492,0.18815394506232566
136,1790565698.128183,-0.03161425781250011,-0.2593327148437499,-0.015328124999999129,0.26170187179552334,0.18028846393311693,-0.05529842592940657,0.007113761887036802,0.18871261681673093
137,1790565698.1481829,-0.02203417968750011,-0.24975263671874995,0.06131250000000087,0.25811064929351335,0.1802771931738884,-0.059059622158693224,0.007924942736500884,0.18987024534023203
138,1790565698.233162,0.011496093749999891,-0.20185224609374994,0.042152343750000876,0.20652677673420172,0.18016932380339207,-0.07552188057684707,0.011514040212587298,0.19569648133692175
139,1790565698.253162,0.0929267578124999,-0.15395185546874995,-0.015328124999999129,0.18047578102291034,0.18030437876105843,-0.07934884617233244,0.0122722722160525,0.1973740536510222
140,1790565698.2341638,0.1360371093749999,-0.29765302734374993,0.06131250000000087,0.33296042177750634,0.18030437876105843,-0.07934884617233244,0.0122722722160525,0.1973740536510222
141,1790565698.2541637,0.12166699218749989,-0.32639326171874994,0.16190332031250088,0.38411990759601333,0.1810804404039264,-0.08362569303242286,0.013213548271923071,0.1998949231220428
142,1790565698.2477894,0.2126777343749999,-0.17790205078124993,0.10442285156250088,0.29628548783141834,0.1810804404039264,-0.08362569303242286,0.013213548271923071,0.1998949231220428
143,1790565698.2677894,0.2078876953124999,-0.04857099609374994,0.08047265625000087,0.22814969631321597,0.18269828160363188,-0.0876984000454257,0.014510528764818545,0.20317536001317218
144,1790565698.2921402,0.2845283203124999,-0.024620800781249935,0.10442285156250088,0.3040833451858333,0.18527191453381495,-0.09204697068562934,0.016190468972565136,0.20751014050638086
145,1790565698.3121402,0.3803291015624999,-0.05815107421874994,0.12358300781250088,0.40410955537838694,0.18806591980350462,-0.09520697864863695,0.017705287389219684,0.21153400713945528
146,1790565698.338528,0.35158886718749993,-0.03420087890624993,0.04694238281250088,0.35635378341230617,0.19264785704558463,-0.09893362954044865,0.019741605709171536,0.21746445887610955
147,1790565698.358528,0.3084785156249999,0.16698076171875006,-0.08238867187499914,0.36031855716810307,0.19658982050311197,-0.10113531428738647,0.021000312298016154,0.22207413725616143
148,1790565698.3675811,0.2893183593749999,0.2771516601562501,-0.10633886718749913,0.41451913161340054,0.1985124402833153,-0.10168087787211999,0.021356471045417484,0.22405867251145525
149,1790565698.387581,0.3659589843749999,0.14303056640625006,-0.09675878906249913,0.4046553897232994,0.20310561424836504,-0.10207505406515974,0.02172061297919194,0.22834840097929915
150,1790565698.4132295,0.3467988281249999,0.023279589843750066,-0.13986914062499914,0.3746661754033078,0.20948351169727197,-0.1021848095970241,0.02166236433835702,0.23408189809152025
151,1790565698.4332294,0.2462080078124999,-0.029410839843749936,-0.08717871093749913,0.26283741790703763,0.2146003546368941,-0.10226675351572803,0.021283185110332434,0.23867294579270618
152,1790565698.4732347,0.1983076171874999,0.09034013671875007,-0.015328124999999129,0.21845412047604426,0.22463384876050882,-0.10222326475927197,0.02033093535568702,0.24763543526611956
153,1790565698.4932346,0.2701582031249999,0.17656083984375007,-0.02490820312499913,0.32369677703828825,0.22960022272608183,-0.10180443337806715,0.0198659278376316,0.25194257286164573
154,1790565698.4872534,0.2893183593749999,0.10471025390625006,0.032572265625000874,0.3094031396616695,0.22960022272608183,-0.10180443337806715,0.0198659278376316,0.25194257286164573
155,1790565698.5072534,0.3180585937499999,-0.12042158203124995,0.16190332031250088,0.376663392972225,0.2348128244139366,-0.10116677437233498,0.01983144467691176,0.2564470022131796
156,1790565698.532708,0.3132685546874999,0.028069628906250067,0.12837304687500087,0.3397127177291143,0.241657171464752,-0.10065325137214087,0.020348303611908123,0.26257059811031835
157,1790565698.552708,0.4665498046874999,0.3058918945312501,-0.08717871093749913,0.5646580372531553,0.24739794395435566,-0.09980934956101935,0.020755282988472262,0.26757883082293304
158,1790565698.5782604,0.4521796874999999,0.15740068359375006,-0.02490820312499913,0.47943911351316926,0.2553930123444327,-0.0980050150811658,0.020982447916391256,0.2743553113318333
159,1790565698.5982604,0.3899091796874999,-0.015040722656249936,-0.005748046874999129,0.3902415044372888,0.2619752315497587,-0.09659105881109598,0.021087595505673656,0.2800098949537484
160,1790565698.6233099,0.46175976562499993,-0.12521162109374995,-0.12549902343749914,0.49462110356387506,0.2705827167116726,-0.09534925063663331,0.020952960898113254,0.2876551976767231
161,1790565698.6433098,0.4186494140624999,-0.20185224609374994,-0.12070898437499913,0.4801898791694907,0.2777448594673161,-0.09499708413216405,0.02049227851679386,0.29425598793047947
162,1790565698.6526546,0.3324287109374999,-0.09168134765624994,-0.13986914062499914,0.37212591130262596,0.2811157422852269,-0.09506294573161056,0.0201266870730586,0.29743588846049174
163,1790565698.6726546,0.3851191406249999,-0.08210126953124994,-0.25004003906249916,0.4664519182817855,0.2883243348731756,-0.09544343408442829,0.018876744048264647,0.30429706317306354
164,1790565698.6973703,0.4234394531249999,-0.09647138671874994,-0.27399023437499914,0.5134962000357008,0.2973951650243632,-0.09617412098646926,0.016592401466084164,0.3129994465071783
165,1790565698.7173703,0.3372187499999999,-0.029410839843749936,-0.18776953124999915,0.387090273344244,0.3047752706095901,-0.0968655269007339,0.014328540681339489,0.32011904497383853
166,1790565698.7431965,0.3372187499999999,-0.019830761718749937,-0.19255957031249915,0.38883021047861316,0.3141821494233611,-0.09771980386950094,0.01110700803004993,0.32921565684510895
167,1790565698.7631965,0.37074902343749994,-0.10605146484374994,-0.18776953124999915,0.4289045913034849,0.3214361333485158,-0.09847095078444254,0.008415956362756487,0.3362864021811419
168,1790565698.8026907,0.3276386718749999,-0.13479169921874995,-0.17818945312499915,0.39656951810657115,0.3356806795444048,-0.10044515162069124,0.00281500732907571,0.3503978758065748
169,1790565698.8226907,0.4378095703124999,-0.029410839843749936,-0.16860937499999915,0.47007588610289386,0.34296029766095737,-0.1015412335817668,-0.0001160725067274734,0.3576763919548315
170,1790565698.8177621,0.58630078125,-0.038990917968749934,-0.15902929687499914,0.6087357514085752,0.34296029766095737,-0.1015412335817668,-0.0001160725067274734,0.3576763919548315
171,1790565698.837762,0.66294140625,-0.08210126953124994,-0.17818945312499915,0.6913634411685049,0.35139942269735214,-0.10260200306470899,-0.0031573442389533544,0.3660856376963813
172,1790565698.863182,0.6868916015625,-0.05815107421874994,-0.24045996093749913,0.7300839763643319,0.36309007398279763,-0.10401539480877495,-0.007241132441514836,0.3777645274256099
173,1790565698.883182,0.6868916015625,-0.18748212890624993,-0.17818945312499915,0.7339762272453395,0.3729690501047198,-0.10532907178125062,-0.010600202284138304,0.38770154756820546
174,1790565698.8932767,0.7635322265625,-0.37908369140625,-0.25004003906249916,0.888372628587832,0.378305468590844,-0.10632161501247867,-0.012365531345937196,0.3931567368748336
175,1790565698.9132767,0.7922724609374999,-0.5275749023437499,-0.44164160156249915,1.0493227502411586,0.38962602226182497,-0.10935310395072317,-0.016375972860551563,0.4050119887785537
176,1790565698.9377186,0.7300019531249999,-0.7095963867187499,-0.36021093749999916,1.079898978194372,0.40417618684829026,-0.11477008331423572,-0.022011869498467236,0.420731606179044
177,1790565698.9577186,0.7539521484374999,-0.7479166992187499,-0.26920019531249917,1.0955783752247392,0.4165221139320477,-0.12072399350526955,-0.026875890303919334,0.43449656785975926
178,1790565698.9978328,0.8018525390625,-0.71438642578125,-0.35063085937499916,1.1297156541747742,0.4422508476702149,-0.13527396888484472,-0.03703313409724257,0.46395723072708533
179,1790565699.0178328,0.7779023437499999,-0.7479166992187499,-0.35542089843749913,1.1361494005755284,0.4555240591373964,-0.14363355629983507,-0.042396749596937754,0.4795104287966358
180,1790565699.04335,0.8210126953125,-0.83413740234375,-0.35063085937499916,1.2217974674221277,0.4729786234052443,-0.15572710995835565,-0.04956473613580242,0.5004162008193914
181,1790565699.06335,0.8162226562499999,-0.84371748046875,-0.34584082031249913,1.2237992010206427,0.4870629841061711,-0.1663008088455319,-0.055384869990250774,0.5176425343158378
182,1790565699.0730703,0.7300019531249999,-0.79581708984375,-0.39853124999999917,1.1511102680804526,0.4940086693661401,-0.1718642150052278,-0.05833191549493223,0.5262931561150833
183,1790565699.0930703,0.7156318359374999,-0.93951826171875,-0.45601171874999913,1.2660055988610899,0.5083245030850025,-0.18419711757972063,-0.06476784892000322,0.5445339776497115
184,1790565699.103511,0.6533613281249999,-1.10716962890625,-0.47996191406249916,1.3722496315219783,0.5157489538739826,-0.1912723483101829,-0.068356626718757,0.5543056224381697
185,1790565699.123511,0.6581513671874999,-1.27003095703125,-0.29315039062499915,1.4601640337551387,0.5298048755222688,-0.20635819247045542,-0.07535962121320908,0.573546843977228
186,1790565699.1487217,0.6964716796874999,-1.26045087890625,-0.20213964843749913,1.4541903782561283,0.547426441908243,-0.22730658132198478,-0.08379948860256521,0.5986370732778403
187,1790565699.1687217,0.6868916015625,-1.18381025390625,-0.37937109374999917,1.420263784063984,0.5613840309797201,-0.24509885319437635,-0.0903629116037946,0.6191857022491338
188,1790565699.1782975,0.6677314453125,-1.18381025390625,-0.48954199218749916,1.4446187602366258,0.5680372777503239,-0.25404023811489007,-0.09365809567575065,0.6292651510937791
189,1790565699.1982975,0.5815107421874999,-1.30356123046875,-0.32189062499999915,1.4632293734488617,0.5817226400862933,-0.27364492147963093,-0.10072517968718515,0.6507137119068387
190,1790565699.2382667,0.5815107421874999,-1.47121259765625,-0.20692968749999913,1.5954438712630274,0.6084562458789514,-0.3152651702838111,-0.11431522449612902,0.6947511074440887
191,1790565699.2582667,0.5144501953124999,-1.47600263671875,-0.14944921874999914,1.5702158628808833,0.6214707109835744,-0.33738820590728913,-0.12063000579938783,0.7173620037295878
192,1790565699.2683156,0.5000800781249999,-1.41373212890625,-0.10154882812499913,1.5030072459349173,0.6277935085388661,-0.34901434241112284,-0.12351607350318043,0.7288291438916605
193,1790565699.2883155,0.5719306640624999,-1.36104169921875,-0.12549902343749914,1.4816508348430142,0.640097999021744,-0.3728448007343703,-0.1287390966519025,0.7518726280381809
194,1790565699.2983856,0.5910908203124999,-1.36583173828125,-0.18297949218749915,1.4994552976715512,0.6462424425192226,-0.38510322613645875,-0.13120742147822556,0.7636420475228455
195,1790565699.3183856,0.5144501953124999,-1.34667158203125,-0.058438476562499134,1.442774552329838,0.6582735978134702,-0.409866243692319,-0.1357364920432832,0.7872349475023056
196,1790565699.343213,0.47133984374999993,-1.30835126953125,0.042152343750000876,1.3913019488500424,0.6728041001576397,-0.44093922474481173,-0.14054575231190775,0.8166063100419975
197,1790565699.363213,0.5144501953124999,-1.15507001953125,-0.02969824218749913,1.2648034389050415,0.6842321746072917,-0.4659107842459697,-0.14382008946016692,0.8401968494209249
198,1790565699.3878777,0.5958808593749999,-1.02573896484375,-0.11591894531249913,1.191910912967315,0.6982655769986266,-0.49612134219713916,-0.14752177720809145,0.8691800026204869
199,1790565699.4078777,0.5910908203124999,-0.93472822265625,-0.10154882812499913,1.110593252537299,0.7097184873546912,-0.5198845207168616,-0.15039934888377632,0.8925246272897436
200,1790565699.4179397,0.5384003906249999,-0.89640791015625,-0.01053808593749913,1.0457213650256334,0.7154685160551506,-0.5314283403813846,-0.15171448410418212,0.9040622562156161
201,1790565699.4379396,0.6198310546874999,-0.89161787109375,-0.02969824218749913,1.0863033416121837,0.7269206892190704,-0.5536139693187616,-0.1539967947536327,0.9266159550935843
202,1790565699.4632018,0.6581513671874999,-0.85808759765625,-0.09196874999999913,1.0853275074182962,0.7416375526604634,-0.5807484653114294,-0.15667769450873703,0.9549046755746645
203,1790565699.4832017,0.6150410156249999,-0.8676676757812499,-0.12070898437499913,1.0703706392673107,0.7534509605582452,-0.6015970850052564,-0.15880080551738956,0.977151522787503
204,1790565699.5232208,0.54798046875,-0.84850751953125,-0.04406835937499913,1.0110339386640532,0.7770340550570256,-0.6422076145592743,-0.1629063825524133,1.0211518165251392
205,1790565699.5432208,0.5000800781249999,-0.8676676757812499,-0.10633886718749913,1.0070924658678877,0.7886241825626428,-0.6620331239132912,-0.164876031793772,1.0427847641488863
206,1790565699.5377383,0.5144501953124999,-0.87724775390625,-0.19255957031249915,1.0350371072138256,0.7886241825626428,-0.6620331239132912,-0.164876031793772,1.0427847641488863
207,1790565699.5577383,0.58630078125,-0.92035810546875,-0.21171972656249913,1.1115902532012802,0.7999426994406882,-0.6812782256902833,-0.1672866168820115,1.0639704673420145
208,1790565699.6280727,0.64378125,-1.02094892578125,-0.23087988281249913,1.2288598484745785,0.8402649790862171,-0.7490465528706558,-0.1768271266551737,1.1394664567977848
209,1790565699.6480727,0.5958808593749999,-1.14548994140625,-0.20692968749999913,1.307685397946016,0.8518704520154609,-0.7686759582105392,-0.17978980207438472,1.1614087862065892
210,1790565699.6290734,0.5575605468749999,-1.24608076171875,-0.14944921874999914,1.3732902450473148,0.8518704520154609,-0.7686759582105392,-0.17978980207438472,1.1614087862065892
211,1790565699.6490734,0.5431904296874999,-1.27482099609375,-0.12070898437499913,1.3909691132064708,0.8633771674875055,-0.7896888023376353,-0.18278995465512304,1.1842468937679418
212,1790565699.6588159,0.5384003906249999,-1.27482099609375,-0.10633886718749913,1.3879306565464047,0.8689319034684236,-0.8002522998721647,-0.1841980885622854,1.1955648590293821
213,1790565699.6788158,0.4952900390624999,-1.20776044921875,-0.03927832031249913,1.3059633654655787,0.8801750665435557,-0.82240873881044,-0.1868736101094786,1.2190102655810904
214,1790565699.7037466,0.5958808593749999,-1.18860029296875,-0.11591894531249913,1.3346467161377384,0.894128107528572,-0.850365460075304,-0.18999866456288425,1.248473460229487
215,1790565699.7237465,0.6294111328124999,-1.1742301757812499,-0.21650976562499913,1.3497597410037727,0.9054804706545571,-0.8729730865637475,-0.1926282477965566,1.272431740585956
216,1790565699.764,0.5192402343749999,-1.12153974609375,-0.08238867187499914,1.2386483424746364,0.9283695504421885,-0.9185805030946855,-0.19802923886564333,1.320937448291789
217,1790565699.784,0.4857099609374999,-1.05926923828125,0.05173242187500087,1.166465485471345,0.9395435857525677,-0.9411128274483603,-0.200356192227489,1.3448338586162003
218,1790565699.7775297,0.49049999999999994,-0.98741865234375,-0.06322851562499913,1.104347631040375,0.9395435857525677,-0.9411128274483603,-0.200356192227489,1.3448338586162003
219,1790565699.7975297,0.4761298828124999,-1.02573896484375,-0.14465917968749914,1.140072965898952,0.950311436218948,-0.9630216899117345,-0.20236390478255825,1.3680108738631491
220,1790565699.8533585,0.5192402343749999,-1.03531904296875,0.027782226562500872,1.1585628139381583,0.9800283769378956,-1.0236354134876118,-0.2076170405094863,1.4322674034060112
221,1790565699.8733585,0.5815107421874999,-0.93472822265625,0.032572265625000874,1.1013321687835667,0.9907283694791711,-1.0450474811515107,-0.2091260991517,1.4551290888778152
222,1790565699.868265,0.5336103515624999,-0.8868278320312499,-0.13028906249999914,1.043158113982262,0.9907283694791711,-1.0450474811515107,-0.2091260991517,1.4551290888778152
223,1790565699.888265,0.4090693359374999,-1.00657880859375,-0.13986914062499914,1.0954916686189522,1.0012949103115953,-1.0656802890459085,-0.21074621973612084,1.4773895711727296
224,1790565699.8984008,0.4090693359374999,-1.09279951171875,-0.07759863281249914,1.1694315038647858,1.0064686614992582,-1.0761643311487044,-0.21160944549962737,1.4885857018128001
225,1790565699.9184008,0.48091992187499993,-1.06884931640625,-0.07280859374999914,1.1743184933237731,1.016481095676101,-1.0969907098080223,-0.2132828643932621,1.51066608339361
226,1790565699.943343,0.4857099609374999,-1.04968916015625,-0.11591894531249913,1.1624107281790732,1.0289029421621114,-1.1230306318447232,-0.215409805467206,1.538258901727153
227,1790565699.963343,0.5192402343749999,-1.10237958984375,-0.09196874999999913,1.222010405878134,1.0388768016354835,-1.144006924454134,-0.21717130924626443,1.560506401696294
228,1790565699.9885714,0.47133984374999993,-1.15986005859375,-0.0009580078124991287,1.2519734508392502,1.0514452100624485,-1.170778431683766,-0.21923584544947752,1.58881198440505
229,1790565700.0085714,0.4473896484374999,-1.09279951171875,-0.02011816406249913,1.1810050850301252,1.0612924048511165,-1.1921971420281006,-0.22065862766072808,1.6113242454626422
230,1790565700.0482306,0.4521796874999999,-1.05926923828125,-0.08717871093749913,1.1550402229347951,1.0805657700531281,-1.23470002094248,-0.2233759044738607,1.655899550040819
231,1790565700.0682306,0.49049999999999994,-1.15986005859375,-0.04406835937499913,1.2600823885044585,1.0902413362801793,-1.2562476149765593,-0.22473753842436653,1.6784788359241616
232,1790565700.0631597,0.4761298828124999,-1.20297041015625,-0.01053808593749913,1.2938116262709063,1.0902413362801793,-1.2562476149765593,-0.22473753842436653,1.6784788359241616
233,1790565700.0831597,0.4569697265624999,-1.1742301757812499,-0.10633886718749913,1.264494282859591,1.0998640328837037,-1.2783941551190836,-0.22596625736747622,1.7014856026844614
234,1790565700.1077383,0.4425996093749999,-1.21734052734375,-0.10633886718749913,1.2996616207333287,1.1115740678779895,-1.3059368199593226,-0.22764181384364138,1.7299967287582692
235,1790565700.1277382,0.4138593749999999,-1.25087080078125,0.05173242187500087,1.3185725562120458,1.1209581032349267,-1.3286892584121697,-0.2288826367226176,1.7533822960270313
236,1790565700.152412,0.4857099609374999,-1.14548994140625,0.0038320312500008716,1.244217045567333,1.1324631926793154,-1.3569827537284267,-0.2300809813185659,1.7823614489363053
237,1790565700.172412,0.4521796874999999,-1.10237958984375,-0.07759863281249914,1.1940388510036184,1.1417969411651996,-1.3798485486243512,-0.23101728103527439,1.8058381035219813
238,1790565700.183243,0.3563789062499999,-1.18860029296875,-0.0009580078124991287,1.2408777131709285,1.1467502991863008,-1.3922352389617032,-0.23151209548811622,1.8185029721306258
239,1790565700.203243,0.3755390624999999,-1.24129072265625,0.05652246093750087,1.2980859117201315,1.1556227195973368,-1.415321605386363,-0.2322053850545133,1.8418790561736924
240,1790565700.2283015,0.4378095703124999,-1.31793134765625,-0.06801855468749914,1.3904124498773778,1.166600335073529,-1.4447180708976968,-0.23296533546919676,1.8714805619354713
241,1790565700.2483015,0.37074902343749994,-1.42810224609375,-0.10633886718749913,1.4792696908787777,1.1752605140723322,-1.4687800221297074,-0.2337424305698636,1.8955705086315342
242,1790565700.2729847,0.2653681640624999,-1.44726240234375,0.04694238281250088,1.4721386860754049,1.1855229832695817,-1.4993449352370947,-0.2346675906207076,1.925764486319463
243,1790565700.2929847,0.36116894531249993,-1.38978193359375,0.2098037109375009,1.451190692888041,1.1935308160045965,-1.5246513438782061,-0.2349196535029485,1.9504524533410608
244,1790565700.3029947,0.4521796874999999,-1.29877119140625,0.34392480468750086,1.4175885682008527,1.1975481746037175,-1.5374357694645093,-0.23461117564917583,1.962873602518795
245,1790565700.3229947,0.3372187499999999,-1.22213056640625,0.3391347656250009,1.3123764688348951,1.2055549487996293,-1.562928900703522,-0.23306269951912656,1.9875682894272437
246,1790565700.3485842,0.11687695312499989,-1.10716962890625,0.2098037109375009,1.1329176521121618,1.2151342478636489,-1.5951244570158005,-0.23032512093230176,2.0184209013566985
247,1790565700.3685842,0.2893183593749999,-1.08800947265625,0.2098037109375009,1.145201869883349,1.2221074060772117,-1.6198058647648483,-0.22787704050563806,2.041873036480226
248,1790565700.3929296,0.2270478515624999,-1.22692060546875,0.4636757812500009,1.331119877824965,1.2302652317709848,-1.6495700756453175,-0.22411435020295373,2.0699906320889245
249,1790565700.4129295,-0.05077441406250011,-1.08321943359375,0.4157753906250009,1.1613834672010475,1.2362261147754505,-1.673819132532722,-0.22016775106130976,2.0924625047758427
250,1790565700.454169,-0.23279589843750012,-0.9059879882812499,0.34392480468750086,0.9966405753924354,1.2457965653800955,-1.7224725237933705,-0.21090089978866516,2.136211568891905
251,1790565700.474169,-0.13220507812500013,-0.84850751953125,0.26249414062500087,0.8979679099197085,1.2491942506044817,-1.7451604451905571,-0.20617123753307032,2.1560560833120537
252,1790565700.4681585,-0.060354492187500115,-0.3982438476562499,0.17627343750000088,0.4396739151818449,1.2491942506044817,-1.7451604451905571,-0.20617123753307032,2.1560560833120537
253,1790565700.4881585,-0.05077441406250011,-0.38866376953125,0.3391347656250009,0.518314533970595,1.2512368717606885,-1.7643224351773212,-0.20142151685741627,2.172325480211621
254,1790565700.5132504,-0.3573369140625001,-0.42698408203124993,0.4205654296875009,0.6977681256033497,1.2526471143789344,-1.7862918607407834,-0.19492671197678393,2.190424577097491
255,1790565700.5332503,-0.37170703125000015,-0.10126142578124994,0.2193837890625009,0.4433387421998669,1.2525090018421081,-1.8019687160312454,-0.18956649905067602,2.2026814365252956
256,1790565700.5434685,-0.3477568359375001,0.04243974609375007,0.037362304687500875,0.35232355981586727,1.2518976546261462,-1.8088218062983772,-0.18704195115070274,2.2077293212912745
257,1790565700.5634685,-0.3381767578125001,0.18614091796875007,0.08526269531250087,0.3953247880904708,1.249851653353057,-1.8198804611467079,-0.18265790902966147,2.215278303054497
258,1790565700.5878468,-0.26632617187500013,0.30110185546875007,0.2672841796875009,0.48273469929510604,1.2466265784410615,-1.8304472368947284,-0.17747110925101947,2.2217360121648118
259,1790565700.6078467,-0.39565722656250013,0.55497392578125,0.027782226562500872,0.682138220114481,1.2433846278702578,-1.836531768631721,-0.17341154279433704,2.2246181319929783
260,1790565700.6333883,-0.4387675781250001,0.6172444335937501,-0.23087988281249913,0.7917153520702127,1.238266999198349,-1.8408911091545,-0.1693938728780554,2.225057195048342
261,1790565700.6533883,-0.21363574218750012,0.4783333007812501,-0.23566992187499913,0.5744417194571247,1.2338821952523746,-1.842149241317289,-0.16741960941749398,2.2235126320001397
262,1790565700.6779761,-0.1944755859375001,0.6843049804687501,-0.17818945312499915,0.7333795340920393,1.2285475447892162,-1.8413199612419975,-0.16611972684126478,2.219771166837172
263,1790565700.697976,-0.38128710937500015,0.9812874023437501,-0.27399023437499914,1.0878306275826928,1.2239955392717934,-1.8382482131431415,-0.16589926057530993,2.214688271053205
264,1790565700.7079844,-0.3908671875000001,1.00044755859375,-0.28357031249999914,1.1108936033174834,1.221479724145166,-1.8354540907422419,-0.16622400318430483,2.211003133185206
265,1790565700.7279844,0.0785566406249999,0.55497392578125,-0.13986914062499914,0.5776941929624303,1.216737938995653,-1.8283749130737692,-0.16741076390041332,2.2025967399455175
266,1790565700.7682526,0.2845283203124999,0.7801057617187501,-0.20213964843749913,0.8546237780433444,1.2097194086068974,-1.8122275202016171,-0.17047469090855877,2.1855551360642202
267,1790565700.7882526,-0.12741503906250012,0.9717073242187502,-0.12549902343749914,0.9880281984859681,1.2069920714172047,-1.8027828722350354,-0.17225964385526307,2.1763568939374673
268,1790565700.7982874,-0.44355761718750014,1.1010383789062501,-0.04406835937499913,1.1878429575863807,1.2053991986071264,-1.7971949554661306,-0.1731485075994052,2.1709162447315906
269,1790565700.8182874,-0.10346484375000012,1.0052375976562502,-0.2979404296874991,1.0535540333918771,1.2018801751362358,-1.7845690381073227,-0.1751673470046484,2.1586769574471885
270,1790565700.8584492,0.49049999999999994,0.4160627929687501,-0.5422324218749992,0.8412576876471228,1.1970394272891953,-1.7587369563545068,-0.18114398103446494,2.1351515669846424
271,1790565700.8784492,0.05460644531249989,0.4879133789062501,-0.4368515624999991,0.6571762448872233,1.1958080610732738,-1.7464466118282655,-0.18514243644487158,2.1246906618769223
272,1790565700.8729868,-0.2615361328125001,0.6603547851562501,-0.2979404296874991,0.7702195081193715,1.1958080610732738,-1.7464466118282655,-0.18514243644487158,2.1246906618769223
273,1790565700.8929868,-0.007664062500000109,0.6890950195312501,-0.18776953124999915,0.714260513162125,1.1942507639744462,-1.7340786246184678,-0.1896967436220629,2.114059700706922
274,1790565700.932419,0.5719306640624999,0.6411946289062501,-0.39374121093749914,0.9451282335343306,1.1933097047624828,-1.7094172115715685,-0.19904896011529571,2.0942100523157703
275,1790565700.952419,0.6916816406249999,0.5070735351562501,-0.6140830078124991,1.0548198910323954,1.19479941348888,-1.6970628225247943,-0.20459260742644728,2.0855277502547755
276,1790565700.9478228,0.4330195312499999,0.31068193359375007,-0.5422324218749992,0.7602928236133418,1.19479941348888,-1.6970628225247943,-0.20459260742644728,2.0855277502547755
277,1790565700.9678228,0.6102509765624999,0.09992021484375008,-0.49912207031249917,0.7946780132877349,1.1988746249395876,-1.6864782365748958,-0.2116342236242134,2.0799755415325993
278,1790565700.9929826,0.8689130859374999,-0.32160322265624997,-0.5853427734374992,1.09593099515974,1.206023388635113,-1.675578514988515,-0.2212101536761567,2.0762922978028566
279,1790565701.0129826,0.7204218749999999,-0.48925458984375,-0.7386240234374991,1.1419033144976376,1.2132376614572142,-1.6694300827639308,-0.2296663610375483,2.076460705577542
280,1790565701.0383525,0.7204218749999999,-0.43656416015624994,-0.7003037109374992,1.0954548057607305,1.2237577949453329,-1.6645623072617939,-0.2415219287919849,2.0800681857894876
281,1790565701.0583525,1.19942578125,-0.7287565429687499,-0.45122167968749916,1.4742148106252848,1.2336869498265899,-1.6630484621477295,-0.2511934561609434,2.0858599737380366
282,1790565701.0682387,1.5251484375,-0.85329755859375,-0.36979101562499916,1.7863202050997784,1.2398790392822456,-1.6635854403436696,-0.2558658656301552,2.090522396572104
283,1790565701.0882387,1.46766796875,-1.0161588867187499,-0.5374423828124991,1.8642619087444279,1.2550159028280723,-1.6673129862982656,-0.26526118314230174,2.1036542030267844
284,1790565701.1129236,1.2952265625,-1.06884931640625,-0.6380332031249991,1.7964234126946856,1.2760112646469588,-1.6750837075560503,-0.27729413788023627,2.1239120070587667
285,1790565701.1329236,1.3000166015624999,-1.25087080078125,-0.5949228515624991,1.8996457890608165,1.2943631967602316,-1.6839148192893914,-0.28743041704380434,2.1432595382715003
286,1790565701.1579566,1.4341376953125,-1.1742301757812499,-0.6619833984374992,1.9681944656558648,1.3190211853484104,-1.6978633349580161,-0.3005742486265715,2.1709218480935952
287,1790565701.1779566,1.3862373046875,-1.20297041015625,-0.36979101562499916,1.8723079521958266,1.3399970581696334,-1.710901611460001,-0.31104792440781204,2.195342171798763
288,1790565701.1887796,1.745490234375,-1.20776044921875,-0.17818945312499915,2.130064069975491,1.352187611286921,-1.7188557898929966,-0.3163103991921571,2.2097350137977196
289,1790565701.2087796,1.946671875,-1.34667158203125,-0.3266806640624991,2.3895137570306813,1.3768738660869655,-1.7351812679728231,-0.32533360882900986,2.2388563225161966
290,1790565701.2332137,1.7981806640625,-1.52390302734375,-0.37458105468749914,2.3866388716951916,1.4093719571724401,-1.7573949482384756,-0.3359888609584254,2.277642384670238
291,1790565701.2532136,1.58262890625,-1.5718034179687501,-0.25962011718749917,2.245591869615841,1.4370536682184623,-1.7774936405271973,-0.34435353861034973,2.3115333108151908
292,1790565701.278171,1.5395185546874999,-1.37541181640625,-0.2787802734374991,2.083169096783772,1.4722594737112662,-1.8043287647735176,-0.35423366067183515,2.355553382047342
293,1790565701.298171,1.5778388671874999,-1.29877119140625,-0.35063085937499916,2.0734811544791993,1.5009162758317818,-1.8266190364785948,-0.3619077159175765,2.3917073329158423
294,1790565701.3085551,1.6353193359375,-1.31793134765625,-0.35063085937499916,2.129355387710594,1.5160656362017786,-1.8384941711889595,-0.3658406071926756,2.4108826559247527
295,1790565701.328555,1.630529296875,-1.47121259765625,-0.15902929687499914,2.2019043150724533,1.5457657168132297,-1.8621188969795093,-0.37304370945174176,2.4486812873309622
296,1790565701.353589,1.7694404296875,-1.68197431640625,-0.15423925781249914,2.4461698191077224,1.5837485377346892,-1.8931745348946687,-0.38129558255250756,2.4975499137403574
297,1790565701.373589,1.7215400390625,-1.55743330078125,-0.6284531249999992,2.4050471768345747,1.6147782689529258,-1.9191228155514726,-0.3880732784155636,2.537940525007042
298,1790565701.398506,1.4149775390625,-1.65323408203125,-0.7194638671874992,2.291936435032497,1.653499202807783,-1.9526012208867387,-0.3977695885066243,2.5893883036414382
299,1790565701.418506,1.0988349609374999,-1.95500654296875,-0.22608984374999913,2.254019847267552,1.68368795486523,-1.9808548064462737,-0.4058033955075231,2.6312102328367835
300,1790565701.4430685,1.247326171875,-1.93584638671875,-0.09675878906249913,2.3049264793648456,1.7195244225063613,-2.0175167549475854,-0.41478472812944944,2.6831296030530267
301,1790565701.4630685,1.35270703125,-1.75861494140625,-0.35542089843749913,2.246968366394288,1.7482271945447339,-2.048432489975896,-0.4216790541862736,2.7258369750361133
302,1790565701.4733608,0.9359736328124999,-1.83046552734375,-0.35063085937499916,2.085567713515941,1.7625491244645248,-2.064726227442405,-0.4252398064716747,2.7478178075424284
303,1790565701.4933608,0.7252119140625,-1.86399580078125,-0.41290136718749915,2.0422781898295916,1.78869671827001,-2.0971806059411464,-0.4322664694280304,2.7900639319695437
304,1790565701.533961,0.9263935546875,-2.03643720703125,-0.46080175781249916,2.2842109745710597,1.838843943401042,-2.1650580092333063,-0.4470515231260355,2.8755309589460674
305,1790565701.553961,0.9982441406249999,-2.21366865234375,-0.24045996093749913,2.4402133635146748,1.8627283286796692,-2.199854497750173,-0.4542941491089736,2.9181329324847534
306,1790565701.578651,0.8018525390625,-1.98374677734375,0.12837304687500087,2.143524763138197,1.8911240638974194,-2.2441397654922906,-0.4621015542339373,2.970867105499858
307,1790565701.598651,0.6773115234374999,-1.67239423828125,0.4636757812500009,1.8629676911141932,1.9128943973168178,-2.2801161343080807,-0.46658918979049446,3.012606850096349
308,1790565701.6082056,0.883283203125,-1.43768232421875,0.5930068359375009,1.7885124516654596,1.9228530358983467,-2.2969537989043003,-0.46765427720008873,3.0318412021324472
309,1790565701.6282055,1.2808564453125,-1.12153974609375,0.3199746093750009,1.73228992556422,1.9438180645494776,-2.330750898653718,-0.46817985397570605,3.070833892497721
310,1790565701.6382701,1.1419453124999999,-1.02573896484375,-0.09196874999999913,1.537737874839536,1.9546146115937548,-2.3468283354022206,-0.4682325582177997,3.089880781563869
311,1790565701.6582701,0.9647138671875,-1.54785322265625,0.042152343750000876,1.8243627009218366,1.97601089984537,-2.3778449023163666,-0.46839630478283234,3.1270050454250713
312,1790565701.6830451,1.151525390625,-2.11786787109375,0.2912343750000009,2.428207673541716,2.0024721428125725,-2.4173148528666717,-0.4679492451399205,3.173685913359609
313,1790565701.7030451,1.27606640625,-1.92147626953125,0.04694238281250088,2.307080430942024,2.024270547777481,-2.450457122832005,-0.4671352197191738,3.2125732170550654
314,1790565701.713916,1.31438671875,-1.55743330078125,-0.5949228515624991,2.123003563850053,2.0364537886511713,-2.468605777129223,-0.46720590711415777,3.2341057304655094
315,1790565701.733916,1.3862373046875,-1.74903486328125,-0.9781259765624992,2.436700072620114,2.0595568929947534,-2.5019463701673508,-0.46967601917093915,3.2744626731205906
316,1790565701.773416,1.5203583984375,-2.20887861328125,-1.0499765624999993,2.879771721805403,2.1069520538811255,-2.569642259513271,-0.4798309770224836,3.357461253051286
317,1790565701.793416,1.5969990234375,-2.61603193359375,-0.5470224609374992,3.113400477165233,2.132025984430014,-2.6060145317715935,-0.4865969575054033,3.402002812630084
318,1790565701.803637,1.6065791015625,-2.58729169921875,-0.01053808593749913,3.0455353876911104,2.1453737109529336,-2.6258031356156915,-0.48996346493907733,3.4260085615234916
319,1790565701.823637,1.9514619140625,-2.1897184570312502,0.04694238281250088,2.933474750258456,2.1729112404221578,-2.6658818420280705,-0.49550816846405943,3.474765833753772
320,1790565701.8338034,2.34903515625,-1.63886396484375,-0.24524999999999914,2.8747154334058593,2.1880885001081816,-2.6861179761046734,-0.498055089143526,3.5001457023501326
321,1790565701.8538034,2.2388642578125,-1.70113447265625,-0.15902929687499914,2.816320645138677,2.2203493362432716,-2.7249662722985453,-0.5029203977780968,3.5508198048650463
322,1790565701.8788803,2.262814453125,-1.77298505859375,-0.13507910156249914,2.8778553874277644,2.263198497079193,-2.772903538831052,-0.5086588359635642,3.6152171835516462
323,1790565701.8988802,2.2197041015625,-1.55743330078125,-0.19734960937499915,2.7187555339155134,2.2989703574892304,-2.8103965537840265,-0.513047651893296,3.6669894173897637
324,1790565701.9236164,2.090373046875,-1.23171064453125,-0.40332128906249914,2.4595606618183044,2.344572995922868,-2.8549869672198436,-0.5187759337963869,3.730563172725025
325,1790565701.9436164,1.9035615234375,-1.22692060546875,-0.47996191406249916,2.3150041219371595,2.381904404334705,-2.8893197690201236,-0.52403763151189,3.7810385819613317
326,1790565701.9536726,1.975412109375,-1.41373212890625,-0.7194638671874992,2.5334797789513885,2.4007851217766176,-2.9059849424490416,-0.5271910656179564,3.8061066861494997
327,1790565701.9736726,2.109533203125,-1.24608076171875,-0.9398056640624992,2.624134578487993,2.4388301631446154,-2.9381469363062553,-0.5350108105533485,3.855753694337694
328,1790565701.9978101,1.879611328125,-1.16465009765625,-0.6859335937499992,2.3151357389624754,2.48508006063251,-2.97550431964268,-0.5459757493859784,3.9150144805457754
329,1790565702.01781,1.77423046875,-0.7095963867187499,-0.7625742187499992,2.057411049690198,2.523134514916143,-3.00462640616436,-0.5558710903253602,3.962698612062338
330,1790565702.0584662,1.802970703125,-0.43177412109374996,-1.0068662109374993,2.1097184207142368,2.5997958791993603,-3.0584263107731013,-0.5783644957650278,4.055541345109512
331,1790565702.0784662,1.77423046875,-0.35034345703124997,-1.0930869140624992,2.113166651218055,2.6372169462043673,-3.0820954395430036,-0.5909198406735516,4.099196479543391
332,1790565702.0886765,1.6640595703125,-0.43177412109374996,-0.8583749999999992,1.9215438547740464,2.6560882782629345,-3.0929652760311708,-0.5978624433010009,4.12051921992486
333,1790565702.1086764,1.7215400390625,-0.16832197265624993,-1.083506835937499,2.0410829125975005,2.692587209364044,-3.1119635638107113,-0.6123346115410107,4.1604443006735945
334,1790565702.1176267,1.56346875,-0.23059248046874994,-1.0643466796874992,1.905371690468056,2.708675985333906,-3.119458011229715,-0.6192813956586534,4.177493665388229
335,1790565702.1376266,1.4101875,-0.043780957031249935,-1.0164462890624992,1.7388814266371782,2.7436953253873066,-3.1341044493568693,-0.6355972343093593,4.213603989732826
336,1790565702.1629407,1.3191767578125,0.4064827148437501,-1.0930869140624992,1.7607653215332595,2.786552734564117,-3.149173209332469,-0.6571556976379849,4.256057055047805
337,1790565702.1829407,1.592208984375,0.5406038085937501,-1.1457773437499992,2.034745106700429,2.8197012183111916,-3.15787218814881,-0.6749918365160473,4.287013610497717
338,1790565702.208391,1.6448994140625,0.15740068359375006,-1.1649374999999993,2.021768640691903,2.8617346911730985,-3.1659489868890227,-0.6986946594637748,4.324457498624587
339,1790565702.228391,1.3095966796875,-0.14437177734374995,-0.9350156249999991,1.615593046697112,2.8942435198664396,-3.171324500864281,-0.7176773551027706,4.353045534806438
340,1790565702.2388303,1.1179951171875,-0.14437177734374995,-0.7913144531249992,1.3772925817969839,2.9105675606689934,-3.173935553799515,-0.7274511360630241,4.36743123360296
341,1790565702.2588303,1.0605146484374999,0.27236162109375006,-0.8392148437499992,1.3795483776097397,2.940418127521209,-3.177995525745238,-0.7458129940255249,4.393398610229831
342,1790565702.2838938,1.0605146484374999,0.10471025390625006,-0.5518124999999992,1.2000635783073639,2.9762019966775735,-3.18161140346288,-0.7679868548786446,4.423825635910507
343,1790565702.3038938,0.6533613281249999,-0.12521162109374995,-0.2787802734374991,0.7213025828347458,3.003044152515906,-3.184094719032989,-0.7842727434004179,4.446551146425122
344,1790565702.3287728,0.6677314453125,-0.22580244140624994,-0.45601171874999913,0.83952290811,3.033890968034922,-3.187375436989684,-0.8028638170486058,4.473080246426942
345,1790565702.3487728,0.7587421874999999,-0.31681318359374994,-0.38895117187499917,0.9095841437129537,3.057108525716519,-3.190431097653247,-0.8168346735293753,4.493548932721371
346,1790565702.3589811,0.7443720703125,-0.09168134765624994,-0.21171972656249913,0.7793076999395573,3.06833242976325,-3.1920695692663106,-0.8233559046006259,4.5035416041393
347,1790565702.378981,0.3946992187499999,0.19572099609375007,0.027782226562500872,0.4414363302975415,3.0887321893433657,-3.1946420548025496,-0.8344916090599884,4.521325097954188
348,1790565702.417903,0.15040722656249988,0.4639631835937501,-0.07280859374999914,0.49313817623108785,3.1240682937258897,-3.1969716987810215,-0.8530435010466402,4.550616877012183
349,1790565702.437903,-0.14178515625000013,0.6028743164062501,-0.09196874999999913,0.6261139855423313,3.1395150631706175,-3.1963889683301088,-0.8613936218618536,4.5623958881843985
350,1790565702.4483292,-0.1657353515625001,0.7465754882812501,-0.0009580078124991287,0.764750994925081,3.1461193239965755,-3.1950755193965414,-0.8651663721136257,4.56673704376637
351,1790565702.4683292,-0.20405566406250011,0.9142268554687502,-0.015328124999999129,0.9368481246777849,3.156332840652408,-3.190442748645795,-0.8713422450817567,4.571717318626727
352,1790565702.4929655,-0.4579277343750001,0.8567463867187501,0.16669335937500088,0.9856464158739573,3.1658036657326383,-3.1823197782342216,-0.8775289654342383,4.573787173238715
353,1790565702.5129654,-0.43397753906250014,0.8423762695312501,0.16190332031250088,0.9613256310992345,3.1710010468541223,-3.1741659310826456,-0.8813051486144652,4.572447458656038
354,1790565702.523623,-0.007664062500000109,0.8136360351562502,0.0038320312500008716,0.8136811537834016,3.1730021699244615,-3.1691489990981934,-0.8828830817184531,4.5706597647183385
355,1790565702.543623,0.0737666015624999,0.8663264648437501,0.032572265625000874,0.8700712658642944,3.176293338993782,-3.158626489509512,-0.8853454553012124,4.56613592119091
356,1790565702.5689871,-0.2615361328125001,0.8759065429687501,0.2098037109375009,0.9378864632273627,3.17948395011395,-3.143969186409285,-0.8875387647455494,4.558660493286304
357,1790565702.588987,-0.3190166015625001,0.6699348632812501,0.19543359375000088,0.7673191009470536,3.180751585571431,-3.1318265683669124,-0.8884009452063546,4.5513486509920975
358,1790565702.5980473,0.2557880859374999,0.18135087890625007,0.18585351562500088,0.3644958373669193,3.1811967323893806,-3.1265725164160427,-0.8884738446806346,4.548060479287254
359,1790565702.6180472,0.4378095703124999,-0.09647138671874994,0.15232324218750087,0.47348317649433586,3.183072378219046,-3.116586767477387,-0.8881033648097805,4.542443222626195
360,1790565702.6432836,0.1695673828124999,0.03285966796875007,0.04694238281250088,0.1789872688126526,3.186233695039608,-3.105996985357586,-0.8873288523069668,4.537251913283256
361,1790565702.6632836,0.1647773437499999,-0.07731123046874994,-0.17339941406249915,0.2513880589191058,3.188864770639805,-3.0989300638936275,-0.8869968025366705,4.534202178337628
362,1790565702.68832,0.7060517578125,-0.7287565429687499,-0.25962011718749917,1.0473766222702965,3.1932995318225834,-3.092924113374546,-0.887456578208362,4.53331232646035
363,1790565702.70832,0.8401728515624999,-1.20297041015625,-0.12549902343749914,1.4726772331702302,3.1986301246915168,-3.091743585714173,-0.8883464497851633,4.536438304356701
364,1790565702.733616,0.5048701171875,-0.98741865234375,-0.28357031249999914,1.1446840404044316,3.2069128286255983,-3.0946300530602717,-0.8900792346465329,4.5445864607966495
365,1790565702.753616,0.3276386718749999,-0.9059879882812499,-0.34584082031249913,1.0236050054646775,3.2137278721157547,-3.099409972469367,-0.8921878455655294,4.553063602150873
366,1790565702.7635398,0.768322265625,-1.40894208984375,-0.14944921874999914,1.6117605235807804,3.2174178666298405,-3.1031488891164445,-0.8934458011468229,4.55845984474147
367,1790565702.7835398,0.9072333984375,-1.86399580078125,-0.05364843749999913,2.0737480414497758,3.226252415513366,-3.1144633160782837,-0.8959054129272037,4.572880154204288
368,1790565702.8089373,0.7012617187499999,-1.50953291015625,-0.2883603515624991,1.6892629450095238,3.23885228247891,-3.133102017853507,-0.8992117727540465,4.595114163353946
369,1790565702.8289373,0.4282294921874999,-1.37062177734375,-0.33626074218749913,1.474807052208726,3.2489803085665026,-3.1498981642490462,-0.9023618338026633,4.6143242592709175
370,1790565702.8534613,0.7587421874999999,-1.64844404296875,-0.13986914062499914,1.8200606710740768,3.2617196396103885,-3.1729572432611652,-0.9065207922563729,4.639854806109426
371,1790565702.8734612,1.1179951171875,-1.72029462890625,-0.06322851562499913,2.0526384332090553,3.2733656291793323,-3.1939948674706464,-0.909708422579483,4.663056419327724
372,1790565702.8831692,1.017404296875,-1.64844404296875,-0.07759863281249914,1.9386853313297752,3.2797253895494642,-3.2051274848420634,-0.9111261339176588,4.675424222127136
373,1790565702.9031692,0.959923828125,-1.59575361328125,-0.11112890624999913,1.8655382558142946,3.2938282380283592,-3.229488597887401,-0.9138918423077439,4.702563063368143
374,1790565702.9282098,1.2042158203125,-1.65323408203125,-0.19255957031249915,2.054360693743811,3.3129012351659126,-3.261516119346782,-0.9174055268560843,4.738611071973391
375,1790565702.9482098,1.1419453124999999,-1.7298747070312501,-0.13028906249999914,2.0768921104800566,3.3293690569552274,-3.2883341372270225,-0.9202752260936528,4.769145228154124
376,1790565702.9731863,1.074884765625,-1.62928388671875,-0.07280859374999914,1.9532650445389945,3.351002329282224,-3.3230940144906027,-0.9237018673649591,4.808887145668078
377,1790565702.9931862,1.2137958984375,-1.51911298828125,-0.05364843749999913,1.9452205296764369,3.3691598039012023,-3.3514755463402723,-0.9262238596948442,4.841644014196875
378,1790565703.0037987,1.323966796875,-1.40415205078125,-0.04885839843749913,1.930522779984353,3.379369288937475,-3.36660323520168,-0.9274429457651591,4.859455170277194
379,1790565703.0237987,1.228166015625,-1.32751142578125,-0.12549902343749914,1.8128508908345775,3.399551904268351,-3.394933542640539,-0.929657317198072,4.893545712076299
380,1790565703.0477262,0.9695039062499999,-1.33709150390625,-0.29315039062499915,1.677405337292056,3.424019808879598,-3.4285249174969614,-0.9326604414614285,4.934425018233071
381,1790565703.0677261,0.8880732421875,-1.71550458984375,-0.4081113281249992,1.9743821659973384,3.444190137999694,-3.4569698198907566,-0.9358459938905495,4.968791982626247
382,1790565703.0929186,0.8784931640624999,-2.12265791015625,-0.06322851562499913,2.2981350456493157,3.469123967774067,-3.4946772394889094,-0.9401472754327496,5.013129462869469
383,1790565703.1129186,0.921603515625,-2.01727705078125,0.3678750000000009,2.248130724679074,3.488649543027748,-3.526332230508153,-0.94259282549969,5.04917576131707
384,1790565703.1228316,0.6916816406249999,-1.28440107421875,0.37266503906250087,1.505652298099208,3.4980751309935365,-3.5421232337429442,-0.9430725682697619,5.066808906414366
385,1790565703.1428316,0.5623505859374999,-0.81976728515625,0.17627343750000088,1.0096181991647954,3.516120342272827,-3.572359849878123,-0.9430718836141891,5.100415839520307
386,1790565703.1679096,0.5910908203124999,-0.78144697265625,0.032572265625000874,0.9803615054760502,3.537522717449477,-3.6075982453145716,-0.9426783455426146,5.139793238956492
387,1790565703.1879096,0.6198310546874999,-0.99220869140625,0.10921289062500088,1.1749876931848222,3.553847400069486,-3.634146227662836,-0.942198895329872,5.169583049470963
388,1790565703.2128193,0.5000800781249999,-0.97783857421875,0.10442285156250088,1.1032463431600885,3.573222017569725,-3.6659321419817616,-0.9412921975722852,5.205094144938255
389,1790565703.2328193,0.3994892578124999,-0.69043623046875,-0.09675878906249913,0.8035272980504894,3.5877938388123405,-3.690127276917151,-0.9406619133992702,5.23203103822863
390,1790565703.2428117,0.2366279296874999,-0.6664860351562499,-0.08717871093749913,0.7125984421869125,3.594458861380045,-3.7014192782939515,-0.940532094738671,5.244543812488667
391,1790565703.2628117,0.2845283203124999,-0.75270673828125,0.06131250000000087,0.8070210787644279,3.6065797844979,-3.7227591246534977,-0.9403500337919161,5.26788491030245
392,1790565703.288223,0.4761298828124999,-0.9059879882812499,0.008622070312500871,1.0235175818291666,3.6211198916706,-3.748967047966353,-0.940020125876371,5.296310133823611
393,1790565703.308223,0.7635322265625,-1.15986005859375,-0.23087988281249913,1.4076797706893778,3.632706588298036,-3.769598689835721,-0.9401328067510355,5.3188608868257425
394,1790565703.3329964,0.5288203125,-1.36583173828125,-0.20213964843749913,1.4785153694430824,3.6473070529085305,-3.796013841599424,-0.9410559960577554,5.347724395621654
395,1790565703.3529963,0.567140625,-1.44726240234375,0.08526269531250087,1.5567551756699398,3.658970128976206,-3.8183600940067555,-0.9418648226280144,5.371689264686439
