imu_index,t_imu,ax,ay,az,mag,vx,vy,vz,velocity
0,1791341288.2255828,0.04907441980698532,-0.012069019990808841,-0.010941951976103882,0.05170769996797518,0.0,0.0,0.0,0.0
1,1791341288.2455828,0.025124224494485318,0.03104133157169116,-0.001361873851103881,0.039958048282909005,0.00017386768589280763,1.3070454418073635e-05,-3.240669660488039e-05,0.00017734430625553145
2,1791341288.2552626,-0.06588651769301469,0.03583137063419116,0.02258832146139612,0.07832721494908448,0.0002158026041365436,6.699608041552184e-05,-3.0328467498396655e-05,0.00022798915475074274
3,1791341288.2752626,-0.0706765567555147,0.02146125344669116,0.008218204273896119,0.07431890712198402,8.4605716612512e-05,0.0002476409518958046,1.9531133631574332e-05,0.00026242262387285003
4,1791341288.3001118,0.06344453699448532,-0.012069019990808841,-0.01573199103860388,0.06647079102900666,-6.742836622604132e-05,0.00045592257061765343,5.818405391084047e-05,0.00046453994349250735
5,1791341288.3201118,0.11134492761948532,-0.012069019990808841,0.0034281652113961193,0.11204957147103953,9.074501301881878e-05,0.0005622065510553812,6.617182559846894e-05,0.0005733145506093551
6,1791341288.3456078,-0.013196088005514686,0.00709113625919116,0.06090863396139612,0.06272386023786355,0.0004498189825342514,0.0006678551720505604,0.00019785208192662197,0.0008291640936542848
7,1791341288.3656077,-0.0706765567555147,0.01667121438419116,0.051328555836396124,0.08892539405653026,0.0005634300530431269,0.0007739420441845462,0.0004540082118269941,0.0010595108158178847
8,1791341288.3751476,-0.013196088005514686,0.01188117532169116,0.0034281652113961193,0.018084561990567485,0.0005494830582905731,0.0008373831956535993,0.0005970428877747448,0.0011660199215938816
9,1791341288.3951476,0.04428438074448532,-0.012069019990808841,-0.006151912913603881,0.0463099735905523,0.0005712619312828834,0.0009501534561925985,0.0008478448267261393,0.001395697902360703
10,1791341288.4203877,-0.008406048943014685,-0.00248894186580884,0.01300824333639612,0.015686646714407396,0.0006625424940909965,0.001043564685049791,0.001129861400040031,0.0016746870130444694
11,1791341288.4403877,-0.04672636144301469,0.02625129250919116,-0.020522030101103882,0.0573902163402176,0.0006413240225376068,0.0011421233065963205,0.0013085369444861199,0.0018514888831530694
12,1791341288.4655132,-0.037146283318014686,0.02625129250919116,-0.044472225413603884,0.06361411443998671,0.00046061551522476633,0.0013463041856648541,0.0013768569252082673,0.0019800092438416665
13,1791341288.4855132,-0.061096478630514685,0.02146125344669116,0.008218204273896119,0.0652756002043607,0.00019098364705539764,0.0015560222724714202,0.0013687014294703197,0.002081111162072752
14,1791341288.495269,-0.022776166130514686,0.04541144875919116,0.027378360523896122,0.057710727312951814,1.781913010918124e-05,0.0016919064304104768,0.0013913655706644036,0.002190607916057196
15,1791341288.515269,-0.05151640050551469,0.07894172219669117,0.03216839958639612,0.09960191241323736,-0.00039536615840751136,0.0021152199406730635,0.001520178856810936,0.0026346562495570226
16,1791341288.54022,-0.04672636144301469,0.09810187844669116,0.02258832146139612,0.11098451997876094,-0.0010173591532982918,0.002895414949279122,0.001759242290253617,0.003537425732241686
17,1791341288.56022,0.029914263556985315,0.04541144875919116,0.0034281652113961193,0.05448683473355789,-0.0014663630490583338,0.0036422591215020486,0.0019611493350421274,0.004388892663775763
18,1791341288.585234,0.025124224494485318,-0.012069019990808841,-0.010941951976103882,0.029943517045183637,-0.001840441203460565,0.004498775632932384,0.002161699057686708,0.005319694430591398
19,1791341288.605234,-0.05630643956801469,-0.02164909811580884,-0.025312069163603883,0.06542017602695269,-0.002141445790808558,0.005030304974575146,0.00224361584870991,0.005909616763275723
20,1791341288.61526,-0.037146283318014686,-0.031229176240808842,-0.03010210822610388,0.057107308925196144,-0.002339976813906088,0.005217030274203439,0.0022368523603303416,0.006139739803402805
21,1791341288.6352599,0.04907441980698532,-0.045599293428308846,-0.006151912913603881,0.06727139267957673,-0.002658712548642167,0.0054183978934325095,0.002171003253204984,0.00641412841103823
22,1791341288.6603985,0.03470430261948532,-0.00727898092830884,0.03695843864889612,0.05121814493930561,-0.002841291240321493,0.0055338409919733714,0.002158733087130103,0.006584562292077032
23,1791341288.6803985,-0.04193632238051469,0.06457160500919117,0.03695843864889612,0.0854053481676041,-0.002975608058740077,0.005697848215521786,0.0022613106002935513,0.006814194247111222
24,1791341288.7049878,-0.04672636144301469,0.06457160500919117,-0.001361873851103881,0.07971637051166199,-0.0032794868474622717,0.0061074089365621,0.0024341559423167515,0.007347148634170441
25,1791341288.7249877,0.03949434168198532,-0.02164909811580884,-0.006151912913603881,0.04545693023751039,-0.003500423582132717,0.006454945290258485,0.002542383103012924,0.007770649638033275
26,1791341288.735547,0.029914263556985315,-0.06475944967830885,0.03695843864889612,0.08034037387365343,-0.003544605624509866,0.006542478551447993,0.002615349571645611,0.00788722435406594
27,1791341288.755547,-0.08025663488051468,-0.012069019990808841,0.04174847771139612,0.09126732206601511,-0.0036912500129958645,0.006568160179023618,0.0028508822400516594,0.008055655425997036
28,1791341288.7803915,-0.05151640050551469,0.00709113625919116,0.0034281652113961193,0.05211502711510027,-0.004091626843605494,0.006586001667257005,0.0031837574615891876,0.008381714607563892
29,1791341288.8003914,0.029914263556985315,-0.031229176240808842,-0.020522030101103882,0.047867299195869545,-0.004397991048697091,0.00656200282203268,0.003385889206425676,0.008594559442983362
30,1791341288.824723,0.06344453699448532,0.01188117532169116,-0.001361873851103881,0.06456180218872225,-0.004544432573869736,0.006501878249016433,0.0035549769376123103,0.008692764186979693
31,1791341288.844723,-0.06588651769301469,0.07415168313419117,0.051328555836396124,0.11168762675245393,-0.0046504113224180126,0.0065889195703087225,0.0037480651238270338,0.008893153475799205
32,1791341288.8549979,-0.10420683019301469,0.07415168313419117,0.027378360523896122,0.13079415199268551,-0.004827767198487033,0.006741214071552099,0.003893036325828678,0.009160078335664004
33,1791341288.8749979,-0.027566205193014687,0.01188117532169116,0.01300824333639612,0.032715017812421365,-0.005318865020621642,0.007122237202463581,0.004193473611042652,0.009828621917759366
34,1791341288.9000752,0.11613496668198532,0.00230109719669116,-0.006151912913603881,0.11632055522146989,-0.00567569104139524,0.007555001147106575,0.004526571483649924,0.010477660069249647
35,1791341288.9200752,0.08260469324448531,0.00709113625919116,-0.001361873851103881,0.08291968559906782,-0.00561947494909255,0.007862461076154466,0.004741108565770726,0.010764520579661098
36,1791341288.9452095,-0.06588651769301469,0.02625129250919116,0.01779828239889612,0.07312279007577534,-0.005527909362192918,0.008253745753570064,0.005001263038909099,0.011121813380270065
37,1791341288.9652095,-0.11378690831801469,0.02625129250919116,0.01779828239889612,0.11812438240823209,-0.005735487463995957,0.008597150910866658,0.005230617277929607,0.01158301244677074
38,1791341288.9909046,0.010754107306985316,0.00709113625919116,-0.006151912913603881,0.014275190713722068,-0.006160729253581809,0.009036419068101355,0.005503525864749154,0.012243375819366461
39,1791341289.0109046,0.09218477136948532,-0.02164909811580884,-0.020522030101103882,0.09689101733980715,-0.006287662957382945,0.009305203928426018,0.005644072533009313,0.012568893363105235
40,1791341289.020975,-0.013196088005514686,-0.00248894186580884,-0.010941951976103882,0.017322178942270172,-0.006282330960213863,0.00940201239003215,0.005680461910322165,0.012654373425444685
41,1791341289.040975,-0.10420683019301469,0.03104133157169116,0.008218204273896119,0.10904204054449344,-0.006449434295317779,0.00960826202370474,0.00573780472159288,0.012916512875730873
42,1791341289.065717,0.0011740291819853155,0.03583137063419116,0.0034281652113961193,0.0360141330974599,-0.006816340625365352,0.00994923172608653,0.005819713967054113,0.0133909963079189
43,1791341289.085717,0.11134492761948532,0.00230109719669116,0.02258832146139612,0.11363635079207891,-0.006899661206743283,0.010240708347612025,0.005915017947922032,0.013691781094982806
44,1791341289.1109612,0.029914263556985315,0.03104133157169116,0.04174847771139612,0.06001135576804934,-0.006721605752954819,0.010616555902726872,0.0061390777838557856,0.013984974764729173
45,1791341289.1309612,-0.08983671300551468,0.04541144875919116,0.03695843864889612,0.10723227531582119,-0.006691583164465376,0.010984338379046256,0.006408024512698109,0.014369960091374116
46,1791341289.1405191,-0.013196088005514686,0.00709113625919116,0.0034281652113961193,0.015367929880511909,-0.006753246347993434,0.011171373022782864,0.006546225405908263,0.014603389281800515
47,1791341289.1605191,0.05386445886948532,-0.02643913717830884,0.0034281652113961193,0.06010124974368283,-0.0068019192256983255,0.0114750146202812,0.006802316774137368,0.014973763026851414
48,1791341289.1859074,0.005964068244485316,0.01188117532169116,0.01300824333639612,0.018599646011377077,-0.006740516743201241,0.011774924209565909,0.007109936546433569,0.015317787170499182
49,1791341289.2059073,-0.05151640050551469,0.03104133157169116,0.008218204273896119,0.06070455228626391,-0.006767730031248708,0.012040127579031735,0.007347758601942694,0.01564469233854246
50,1791341289.2302117,-0.017986127068014685,0.01188117532169116,-0.025312069163603883,0.03324701399035108,-0.006922530898520889,0.012392306500790783,0.007562254738369042,0.016083481935778177
51,1791341289.2502117,0.03949434168198532,-0.00727898092830884,-0.03010210822610388,0.05018887832881063,-0.006998545846127687,0.012645545364334519,0.007629165329711087,0.016342999270325474
52,1791341289.260538,-0.003616009880514685,-0.012069019990808841,0.02258832146139612,0.025864435764924233,-0.00700411965178795,0.01274170014205895,0.007652711232118969,0.01643084306445981
53,1791341289.280538,-0.05630643956801469,0.00709113625919116,0.04653851677389612,0.0733930030301739,-0.00710317921046574,0.012892529724846823,0.007795164223841072,0.016656442083431363
54,1791341289.3051398,0.010754107306985316,0.03104133157169116,0.01300824333639612,0.03533312163413699,-0.007290803079986664,0.013120592347258426,0.008053980603711932,0.017034446179992096
55,1791341289.3251398,0.03470430261948532,0.03583137063419116,0.0034281652113961193,0.05000028058467491,-0.007352265229514587,0.013378494528587102,0.008257479526276016,0.017355860335443812
56,1791341289.350781,0.020334185431985317,0.02146125344669116,0.0034281652113961193,0.029762674836145083,-0.007313399761877538,0.013769722873719557,0.008492428259418521,0.017754222648075482
57,1791341289.370781,-0.013196088005514686,0.02146125344669116,-0.010941951976103882,0.027467225036391377,-0.0072769250236404725,0.014093488924707492,0.008636927374524778,0.018060359418996984
58,1791341289.380213,0.0011740291819853155,-0.00727898092830884,-0.01573199103860388,0.01737404529502412,-0.007270808100337793,0.01423330759473233,0.008675982518278775,0.0181858287734071
59,1791341289.400213,0.0011740291819853155,-0.040809254365808845,0.02258832146139612,0.04665839530949184,-0.007256261128156442,0.014413178662636928,0.008756658369859196,0.01835952370099812
60,1791341289.4257703,0.025124224494485318,-0.031229176240808842,0.03695843864889612,0.054519852278715995,-0.007190052032453513,0.014470469020369468,0.00895842629320223,0.01847551686826646
61,1791341289.4457703,0.04428438074448532,0.01667121438419116,0.02258832146139612,0.0524334629164389,-0.007041898795023298,0.014486740033541539,0.009181956697687847,0.0185408280353651
62,1791341289.4710476,0.025124224494485318,0.04062140969669116,-0.01573199103860388,0.050287385339013634,-0.006751154269059402,0.014612835353161789,0.009435091320075922,0.018658349049190445
63,1791341289.4910476,0.04907441980698532,0.02146125344669116,-0.049262264476103886,0.07277124968151195,-0.006444319807422525,0.014790763092122754,0.009507842559971957,0.01872685239897119
64,1791341289.4999466,-0.032356244255514685,-0.045599293428308846,0.03216839958639612,0.06450603100046992,-0.006317114853085123,0.014841946277678892,0.009523948729975844,0.018732189108264508
65,1791341289.5199466,-0.0706765567555147,-0.00727898092830884,0.07048871208639612,0.10008405352387073,-0.006228660355179505,0.014860405761559961,0.009708702364508388,0.018811878450091052
66,1791341289.5457802,0.03949434168198532,0.03104133157169116,0.04174847771139612,0.06531694023648085,-0.0061919597483877375,0.014926713011973595,0.010129010655722593,0.019072073398852512
67,1791341289.5657802,0.06823457605698532,0.01188117532169116,0.04653851677389612,0.08344431221009307,-0.006006215437453137,0.015034730656193446,0.010538027802623822,0.019317551080669
68,1791341289.5901413,0.010754107306985316,0.00230109719669116,0.10401898552389613,0.10459873432168904,-0.005669586180367368,0.01517247885151244,0.01123658472068917,0.01971317219884791
69,1791341289.6101413,0.03470430261948532,0.00709113625919116,0.14712933708639614,0.15133312481156797,-0.005366487890612212,0.015282692316425628,0.012100782366331775,0.02021852641999284
70,1791341289.635228,0.06823457605698532,0.02625129250919116,0.12796918083639613,0.14738113506150605,-0.0048496502596623615,0.015462933785447223,0.013539772778618456,0.021117454292380645
71,1791341289.655228,0.03470430261948532,0.03583137063419116,0.12317914177389612,0.13289611247129537,-0.004345006629409263,0.015678198475889582,0.01489162797808983,0.0220555111910113
72,1791341289.6655586,0.010754107306985316,0.01188117532169116,0.08485882927389612,0.08635875205635597,-0.004088219516428422,0.01580967905844594,0.01564635365290259,0.02261565549298248
73,1791341289.6855586,0.04907441980698532,-0.08870964499080884,0.01779828239889612,0.10292948387191313,-0.0035759123711032077,0.01591079864076928,0.017042302715303007,0.02358772444541734
74,1791341289.7106438,-0.037146283318014686,-0.13661003561580884,-0.03489214728860388,0.14580675614560665,-0.003007288722618416,0.015594690123813414,0.01849839514540641,0.024380909918921133
75,1791341289.7306437,-0.21437772863051469,-0.11744987936580885,-0.010941951976103882,0.244687578370601,-0.0029992241087161554,0.01499937719420582,0.019416422602710502,0.02471789085167691
76,1791341289.7548068,-0.1760574161305147,-0.05038933249080884,-0.025312069163603883,0.18486751864177106,-0.0036984988811244236,0.014083870683841185,0.020293470980788562,0.024977175017622536
77,1791341289.7748067,-0.1377371036305147,-0.06954948874080884,-0.049262264476103886,0.16197349104697548,-0.004661167863161574,0.013259854240890474,0.020798660592040042,0.025102480012164353
78,1791341289.7856133,-0.12336698644301469,-0.05996941061580884,-0.03010210822610388,0.140434612803591,-0.0053149245470901175,0.01277642654199387,0.020966359510595365,0.025121180888878596
79,1791341289.8056133,-0.20000761144301468,-0.036019215303308844,-0.025312069163603883,0.20479533527780638,-0.006828421718208143,0.011871955421202979,0.021147048339217198,0.025194608989740568
80,1791341289.8310523,-0.08983671300551468,-0.11265984030330885,-0.06842242072610388,0.15951332947068164,-0.009017755392281456,0.010610409076909145,0.021163563246690716,0.02533371473730324
81,1791341289.8510523,0.010754107306985316,-0.23720085592830886,-0.08279253791360389,0.25146471166203027,-0.010599432055073537,0.009242572533155633,0.02094777734309081,0.025230586250352408
82,1791341289.875507,-0.027566205193014687,-0.20367058249080885,-0.03010210822610388,0.20772033785969257,-0.01227415348062654,0.007012329350902943,0.0205164428165989,0.02491489579424895
83,1791341289.895507,-0.0754665958180147,-0.11744987936580885,0.008218204273896119,0.1398471312858799,-0.013592899327983032,0.004980276666709139,0.020183771140069227,0.024838572528475555
84,1791341289.9050515,-0.0754665958180147,-0.09349968405330884,0.01300824333639612,0.12085781893252527,-0.014235872605349378,0.00400499890403714,0.020064021942812635,0.024925189298754435
85,1791341289.9250515,-0.08983671300551468,-0.08391960592830884,0.06569867302389612,0.13938956524754167,-0.01562906084264248,0.0020017517216765505,0.019968790613362385,0.025436728392986493
86,1791341289.9506342,-0.027566205193014687,-0.045599293428308846,0.09443890739889613,0.10843384370482159,-0.017369094167323157,-0.00042482721062233296,0.02017250594256419,0.026623221186682353
87,1791341289.9706342,0.029914263556985315,0.02146125344669116,0.14712933708639614,0.15166571924842565,-0.018521839162529228,-0.002073516764513699,0.020670228548520388,0.027831930331606324
88,1791341289.995953,0.03470430261948532,0.03104133157169116,0.15191937614889614,0.15889446099697208,-0.019639548296529752,-0.0037478955530000115,0.02177367222258026,0.029560977325255762
89,1791341290.015953,0.015544146369485316,-0.05038933249080884,0.10401898552389613,0.11662184471464075,-0.020314645360660626,-0.004901154997328943,0.022898470727521315,0.03100074350876771
90,1791341290.0252202,-0.022776166130514686,-0.17014030905330885,0.04653851677389612,0.177854749871558,-0.020585560021985114,-0.005508643408197681,0.023446116879311946,0.031683289449420934
91,1791341290.0452201,-0.10899686925551469,-0.07433952780330884,0.051328555836396124,0.14156731100707085,-0.021280197831797524,-0.006989767787098143,0.02459754490040891,0.033267745469232314
92,1791341290.0710514,-0.2287478458180147,0.00709113625919116,0.16628949333639612,0.2828923059644853,-0.02269711758962487,-0.008746070721187119,0.026283215346507113,0.035811454995408
93,1791341290.0910513,-0.1808474551930147,-0.06954948874080884,0.22376996208639613,0.29599988068586197,-0.024244009873843314,-0.009995612141766832,0.02797767346498529,0.03834624478830999
94,1791341290.1153054,0.058654497931985315,-0.17014030905330885,0.14712933708639614,0.2324545476515594,-0.026060821590289576,-0.01171964809028016,0.030399006806399287,0.04172069256539758
95,1791341290.1353054,0.19756563074448533,-0.14619011374080884,0.0034281652113961193,0.24579560639631778,-0.026949917311077678,-0.013402541149066225,0.032321984990528185,0.0441660148310244
96,1791341290.1458554,0.11134492761948532,-0.13661003561580884,-0.006151912913603881,0.17634579884430915,-0.02710414082919528,-0.014380876713830898,0.03318204779444335,0.04519394164022405
97,1791341290.1658554,-0.12336698644301469,-0.02643913717830884,0.03695843864889612,0.13147002512408912,-0.027370684972203307,-0.01620191032131445,0.034614136502001916,0.04700845391721294
98,1791341290.1903882,-0.20479765050551468,-0.040809254365808845,0.11838910271139612,0.2400488544760873,-0.02825240551266863,-0.01822433583108164,0.03639312952056863,0.04954578397842948
99,1791341290.2103882,-0.1856374942555147,-0.14619011374080884,0.19981976677389612,0.3094523676151002,-0.029449045327694108,-0.019906273014592784,0.03810319438714809,0.05210911051389076
100,1791341290.2352033,0.04907441980698532,-0.07433952780330884,0.19981976677389612,0.21877523458331705,-0.030965233749868766,-0.022090549227978817,0.040650482243529115,0.055671355049156504
101,1791341290.2552032,0.17840547449448532,0.16516242532169118,0.30520062614889615,0.3901981064400799,-0.03166270425405515,-0.02345068965153034,0.043153073895917334,0.05843500211755499
102,1791341290.280217,0.07781465418198531,0.39029426125919114,0.49201214958639616,0.6328196315838708,-0.03192349731259445,-0.02385457991464378,0.047309127833770954,0.061857127640745115
103,1791341290.300217,0.08739473230698531,0.39987433938419115,0.5111723058363962,0.6548545279579664,-0.031852925555954044,-0.022943823000048397,0.051638470870392535,0.06486570399034515
104,1791341290.3107681,0.08739473230698531,0.36155402688419114,0.47764203239889613,0.6053933140573425,-0.031682961191269905,-0.02193286544471194,0.054362354711338434,0.06663427215948813
105,1791341290.330768,0.08739473230698531,0.4046643784466911,0.3914213292738961,0.569738321889269,-0.03114693279536436,-0.0191546968208597,0.06005463593351788,0.07031069001201293
106,1791341290.3559031,0.11613496668198532,0.48609504250919117,0.3291508214613961,0.5984279272451697,-0.030190646159293847,-0.014507749784316237,0.06749373049269349,0.0753482154741594
107,1791341290.3759031,0.2742062557444853,0.5148352768841912,0.2525101964613961,0.6356145312457896,-0.02895835424926788,-0.009863411727721812,0.07339762298654834,0.07951782335937108
108,1791341290.400802,0.37000703699448534,0.48130500344669114,0.21897992302389613,0.6453773473370515,-0.02645133586903766,-0.0030885796836098278,0.08052557812953175,0.08481498232514093
109,1791341290.4208019,0.40832734949448535,0.5244153550091911,0.19981976677389612,0.6940249477563337,-0.023572133332805858,0.0030456113074492424,0.08602048872098333,0.08924374318624506
110,1791341290.4308608,0.33168672449448533,0.5818958237591911,0.11838910271139612,0.6801726343768013,-0.021782987733263707,0.006502613982564453,0.08860964025134321,0.09147923747313498
111,1791341290.4508607,0.37958711511948534,0.5148352768841912,0.04653851677389612,0.6413326545815903,-0.017692337114373555,0.013990207463410759,0.0932328202686366,0.09592238254277158
112,1791341290.4761345,0.4322775448069853,0.20827277688419116,-0.05405230353860389,0.4828696271802945,-0.011759497931709256,0.02340358917452503,0.09818450874103919,0.10161796856154437
113,1791341290.4961345,0.43706758386948535,-0.05517937155330884,-0.049262264476103886,0.44328276146929213,-0.006464859955922803,0.029964977242733407,0.10136020453031555,0.10589421767893951
114,1791341290.5207257,0.40832734949448535,-0.15098015280330884,-0.10195269416360389,0.44712479547987427,0.000627906986216618,0.03644223476816712,0.10440031906393521,0.11057964262346402
115,1791341290.5407257,0.5089181698069853,-0.05517937155330884,-0.15943316291360388,0.5361542688828892,0.006907027402638279,0.04061074551294815,0.10610988197158892,0.11382551001723105
116,1791341290.5658722,0.7244699276194854,0.00230109719669116,-0.2169136316636039,0.7562496245782768,0.01594384353765606,0.0449660161472771,0.10722715242497766,0.1173618804044986
117,1791341290.5858722,0.7148898494944853,-0.00727898092830884,-0.17380328010110388,0.7357499987410842,0.02421211396967029,0.047902878606396734,0.10739639511156264,0.12006205863893206
118,1791341290.6109557,0.6574093807444853,-0.16056023092830884,-0.2264937097886039,0.7136288126332931,0.035608175837674144,0.05071797522940528,0.10682375156629192,0.12349724327511989
119,1791341290.6309557,0.7340500057444853,-0.4527526137408089,-0.3366646082261039,0.9258279530315819,0.04541886816396762,0.05170589517543094,0.1055909145605576,0.12603894008965444
120,1791341290.6405153,0.8011105526194854,-0.5772936293658089,-0.3701948816636039,1.054556922330215,0.05050547022100493,0.051368757277190924,0.10458323301285398,0.12699293040901405
121,1791341290.6605153,0.7580002010569854,-0.4000621840533089,-0.3510347254136039,0.9261962180651236,0.06188968717219984,0.049303189408692584,0.10170941990720798,0.1288640522488833
122,1791341290.6698048,0.7963205135569854,-0.3282115981158089,-0.3414546472886039,0.9265206363618563,0.06746713953232013,0.04798029680204273,0.10009236009298876,0.1298938195098989
123,1791341290.6898048,0.8825412166819854,-0.4000621840533089,-0.3941450769761039,1.0460779569212428,0.08019228349446617,0.04446696619887078,0.0960297084818729,0.13277732609938278
124,1791341290.7150493,0.9256515682444854,-0.4671227309283089,-0.4037251551011039,1.1126672783922456,0.09726849402435933,0.03905567270773947,0.09016028927863906,0.13825839310229515
125,1791341290.7350492,0.9256515682444854,-0.4671227309283089,-0.4037251551011039,1.1126672783922456,0.11154480619556972,0.03401026477845038,0.08499656560363117,0.1443030078131426
126,1791341290.7600408,0.8538009823069853,-0.5054430434283089,-0.3366646082261039,1.0477556232111,0.13004359325542025,0.026828392046010792,0.07812420717387063,0.15406002243639166
127,1791341290.7800407,0.8538009823069853,-0.4575426528033089,-0.3127144129136039,1.0178957218529618,0.14518842914155144,0.02049858747058592,0.07247535316793546,0.1635620642499279
128,1791341290.789947,1.0310324276194853,-0.4240123793658089,-0.4085151941636039,1.1873074700855337,0.1529650530317339,0.017178656396570482,0.06956123169656436,0.16891470818059542
129,1791341290.809947,1.1172531307444853,-0.4767028090533089,-0.4133052332261039,1.2830905432313628,0.16953278252968432,0.010130319502578524,0.0633276383397599,0.18125776535964738
130,1791341290.83504,0.9687619198069853,-0.5389733168658088,-0.4468355066636039,1.1952630938737994,0.19112739175009852,0.0007020892181628484,0.05506101151334304,0.19890170385227568
131,1791341290.85504,0.9687619198069853,-0.639564137178309,-0.4420454676011039,1.2421538303525168,0.20866352595313348,-0.007453124508452142,0.04812724172572483,0.21427143422364736
132,1791341290.880644,1.0693527401194853,-0.8311656996783089,-0.4947358972886039,1.4419137669045068,0.23165963953622493,-0.019151638797403718,0.03878320949155056,0.2356631307547818
133,1791341290.900644,1.1028830135569854,-0.9413365981158089,-0.5522163660386039,1.5515825622459356,0.25018644073421603,-0.029577710379670014,0.03100873882151346,0.2538299390573536
134,1791341290.9107926,1.0166623104319854,-0.9700768324908089,-0.4037251551011039,1.4620688476435417,0.259790555451266,-0.03552945987622215,0.026927905872814645,0.26358791196765563
135,1791341290.9307926,0.8777511776194854,-0.8311656996783089,-0.2983442957261039,1.245107573234711,0.27872020454976865,-0.04820120761583453,0.019038923364699825,0.2834974240496315
136,1791341290.9549677,0.9208615291819854,-0.797635426240809,-0.3941450769761039,1.2804524867507736,0.30143052106709317,-0.06417397928566881,0.009677844677222025,0.308337995267747
137,1791341290.9749677,0.9112814510569853,-1.037137379365809,-0.4420454676011039,1.4496523797603966,0.3201486334043944,-0.07815819306631612,0.0018408470862500016,0.32955612470729145
138,1791341290.9998703,0.9496017635569853,-1.3389098403033088,-0.4899458582261039,1.7130294842192537,0.3434347086311426,-0.09739626440660137,-0.008194197866490227,0.35707222839587177
139,1791341291.0198703,0.8538009823069853,-1.5113512465533088,-0.5713765222886039,1.8274654136451483,0.36203627016977064,-0.11480470373203253,-0.016636698485694778,0.38016727983079085
140,1791341291.0447981,0.9496017635569853,-1.4921910903033089,-0.4468355066636039,1.824291569170464,0.38511503442222644,-0.13886320064371924,-0.027484615779932088,0.41030718045827685
141,1791341291.064798,0.9927121151194853,-1.4730309340533088,-0.2696040613511039,1.7966590734137557,0.4037674669815541,-0.1597181396784747,-0.03595719990328909,0.43569596252425635
142,1791341291.0748587,1.0070822323069855,-1.6694225356158088,-0.4180952722886039,1.993988435713813,0.4132516843074895,-0.1710062742537643,-0.04009875176028426,0.44903007728866395
143,1791341291.0948586,1.0645627010569854,-1.923294605928309,-0.5809566004136039,2.273734033971169,0.4323852666294871,-0.19546966263207793,-0.048595585983500944,0.476997839392204
144,1791341291.1203318,1.0166623104319854,-1.9328746840533089,-0.3701948816636039,2.2150961713020525,0.4570755930010433,-0.22932108491346953,-0.05961149081106164,0.5148395745665473
145,1791341291.1403317,0.8777511776194854,-1.7173229262408087,-0.2169136316636039,1.9407979509485735,0.47639478310979816,-0.25738778536646906,-0.06784383245057134,0.5457135210269838
146,1791341291.180766,0.8969113338694854,-1.5736217543658089,-0.2408638269761039,1.827224876631894,0.514975877197306,-0.3155993857166209,-0.0833790438115915,0.6097173044180216
147,1791341291.200766,1.0837228573069855,-1.6646324965533088,-0.3749849207261039,2.0214030451156644,0.5341676330486007,-0.3449309040041313,-0.09083434858984998,0.6423108808183107
148,1791341291.195004,1.1364132869944854,-1.8514440199908089,-0.5378462488511039,2.2379809439359715,0.5341676330486007,-0.3449309040041313,-0.09083434858984998,0.6423108808183107
149,1791341291.215004,1.1220431698069853,-2.019095387178309,-0.7102876551011039,2.4166579423708803,0.5542520289900592,-0.3764117228240343,-0.09925686399386797,0.6772983255322962
150,1791341291.2401514,0.8969113338694854,-1.999935230928309,-0.6192769129136039,2.277651150549533,0.5795254363236853,-0.4176375116657249,-0.11076620735860218,0.7228692656276826
151,1791341291.2601514,0.7963205135569854,-1.8562340590533088,-0.4564155847886039,2.0707598673769754,0.5991504222776117,-0.4512909108329898,-0.12016020515332301,0.7596599170802673
152,1791341291.3006651,0.7819503963694854,-1.803543629365809,-0.2696040613511039,1.9841628953554693,0.6377370591142766,-0.5203569011235442,-0.13854116404879643,0.8346697042846468
153,1791341291.3206651,0.8585910213694854,-1.7795934340533088,-0.2121235926011039,1.9872412412789606,0.6563892147368654,-0.5547123945939865,-0.14697659241332922,0.8718685455138907
154,1791341291.3148618,0.8921212948069853,-1.6933727309283089,-0.3127144129136039,1.9393766819634577,0.6563892147368654,-0.5547123945939865,-0.14697659241332922,0.8718685455138907
155,1791341291.3348618,0.9687619198069853,-1.8753942153033087,-0.4085151941636039,2.1499971590501596,0.674888875408465,-0.5893154115780177,-0.15482220060445523,0.9092510996823029
156,1791341291.390409,0.9352316463694854,-1.9903551528033088,-0.5617964441636039,2.2697548571016495,0.7264942500858238,-0.6871097017820764,-0.17738615716740397,1.01556855329684
157,1791341291.410409,0.8011105526194854,-1.9711949965533089,-0.604906795726104,2.212080483045479,0.7448923552174236,-0.722981526853868,-0.18604180843537624,1.054598721561531
158,1791341291.420788,0.7675802791819853,-1.8322838637408088,-0.4468355066636039,2.036198814538836,0.754229081648195,-0.741765733607092,-0.19067862122451337,1.0749122046705157
159,1791341291.440788,0.7627902401194854,-1.6550524184283089,-0.3845649988511039,1.862508441996515,0.7718173450986366,-0.7777635575781333,-0.1995203989912643,1.11374438508364
160,1791341291.4343054,0.8394308651194854,-1.6311022231158088,-0.4564155847886039,1.8903581209936133,0.7718173450986366,-0.7777635575781333,-0.1995203989912643,1.11374438508364
161,1791341291.4543054,0.8346408260569853,-1.6790026137408087,-0.4133052332261039,1.9200250782949786,0.78907880054455,-0.8129269810895717,-0.20828541263218142,1.151902097909188
162,1791341291.4957018,0.7915304744944853,-1.5927819106158088,-0.3222944910386039,1.8075808269043585,0.8244965246187135,-0.8849496756019634,-0.22598995754455678,1.230447848698736
163,1791341291.5157018,0.8250607479319854,-1.7077428481158088,-0.3845649988511039,1.9352005351927049,0.8414661771303582,-0.9194775527959147,-0.23432085687777957,1.2682312728039316
164,1791341291.5252569,0.8873312557444853,-1.7748033949908089,-0.4228853113511039,2.028821291994075,0.8495845765352332,-0.9359947604727341,-0.23828261530614994,1.2863353952512155
165,1791341291.5452569,0.9064914119944854,-1.6694225356158088,-0.2360737879136039,1.9142698649306344,0.8667191796329516,-0.9705477279396811,-0.24631962594435283,1.3243256346827468
166,1791341291.5550458,0.8873312557444853,-1.5736217543658089,-0.1498530847886039,1.8127598104147917,0.8751647093419374,-0.9873038440464159,-0.2499466209257316,1.3428162429232746
167,1791341291.5750458,0.9256515682444854,-1.7987535903033087,-0.17380328010110388,2.0304070736176083,0.8925510534427255,-1.0214617987604635,-0.25673090148960703,1.3805587075920918
168,1791341291.600373,0.8106906307444853,-1.7843834731158088,-0.09237261603860389,1.9620847020706171,0.9145640927769462,-1.0650359831386398,-0.26453916226466895,1.4285342465438833
169,1791341291.620373,0.8538009823069853,-1.6215221449908088,-0.06363238166360388,1.8336737070918996,0.9318362956207006,-1.0993924543735105,-0.27001418618938094,1.4662504258526354
170,1791341291.6450756,0.8825412166819854,-1.5736217543658089,-0.2169136316636039,1.8172000298693973,0.9531865848423655,-1.1413815312456648,-0.2762819562772804,1.512497333801469
171,1791341291.6650755,0.8394308651194854,-1.6550524184283089,-0.2983442957261039,1.879588253807984,0.9704625412488116,-1.1751208929399877,-0.28136824304275354,1.5497982917735267
172,1791341291.690188,0.7196798885569854,-1.7077428481158088,-0.2983442957261039,1.8770546332156648,0.991837257654736,-1.2174637455134076,-0.287920543819765,1.596514126735204
173,1791341291.710188,0.7963205135569854,-1.6550524184283089,-0.3941450769761039,1.8784768323728547,1.0085809989080687,-1.251172182302759,-0.29339489630482585,1.6336303211878647
174,1791341291.7205813,0.7915304744944853,-1.6263121840533088,-0.4420454676011039,1.8619387765123716,1.0172147650758727,-1.2686196787653583,-0.2964648359868779,1.6528802638472668
175,1791341291.7405813,0.7053097713694854,-1.6119420668658089,-0.3654048426011039,1.7970363934871294,1.033581884437997,-1.3020151369679223,-0.3026973718951535,1.6897220563406963
176,1791341291.7657905,0.7244699276194854,-1.5592516371783087,-0.2839741785386039,1.7426312513394489,1.0538207464571474,-1.3437904895521107,-0.3106026319457066,1.7357376070264194
177,1791341291.7857904,0.7244699276194854,-1.5496715590533088,-0.25044390510110387,1.7288900388879525,1.0696423652841076,-1.376625356567152,-0.3167352229627547,1.7718784843830246
178,1791341291.8103936,0.7436300838694854,-1.5353014418658089,-0.3079243738511039,1.7334802101675588,1.0888949761474005,-1.4166511074674992,-0.3241779888520347,1.8159526419552052
179,1791341291.8303936,0.7053097713694854,-1.5353014418658089,-0.3031343347886039,1.716538032177626,1.1043713291895472,-1.4489135356439773,-0.3302372919274097,1.851497538612398
180,1791341291.8404555,0.6286691463694853,-1.525721363740809,-0.2552339441636039,1.669788891334878,1.111996237233622,-1.4650200599898748,-0.3332498308915006,1.869190963380597
181,1791341291.8604555,0.5951388729319853,-1.5209313246783087,-0.2456538660386039,1.6515956509879108,1.1267144340829398,-1.4968024393768817,-0.3390909272389613,1.9039132373696028
182,1791341291.8854012,0.6574093807444853,-1.4682408949908088,-0.2025435144761039,1.6214013367672395,1.1446620200220872,-1.5360904849218655,-0.34612217315616783,1.9466960925370158
183,1791341291.9054012,0.7244699276194854,-1.5017711684283088,-0.17859331916360388,1.6769224466257773,1.1589657317318915,-1.56731945882091,-0.3514855210876246,1.9807155083105066
184,1791341291.9297805,0.6813595760569854,-1.5544615981158088,-0.2073335535386039,1.7098505590618889,1.1763565634089668,-1.605264550533773,-0.3577482348382622,2.0220466960497334
185,1791341291.9497805,0.6574093807444853,-1.6406823012408087,-0.19296343635110388,1.77799336198539,1.1904915775471687,-1.6365168885153418,-0.36271575492437824,2.0559718970542966
186,1791341291.9599464,0.6238791073069854,-1.4538707778033089,-0.2648140222886039,1.6040859844426136,1.197575556390755,-1.6523789627311667,-0.3652110140531378,2.073143153409063
187,1791341291.9799464,0.7005197323069854,-1.3868102309283088,-0.3701948816636039,1.5971896450856453,1.2114083417347616,-1.6831653457853273,-0.3703362254660355,2.106586022826895
188,1791341292.0348835,0.6909396541819853,-1.5113512465533088,-0.3558247644761039,1.6994679929889345,1.2494387523323165,-1.7669875660485919,-0.385294130230312,2.1981341681503417
189,1791341292.0548835,0.6813595760569854,-1.6358922621783087,-0.2983442957261039,1.797054168391071,1.2632654956514795,-1.7976467409259662,-0.3909040222966732,2.231631571813108
190,1791341292.0498703,0.6382492244944854,-1.6550524184283089,-0.2791841394761039,1.7956904978442745,1.2632654956514795,-1.7976467409259662,-0.3909040222966732,2.231631571813108
191,1791341292.0698702,0.5663986385569854,-1.5832018324908088,-0.2648140222886039,1.7021932694503674,1.2767447873870343,-1.8288513219850875,-0.3965095138317165,2.265390519227453
192,1791341292.09621,0.6047189510569854,-1.5784117934283088,-0.19775347541360389,1.7018152768262453,1.294147585326481,-1.8700287307253685,-0.40369832645994264,2.309718113781691
193,1791341292.11621,0.7675802791819853,-1.5017711684283088,-0.17859331916360388,1.6959928363532362,1.3074379939904432,-1.9012253641058623,-0.40890258674462726,2.34334233920178
194,1791341292.1256428,0.8106906307444853,-1.4347106215533088,-0.2217036707261039,1.6627586667908851,1.3138826026881918,-1.9158093512398167,-0.41127213772243354,2.359185820407414
195,1791341292.1456428,0.6813595760569854,-1.4826110121783087,-0.2456538660386039,1.650070334021146,1.3277352896147936,-1.9464689078462152,-0.41624362959007927,2.3926723485832406
196,1791341292.1705406,0.6478293026194853,-1.5065612074908088,-0.2217036707261039,1.6548601133818053,1.3448756647209252,-1.9844933548739763,-0.4223769675261179,2.4341952945057796
197,1791341292.1905406,0.7244699276194854,-1.5017711684283088,-0.17859331916360388,1.6769224466257773,1.3586373921117691,-2.0149685697279636,-0.42716519560379584,2.4674813078463336
198,1791341292.2005942,0.8059005916819854,-1.568831715303309,-0.2025435144761039,1.7753119697313,1.3656714352929518,-2.030305319833416,-0.42949849490705394,2.484284025236729
199,1791341292.2205942,0.6813595760569854,-1.5927819106158088,-0.11632281135110388,1.7362995372660002,1.379796392008181,-2.060981093424681,-0.4339222377252282,2.517889921987309
200,1791341292.245852,0.5616085994944854,-1.5065612074908088,-0.03489214728860388,1.6082127822165606,1.3973135491141706,-2.099781467240334,-0.4389573946786079,2.560127137281866
201,1791341292.265852,0.6142990291819853,-1.5784117934283088,-0.06842242072610388,1.6951190856531348,1.410867473014249,-2.1305238274552996,-0.44250131945736626,2.5933542418045983
202,1791341292.2906651,0.7723703182444853,-1.7891735121783088,-0.2073335535386039,1.959766559467861,1.4277414871123144,-2.169210556417714,-0.44675178274271754,2.635053575827165
203,1791341292.3106651,0.6669894588694854,-1.8274938246783088,-0.2217036707261039,1.9579992684099223,1.4414612364686405,-2.201140574674512,-0.4503074121499111,2.6693832791784122
204,1791341292.320523,0.5903488338694853,-1.7748033949908089,-0.2169136316636039,1.882947253675327,1.4481388773188086,-2.2171813318542606,-0.45212136985672935,2.686524334415443
205,1791341292.340523,0.6621994198069854,-1.7987535903033087,-0.2073335535386039,1.9279548108409326,1.4615333216118853,-2.2502040249856434,-0.4558859188015564,2.7216410077754563
206,1791341292.3656812,0.5759787166819853,-1.8945543715533089,-0.16422320197610388,1.9869718188514058,1.4781912429410844,-2.2924814160675,-0.46061213805551904,2.7663484840935415
207,1791341292.3856812,0.44664766199448536,-1.9041344496783088,-0.17859331916360388,1.9639546099812817,1.4909813426664478,-2.3267473028132493,-0.46431998337095565,2.802208311722342
208,1791341292.4257457,0.5041281307444854,-1.9855651137408088,-0.1498530847886039,2.054037472913564,1.515616565649796,-2.396781340507526,-0.47162043198485126,2.874731326601273
209,1791341292.4457457,0.5568185604319853,-2.071785816865809,-0.1259028894761039,2.148998584873035,1.5276610692001003,-2.432583826486891,-0.47513175255784884,2.9115223848570855
210,1791341292.4557033,0.35084688074448533,-2.038255543428309,-0.1259028894761039,2.072059538628849,1.5334361187156218,-2.45080475457325,-0.4768057833337143,2.930053588288268
211,1791341292.4757032,0.3747970760569853,-2.019095387178309,-0.1306929285386039,2.0577414007390695,1.5443840097617147,-2.487998369021997,-0.48004865786964857,2.9674407437699983
212,1791341292.4851832,0.42748750574448535,-1.9903551528033088,-0.06842242072610388,2.036894898986284,1.5493653433678825,-2.505834409047186,-0.4814967842096059,2.9852266590660292
213,1791341292.5051832,0.4322775448069853,-1.8945543715533089,0.04174847771139612,1.9436931542574634,1.5595877528608793,-2.5436461987787795,-0.4841336437663843,3.0227198561001147
214,1791341292.530671,0.3843771541819853,-1.8993444106158088,0.10401898552389613,1.9406377653091202,1.5722220355393557,-2.5918572573118452,-0.4867113149061073,3.0702596104194884
215,1791341292.5506709,0.23588594324448534,-1.9520348403033088,0.12796918083639613,1.970395469752771,1.5815793539051042,-2.62979055509399,-0.48808261067981973,3.107316567588258
216,1791341292.5755973,0.43706758386948535,-1.8658141371783088,0.06090863396139612,1.917289839605632,1.5927503283580635,-2.6771135048767882,-0.4891822221743281,3.153266492539096
217,1791341292.5955973,0.47538789636948536,-1.7843834731158088,-0.001361873851103881,1.8466239156481827,1.6017376877212,-2.7148633565222133,-0.4898428443316481,3.189983178168254
218,1791341292.6056495,0.21193574793198533,-1.6933727309283089,0.01300824333639612,1.7066332885238666,1.6060954429655807,-2.7336127471734653,-0.49011629434767534,3.208176305225316
219,1791341292.6256495,-0.013196088005514686,-1.683792652803309,0.11359906364889613,1.687671941354409,1.6137632561217807,-2.77038689316324,-0.4903888339700418,3.2434174250475283
220,1791341292.6502151,0.17840547449448532,-1.5353014418658089,0.08006879021139612,1.5477047657388507,1.6220731698627675,-2.8147116334596403,-0.4903165581517958,3.285442630014943
221,1791341292.6702151,0.4418576229319853,-1.156888355928309,-0.03968218635110388,1.2390332937170065,1.628754200393858,-2.8494235758392303,-0.49020596190275423,3.3184871319524603
222,1791341292.7105184,0.2742062557444853,-0.816795582490809,0.03695843864889612,0.8623862362383077,1.6423625401243893,-2.914847215227534,-0.4900247560004185,3.3813922077772665
223,1791341292.7305183,-0.0706765567555147,-0.519813160615809,0.17107953239889612,0.5517871908897825,1.6484078595150595,-2.944447949421027,-0.4896362663265234,3.4098043743685484
224,1791341292.7254453,-0.2239578067555147,-0.4144323012408089,0.16628949333639612,0.4995632363500825,1.6484078595150595,-2.944447949421027,-0.4896362663265234,3.4098043743685484
225,1791341292.7454453,0.24546602136948534,-0.11265984030330885,-0.006151912913603881,0.2701548690966503,1.6524322066107515,-2.967816279162016,-0.48868523129798486,3.431804032807281
226,1791341292.7705312,0.6238791073069854,0.3136536362591911,-0.08758257697610389,0.7037573813911646,1.6583584004044836,-2.9923523324164645,-0.48784763880507154,3.4557662513830496
227,1791341292.7905312,0.29815645105698535,0.6585364487591912,-0.006151912913603881,0.7229144968001124,1.6637574571816802,-3.0075214000720822,-0.4874206289583331,3.47143381295875
228,1791341292.8158953,-0.032356244255514685,0.8453479721966912,0.01300824333639612,0.8460669802291537,1.6700831557369316,-3.021012461582286,-0.4869472789215202,3.4860883081988563
229,1791341292.8358953,0.25983613855698534,0.7303870346966912,-0.2073335535386039,0.8024756954426568,1.6746640887149717,-3.0276910618991435,-0.48692151018161817,3.4940671907410508
230,1791341292.845612,0.9783419979319854,0.8118176987591912,-0.4276753504136039,1.341308035571105,1.6774581710139793,-3.02932518036432,-0.4873736353342542,3.4968857608320305
231,1791341292.865612,1.0645627010569854,1.0848499253216912,-0.4947358972886039,1.5984231958458883,1.6854109248351778,-3.029339161210397,-0.48954826855211814,3.5010231713656306
232,1791341292.8903258,0.48975801355698534,1.4680530503216913,-0.4851558191636039,1.621856602560909,1.6966449676481727,-3.024621959455742,-0.49364862344235144,3.5029460611454315
233,1791341292.9103258,0.49454805261948537,1.6596546128216914,-0.643227108226104,1.8473690272836556,1.7058490469963725,-3.0166855554067578,-0.4981617294661701,3.501210907677933
234,1791341292.9358668,1.3423849666819854,1.6357044175091913,-0.9354194910386039,2.3135548328163305,1.7193588340993349,-3.001758093514026,-0.5060847136601812,3.49612187856386
235,1791341292.9558668,1.5291964901194854,1.6165442612591914,-1.0072700769761038,2.4425908912413528,1.7326582368718,-2.9869440944661307,-0.5142722368299038,3.4911911323844507
236,1791341292.9654772,0.9496017635569853,1.8464661362591914,-0.921049373851104,2.271456064020168,1.73987695581989,-2.9783973477627126,-0.5190062695964499,3.4881786207752423
237,1791341292.9854772,1.1316232479319854,1.8608362534466913,-0.9354194910386039,2.370293728974655,1.7557680736223937,-2.957717951123347,-0.530165060683303,3.480214360972368
238,1791341293.0102646,1.7686984432444854,1.9326868393841914,-0.9928999597886039,2.801682161204681,1.7779006988102088,-2.928880521791028,-0.5455053301712273,3.4694160994325736
239,1791341293.0302646,1.7255880916819855,1.9901673081341913,-0.9545796472886039,2.8017213422355915,1.7983213628559385,-2.9032186447788138,-0.5589473783112966,3.460500020982003
240,1791341293.0550218,1.3184347713694853,2.0715979721966913,-0.983319881663604,2.6451288048865362,1.8254596709969217,-2.868675908635945,-0.5766890938205983,3.448793236794006
241,1791341293.0750217,1.4238156307444854,1.9231067612591914,-1.0455903894761038,2.611292750366746,1.8482080978993691,-2.838964405315327,-0.5919151556491832,3.4388887186524966
242,1791341293.1002042,2.1040011776194856,1.6596546128216914,-1.131811092601104,2.908998236269559,1.8792176929402484,-2.8003987583237744,-0.612323378300882,3.427627789404038
243,1791341293.1202042,2.3578732479319853,1.5399036362591914,-1.0839107019761038,3.0175705247990376,1.9068441987739004,-2.7695648479824624,-0.6294239717363553,3.420923673772066
244,1791341293.130258,2.0321505916819853,1.4009925034466912,-0.940209530101104,2.641289454505168,1.921958984482397,-2.7541722713072856,-0.6382571531121702,3.4185908546606436
245,1791341293.150258,1.7591183651194855,1.4967932846966914,-0.7773482019761039,2.4370387331204326,1.9532033080164841,-2.723798457546601,-0.6557694168451298,3.4152766692976986
246,1791341293.175711,2.2620724666819854,1.3770423081341914,-0.8683589441636039,2.7869812734966826,1.994678077355117,-2.6854556195164903,-0.677854855581172,3.413194943437713
247,1791341293.195711,2.5877951229319853,0.9794690659466911,-0.9737398035386039,2.9332937893113353,2.029653908976166,-2.656311638497828,-0.6953688862249008,3.414531358615836
248,1791341293.2205632,2.4201437557444856,0.7208069565716911,-0.9881099207261039,2.711645198500076,2.0759305782480206,-2.622359923623733,-0.7175243357886316,3.420687139622966
249,1791341293.2405632,2.4249337948069853,0.7687073471966912,-0.9066792566636039,2.700607740730824,2.114853341970102,-2.596901278151578,-0.7355217599972488,3.4289201165872703
250,1791341293.2501535,2.5542648494944853,0.7160169175091912,-0.9497896082261039,2.817631886428166,2.1342993765503477,-2.5854566106637136,-0.7441926826039129,3.434187307531304
251,1791341293.2701535,2.8799875057444853,0.2609632065716912,-1.021640194163604,3.06694938249055,2.1769209163157535,-2.5637042488893695,-0.7625199590234598,3.448623035296199
252,1791341293.2953784,2.9326779354319856,-0.00248894186580884,-0.9258394129136039,3.075351148455316,2.23361058019507,-2.5398954059564067,-0.7858522813025912,3.4724125194432625
253,1791341293.3153784,2.6213253963694854,0.00709113625919116,-0.7533980066636039,2.7274540645645673,2.28014678109789,-2.5238428669162243,-0.8040956263739265,3.4950567858889867
254,1791341293.340459,2.5303146541819856,-0.4479625746783089,-0.8683589441636039,2.712417735782866,2.33944160951436,-2.5075612864268626,-0.8265923619574063,3.527620385239915
255,1791341293.360459,3.0524289119944856,-1.0994078871783088,-1.016850155101104,3.400000618102716,2.3880064568301287,-2.498846490997498,-0.8446687278638839,3.5581278621297585
256,1791341293.370233,3.3446212948069856,-1.3724401137408089,-0.944999569163604,3.7367241880021917,2.4128693512707713,-2.497038398889222,-0.8536156731992752,3.5757235616530165
257,1791341293.390233,3.1338595760569854,-1.1425182387408088,-0.944999569163604,3.4669075491017733,2.465831396730445,-2.497665996318118,-0.872012199583487,3.6164990228794234
258,1791341293.415129,3.0428488338694857,-1.2910094496783089,-0.921049373851104,3.431321374341245,2.533402427263118,-2.5028739085689544,-0.894961415133243,3.671983332646703
259,1791341293.435129,3.1673898494944854,-1.765223316865809,-0.882729061351104,3.7319676328769558,2.5888581499611423,-2.511014437332895,-0.9133377806516635,3.7204255034444875
260,1791341293.4609573,3.3494113338694853,-2.1292662856158087,-0.983319881663604,4.088917850506223,2.6623561245624883,-2.5274944693482646,-0.9371244088959519,3.7887426125734702
261,1791341293.4809573,3.4643722713694856,-2.234647144990809,-0.959369686351104,4.2327193732089965,2.720952463457258,-2.544887334791212,-0.955694574689343,3.8462170993413105
262,1791341293.4907203,3.4404220760569855,-2.234647144990809,-0.882729061351104,4.196351095867651,2.7503215892985384,-2.555376651435087,-0.9647486874821277,3.8762041619682166
263,1791341293.5107203,3.5649630916819857,-2.186746754365809,-0.9258394129136039,4.283456761925862,2.811969116277523,-2.580273426027153,-0.9832271560555204,3.941029929392255
264,1791341293.535732,3.7374044979319856,-2.2921276137408086,-1.0839107019761038,4.516293146895328,2.891198924172535,-2.6151405824080176,-1.0066398539858559,4.026327766156952
265,1791341293.555732,3.4931125057444854,-2.143636402803309,-1.131811092601104,4.251824120838835,2.9558955373745843,-2.645492701103507,-1.0258765560051417,4.097361683769677
266,1791341293.5803676,3.0955392635569856,-1.884974293428309,-0.9928999597886039,3.7578373766378834,3.0358072999790244,-2.6847152631311086,-1.0499433716113948,4.186430829511671
267,1791341293.6003675,2.9374679744944854,-1.841863941865809,-0.7342378504136039,3.5440493933502366,3.1000006282387846,-2.717371394649424,-1.0691415970732285,4.2587762263509585
268,1791341293.6251638,3.3494113338694853,-1.9568248793658087,-0.7677681238511039,3.954388420977411,3.179342049201346,-2.7588502741335676,-1.092166792622528,4.348827313634568
269,1791341293.6451638,3.4931125057444854,-1.8131237074908089,-0.724657772288604,4.001797276648583,3.244001268313864,-2.792942570270993,-1.1101912030188263,4.422284131183148
270,1791341293.6552432,3.2919308651194856,-1.5879918715533088,-0.7581880457261039,3.732743778713947,3.2768287902496613,-2.8101179173184447,-1.11903335871648,4.459440019527508
271,1791341293.6752431,3.4212619198069856,-1.6358922621783087,-1.074330623851104,3.9414924719857765,3.3422657776802276,-2.8439218410942755,-1.1366953972256575,4.53328891567474
272,1791341293.7001631,3.2727707088694853,-1.9089244887408088,-1.059960506663604,3.9342772007364957,3.4240812605607505,-2.886348850814627,-1.1593902580831814,4.625962379663328
273,1791341293.720163,3.2823507869944857,-1.7508531996783088,-0.8060884363511039,3.8064540169199548,3.4897270403080096,-2.9207814840870956,-1.1776713702474273,4.700645609907576
274,1791341293.730434,3.1913400448069855,-1.5113512465533088,-0.8108784754136039,3.6230315723073656,3.5233689013568843,-2.9383246194661625,-1.1868968441408934,4.738839953305176
275,1791341293.750434,3.1913400448069855,-1.6215221449908088,-1.064750545726104,3.7346591642221223,3.588625936167164,-2.972060809313543,-1.2049800193745355,4.81283268056152
