imu_index,t_imu,ax,ay,az,mag,vx,vy,vz,velocity
0,1790597879.9440393,-0.032715966796874926,-0.012837304687500033,0.002826123046875697,0.03525787637635051,0.0,0.0,0.0,0.0
1,1790597879.9640393,-0.03750600585937493,-0.027207421875000033,0.012406201171875698,0.0479672607944705,-0.00014704567641657165,-7.643458042654688e-05,2.6451767986497796e-05,0.0001678224420850825
2,1790597879.9737947,-0.04708608398437493,0.0015328124999999674,-0.001963916015624303,0.047151943600027675,-0.0002699034191804067,-0.00012690954827718984,4.5058899134665405e-05,0.00030163586245740516
3,1790597879.9937947,-0.056666162109374925,0.02548300781249997,0.002826123046875697,0.06219666057638444,-0.0006396269528055451,-0.00017434493654753627,7.877751169547319e-05,0.0006676261618630608
4,1790597880.0190756,-0.061456201171874926,0.02548300781249997,0.0267763183593757,0.0717162434496714,-0.0012608417010545343,-0.00012867628012855158,0.0001711345320139479,0.0012788926492217577
5,1790597880.0390756,-0.07103627929687492,0.04464316406249997,0.0411464355468757,0.09344621036761258,-0.001877311354824315,7.222417292854764e-06,0.000335123340082563,0.0019070022913808863
6,1790597880.0645483,-0.08061635742187492,0.03985312499999997,0.012406201171875698,0.09078095881711187,-0.0028344186614074956,0.00031577052637806586,0.0006149652325524362,0.0029175027696152086
7,1790597880.0845482,-0.07103627929687492,0.01590292968749997,-0.035494189453124304,0.0809869966965282,-0.0037006536518101444,0.0006053240033493188,0.0007670947436876658,0.003827491207759967
8,1790597880.1083503,-0.08061635742187492,0.006322851562499968,-0.021124072265624304,0.08357752069148866,-0.004847649538987949,0.0009379091770574874,0.0008199148252855318,0.005005161335859388
9,1790597880.1283503,-0.061456201171874926,0.03506308593749997,0.0507265136718757,0.08706011628318366,-0.005879969881624756,0.0012375282552848092,0.0009020438019961878,0.00607611759367462
10,1790597880.138431,-0.051876123046874924,0.04464316406249997,0.0986269042968757,0.12004753429817239,-0.0064079382263103665,0.0014261583539722305,0.0010501510377506117,0.00664818901392726
11,1790597880.158431,-0.04229604492187493,0.02548300781249997,0.0219862792968757,0.05405308113813145,-0.0074395463666784125,0.0018494476673200774,0.0014808342525822913,0.007807699846928966
12,1790597880.18427,-0.051876123046874924,0.020692968749999967,-0.035494189453124304,0.06617528679950894,-0.008754906724322309,0.0024037688475525266,0.0019276128290377347,0.009281281573291418
13,1790597880.20427,-0.03750600585937493,0.01590292968749997,-0.040284228515624305,0.057292431570566744,-0.009754386070888379,0.002823363485721956,0.002107891364177917,0.010371240764519214
14,1790597880.2286363,-0.032715966796874926,-0.031997460937500034,-0.030704150390624303,0.05510822843379324,-0.010917748121505486,0.003228471572055146,0.002164853053132905,0.011589082857494102
15,1790597880.2486362,-0.04229604492187493,-0.003257226562500033,0.002826123046875697,0.042515313857347914,-0.011841922789423434,0.0034582262095409436,0.002162777196847672,0.012524698362444754
16,1790597880.2583966,-0.032715966796874926,0.06380332031249997,0.0411464355468757,0.08266938565495022,-0.0122801966537474,0.0035978536978008863,0.0021941052627528186,0.012983138256582188
17,1790597880.2783966,-0.027925927734374925,0.09254355468749997,0.0363563964843757,0.10327610817296008,-0.01313451583009776,0.004075567708139527,0.002364924552504195,0.013954161614864418
18,1790597880.3035293,-0.008765771484374924,0.08296347656249997,0.002826123046875697,0.0834731343878307,-0.014116209367119865,0.004916654466424531,0.0026212403403664147,0.015176025795989513
19,1790597880.3235292,-0.008765771484374924,0.03027304687499997,-0.006753955078124303,0.032232158258632744,-0.014806534133296245,0.0056554287135029534,0.0027887231995426783,0.0160932999741398
20,1790597880.3486986,-0.023135888671874924,0.006322851562499968,-0.011543994140624304,0.026617881156049347,-0.01560519494737423,0.006514777233411387,0.0029333384132194775,0.01716300981742417
21,1790597880.3686986,-0.018345849609374926,-0.003257226562500033,-0.04986430664062431,0.053231840091429,-0.016206851716927317,0.007099799786049722,0.002938902552642942,0.017936174279661557
22,1790597880.379247,-0.03750600585937493,-0.008047265625000032,-0.001963916015624303,0.038409841521141415,-0.016520763601084648,0.007353125294723476,0.002900394306751843,0.018314376011687214
23,1790597880.399247,-0.04229604492187493,0.0015328124999999674,0.0219862792968757,0.04769382986837651,-0.017146374626911324,0.007751619204842635,0.002868366992897973,0.01903452895002186
24,1790597880.4235518,-0.04708608398437493,0.006322851562499968,0.0459364746093757,0.0660850774108863,-0.017955535985880837,0.008177566422146669,0.002959098139911636,0.019950692392258242
25,1790597880.4435518,-0.04708608398437493,-0.008047265625000032,0.007616162109375698,0.04837213778921918,-0.018662760174952,0.008472907615708519,0.003102888712763514,0.020729609238379316
26,1790597880.4687047,-0.03750600585937493,-0.008047265625000032,-0.025914111328124306,0.04629254935180384,-0.01957836333373422,0.008758265571661546,0.003222082346302405,0.021688737660311493
27,1790597880.4887047,-0.04229604492187493,0.011112890624999969,-0.04507426757812431,0.06280239925178673,-0.020316890584044577,0.00895572750935072,0.0031961587053734126,0.022432042454839343
28,1790597880.4985979,-0.03750600585937493,0.03027304687499997,-0.040284228515624305,0.06281701130839042,-0.020686624322960014,0.00906946034196836,0.003121923822501299,0.022802147818293757
29,1790597880.5185978,-0.032715966796874926,0.02548300781249997,0.007616162109375698,0.04216306554204102,-0.021427290637552294,0.009348527614210261,0.002945359960323605,0.02356265897380144
30,1790597880.5436683,-0.023135888671874924,0.03506308593749997,0.0698866699218757,0.08154039473087621,-0.022321483578774334,0.009759715926121501,0.0029029593744935795,0.024534218089151363
31,1790597880.5636683,-0.018345849609374926,0.03027304687499997,0.0603065917968757,0.06992790987253046,-0.02299004858695947,0.010136542331982088,0.003069497707006827,0.02531232191348992
32,1790597880.5883665,-0.018345849609374926,0.03506308593749997,0.017196240234375697,0.04314743180710379,-0.023759792438133736,0.010653114968701688,0.003387873022065575,0.02625822307112979
33,1790597880.6083665,-0.027925927734374925,0.006322851562499968,0.002826123046875697,0.02877191101027217,-0.02435902012826001,0.011070754383874367,0.0036370465001875113,0.02700280673340414
34,1790597880.618585,-0.018345849609374926,-0.012837304687500033,-0.001963916015624303,0.022477178551720815,-0.024654722315840982,0.011247139093386824,0.0037459212852366973,0.02735663350144544
35,1790597880.638585,-0.023135888671874924,-0.012837304687500033,-0.006753955078124303,0.027307172051943093,-0.025208883329888805,0.011502065773701182,0.003913971641926646,0.027984004177678
36,1790597880.6630175,-0.03750600585937493,-0.003257226562500033,-0.011543994140624304,0.03937732597728914,-0.025895434539269877,0.011737284125354606,0.0040549418420957216,0.02871898191022257
37,1790597880.6830175,-0.032715966796874926,0.02548300781249997,0.002826123046875697,0.04156567264104166,-0.026478467072241222,0.011934286784188643,0.004139951567629809,0.029337273535987335
38,1790597880.7086067,-0.056666162109374925,0.011112890624999969,0.012406201171875698,0.05906322115975576,-0.027284081620179375,0.012218770247112513,0.004261637073643708,0.03019736754678769
39,1790597880.7286067,-0.09019643554687493,0.04943320312499997,0.0411464355468757,0.11077936502242765,-0.028039578417319546,0.012498583448142812,0.0044228066736699476,0.031016024324594875
40,1790597880.7386453,-0.09019643554687493,0.06380332031249997,0.0555165527343757,0.12364606057521506,-0.028497721798071824,0.012703218709253734,0.004564345499790367,0.031532921892791485
41,1790597880.7586453,-0.09019643554687493,0.07817343749999997,0.0459364746093757,0.12789309213349165,-0.02954415797389072,0.013262725110312082,0.004956215124217941,0.032761581404069005
42,1790597880.7832575,-0.07103627929687492,0.09733359374999997,0.0890468261718757,0.14983096709264712,-0.030936371843968916,0.014171950345646781,0.005615285779278476,0.03448818223465478
43,1790597880.8032575,-0.051876123046874924,0.13565390624999998,0.1321571777343757,0.19636352525347894,-0.03208236192406341,0.015149445888558797,0.006402320816717119,0.03605236981388511
44,1790597880.8283992,-0.051876123046874924,0.19313437499999997,0.2998085449218757,0.36038477015155274,-0.033502517983105044,0.016813895905799302,0.008057813567223118,0.03834128540129369
45,1790597880.8483992,-0.056666162109374925,0.29372519531249996,0.5345204589843757,0.6125338075261152,-0.03462559307605027,0.018669629753372434,0.010428694465259286,0.04069698317131086
46,1790597880.8736703,-0.032715966796874926,0.31288535156249997,0.3572890136718757,0.476049385039478,-0.03600121436425805,0.021812468465349812,0.014665362980006556,0.04457515101027126
47,1790597880.8936703,0.019974462890625076,0.23624472656249998,-0.001963916015624303,0.23709577592710454,-0.03694571046221612,0.0247503582115388,0.018048367560280026,0.04799280492686753
48,1790597880.9030051,0.07266489257812508,0.05901328124999997,-0.2223057128906243,0.2412106630335623,-0.037255562160073544,0.026122618854321024,0.01923349178806484,0.04939934548182587
49,1790597880.923005,0.019974462890625076,-0.12779824218750005,-0.1600352050781243,0.2057732653635578,-0.03768088662458754,0.02851852045388046,0.020818258263144138,0.05163869772568231
50,1790597880.9634314,-0.03750600585937493,-0.15653847656250003,-0.07860454101562431,0.1791358953094237,-0.03846479910293683,0.031772860651997414,0.02281752486126136,0.05486068614987253
51,1790597880.9834313,-0.056666162109374925,-0.25233925781250005,-0.001963916015624303,0.2586310343475542,-0.03893570684175489,0.032528054570349546,0.023537400683114214,0.05592917693222547
52,1790597880.994037,-0.09019643554687493,-0.29065957031250006,0.1177870605468757,0.3263313874451584,-0.03926477968651932,0.03243653759082027,0.023954003391468512,0.05628184585805694
53,1790597881.014037,-0.08540639648437492,-0.28586953125000003,0.0411464355468757,0.3011788017370316,-0.04005566415809676,0.0314250495236092,0.024860188057985594,0.05665702885773254
54,1790597881.023076,-0.10456655273437493,-0.3481400390625001,-0.09776469726562431,0.37642208593629184,-0.04048828389032496,0.030606652676677212,0.02516992869656997,0.05665327555441712
55,1790597881.043076,-0.14288686523437494,-0.5014212890625,-0.1744053222656243,0.5497792118807167,-0.041673092973267024,0.027793150340002775,0.02534420426332673,0.05613763954355208
56,1790597881.0681503,-0.14288686523437494,-0.6403324218750001,-0.2175156738281243,0.6911984773722468,-0.043473109324904786,0.02264777786514914,0.024792887942649448,0.0549319612715679
57,1790597881.0881503,-0.13809682617187494,-0.6594925781250001,-0.2558359863281243,0.7207310496302962,-0.04511497018135486,0.017209552193169143,0.023709076433062647,0.05379265309001553
58,1790597881.1284318,-0.11893666992187493,-0.6738626953125001,-0.2654160644531243,0.7339499648175735,-0.048702309283993044,0.0038712704932861598,0.020278864649155817,0.052897391393949514
59,1790597881.1484318,-0.09498647460937493,-0.582851953125,-0.22709575195312431,0.6327015964698521,-0.05053715555853915,-0.0036429440819907115,0.018092448082476176,0.05380159673420103
60,1790597881.158136,-0.09498647460937493,-0.42478066406250004,-0.1217148925781243,0.45196853651045255,-0.05143215631568728,-0.0074753590607064095,0.016936847457775697,0.054662642619761254
61,1790597881.1781359,-0.08540639648437492,-0.266709375,0.0411464355468757,0.2830568360445479,-0.05327063707689259,-0.015226343522451807,0.01479157577041053,0.057344511728791535
62,1790597881.1881995,-0.09498647460937493,-0.10863808593750003,0.11299702148437571,0.1832839080203757,-0.05419312111155562,-0.018824784237658175,0.01399037477667295,0.05905080409103576
63,1790597881.2081995,-0.032715966796874926,-0.031997460937500034,0.10820698242187571,0.11748584184806772,-0.055942977632254594,-0.02511439118669825,0.012968754392262588,0.06267805023713066
64,1790597881.2336984,-0.013555810546874925,0.0015328124999999674,0.1800575683593757,0.1805736343911651,-0.05792779303001519,-0.0319887174185434,0.012412902895717044,0.06732746397800973
65,1790597881.2536983,-0.051876123046874924,0.05422324218749997,0.2087978027343757,0.2218734201349996,-0.05934920863285951,-0.03648816682666807,0.012625601620094323,0.07080339469253416
66,1790597881.2784028,-0.07582631835937492,0.07817343749999997,0.1561073730468757,0.19034239886609627,-0.06107822174680853,-0.040967011417497784,0.013525031401304477,0.07477814968719125
67,1790597881.2984028,-0.04229604492187493,0.03027304687499997,0.0698866699218757,0.08711807743458537,-0.06244519835332516,-0.043886388437823456,0.014482950626253328,0.07768638070050721
68,1790597881.3080962,-0.013555810546874925,-0.036787500000000035,0.0267763183593757,0.04747685099830662,-0.06304895515172779,-0.04509381794441867,0.014947858223341173,0.07894340775513853
69,1790597881.3280962,-0.003975732421874924,-0.10863808593750003,-0.021124072265624304,0.11074414925194608,-0.06413410408712054,-0.047429511932290475,0.015771678416944452,0.08131105551694928
70,1790597881.3536816,-0.008765771484374924,-0.17569863281250003,0.002826123046875697,0.17593986271841316,-0.0653385242657593,-0.05051491683158246,0.016632372871834687,0.08424675307141903
71,1790597881.3736815,-0.013555810546874925,-0.20922890625000004,0.0698866699218757,0.22100823931003857,-0.0661722721146838,-0.05314237546644168,0.017313322184144907,0.08661773947689945
72,1790597881.3829935,-0.027925927734374925,-0.20922890625000004,0.10341694335937571,0.23505670980466217,-0.06653120402627283,-0.05447445818478325,0.017703846596447595,0.08779119482056152
73,1790597881.4029934,-0.04229604492187493,-0.19964882812500004,0.10820698242187571,0.23099212331282465,-0.06729180887152132,-0.05751964626724735,0.018734229956740858,0.0904857371080253
74,1790597881.4281342,-0.032715966796874926,-0.16132851562500003,0.10341694335937571,0.19440238838814822,-0.06824594197318216,-0.06145402265837191,0.02023420650295983,0.09404003726874557
75,1790597881.4481342,-0.008765771484374924,-0.12779824218750005,0.0363563964843757,0.1331578650371818,-0.06895334174568767,-0.06454810644542817,0.021458138538640186,0.09685800479635844
76,1790597881.4734898,0.0056043457031250766,-0.10863808593750003,-0.0690244628906243,0.12883329881774724,-0.06972165696956192,-0.0683319550469704,0.022714939870587512,0.10023140238691093
77,1790597881.4934897,0.039134619140625077,-0.07031777343750004,-0.10734477539062431,0.1341603834228009,-0.07016967573595813,-0.07113732014705088,0.023293025416297183,0.1026005201918479
78,1790597881.518593,0.034344580078125075,-0.036787500000000035,-0.016334033203124303,0.05291191716119834,-0.07050932068103542,-0.07433199575592189,0.023676924337325163,0.10515420411013009
79,1790597881.538593,0.029554541015625078,-0.027207421875000033,0.0746767089843757,0.08479578742169704,-0.07064347975986648,-0.07659142342539685,0.024024414743740743,0.10692950892382497
80,1790597881.5488741,0.039134619140625077,0.011112890624999969,0.11299702148437571,0.12009721736020972,-0.07064913517219462,-0.07759108279097231,0.02432096121681857,0.10771808382887499
81,1790597881.5688741,0.07745493164062509,0.06859335937499997,0.1944276855468757,0.22024177690192334,-0.0704836023515832,-0.07912448052896252,0.025272443434374778,0.10893722052897231
82,1790597881.6079555,0.10619516601562508,0.03985312499999997,0.2040077636718757,0.23341990595438017,-0.06967036241009882,-0.08135352276202379,0.028020669941170355,0.1107136532144868
83,1790597881.6279554,0.14451547851562507,-0.003257226562500033,0.2087978027343757,0.2539524669740044,-0.06894054568784946,-0.08226823969670205,0.029835328315723393,0.1114047077920834
84,1790597881.638507,0.14451547851562507,0.05422324218749997,0.3908192871093757,0.42019590514497523,-0.06838454151213157,-0.08263810035291758,0.03112360092142382,0.11168786721071977
85,1790597881.6585069,0.14451547851562507,0.16439414062499996,0.7117519042968757,0.7446481922845588,-0.06705518878944958,-0.08290607596878802,0.03485305786736255,0.11218088704782513
86,1790597881.668545,0.17804575195312508,0.22666464843749998,0.6255312011718758,0.6887426488024239,-0.06624521512480026,-0.08272598742017333,0.037450910813825206,0.11240368429174745
87,1790597881.688545,0.2259461425781251,0.29372519531249996,0.2375380371093757,0.4401709540406725,-0.06426750534214644,-0.08164041630088564,0.04314508041348102,0.11250319009063911
88,1790597881.714249,0.2834266113281251,0.41347617187499996,0.0986269042968757,0.5109016098707595,-0.06112505613419217,-0.07909118199429645,0.05001354502632532,0.11177227850752322
89,1790597881.7342489,0.3121668457031251,0.4613765625,0.46266987304687573,0.7241407897679616,-0.058153321840814745,-0.07609289812728214,0.055398136816689134,0.1106385626682258
90,1790597881.7587402,0.2642664550781251,0.509276953125,0.6159511230468757,0.8417811831150358,-0.054001277573612755,-0.0711890961801749,0.06298412282526489,0.10932074424646321
91,1790597881.7787402,0.2163660644531251,0.5044869140625,0.2806483886718757,0.6165102094623887,-0.05039829969731022,-0.06626460968350611,0.06959462883727176,0.10850990494828078
92,1790597881.8033037,0.2115760253906251,0.63381796875,0.4147694824218757,0.7864625582816903,-0.04584858075878195,-0.05902662184613307,0.07777682414376327,0.1078678303204937
93,1790597881.8233037,0.2786365722656251,0.9355904296875001,0.7213319824218757,1.213790599894171,-0.041964485403722614,-0.05166323265820888,0.08514372224955946,0.10807201803614845
94,1790597881.8337636,0.3169568847656251,1.1271919921875,0.6542714355468757,1.341303308511734,-0.039770587094757906,-0.04677162887397215,0.08949779914010747,0.10853175072903473
95,1790597881.8537636,0.3888074707031251,1.1176119140625,0.1752675292968757,1.1962216962398056,-0.03514630174361636,-0.035454332457857875,0.09781858296741198,0.10982143411027788
96,1790597881.8786016,0.4414979003906251,0.9260103515625,-0.08339458007812431,1.029257122023764,-0.02871810532108287,-0.019700670033161248,0.10677327053614492,0.11230929291012876
97,1790597881.8986015,0.5516687988281251,0.7679390625,-0.11213481445312432,0.9521780736428884,-0.022828672188243963,-0.006377385770878477,0.112608880937825,0.11507640674446763
98,1790597881.938824,0.5947791503906251,0.67213828125,-0.14087504882812432,0.9085031019448554,-0.009302490591716513,0.020742407706268028,0.12182133799234925,0.12392425992882998
99,1790597881.958824,0.5708289550781251,0.59549765625,-0.23667583007812432,0.8581833155555965,-0.0018372449212050446,0.03410602954089073,0.12514865346125448,0.1297257961359643
100,1790597881.9687603,0.6283094238281252,0.44221640624999997,-0.34205668945312434,0.84102964325137,0.002208915426270321,0.04052274452407586,0.12612247471076785,0.1324909459483636
101,1790597881.9887602,0.7959607910156251,0.298515234375,-0.5528184082031243,1.0140380261294037,0.011267858683077035,0.05261214186879806,0.12644626551199525,0.13741783062344684
102,1790597882.0134718,0.8438611816406251,-0.003257226562500033,-0.48096782226562435,0.971309605357493,0.023821160863133947,0.06585618600966453,0.12487033590605938,0.1431680331984027
103,1790597882.0334718,0.8678113769531252,-0.37209023437500005,-0.3181064941406243,0.9963631216082621,0.03502452477672038,0.07440420853770538,0.12258758824159073,0.14761578633346517
104,1790597882.0286224,0.9252918457031252,-0.563691796875,-0.3660068847656243,1.143623400112423,0.03502452477672038,0.07440420853770538,0.12258758824159073,0.14761578633346517
105,1790597882.0486224,1.1312635253906251,-0.82235390625,-0.3995371582031243,1.454528463725921,0.04848998974759134,0.07730796729028783,0.11891774435841032,0.14989740103007107
106,1790597882.0739293,1.3180750488281252,-1.0043753906250001,-0.4761777832031243,1.7241917065258805,0.06762161129304851,0.07696392367660154,0.11330853360993604,0.15275782025938933
107,1790597882.0939293,1.4138758300781251,-1.2390873046875002,-0.5959287597656243,1.972184904676191,0.08457123584866809,0.07336762090934075,0.10793237763806504,0.15551366458762927
108,1790597882.1184385,1.3132850097656252,-1.4833792968750001,-0.5240781738281244,2.049338817168964,0.10723970849259877,0.06461715307377583,0.10027356492156311,0.1604073544792017
109,1790597882.1384385,1.2701746582031253,-1.6414505859375002,-0.5049180175781244,2.1360350869990437,0.12683812479506948,0.05386044236366573,0.09341779193829113,0.16648045231727726
110,1790597882.1782777,1.2366443847656252,-1.8617923828125,-0.5671885253906244,2.3059191300663144,0.1675118226189935,0.02517999959263415,0.07860640394424188,0.18674370093169818
111,1790597882.1982777,1.2031141113281252,-2.1012943359375003,-0.7300498535156243,2.5290105258258753,0.18852750388322345,0.006997021170254254,0.07034031771250934,0.20134383109892534
112,1790597882.1938193,1.2318543457031252,-2.115664453125,-0.8114805175781243,2.579147502112518,0.18852750388322345,0.006997021170254254,0.07034031771250934,0.20134383109892534
113,1790597882.2138193,1.1935340332031252,-2.3024759765625,-0.5719785644531243,2.6557632780907663,0.21045399451739513,-0.018144002392753832,0.060327434417345616,0.21968042237426433
114,1790597882.238183,1.097733251953125,-2.249785546875,-0.33247661132812434,2.525290873632473,0.23734480302732586,-0.05249480660459957,0.04830679361776791,0.2478342320063232
115,1790597882.258183,1.2845447753906252,-2.1875150390625,-0.4857578613281243,2.5828739856892042,0.25968146914619716,-0.08311926856729958,0.038691955649158935,0.27539125922412044
116,1790597882.2837667,1.2414344238281252,-2.3695365234375,-0.6486191894531244,2.752556923570623,0.28881515353396015,-0.12516154023353537,0.02606102373933313,0.3158461350449265
117,1790597882.3037667,1.1935340332031252,-2.3839066406250002,-0.5192881347656243,2.716099137833237,0.31182646441471923,-0.160228107148935,0.01591611463097224,0.3509446009484417
118,1790597882.313284,1.1600037597656252,-2.4988675781250005,-0.3564268066406243,2.777946717301598,0.3228140348032533,-0.17789714284599836,0.011187614725625558,0.36875663685142623
119,1790597882.333284,1.2462244628906252,-2.4797074218750006,-0.41390727539062433,2.8059478866561793,0.34604980363073584,-0.21692612401223732,0.0015858823882789492,0.4084237075572289
120,1790597882.3585079,1.222274267578125,-2.4413871093750004,-0.5049180175781244,2.776556789889428,0.37562890748756605,-0.26807567894136286,-0.010445596105175384,0.4615958798106495
121,1790597882.3785079,1.1647937988281252,-2.5228177734375006,-0.6246689941406244,2.848081014297392,0.39914468203011755,-0.3099948076004511,-0.020248727751902798,0.5057897477289699
122,1790597882.4039412,1.059412939453125,-2.5371878906250003,-0.5911387207031243,2.8123163327992415,0.4288059366283029,-0.364957828562434,-0.033164243506520454,0.5640643712946625
123,1790597882.4239411,1.0881531738281252,-2.4413871093750004,-0.4761777832031243,2.714994222599909,0.4518532907199186,-0.4091637554657595,-0.043398132708414805,0.6111217334081978
124,1790597882.433826,1.222274267578125,-2.4844974609375003,-0.44264750976562434,2.8040361688983677,0.46324848361378085,-0.43138679076698394,-0.04837863219389594,0.6348497561405039
125,1790597882.453826,1.308494970703125,-2.6521488281250005,-0.44264750976562434,2.990315921902215,0.48664213936056455,-0.4773110318777931,-0.05827205953644034,0.684135970313131
126,1790597882.4787066,1.2701746582031253,-2.6617289062500005,-0.0594443847656243,2.9498606861322134,0.5161911812459075,-0.5357885887999678,-0.06967057977116589,0.7472461021443717
127,1790597882.4987066,1.3707654785156251,-2.173144921875,0.1656874511718757,2.5746862294340067,0.5403423045915031,-0.582996344478372,-0.07729938313354313,0.7986424346597341
128,1790597882.568827,1.3611854003906252,-1.943223046875,0.10341694335937571,2.3747919000023012,0.6266828776152893,-0.7453290651671521,-0.09861888344434769,0.978760710618755
129,1790597882.588827,1.255804541015625,-2.0486039062500003,-0.08818461914062431,2.4044956928618526,0.6515407794496888,-0.7906727675190538,-0.10376473763331318,1.0297747002904365
130,1790597882.5988865,1.1121033691406252,-2.0486039062500003,-0.1648252441406243,2.3368181849392364,0.6639548723739271,-0.8131499245522349,-0.10615564939924367,1.0551388033087203
131,1790597882.6188865,1.0881531738281252,-1.943223046875,-0.2893662597656243,2.2458686452927576,0.6882341678224694,-0.8571224191998171,-0.11087740292494455,1.1048162334671836
132,1790597882.5988865,0.9205018066406251,-1.7995218750000002,-0.31331645507812433,2.0454265461401673,0.6882341678224694,-0.8571224191998171,-0.11087740292494455,1.1048162334671836
133,1790597882.6188865,0.8582312988281251,-1.5456498046875,-0.14087504882812432,1.7735388522389475,0.7110050885554504,-0.8986822945413772,-0.11573857618199958,1.1517610518204437
134,1790597882.6588671,0.9252918457031252,-1.330098046875,0.0267763183593757,1.620506953163197,0.7550449455035118,-0.9779230421886037,-0.1243407114834515,1.2417274091788526
135,1790597882.678867,0.9492420410156251,-1.2726175781250002,0.0459364746093757,1.5883091992064355,0.776582723722256,-1.0155206968511867,-0.12788931581884816,1.2848029769647993
136,1790597882.6733956,0.9013416503906251,-1.2295072265625,0.0890468261718757,1.527099907717105,0.776582723722256,-1.0155206968511867,-0.12788931581884816,1.2848029769647993
137,1790597882.6933956,0.8055408691406252,-1.2247171875,0.1656874511718757,1.4752222248493876,0.7970635817792345,-1.0495565415387564,-0.12989897785519172,1.3242934084761433
138,1790597882.7188365,0.7720105957031251,-1.2390873046875002,0.0890468261718757,1.4626233437788803,0.8222183956696985,-1.0910585901529224,-0.13158585527169245,1.3725038341045603
139,1790597882.7388365,0.7624305175781251,-1.2103470703125,-0.0642344238281243,1.431910048136066,0.8413288512902278,-1.1224649837299612,-0.13267583163105645,1.4090297200599526
140,1790597882.7938378,0.8486512207031252,-1.310937890625,-0.09776469726562431,1.5647124283741942,0.8926464706151653,-1.2062797175148943,-0.13589197378534135,1.506783032466453
141,1790597882.8138378,0.9348719238281251,-1.387578515625,-0.08818461914062431,1.6754510371954041,0.9111831842237826,-1.2362332428828984,-0.13716495409600274,1.5418630453620443
142,1790597882.7948387,0.9923523925781251,-1.3588382812500002,-0.14087504882812432,1.6885054116076472,0.9111831842237826,-1.2362332428828984,-0.13716495409600274,1.5418630453620443
143,1790597882.8148386,1.0019324707031252,-1.3636283203125001,-0.15045512695312432,1.6988194774707641,0.9300245929081221,-1.2654600390456574,-0.13881372801551486,1.5765798758454708
144,1790597882.8388798,0.9684021972656252,-1.4115287109375,-0.09776469726562431,1.7145769313452257,0.952828507254186,-1.30032639858699,-0.14094592656346255,1.6182078547928522
145,1790597882.8588798,1.016302587890625,-1.310937890625,-0.0642344238281243,1.659986495256524,0.9719306536730744,-1.3290647766628412,-0.14269664414426886,1.6527022443154282
146,1790597882.883975,1.0402527832031252,-1.2055570312500001,-0.011543994140624304,1.592365181847079,0.9961747396368289,-1.3644520382087018,-0.14470649430213356,1.6955923584268708
147,1790597882.903975,1.0498328613281251,-1.186396875,-0.001963916015624303,1.5842002520831389,1.0157332714988885,-1.3920119717716588,-0.14608826699094582,1.7293794234169302
148,1790597882.9590964,1.0115125488281251,-1.1720267578125,-0.021124072265624304,1.5483057139642462,1.0700741355399397,-1.4663255738666185,-0.14942074248090118,1.821399435162524
149,1790597882.9790964,0.9827723144531251,-1.2103470703125,-0.10734477539062431,1.5627873666859697,1.08982481214384,-1.492818170464176,-0.15064121349326134,1.8544317152257423
150,1790597882.9590964,1.0019324707031252,-1.2821976562500002,-0.1887754394531243,1.6381500761783037,1.08982481214384,-1.492818170464176,-0.15064121349326134,1.8544317152257423
151,1790597882.9790964,1.0067225097656252,-1.2726175781250002,-0.1983555175781243,1.6347448189779425,1.1096381517752598,-1.518969282198377,-0.1524812525953061,1.887277149898896
152,1790597883.004084,0.9588221191406251,-1.253457421875,-0.11213481445312432,1.5821092191183508,1.1343630683677557,-1.5514752516080836,-0.15501721682613406,1.928181880617489
153,1790597883.024084,0.9300818847656251,-1.2486673828125001,-0.09297465820312431,1.5597649926629924,1.1540176265670985,-1.5773433560172143,-0.15705018378873817,1.9607226997786515
154,1790597883.0938828,0.9540320800781251,-1.291777734375,-0.05465434570312431,1.6068148687230397,1.2221850038351356,-1.6673787244811804,-0.16385369793090032,2.073821600036418
155,1790597883.1138828,0.9013416503906251,-1.2630375,-0.030704150390624303,1.5519739823806185,1.2415707230899466,-1.6931397135490458,-0.16563878098388932,2.1060997497262246
156,1790597883.094392,0.8965516113281251,-1.2678275390625,-0.0738145019531243,1.5545546118676308,1.2415707230899466,-1.6931397135490458,-0.16563878098388932,2.1060997497262246
157,1790597883.114392,0.9061316894531252,-1.2630375,-0.13608500976562432,1.5604029911918058,1.2605732393465308,-1.7187751719361788,-0.16737661361163875,2.138047687542293
158,1790597883.123947,0.8917615722656251,-1.3061478515625,-0.1600352050781243,1.589613845805135,1.2695782171466077,-1.7310263878328584,-0.1682945203773687,2.1532775600037914
159,1790597883.143947,0.9348719238281251,-1.2869876953125001,-0.1648252441406243,1.5992154960961005,1.2883397944956807,-1.7567134143276448,-0.1704149475738921,2.1851550747067074
160,1790597883.16847,1.025882666015625,-1.2247171875,-0.15045512695312432,1.6046819557207335,1.3114999325515442,-1.7881047810119275,-0.1732047910094417,2.2242640761809382
161,1790597883.18847,1.0354627441406252,-1.2295072265625,-0.1217148925781243,1.6120439292239988,1.3306471470706067,-1.8135474114362249,-0.17554703638866856,2.256189886848849
162,1790597883.1990206,1.0402527832031252,-1.2678275390625,-0.07860454101562431,1.6418560215912357,1.3408754123227418,-1.8269322133164425,-0.17675582889532065,2.2730751871580206
163,1790597883.2190206,1.021092626953125,-1.2821976562500002,-0.0594443847656243,1.6401812757714285,1.3604478247526492,-1.8523236467327016,-0.17891058140726004,2.305196341368525
164,1790597883.2586727,1.0115125488281251,-1.2726175781250002,-0.09297465820312431,1.6282989355942905,1.3994763533212302,-1.9027114887705099,-0.18299508558576327,2.3690361488067504
165,1790597883.2786727,0.9779822753906251,-1.3013578125,-0.15045512695312432,1.6348144336160881,1.4191932298197771,-1.9281751451349327,-0.1851113726995983,2.4012986141221875
166,1790597883.2886376,0.9300818847656251,-1.2965677734375,-0.14566508789062432,1.602297919026308,1.4289695649053409,-1.9409008839417894,-0.18622895404598339,2.4173811205593623
167,1790597883.3086376,0.9109217285156251,-1.2678275390625,-0.08818461914062431,1.5636308999697295,1.4484092904460037,-1.9664573169286004,-0.18848629862561428,2.449565458754248
168,1790597883.3189666,0.9540320800781251,-1.2486673828125001,-0.0738145019531243,1.5731484429056912,1.458387738820634,-1.9796256305046163,-0.18960273188247267,2.4661227928938287
169,1790597883.3389666,0.9731922363281251,-1.2726175781250002,-0.10734477539062431,1.6056716755942797,1.4777015880797508,-2.0050806051377634,-0.19171195068053537,2.498140045823447
170,1790597883.3788207,0.9588221191406251,-1.2869876953125001,-0.1600352050781243,1.6128510318388047,1.51619025607357,-2.055847006443383,-0.1960837559222589,2.561989197059823
171,1790597883.3988206,0.9588221191406251,-1.310937890625,-0.1600352050781243,1.632026126045181,1.5354842917315108,-2.0813986038896957,-0.19842868081121023,2.5940906113311986
172,1790597883.4239206,0.9923523925781251,-1.291777734375,-0.10734477539062431,1.6324753863033286,1.5597393029124635,-2.113555399338435,-0.20143347376763096,2.634478803003851
173,1790597883.4439206,0.9923523925781251,-1.2582474609375,-0.040284228515624305,1.6029886971149527,1.5791440431438577,-2.1391599218956667,-0.20369003444455372,2.6666815915240853
174,1790597883.438941,1.030672705078125,-1.2247171875,-0.040284228515624305,1.6011999354915265,1.5791440431438577,-2.1391599218956667,-0.20369003444455372,2.6666815915240853
175,1790597883.458941,1.0498328613281251,-1.2295072265625,-0.09297465820312431,1.6194077139379683,1.5988640778741074,-2.164506299461199,-0.20562301235782904,2.6988395067388766
176,1790597883.483343,1.068993017578125,-1.2774076171875002,-0.10734477539062431,1.6691432511570408,1.6231931222201883,-2.1953805801732367,-0.20799428186898966,2.7381952861538013
177,1790597883.5033429,1.0546229003906251,-1.3013578125,-0.11213481445312432,1.6787899912721533,1.6433277685711414,-2.220757795797448,-0.20997548451638529,2.770628276519612
178,1790597883.5284638,1.030672705078125,-1.3013578125,-0.14087504882812432,1.6660324608272707,1.66875321982344,-2.252755293366219,-0.21256738951403964,2.811552705453951
179,1790597883.5484638,1.0354627441406252,-1.310937890625,-0.1983555175781243,1.682285992015996,1.6890584513915905,-2.2783272307296225,-0.21483024105915924,2.8442653629672114
180,1790597883.5745459,1.030672705078125,-1.3205179687500002,-0.1791953613281243,1.6846854033635488,1.715608227907397,-2.3118209390578506,-0.2180771314380649,2.887106731866028
181,1790597883.5945458,1.0115125488281251,-1.2678275390625,-0.1169248535156243,1.6261044636220934,1.7359763528603436,-2.337534281382995,-0.2206375984896043,2.919993384273032
182,1790597883.603191,1.016302587890625,-1.2438773437500001,-0.0594443847656243,1.6073691023930694,1.7447747070467088,-2.348610294330286,-0.22169270743170763,2.9341705385871015
183,1790597883.6231909,1.0019324707031252,-1.2295072265625,-0.04986430664062431,1.586834315577852,1.7651034888596204,-2.374100678148983,-0.22393147832154198,2.9668315866181443
184,1790597883.6484725,0.9875623535156252,-1.2678275390625,-0.1217148925781243,1.6116701231833703,1.7907185247556217,-2.406224638419894,-0.22666231036099027,3.007983651614497
185,1790597883.6684725,0.9923523925781251,-1.2630375,-0.14566508789062432,1.612837659311055,1.8109125423840833,-2.431621833456641,-0.22889965518748337,3.0404907546729967
186,1790597883.7386537,1.0067225097656252,-1.2821976562500002,-0.1552451660156243,1.637565907966153,1.8816675578678472,-2.5207711318611246,-0.23715685233082615,3.154552784494853
187,1790597883.7586536,0.9684021972656252,-1.2726175781250002,-0.1552451660156243,1.6066920605370683,1.9017692379092628,-2.546197996201423,-0.23962272922969755,3.1870471478284736
188,1790597883.7396553,0.9827723144531251,-1.291777734375,-0.14566508789062432,1.629647033842833,1.9017692379092628,-2.546197996201423,-0.23962272922969755,3.1870471478284736
189,1790597883.7596552,1.016302587890625,-1.3157279296875002,-0.11213481445312432,1.6663088404390627,1.921779056362942,-2.5717497613586158,-0.24217468498170527,3.2195931660023946
190,1790597883.7684855,1.016302587890625,-1.310937890625,-0.0738145019531243,1.660384799956954,1.9306346507208862,-2.5830786149339757,-0.24325555383711275,3.234009670666738
191,1790597883.7884855,0.9923523925781251,-1.2965677734375,-0.08339458007812431,1.6348718353921854,1.9506962932785745,-2.608800015753119,-0.24557224041841152,3.266704650878062
192,1790597883.8137279,0.9444520019531252,-1.3013578125,-0.10734477539062431,1.611534871155978,1.975885132201553,-2.6413122611640243,-0.24841868467293884,3.3079244791145386
193,1790597883.8337278,0.9540320800781251,-1.3205179687500002,-0.13129497070312432,1.6343755030413771,1.995696815604726,-2.6671411351402687,-0.250693642451987,3.3405530854842
194,1790597883.8437808,0.9779822753906251,-1.2821976562500002,-0.1169248535156243,1.6168338139836351,2.0056180259080394,-2.6801388749303405,-0.25185276702463083,3.3569447226634663
195,1790597883.8637807,0.9779822753906251,-1.2247171875,-0.05465434570312431,1.5682374239382157,2.025329227148993,-2.7058790643147743,-0.254070272547435,3.3894382561765695
196,1790597883.8895195,0.9827723144531251,-1.2295072265625,-0.0642344238281243,1.5753271099773196,2.0506762887080265,-2.7387738107523605,-0.25672549735171557,3.4310440405979663
197,1790597883.9095194,0.9540320800781251,-1.2438773437500001,-0.09297465820312431,1.5703669453922984,2.0703227951436927,-2.7642103040436306,-0.25871504152669045,3.463239603865827
198,1790597883.9335935,0.9636121582031252,-1.253457421875,-0.14087504882812432,1.587308942604663,2.0938865176562804,-2.7947447110097983,-0.2611728709045805,3.5018809255936336
199,1790597883.9535935,1.0115125488281251,-1.253457421875,-0.1744053222656243,1.6201019601632698,2.113488796863236,-2.820067044881771,-0.26338139476874717,3.5339754938602708
200,1790597883.964124,0.9971424316406251,-1.2342972656250002,-0.1217148925781243,1.5914136118504314,2.1238481146357415,-2.8333647332023677,-0.26460368105599114,3.550873362065324
201,1790597883.984124,0.9731922363281251,-1.2390873046875002,-0.08339458007812431,1.5777817128720557,2.143527293203838,-2.858542076943747,-0.26688455637728736,3.58290377051915
202,1790597884.0089962,0.9588221191406251,-1.2678275390625,-0.08339458007812431,1.5917541207564065,2.1679336624508965,-2.889832845452175,-0.2696067424063765,3.6226727750368166
203,1790597884.0289962,0.9636121582031252,-1.3013578125,-0.09776469726562431,1.6222325615099424,2.1874988335863166,-2.9150735640349525,-0.2717390694592727,3.6546746985945995
204,1790597884.053568,0.9636121582031252,-1.2582474609375,-0.1217148925781243,1.5895123715994963,2.2114823040201026,-2.9461493869904736,-0.2743703242728795,3.694012624003877
205,1790597884.0735679,0.9827723144531251,-1.2247171875,-0.1217148925781243,1.574988294079917,2.2309949227501416,-2.971373743198597,-0.2765559111082802,3.7259741597434464
206,1790597884.0987036,0.9923523925781251,-1.2438773437500001,-0.12650493164062432,1.5962448480980242,2.2555631491225854,-3.002973931225562,-0.2793586487936881,3.7660933081850128
207,1790597884.1187036,0.9684021972656252,-1.2678275390625,-0.1217148925781243,1.6000012498587213,2.2751204268347642,-3.028113537342821,-0.2816265446375717,3.7980202819737747
208,1790597884.1292806,0.9588221191406251,-1.2342972656250002,-0.10734477539062431,1.5666373214264797,2.2854406547713877,-3.0413991938233926,-0.2828277189737242,3.81488395122202
209,1790597884.1492805,0.9540320800781251,-1.253457421875,-0.14566508789062432,1.5819453328424151,2.3048972751409442,-3.066484393799157,-0.285137838952057,3.8467104873603604
210,1790597884.1885848,0.9636121582031252,-1.2103470703125,-0.1648252441406243,1.5558456810226886,2.3430511145527575,-3.1156503771681163,-0.2899120077960278,3.9091194367042648
211,1790597884.2085848,0.9684021972656252,-1.2630375,-0.1217148925781243,1.5962083376396847,2.362451535611275,-3.140625855199583,-0.2924067540713563,3.940838708991619
212,1790597884.2036147,0.9540320800781251,-1.2869876953125001,-0.0738145019531243,1.6037341171162265,2.362451535611275,-3.140625855199583,-0.2924067540713563,3.940838708991619
213,1790597884.2236147,0.9396619628906251,-1.2295072265625,-0.040284228515624305,1.5479907763743206,2.3817599795476143,-3.1656966558836146,-0.2946296559280411,3.972558690743238
214,1790597884.2485898,0.9300818847656251,-1.1528666015625,-0.035494189453124304,1.4816927990823132,2.4057570285098056,-3.1967703296536474,-0.2971310781681658,4.011894103586434
215,1790597884.2685897,0.9492420410156251,-1.1672367187500001,-0.05465434570312431,1.5054863358841932,2.4249102835863634,-3.2214016585434426,-0.29896896482416496,4.04314246237223
216,1790597884.293391,0.9348719238281251,-1.2103470703125,-0.12650493164062432,1.5345778058819797,2.448603483898922,-3.251786946473193,-0.3012431704761194,4.081730615115836
217,1790597884.313391,0.9540320800781251,-1.2438773437500001,-0.1744053222656243,1.5772841445178247,2.467677307009712,-3.276295831146436,-0.30325338639381805,4.112846736881589
218,1790597884.339001,0.9827723144531251,-1.2438773437500001,-0.1600352050781243,1.5933246797857947,2.4921578411802976,-3.3077502574708846,-0.30608373107828085,4.1528002265442465
219,1790597884.359001,0.9779822753906251,-1.2247171875,-0.1169248535156243,1.5716402074602778,2.5113492307057266,-3.3323326991144397,-0.3083779630362196,4.18406657980486
220,1790597884.3689413,0.9923523925781251,-1.186396875,-0.10255473632812431,1.550102670795914,2.520925897138901,-3.3445155198787546,-0.3095108282555381,4.199600980376928
221,1790597884.3889413,1.016302587890625,-1.215137109375,-0.09776469726562431,1.5871317150018935,2.5403168299741843,-3.368952799005294,-0.31174872591915814,4.230867502851858
222,1790597884.4288626,0.9684021972656252,-1.2295072265625,-0.0738145019531243,1.5668246285200171,2.5791589731446427,-3.4177339600758794,-0.3160593934538897,4.293350669442099
223,1790597884.4488626,0.9348719238281251,-1.2103470703125,-0.0690244628906243,1.5309114674119766,2.5985543267649227,-3.442166590755669,-0.3181092960291628,4.324602750760279
224,1790597884.4734378,0.9396619628906251,-1.2342972656250002,-0.09776469726562431,1.5543526885698284,2.6222668062639793,-3.4721910411150607,-0.32055772972234914,4.362929186603689
225,1790597884.4934378,0.9731922363281251,-1.2199271484375,-0.14566508789062432,1.5673364967914103,2.6415392562433553,-3.496641868447299,-0.3226165846388837,4.394122831594194
226,1790597884.488456,0.9684021972656252,-1.2199271484375,-0.13129497070312432,1.5630941854205955,2.6415392562433553,-3.496641868447299,-0.3226165846388837,4.394122831594194
227,1790597884.508456,0.9588221191406251,-1.2055570312500001,-0.10255473632812431,1.54376976447039,2.6608299656131273,-3.521056625256501,-0.3248080052800438,4.425308588614071
228,1790597884.5340612,0.9731922363281251,-1.2055570312500001,-0.11213481445312432,1.5533979210292796,2.68553276338292,-3.5522555830957225,-0.3276050453703075,4.465191039204249
229,1790597884.5540612,0.9971424316406251,-1.215137109375,-0.13129497070312432,1.577367931996319,2.704889116039966,-3.576600450136408,-0.3298272200292485,4.49636318651637
230,1790597884.5940418,0.9923523925781251,-1.1816068359375,-0.14087504882812432,1.5494527308608308,2.743744625910566,-3.625153496443795,-0.33441920815541054,4.558695937631185
231,1790597884.6140418,0.9636121582031252,-1.186396875,-0.13608500976562432,1.5344722435839497,2.763200138215207,-3.6493505106756294,-0.33678718548215286,4.589821321348578
232,1790597884.6240768,0.9540320800781251,-1.2295072265625,-0.09776469726562431,1.5593021407087992,2.7729409828077385,-3.6614885604056826,-0.33797310480127013,4.605423540966177
233,1790597884.6440768,0.9588221191406251,-1.2199271484375,-0.08818461914062431,1.5541359756151154,2.7923118630823884,-3.685725326038649,-0.3402610502205671,4.6365239460193175
234,1790597884.684033,0.9779822753906251,-1.1624466796875002,-0.10734477539062431,1.5229098840372604,2.831010279015095,-3.734021915977168,-0.3447322360056835,4.698550753522666
235,1790597884.704033,0.9875623535156252,-1.1816068359375,-0.10734477539062431,1.543695895446773,2.8504234773931545,-3.758086579801277,-0.3469566103304579,4.729535667611414
236,1790597884.698556,0.9636121582031252,-1.1911869140625,-0.1169248535156243,1.5366021206025575,2.8504234773931545,-3.758086579801277,-0.3469566103304579,4.729535667611414
237,1790597884.718556,0.9157117675781251,-1.1720267578125,-0.08818461914062431,1.4899500962658152,2.8697562415515203,-3.7820434256874913,-0.3491573281998385,4.760384879350149
238,1790597884.728605,0.9396619628906251,-1.1816068359375,-0.09297465820312431,1.5125487120439065,2.8794113840569864,-3.794048984949732,-0.35023376361818315,4.775822579201746
239,1790597884.748605,0.9731922363281251,-1.176816796875,-0.1217148925781243,1.5319319232040884,2.898614183974208,-3.817896318148155,-0.3523767941562021,4.806502459036665
240,1790597884.7741961,0.9588221191406251,-1.176816796875,-0.12650493164062432,1.5232337730269288,2.9232077983456453,-3.8483506682802013,-0.35518402322094866,4.845730325628211
241,1790597884.7941961,0.9444520019531252,-1.1720267578125,-0.11213481445312432,1.5093742152409333,2.942400045698842,-3.8721045084582117,-0.3574068020364909,4.876335814471037
242,1790597884.8333724,0.9396619628906251,-1.215137109375,-0.11213481445312432,1.540161360278893,2.979890903777091,-3.9186684480867218,-0.3617666619754758,4.936252356004576
243,1790597884.8533723,0.9252918457031252,-1.1720267578125,-0.09297465820312431,1.496147054209968,2.998956973549045,-3.942454971029279,-0.3639662270894362,4.9668063725349345
244,1790597884.848899,0.9636121582031252,-1.1624466796875002,-0.09776469726562431,1.5130725728083294,2.998956973549045,-3.942454971029279,-0.3639662270894362,4.9668063725349345
245,1790597884.8688989,0.9444520019531252,-1.1816068359375,-0.1169248535156243,1.5171867782501753,3.018002652778205,-3.9661332615697638,-0.36612063934962463,4.997258987011187
246,1790597884.8934772,0.9109217285156251,-1.1241263671875001,-0.08818461914062431,1.449556832946207,3.041317540629397,-3.9951174645921723,-0.36874918928715267,5.034535917383981
247,1790597884.9134772,0.9300818847656251,-1.1337064453125,-0.0594443847656243,1.467609025385319,3.060205145909144,-4.01855158252693,-0.3707887097680502,5.064691167659679
248,1790597884.9391084,0.9396619628906251,-1.1816068359375,-0.09297465820312431,1.5125487120439065,3.0843741983819073,-4.048529807697704,-0.37330341475202244,5.1032649587226375
249,1790597884.9591084,0.9300818847656251,-1.1816068359375,-0.14566508789062432,1.51078302377727,3.1032090274255943,-4.071957796651098,-0.3753292616716882,5.133382765805642
250,1790597884.984132,0.9013416503906251,-1.176816796875,-0.10734477539062431,1.4862158137160613,3.1266771971338017,-4.101299891527943,-0.3779586097061446,5.171037014562418
251,1790597885.004132,0.9444520019531252,-1.1432865234375,-0.040284228515624305,1.4834812023528205,3.145389111736385,-4.124713752472451,-0.3799663146683176,5.201068217621049
252,1790597885.0136814,0.9300818847656251,-1.1624466796875002,-0.016334033203124303,1.4888255089587739,3.1543258713802347,-4.1358676188198285,-0.3808216899327639,5.215380889521332
253,1790597885.0336814,0.9300818847656251,-1.138496484375,-0.0690244628906243,1.4717305914401426,3.1730255011001676,-4.159175351837168,-0.3824724826048155,5.245294618790416
254,1790597885.0587637,0.9061316894531252,-1.1528666015625,-0.0738145019531243,1.468204556704559,3.1964135642125546,-4.188331873573666,-0.38450093431532056,5.282709960348424
255,1790597885.0787637,0.8965516113281251,-1.176816796875,-0.0690244628906243,1.481035766502461,3.214969239132032,-4.211587717592133,-0.3860900097703036,5.312491299492409
256,1790597885.104337,0.9061316894531252,-1.1145462890625002,-0.10734477539062431,1.4404204142880745,3.2385942758537825,-4.241258485292852,-0.3881553943222825,5.350460824340553
257,1790597885.124337,0.9252918457031252,-1.10975625,-0.10734477539062431,1.4488777846811034,3.2570463026825176,-4.264318768371321,-0.3898504059219189,5.380032389781612
258,1790597885.149236,0.9157117675781251,-1.1528666015625,-0.08339458007812431,1.4746471097404048,3.2800103360891226,-4.29294664139974,-0.39200027356926376,5.4167815984434124
259,1790597885.169236,0.9205018066406251,-1.1528666015625,-0.09776469726562431,1.4785069878287225,3.298443520575881,-4.315951133814783,-0.39373985055316224,5.446301030774902
260,1790597885.1787853,0.9300818847656251,-1.138496484375,-0.10734477539062431,1.4740249177361542,3.3072500046658027,-4.326928566422486,-0.3945927562609814,5.460395302135051
261,1790597885.1987853,0.9252918457031252,-1.1480765625,-0.07860454101562431,1.476625703065875,3.325710530355409,-4.349900653640121,-0.39639003866869177,5.4899099529055455
262,1790597885.238885,0.9157117675781251,-1.1337064453125,-0.0594443847656243,1.4585444732007051,3.362708379782131,-4.395912897922814,-0.39986820938795786,5.549031666737923
263,1790597885.258885,0.9109217285156251,-1.1049662109375,-0.09297465820312431,1.4350515704543367,3.3811333345923855,-4.418777507279946,-0.4015713864864572,5.578433190742688
264,1790597885.2539172,0.9205018066406251,-1.176816796875,-0.14566508789062432,1.5011461178932495,3.3811333345923855,-4.418777507279946,-0.4015713864864572,5.578433190742688
265,1790597885.2739172,0.9300818847656251,-1.1337064453125,-0.14087504882812432,1.473155930611084,3.3995563001130553,-4.441672239658986,-0.40353600712140125,5.607876303132865
266,1790597885.3135183,0.9157117675781251,-1.1289164062500001,-0.09297465820312431,1.456579754304397,3.436045189900784,-4.486925343661213,-0.4075371103160356,5.666126726690319
267,1790597885.3335183,0.9205018066406251,-1.1289164062500001,-0.07860454101562431,1.4587510076079973,3.454463484886445,-4.509738375178504,-0.40951207537028367,5.695503342185441
268,1790597885.373684,0.9300818847656251,-1.1337064453125,-0.10255473632812431,1.4699864252623605,3.491479037473022,-4.555497165848613,-0.41342915293305954,5.754468173659772
269,1790597885.393684,0.9348719238281251,-1.0953861328125,-0.09776469726562431,1.4434036961125818,3.5099431756015687,-4.578208058182841,-0.4153875219069206,5.783790877384684
